#time,accel_x,accel_y,accel_z
4153.655747,-740.205942,-9116.536426,-666.185348
4153.656071,-444.123565,-8810.098227,-962.267725
4153.656395,74.020594,-9039.926876,-1184.329507
4153.656720,296.082377,-8810.098227,-1184.329507
4153.657044,296.082377,-8503.660028,-370.102971
4153.657369,740.205942,-8656.879127,-1258.350101
4153.657693,740.205942,-8197.221829,-1184.329507
4153.658017,592.164754,-8503.660028,-1258.350101
4153.658342,296.082377,-9499.584175,-1110.308913
4153.658666,-444.123565,-9193.145976,-814.226536
4153.658990,-1110.308913,-9116.536426,-1184.329507
4153.659315,-1850.514855,-9652.803275,-1110.308913
4153.659639,-2590.720797,-9652.803275,-666.185348
4153.659964,-2812.782580,-9806.022374,-296.082377
4153.660288,-2664.741391,-9039.926876,0.000000
4153.660612,-3330.926739,-9116.536426,148.041188
4153.660937,-3182.885551,-8886.707777,-370.102971
4153.661261,-3330.926739,-9116.536426,222.061783
4153.661585,-2664.741391,-8580.269578,0.000000
4153.661910,-2664.741391,-8810.098227,0.000000
4153.662234,-3330.926739,-8733.488677,0.000000
4153.662559,-3552.988522,-9806.022374,0.000000
4153.662883,-4145.153275,-8810.098227,-740.205942
4153.663207,-4367.215058,-9269.755526,0.000000
4153.663532,-4811.338623,-9269.755526,0.000000
4153.663856,-4441.235652,-9193.145976,518.144159
4153.664180,-3775.050304,-8580.269578,0.000000
4153.664505,-3256.906145,-8427.050478,0.000000
4153.664829,-2368.659014,-7890.783629,74.020594
4153.665154,-1702.473667,-8044.002729,222.061783
4153.665478,-1184.329507,-7584.345430,-592.164754
4153.665802,-1702.473667,-7584.345430,-148.041188
4153.666127,-1702.473667,-7814.174080,0.000000
4153.666451,-2072.576638,-7660.954980,-296.082377
4153.666775,-2590.720797,-8120.612279,0.000000
4153.667098,-2516.700203,-8273.831378,444.123565
4153.667422,-2738.761985,-8350.440928,222.061783
4153.667746,-2146.597232,-9039.926876,444.123565
4153.668071,-1480.411884,-8197.221829,74.020594
4153.668395,-1406.391290,-7890.783629,148.041188
4153.668719,-370.102971,-8044.002729,74.020594
4153.669044,-592.164754,-8350.440928,0.000000
4153.669368,-666.185348,-8427.050478,74.020594
4153.669692,-1406.391290,-8810.098227,0.000000
4153.670016,-2146.597232,-8503.660028,0.000000
4153.670341,-2442.679609,-8963.317327,-148.041188
4153.670665,-2368.659014,-8733.488677,148.041188
4153.670989,-1850.514855,-8503.660028,-444.123565
4153.671313,-1702.473667,-9193.145976,-592.164754
4153.671638,-1110.308913,-8733.488677,-592.164754
4153.671962,-666.185348,-8810.098227,-592.164754
4153.672286,-592.164754,-8963.317327,-666.185348
4153.672611,-814.226536,-9039.926876,-296.082377
4153.672935,-814.226536,-8580.269578,-962.267725
4153.673259,-1184.329507,-8427.050478,-1406.391290
4153.673583,-2220.617826,-8580.269578,-1036.288319
4153.673908,-2294.638420,-8963.317327,-1332.370696
4153.674232,-1554.432478,-8120.612279,-888.247130
4153.674556,-3330.926739,-8350.440928,-1776.494261
4153.674880,-666.185348,-9499.584175,-1184.329507
4153.675205,-592.164754,-8044.002729,-1702.473667
4153.675529,370.102971,-9039.926876,-1776.494261
4153.675853,222.061783,-8580.269578,-1332.370696
4153.676177,740.205942,-9422.974625,-1554.432478
4153.676502,740.205942,-9499.584175,-1184.329507
4153.676826,0.000000,-8810.098227,-1702.473667
4153.677150,0.000000,-9729.412825,-666.185348
4153.677475,-666.185348,-8810.098227,-1184.329507
4153.677799,-666.185348,-9346.365076,-814.226536
4153.678123,-814.226536,-9576.193725,-962.267725
4153.678447,-444.123565,-9346.365076,-518.144159
4153.678772,0.000000,-9269.755526,-1036.288319
4153.679096,0.000000,-9346.365076,-518.144159
4153.679420,-592.164754,-9116.536426,-296.082377
4153.679744,-888.247130,-9116.536426,-814.226536
4153.680069,-1702.473667,-9193.145976,-296.082377
4153.680393,-1998.556043,-9269.755526,74.020594
4153.680717,-2738.761985,-9193.145976,-222.061783
4153.681041,-3552.988522,-9269.755526,-370.102971
4153.681366,-4071.132681,-8580.269578,0.000000
4153.681690,-4071.132681,-8733.488677,-296.082377
4153.682014,-3997.112087,-8273.831378,0.000000
4153.682339,-3330.926739,-7737.564530,-296.082377
4153.682663,-2442.679609,-8427.050478,370.102971
4153.682987,-1998.556043,-7660.954980,-148.041188
4153.683311,-1776.494261,-8580.269578,222.061783
4153.683636,-1702.473667,-8197.221829,444.123565
4153.683960,-1258.350101,-8044.002729,148.041188
4153.684284,-1036.288319,-9039.926876,296.082377
4153.684608,-1628.453072,-8197.221829,666.185348
4153.684933,-1554.432478,-8503.660028,444.123565
4153.685257,-1480.411884,-8886.707777,0.000000
4153.685581,-296.082377,-8350.440928,222.061783
4153.685906,-444.123565,-8120.612279,-296.082377
4153.686230,-740.205942,-7814.174080,148.041188
4153.686554,-962.267725,-7737.564530,592.164754
4153.686878,-1554.432478,-8044.002729,148.041188
4153.687203,-2368.659014,-8427.050478,0.000000
4153.687527,-2960.823768,-8197.221829,222.061783
4153.687851,-3997.112087,-8963.317327,222.061783
4153.688175,-3923.091493,-8350.440928,148.041188
4153.688500,-4145.153275,-8350.440928,148.041188
4153.688824,-2664.741391,-8810.098227,370.102971
4153.689148,-1776.494261,-8044.002729,-592.164754
4153.689472,-444.123565,-8503.660028,-148.041188
4153.689797,296.082377,-8120.612279,-296.082377
4153.690121,148.041188,-8886.707777,0.000000
4153.690445,592.164754,-9039.926876,-814.226536
4153.690770,-74.020594,-9193.145976,-518.144159
4153.691094,-1036.288319,-9422.974625,0.000000
4153.691418,-1702.473667,-9269.755526,-814.226536
4153.691742,-3552.988522,-9499.584175,-666.185348
4153.692067,-4219.173869,-9652.803275,-1258.350101
4153.692391,-3256.906145,-9422.974625,-1036.288319
4153.692715,-3182.885551,-8886.707777,-1628.453072
4153.693039,-2072.576638,-7890.783629,-814.226536
4153.693364,-1110.308913,-8273.831378,-814.226536
4153.693688,370.102971,-8044.002729,-1406.391290
4153.694012,2294.638420,-8197.221829,-814.226536
4153.694336,2886.803174,-7660.954980,-740.205942
4153.694661,2664.741391,-8273.831378,-518.144159
4153.694985,3182.885551,-8810.098227,-740.205942
4153.695309,1554.432478,-9729.412825,-666.185348
4153.695634,-444.123565,-9652.803275,-1702.473667
4153.695958,-1110.308913,-9652.803275,-1258.350101
4153.696282,-3923.091493,-9116.536426,-2146.597232
4153.696606,-5107.421000,-9806.022374,-2294.638420
4153.696931,-5477.523971,-8273.831378,-2368.659014
4153.697255,-5699.585753,-8810.098227,-1258.350101
4153.697579,-3923.091493,-7354.516781,-1628.453072
4153.697903,-1702.473667,-8273.831378,-888.247130
4153.698228,296.082377,-8350.440928,-296.082377
4153.698552,2960.823768,-7890.783629,0.000000
4153.698876,3775.050304,-8503.660028,0.000000
4153.699200,4293.194464,-9499.584175,0.000000
4153.699525,2516.700203,-10265.679673,-74.020594
4153.699849,-1110.308913,-10648.727422,-296.082377
4153.700173,-3404.947333,-9499.584175,-296.082377
4153.700498,-5403.503377,-9269.755526,296.082377
4153.700822,-6587.832884,-8580.269578,148.041188
4153.701146,-6365.771101,-7967.393179,-592.164754
4153.701470,-3404.947333,-7660.954980,222.061783
4153.701795,592.164754,-6358.592633,148.041188
4153.702119,4441.235652,-6818.249932,518.144159
4153.702443,7624.121203,-6894.859482,0.000000
4153.702767,8808.450710,-7431.126331,814.226536
4153.703092,8586.388927,-8963.317327,592.164754
4153.703416,5773.606348,-10801.946522,-962.267725
4153.703740,1184.329507,-11644.651570,-74.020594
4153.704065,-3330.926739,-10342.289223,0.000000
4153.704389,-7254.018232,-10189.070123,222.061783
4153.704713,-11325.150913,-9499.584175,222.061783
4153.705037,-10510.924376,-7814.174080,888.247130
4153.705362,-7031.956449,-6665.030833,962.267725
4153.705686,-1554.432478,-5209.449386,518.144159
4153.706010,4885.359217,-4903.011187,148.041188
4153.706334,10066.800811,-5056.230287,296.082377
4153.706659,11621.233289,-6205.373534,1036.288319
4153.706983,13175.665768,-7890.783629,370.102971
4153.707307,9844.739029,-9806.022374,74.020594
4153.707631,3034.844362,-10648.727422,-370.102971
4153.707956,-3404.947333,-12640.575717,74.020594
4153.708280,-9326.594869,-11951.089769,-222.061783
4153.708604,-12509.480420,-11491.432470,0.000000
4153.708929,-9474.636058,-8350.440928,0.000000
4153.709253,-6587.832884,-7967.393179,0.000000
4153.709577,222.061783,-6741.640382,-1110.308913
4153.709901,7179.997637,-4749.792088,-1110.308913
4153.710226,12657.521608,-5056.230287,-666.185348
4153.710550,14582.057057,-6358.592633,-518.144159
4153.710874,14063.912898,-7431.126331,74.020594
4153.711198,9696.697840,-9806.022374,74.020594
4153.711523,3552.988522,-11491.432470,-888.247130
4153.711847,-3849.070898,-12487.356617,-814.226536
4153.712171,-10288.862594,-12640.575717,0.000000
4153.712495,-12139.377449,-11491.432470,-518.144159
4153.712820,-12805.562797,-9806.022374,-1406.391290
4153.713144,-8364.327145,-8503.660028,-888.247130
4153.713468,-1554.432478,-6128.763984,-370.102971
4153.713793,6143.709319,-5745.716235,-518.144159
4153.714117,11547.212695,-4903.011187,-1184.329507
4153.714441,13545.768739,-6128.763984,-666.185348
4153.714765,12509.480420,-7967.393179,-592.164754
4153.715090,7179.997637,-9959.241474,0.000000
4153.715414,666.185348,-11874.480219,0.000000
4153.715738,-6217.729913,-12717.185267,-222.061783
4153.716062,-11621.233289,-12640.575717,-1110.308913
4153.716387,-13175.665768,-12180.918418,-888.247130
4153.716711,-11473.192101,-10495.508323,-740.205942
4153.717035,-6809.894666,-8580.269578,-962.267725
4153.717360,-370.102971,-6358.592633,-592.164754
4153.717684,6143.709319,-5286.058936,0.000000
4153.718008,12065.356855,-4903.011187,0.000000
4153.718332,13249.686362,-5286.058936,444.123565
4153.718657,11843.295072,-6511.811733,444.123565
4153.718981,6809.894666,-9346.365076,888.247130
4153.719305,74.020594,-11261.603821,814.226536
4153.719629,-6513.812290,-11797.870669,-148.041188
4153.719954,-12361.439231,-12563.966167,-962.267725
4153.720278,-14730.098246,-11184.994271,-2516.700203
4153.720602,-13471.748144,-10418.898773,-888.247130
4153.720926,-7772.162391,-7890.783629,-814.226536
4153.721251,-592.164754,-5745.716235,-592.164754
4153.721575,5995.668130,-3983.696590,666.185348
4153.721899,10362.883188,-4826.401637,888.247130
4153.722224,12583.501014,-5209.449386,888.247130
4153.722548,11473.192101,-7354.516781,296.082377
4153.722872,6661.853478,-8197.221829,814.226536
4153.723196,444.123565,-10648.727422,148.041188
4153.723521,-7105.977043,-12180.918418,0.000000
4153.723845,-11029.068536,-12257.527968,-666.185348
4153.724169,-12657.521608,-10725.336972,-1258.350101
4153.724493,-10658.965565,-9806.022374,-962.267725
4153.724818,-5847.626942,-7814.174080,-296.082377
4153.725142,1702.473667,-5056.230287,296.082377
4153.725466,8290.306550,-4213.525239,592.164754
4153.725790,12509.480420,-4979.620737,1036.288319
4153.726115,14211.954086,-5362.668486,296.082377
4153.726439,11843.295072,-7048.078582,814.226536
4153.726763,6587.832884,-9346.365076,444.123565
4153.727088,148.041188,-10955.165621,148.041188
4153.727412,-7105.977043,-11797.870669,-666.185348
4153.727736,-11769.274478,-13023.623466,-1628.453072
4153.728060,-12657.521608,-11644.651570,-2368.659014
4153.728385,-9844.739029,-10955.165621,-1258.350101
4153.728709,-4737.318029,-8273.831378,-740.205942
4153.729033,2368.659014,-6052.154434,0.000000
4153.729357,9178.553681,-5669.106685,-444.123565
4153.729682,14063.912898,-6052.154434,1036.288319
4153.730006,14804.118840,-5745.716235,518.144159
4153.730330,11177.109724,-7507.735880,-370.102971
4153.730655,6143.709319,-9116.536426,0.000000
4153.730979,-444.123565,-10955.165621,-444.123565
4153.731303,-6587.832884,-12410.747068,-1776.494261
4153.731627,-10881.027347,-12870.404366,-1924.535449
4153.731952,-10955.047942,-12334.137518,-1184.329507
4153.732276,-8956.491898,-9806.022374,-2146.597232
4153.732600,-2812.782580,-9116.536426,-444.123565
4153.732924,3849.070898,-6665.030833,-296.082377
4153.733249,9696.697840,-6281.983084,1110.308913
4153.733573,13545.768739,-5056.230287,0.000000
4153.733897,13545.768739,-6971.469032,74.020594
4153.734221,9992.780217,-6511.811733,-740.205942
4153.734546,4737.318029,-9576.193725,-962.267725
4153.734870,-2368.659014,-11568.042020,-814.226536
4153.735194,-9030.512492,-11721.261119,-1406.391290
4153.735519,-11695.253884,-11338.213370,-1406.391290
4153.735843,-12435.459826,-10648.727422,-1924.535449
4153.736167,-9030.512492,-10878.556072,-592.164754
4153.736491,-3182.885551,-8580.269578,74.020594
4153.736816,4737.318029,-6358.592633,1184.329507
4153.737140,8438.347739,-5975.544884,1184.329507
4153.737464,12139.377449,-6052.154434,888.247130
4153.737788,11547.212695,-5822.325785,0.000000
4153.738113,8586.388927,-7584.345430,666.185348
4153.738437,1998.556043,-7814.174080,74.020594
4153.738761,-4145.153275,-11031.775171,296.082377
4153.739085,-9400.615463,-12027.699319,0.000000
4153.739410,-12213.398043,-10572.117872,-592.164754
4153.739734,-11325.150913,-10035.851024,-370.102971
4153.740058,-7550.100608,-8963.317327,0.000000
4153.740383,-2442.679609,-7737.564530,1258.350101
4153.740707,4737.318029,-5515.887586,222.061783
4153.741031,10214.842000,-5975.544884,1184.329507
4153.741355,12583.501014,-5745.716235,592.164754
4153.741680,11843.295072,-6052.154434,444.123565
4153.742004,8068.244768,-7737.564530,444.123565
4153.742328,1332.370696,-9652.803275,0.000000
4153.742652,-5625.565159,-10418.898773,-1406.391290
4153.742977,-11325.150913,-10878.556072,-740.205942
4153.743301,-13027.624579,-10572.117872,-814.226536
4153.743625,-11991.336260,-9652.803275,-222.061783
4153.743950,-7994.224174,-9039.926876,0.000000
4153.744274,-2072.576638,-7048.078582,518.144159
4153.744598,4589.276840,-6205.373534,148.041188
4153.744922,10510.924376,-5592.497135,0.000000
4153.745247,12287.418637,-6358.592633,888.247130
4153.745571,11547.212695,-6128.763984,-296.082377
4153.745895,7772.162391,-8810.098227,814.226536
4153.746219,1998.556043,-9652.803275,-518.144159
4153.746544,-4589.276840,-10495.508323,-814.226536
4153.746868,-9474.636058,-10648.727422,-1036.288319
4153.747192,-10362.883188,-10878.556072,-1110.308913
4153.747516,-9696.697840,-9652.803275,-666.185348
4153.747841,-3997.112087,-9193.145976,0.000000
4153.748165,1554.432478,-6435.202183,-1036.288319
4153.748489,7698.141797,-6665.030833,-370.102971
4153.748814,11843.295072,-6435.202183,-444.123565
4153.749138,13101.645173,-7584.345430,-444.123565
4153.749462,11621.233289,-8044.002729,-814.226536
4153.749786,6217.729913,-8963.317327,-148.041188
4153.750111,148.041188,-10801.946522,-1258.350101
4153.750435,-7476.080014,-11031.775171,-2072.576638
4153.750759,-10510.924376,-11338.213370,-1702.473667
4153.751083,-12287.418637,-11184.994271,-1998.556043
4153.751408,-9400.615463,-9806.022374,-1776.494261
4153.751732,-3108.864956,-8044.002729,-814.226536
4153.752056,2220.617826,-6894.859482,-814.226536
4153.752380,9252.574275,-6818.249932,-592.164754
4153.752705,11917.315666,-6205.373534,-962.267725
4153.753029,13027.624579,-8120.612279,-592.164754
4153.753353,11029.068536,-7201.297681,-444.123565
4153.753678,3923.091493,-9499.584175,0.000000
4153.754002,-1480.411884,-10112.460574,-1184.329507
4153.754326,-6735.874072,-11184.994271,-592.164754
4153.754650,-10140.821405,-11491.432470,-2368.659014
4153.754975,-9992.780217,-10495.508323,-1184.329507
4153.755299,-6439.791695,-9039.926876,-888.247130
4153.755623,-1776.494261,-7737.564530,-814.226536
4153.755947,3478.967927,-6511.811733,0.000000
4153.756272,8882.471304,-6665.030833,296.082377
4153.756596,11029.068536,-6894.859482,0.000000
4153.756920,9696.697840,-8120.612279,-370.102971
4153.757244,7105.977043,-9039.926876,148.041188
4153.757569,1480.411884,-9652.803275,296.082377
4153.757893,-4885.359217,-11108.384721,0.000000
4153.758217,-9622.677246,-10265.679673,-1258.350101
4153.758542,-11917.315666,-10342.289223,0.000000
4153.758866,-11103.089130,-9193.145976,-962.267725
4153.759190,-7846.182985,-8810.098227,518.144159
4153.759514,-1776.494261,-6511.811733,518.144159
4153.759839,5107.421000,-5975.544884,1332.370696
4153.760163,8438.347739,-5592.497135,518.144159
4153.760487,10140.821405,-7201.297681,370.102971
4153.760811,10436.903782,-7201.297681,666.185348
4153.761136,5921.647536,-8656.879127,1110.308913
4153.761460,0.000000,-9882.631924,444.123565
4153.761784,-5107.421000,-10648.727422,0.000000
4153.762109,-9622.677246,-10112.460574,-370.102971
4153.762433,-10881.027347,-9959.241474,-518.144159
4153.762757,-9030.512492,-8656.879127,-518.144159
4153.763081,-5255.462188,-7890.783629,592.164754
4153.763406,1850.514855,-6281.983084,0.000000
4153.763730,5995.668130,-6052.154434,814.226536
4153.764054,10140.821405,-6052.154434,592.164754
4153.764378,11325.150913,-7124.688131,1110.308913
4153.764703,9400.615463,-7584.345430,222.061783
4153.765027,4219.173869,-9806.022374,296.082377
4153.765351,-1036.288319,-10572.117872,0.000000
4153.765675,-7772.162391,-10955.165621,-1406.391290
4153.766000,-9770.718434,-11184.994271,-1110.308913
4153.766324,-11769.274478,-9499.584175,-1110.308913
4153.766648,-9992.780217,-8886.707777,-296.082377
4153.766973,-3997.112087,-7660.954980,-814.226536
4153.767297,2516.700203,-5669.106685,0.000000
4153.767621,7476.080014,-6205.373534,-518.144159
4153.767946,10807.006753,-5822.325785,0.000000
4153.768270,11769.274478,-7660.954980,74.020594
4153.768594,9474.636058,-8580.269578,-740.205942
4153.768919,4737.318029,-9806.022374,-592.164754
4153.769243,-814.226536,-11338.213370,-814.226536
4153.769568,-6661.853478,-11874.480219,-1554.432478
4153.769892,-9696.697840,-11031.775171,-1924.535449
4153.770217,-8660.409521,-10418.898773,-666.185348
4153.770541,-5699.585753,-8580.269578,-1258.350101
4153.770865,-592.164754,-8044.002729,-1554.432478
4153.771190,4811.338623,-6665.030833,-1036.288319
4153.771514,10066.800811,-6665.030833,74.020594
4153.771839,11695.253884,-6435.202183,-962.267725
4153.772163,11473.192101,-7967.393179,-1110.308913
4153.772488,7772.162391,-9116.536426,-962.267725
4153.772812,2220.617826,-9806.022374,-1184.329507
4153.773136,-4515.256246,-11338.213370,-1480.411884
4153.773461,-9252.574275,-11261.603821,-1406.391290
4153.773785,-11769.274478,-10572.117872,-1850.514855
4153.774110,-10140.821405,-9729.412825,-1702.473667
4153.774434,-6291.750507,-8580.269578,-1036.288319
4153.774758,74.020594,-7048.078582,-518.144159
4153.775083,7105.977043,-5822.325785,0.000000
4153.775407,9770.718434,-7124.688131,222.061783
4153.775732,11843.295072,-7201.297681,-666.185348
4153.776056,10066.800811,-7584.345430,296.082377
4153.776381,5625.565159,-8197.221829,-370.102971
4153.776705,222.061783,-10418.898773,296.082377
4153.777029,-6143.709319,-10495.508323,-592.164754
4153.777354,-9548.656652,-11031.775171,-666.185348
4153.777678,-9474.636058,-9959.241474,-1480.411884
4153.778003,-8290.306550,-9422.974625,-1110.308913
4153.778327,-3997.112087,-8120.612279,-148.041188
4153.778651,2368.659014,-6588.421283,0.000000
4153.778976,6291.750507,-6511.811733,1110.308913
4153.779300,9918.759623,-5286.058936,74.020594
4153.779625,10955.047942,-6971.469032,370.102971
4153.779949,8586.388927,-8120.612279,222.061783
4153.780274,3997.112087,-9039.926876,888.247130
4153.780598,-1554.432478,-10572.117872,74.020594
4153.780922,-7624.121203,-10725.336972,-740.205942
4153.781247,-11991.336260,-10265.679673,-888.247130
4153.781571,-12361.439231,-9729.412825,0.000000
4153.781896,-9918.759623,-8810.098227,0.000000
4153.782220,-4589.276840,-6971.469032,1184.329507
4153.782545,1480.411884,-6358.592633,296.082377
4153.782869,7550.100608,-6128.763984,740.205942
4153.783193,10288.862594,-6205.373534,1036.288319
4153.783518,10807.006753,-7048.078582,0.000000
4153.783842,8068.244768,-8656.879127,740.205942
4153.784167,3108.864956,-9116.536426,370.102971
4153.784491,-2368.659014,-10648.727422,888.247130
4153.784815,-7179.997637,-10648.727422,-1110.308913
4153.785140,-11029.068536,-10801.946522,-740.205942
4153.785464,-10214.842000,-9499.584175,-888.247130
4153.785789,-7105.977043,-9039.926876,-592.164754
4153.786113,-2368.659014,-6358.592633,-518.144159
4153.786438,3404.947333,-6358.592633,888.247130
4153.786762,9770.718434,-6511.811733,814.226536
4153.787086,12361.439231,-7048.078582,-222.061783
4153.787411,12361.439231,-7354.516781,0.000000
4153.787735,7698.141797,-8580.269578,-518.144159
4153.788060,2590.720797,-10035.851024,-888.247130
4153.788384,-3849.070898,-10878.556072,-1480.411884
4153.788709,-9474.636058,-11338.213370,-1110.308913
4153.789033,-11547.212695,-10418.898773,-1480.411884
4153.789357,-10214.842000,-9806.022374,-1332.370696
4153.789682,-5699.585753,-8197.221829,-1332.370696
4153.790006,-666.185348,-6971.469032,-666.185348
4153.790331,5773.606348,-6894.859482,-222.061783
4153.790655,10584.944971,-7277.907231,518.144159
4153.790979,12657.521608,-7354.516781,-592.164754
4153.791304,11029.068536,-8810.098227,-1110.308913
4153.791628,6661.853478,-9193.145976,-518.144159
4153.791953,1110.308913,-10648.727422,-888.247130
4153.792277,-4589.276840,-10955.165621,-888.247130
4153.792602,-8882.471304,-11108.384721,-962.267725
4153.792926,-11473.192101,-9729.412825,-1110.308913
4153.793250,-7846.182985,-9499.584175,-1258.350101
4153.793575,-3849.070898,-7660.954980,-1480.411884
4153.793899,2664.741391,-7201.297681,-518.144159
4153.794224,6809.894666,-6818.249932,0.000000
4153.794548,11621.233289,-7124.688131,74.020594
4153.794872,12879.583391,-7124.688131,222.061783
4153.795197,10288.862594,-8350.440928,-888.247130
4153.795521,6809.894666,-9499.584175,0.000000
4153.795846,370.102971,-10342.289223,-444.123565
4153.796170,-5625.565159,-10955.165621,-962.267725
4153.796495,-10510.924376,-9269.755526,-666.185348
4153.796819,-12065.356855,-9729.412825,-222.061783
4153.797143,-9104.533087,-8197.221829,-1332.370696
4153.797468,-4367.215058,-7431.126331,-814.226536
4153.797792,1184.329507,-6358.592633,296.082377
4153.798117,6661.853478,-6665.030833,370.102971
4153.798441,9918.759623,-6971.469032,444.123565
4153.798766,11473.192101,-8273.831378,370.102971
4153.799090,9104.533087,-7814.174080,0.000000
4153.799414,3627.009116,-9346.365076,740.205942
4153.799739,-1628.453072,-9576.193725,370.102971
4153.800063,-6365.771101,-10342.289223,0.000000
4153.800388,-9992.780217,-9576.193725,-1332.370696
4153.800712,-9844.739029,-9729.412825,-1110.308913
4153.801036,-7328.038826,-7890.783629,-1258.350101
4153.801361,-2664.741391,-6894.859482,148.041188
4153.801685,3701.029710,-5822.325785,888.247130
4153.802010,7698.141797,-5822.325785,666.185348
4153.802334,9622.677246,-6741.640382,-148.041188
4153.802659,10288.862594,-7584.345430,592.164754
4153.802983,7105.977043,-8503.660028,1554.432478
4153.803307,2664.741391,-10189.070123,74.020594
4153.803632,-3478.967927,-11414.822920,-592.164754
4153.803956,-8586.388927,-10112.460574,-1110.308913
4153.804281,-11325.150913,-9422.974625,-1480.411884
4153.804605,-10807.006753,-9652.803275,-962.267725
4153.804929,-7846.182985,-8197.221829,-592.164754
4153.805254,-2368.659014,-6818.249932,0.000000
4153.805578,2442.679609,-6511.811733,222.061783
4153.805903,7772.162391,-7124.688131,888.247130
4153.806227,10584.944971,-6971.469032,518.144159
4153.806552,10510.924376,-8503.660028,148.041188
4153.806876,8290.306550,-9882.631924,0.000000
4153.807200,3701.029710,-10112.460574,444.123565
4153.807525,-2368.659014,-11108.384721,296.082377
4153.807849,-7846.182985,-9882.631924,-1184.329507
4153.808174,-8660.409521,-10035.851024,-1184.329507
4153.808498,-8660.409521,-8886.707777,-444.123565
4153.808823,-5403.503377,-7431.126331,-1332.370696
4153.809147,592.164754,-7354.516781,-222.061783
4153.809471,5181.441594,-6665.030833,-740.205942
4153.809796,9474.636058,-7814.174080,1776.494261
4153.810120,12435.459826,-6435.202183,-370.102971
4153.810445,10955.047942,-8963.317327,74.020594
4153.810769,6513.812290,-9116.536426,-814.226536
4153.811093,1628.453072,-10418.898773,-1036.288319
4153.811418,-5551.544565,-11031.775171,-1110.308913
4153.811742,-9918.759623,-9806.022374,-1702.473667
4153.812067,-10881.027347,-9806.022374,-1036.288319
4153.812391,-9992.780217,-8427.050478,-2072.576638
4153.812716,-5255.462188,-8120.612279,-518.144159
4153.813040,1924.535449,-6435.202183,-1258.350101
4153.813364,6661.853478,-7201.297681,0.000000
4153.813689,10807.006753,-7814.174080,370.102971
4153.814013,11547.212695,-8427.050478,444.123565
4153.814338,9770.718434,-9193.145976,0.000000
4153.814662,5329.482782,-9652.803275,0.000000
4153.814986,-444.123565,-10418.898773,-814.226536
4153.815311,-6513.812290,-11031.775171,-1110.308913
4153.815635,-9104.533087,-10495.508323,-962.267725
4153.815960,-9622.677246,-9576.193725,-1110.308913
4153.816284,-6957.935855,-8350.440928,0.000000
4153.816609,-2812.782580,-6281.983084,-518.144159
4153.816933,3256.906145,-6435.202183,666.185348
4153.817257,8290.306550,-6588.421283,74.020594
4153.817582,11991.336260,-7737.564530,740.205942
4153.817906,11769.274478,-7584.345430,74.020594
4153.818231,8068.244768,-9269.755526,1036.288319
4153.818555,2738.761985,-10112.460574,-296.082377
4153.818880,-3849.070898,-10878.556072,-148.041188
4153.819204,-8142.265362,-10035.851024,-518.144159
4153.819528,-11177.109724,-9882.631924,-888.247130
4153.819853,-11325.150913,-8963.317327,-222.061783
4153.820177,-7624.121203,-7354.516781,0.000000
4153.820502,-1184.329507,-6511.811733,222.061783
4153.820826,3404.947333,-6281.983084,0.000000
4153.821150,9844.739029,-6665.030833,1924.535449
4153.821475,11177.109724,-7124.688131,370.102971
4153.821799,10732.986159,-8580.269578,0.000000
4153.822124,6809.894666,-8810.098227,592.164754
4153.822448,1332.370696,-10725.336972,740.205942
4153.822773,-5625.565159,-10342.289223,-814.226536
4153.823097,-9030.512492,-10189.070123,-444.123565
4153.823421,-10584.944971,-9806.022374,-888.247130
4153.823746,-9030.512492,-8350.440928,-666.185348
4153.824070,-4515.256246,-7431.126331,0.000000
4153.824395,518.144159,-5975.544884,-74.020594
4153.824719,6809.894666,-6818.249932,666.185348
4153.825043,10807.006753,-6588.421283,-296.082377
4153.825368,11621.233289,-7354.516781,74.020594
4153.825692,10807.006753,-8963.317327,444.123565
4153.826017,4737.318029,-9959.241474,0.000000
4153.826341,-1406.391290,-10495.508323,-1184.329507
4153.826666,-7031.956449,-11568.042020,-444.123565
4153.826990,-11251.130318,-10112.460574,-1776.494261
4153.827314,-11695.253884,-9882.631924,-444.123565
4153.827639,-9104.533087,-8273.831378,-2072.576638
4153.827963,-3182.885551,-7660.954980,0.000000
4153.828288,2442.679609,-5822.325785,-1184.329507
4153.828612,8956.491898,-7431.126331,296.082377
4153.828937,10955.047942,-6971.469032,74.020594
4153.829261,11917.315666,-8350.440928,-148.041188
4153.829585,9400.615463,-10035.851024,-296.082377
4153.829910,3034.844362,-9499.584175,-1110.308913
4153.830234,-2664.741391,-11491.432470,-592.164754
4153.830559,-7550.100608,-10878.556072,-1628.453072
4153.830883,-9474.636058,-11108.384721,-888.247130
4153.831207,-9622.677246,-8810.098227,-1628.453072
4153.831532,-6957.935855,-8427.050478,-740.205942
4153.831856,-1036.288319,-6971.469032,-1258.350101
4153.832181,4811.338623,-6511.811733,0.000000
4153.832505,9474.636058,-6511.811733,222.061783
4153.832830,12509.480420,-7354.516781,-370.102971
4153.833154,11399.171507,-8044.002729,74.020594
4153.833478,8290.306550,-9422.974625,-1258.350101
4153.833803,3182.885551,-10418.898773,-1110.308913
4153.834127,-4737.318029,-10418.898773,-1184.329507
4153.834452,-9400.615463,-10878.556072,-1332.370696
4153.834776,-11325.150913,-9576.193725,-1184.329507
4153.835101,-11251.130318,-8580.269578,-1110.308913
4153.835425,-6291.750507,-7660.954980,-1258.350101
4153.835749,-1332.370696,-6665.030833,-592.164754
4153.836074,4589.276840,-6894.859482,0.000000
4153.836398,9770.718434,-6665.030833,74.020594
4153.836723,12065.356855,-7354.516781,222.061783
4153.837047,9918.759623,-8197.221829,-148.041188
4153.837371,7031.956449,-9652.803275,222.061783
4153.837696,1406.391290,-10342.289223,-740.205942
4153.838020,-5255.462188,-11031.775171,148.041188
4153.838345,-9178.553681,-10035.851024,-296.082377
4153.838669,-9992.780217,-9806.022374,-518.144159
4153.838994,-9548.656652,-8197.221829,-370.102971
4153.839318,-4589.276840,-7660.954980,74.020594
4153.839642,1110.308913,-6205.373534,0.000000
4153.839967,5255.462188,-6741.640382,888.247130
4153.840291,10807.006753,-6971.469032,444.123565
4153.840616,11695.253884,-7431.126331,370.102971
4153.840940,9104.533087,-7967.393179,1110.308913
4153.841264,4959.379811,-9346.365076,0.000000
4153.841589,-666.185348,-11031.775171,-148.041188
4153.841913,-6217.729913,-10342.289223,-814.226536
4153.842238,-11399.171507,-10035.851024,-518.144159
4153.842562,-12287.418637,-8886.707777,-370.102971
4153.842887,-9326.594869,-8120.612279,-666.185348
4153.843211,-3478.967927,-7048.078582,370.102971
4153.843535,1924.535449,-7201.297681,0.000000
4153.843860,6661.853478,-5362.668486,-148.041188
4153.844184,10214.842000,-7354.516781,1998.556043
4153.844509,12435.459826,-6665.030833,-888.247130
4153.844833,9474.636058,-9193.145976,1110.308913
4153.845158,5181.441594,-9499.584175,-592.164754
4153.845482,-1924.535449,-11031.775171,-222.061783
4153.845806,-7105.977043,-10035.851024,-1406.391290
4153.846131,-9400.615463,-11568.042020,0.000000
4153.846455,-9548.656652,-9116.536426,-1776.494261
4153.846780,-6883.915261,-8044.002729,-1184.329507
4153.847104,-2072.576638,-7201.297681,296.082377
4153.847428,3182.885551,-5592.497135,-814.226536
4153.847753,9104.533087,-7277.907231,592.164754
4153.848077,11843.295072,-7048.078582,-592.164754
4153.848402,11843.295072,-8503.660028,-296.082377
4153.848726,8808.450710,-8963.317327,-592.164754
4153.849051,3256.906145,-10572.117872,-666.185348
4153.849375,-3552.988522,-10035.851024,-1110.308913
4153.849699,-9104.533087,-10572.117872,-962.267725
4153.850024,-11251.130318,-10189.070123,-1110.308913
4153.850348,-10436.903782,-9039.926876,-1184.329507
4153.850673,-6439.791695,-7737.564530,-888.247130
4153.850997,-666.185348,-7124.688131,-296.082377
4153.851321,3552.988522,-5822.325785,-370.102971
4153.851646,10362.883188,-7354.516781,0.000000
4153.851970,12213.398043,-7737.564530,-1332.370696
4153.852295,11399.171507,-9346.365076,296.082377
4153.852619,8216.285956,-8963.317327,-592.164754
4153.852944,1480.411884,-10725.336972,-518.144159
4153.853268,-4367.215058,-10801.946522,-888.247130
4153.853592,-8068.244768,-10189.070123,-666.185348
4153.853917,-10955.047942,-10112.460574,-1110.308913
4153.854241,-8734.430116,-8656.879127,-1554.432478
4153.854566,-4811.338623,-7737.564530,-592.164754
4153.854890,-888.247130,-6665.030833,-888.247130
4153.855215,5921.647536,-6358.592633,296.082377
4153.855539,9178.553681,-6971.469032,0.000000
4153.855863,11695.253884,-7967.393179,74.020594
4153.856188,9696.697840,-8273.831378,370.102971
4153.856512,4959.379811,-9576.193725,-148.041188
4153.856837,0.000000,-10342.289223,-962.267725
4153.857161,-5921.647536,-10725.336972,-962.267725
4153.857485,-10807.006753,-10495.508323,0.000000
4153.857810,-11399.171507,-8197.221829,-1258.350101
4153.858134,-8364.327145,-8733.488677,74.020594
4153.858459,-4293.194464,-5745.716235,-592.164754
4153.858783,148.041188,-5975.544884,148.041188
4153.859108,7105.977043,-6052.154434,74.020594
4153.859432,9844.739029,-7048.078582,814.226536
4153.859756,12435.459826,-7737.564530,444.123565
4153.860081,9622.677246,-8656.879127,-222.061783
4153.860405,4959.379811,-10342.289223,-148.041188
4153.860730,-1258.350101,-8886.707777,296.082377
4153.861054,-6513.812290,-10648.727422,0.000000
4153.861378,-10510.924376,-9806.022374,-370.102971
4153.861703,-9844.739029,-9039.926876,-592.164754
4153.862027,-7920.203579,-8197.221829,-1184.329507
4153.862352,-4219.173869,-6971.469032,-814.226536
4153.862676,1702.473667,-6281.983084,0.000000
4153.863001,7328.038826,-6818.249932,1036.288319
4153.863325,10288.862594,-7354.516781,444.123565
4153.863649,11843.295072,-8580.269578,74.020594
4153.863974,8216.285956,-9039.926876,-370.102971
4153.864298,3923.091493,-9882.631924,-370.102971
4153.864623,-1702.473667,-10801.946522,-814.226536
4153.864947,-7846.182985,-10265.679673,-1628.453072
4153.865272,-10510.924376,-9652.803275,-222.061783
4153.865596,-11991.336260,-8733.488677,-592.164754
4153.865920,-8438.347739,-8273.831378,-1036.288319
4153.866245,-2516.700203,-7048.078582,-592.164754
4153.866569,3552.988522,-6052.154434,-148.041188
4153.866894,8734.430116,-7277.907231,222.061783
4153.867218,11103.089130,-7890.783629,0.000000
4153.867542,10881.027347,-8810.098227,-148.041188
4153.867867,8512.368333,-9193.145976,74.020594
4153.868191,3478.967927,-10265.679673,-740.205942
4153.868516,-1998.556043,-10418.898773,-370.102971
4153.868840,-5995.668130,-10112.460574,-444.123565
4153.869165,-8882.471304,-9346.365076,-1406.391290
4153.869489,-8290.306550,-9039.926876,-1036.288319
4153.869813,-5403.503377,-7124.688131,-1332.370696
4153.870138,0.000000,-7354.516781,-962.267725
4153.870462,5255.462188,-7124.688131,-592.164754
4153.870787,8956.491898,-7354.516781,666.185348
4153.871111,10510.924376,-8656.879127,0.000000
4153.871435,8734.430116,-9193.145976,0.000000
4153.871760,5255.462188,-10035.851024,-148.041188
4153.872084,518.144159,-10035.851024,-592.164754
4153.872409,-5699.585753,-10955.165621,-666.185348
4153.872733,-9030.512492,-9422.974625,-1628.453072
4153.873058,-9400.615463,-8963.317327,-666.185348
4153.873382,-9400.615463,-6511.811733,-666.185348
4153.873706,-2960.823768,-8503.660028,-444.123565
4153.874031,2442.679609,-7124.688131,-1258.350101
4153.874355,6587.832884,-7660.954980,592.164754
4153.874680,10066.800811,-6818.249932,148.041188
4153.875004,10288.862594,-8197.221829,74.020594
4153.875328,9178.553681,-10189.070123,518.144159
4153.875653,5625.565159,-9193.145976,-814.226536
4153.875977,0.000000,-10495.508323,222.061783
4153.876302,-6809.894666,-10418.898773,-370.102971
4153.876626,-9622.677246,-9576.193725,0.000000
4153.876950,-8438.347739,-9193.145976,-888.247130
4153.877275,-6217.729913,-7737.564530,-814.226536
4153.877599,-1776.494261,-6511.811733,-740.205942
4153.877924,2886.803174,-6665.030833,0.000000
4153.878248,6661.853478,-6818.249932,814.226536
4153.878572,10658.965565,-7660.954980,222.061783
4153.878897,9918.759623,-8733.488677,666.185348
4153.879221,7698.141797,-9729.412825,0.000000
4153.879546,2960.823768,-10418.898773,-518.144159
4153.879870,-3997.112087,-10648.727422,-888.247130
4153.880194,-8216.285956,-10189.070123,-296.082377
4153.880519,-11473.192101,-9116.536426,-1110.308913
4153.880843,-11547.212695,-8503.660028,-296.082377
4153.881168,-6661.853478,-7048.078582,-444.123565
4153.881492,-1776.494261,-6511.811733,-592.164754
4153.881816,3404.947333,-6358.592633,-222.061783
4153.882141,7698.141797,-7201.297681,814.226536
4153.882465,11251.130318,-8656.879127,148.041188
4153.882790,10510.924376,-8503.660028,370.102971
4153.883114,8142.265362,-9576.193725,0.000000
4153.883439,1480.411884,-10572.117872,-814.226536
4153.883763,-3552.988522,-10342.289223,0.000000
4153.884087,-7994.224174,-9576.193725,-444.123565
4153.884412,-10807.006753,-9576.193725,-592.164754
4153.884736,-8882.471304,-8120.612279,-962.267725
4153.885061,-5255.462188,-7277.907231,-1258.350101
4153.885385,-296.082377,-6741.640382,-592.164754
4153.885709,5181.441594,-6741.640382,-370.102971
4153.886034,9770.718434,-8273.831378,1184.329507
4153.886358,10658.965565,-8350.440928,148.041188
4153.886683,9474.636058,-8963.317327,-222.061783
4153.887007,5921.647536,-9959.241474,-296.082377
4153.887331,814.226536,-10035.851024,-962.267725
4153.887656,-4737.318029,-10648.727422,-1480.411884
4153.887980,-9474.636058,-9806.022374,-1258.350101
4153.888305,-10732.986159,-9499.584175,-1184.329507
4153.888629,-8882.471304,-7967.393179,-1258.350101
4153.888953,-6291.750507,-6052.154434,-1258.350101
4153.889278,1184.329507,-6818.249932,296.082377
4153.889602,6587.832884,-6358.592633,-222.061783
4153.889927,10436.903782,-8733.488677,296.082377
4153.890251,11843.295072,-8733.488677,-888.247130
4153.890575,9252.574275,-8733.488677,-1184.329507
4153.890900,5329.482782,-10495.508323,0.000000
4153.891224,962.267725,-10189.070123,-888.247130
4153.891549,-4515.256246,-11184.994271,-222.061783
4153.891873,-9326.594869,-8273.831378,-1332.370696
4153.892197,-9992.780217,-9499.584175,-148.041188
4153.892522,-7328.038826,-7890.783629,-2146.597232
4153.892846,-3034.844362,-7354.516781,-888.247130
4153.893171,1258.350101,-6128.763984,-370.102971
4153.893495,7031.956449,-7507.735880,1406.391290
4153.893820,9844.739029,-7124.688131,-296.082377
4153.894144,11621.233289,-9576.193725,74.020594
4153.894468,8290.306550,-9499.584175,-666.185348
4153.894793,3997.112087,-10495.508323,-148.041188
4153.895117,-1036.288319,-10418.898773,-740.205942
4153.895442,-6661.853478,-10189.070123,74.020594
4153.895766,-9326.594869,-9193.145976,-1110.308913
4153.896090,-9918.759623,-7814.174080,-444.123565
4153.896415,-7254.018232,-7354.516781,-666.185348
4153.896739,-2072.576638,-7124.688131,296.082377
4153.897064,3330.926739,-6435.202183,518.144159
4153.897388,8068.244768,-7277.907231,814.226536
4153.897712,10362.883188,-8120.612279,0.000000
4153.898037,9844.739029,-8963.317327,222.061783
4153.898361,8068.244768,-9959.241474,370.102971
4153.898686,2294.638420,-9652.803275,0.000000
4153.899010,-2886.803174,-10418.898773,370.102971
4153.899334,-8290.306550,-8810.098227,-444.123565
4153.899659,-9104.533087,-9576.193725,148.041188
4153.899983,-7994.224174,-7814.174080,-1332.370696
4153.900308,-5403.503377,-7201.297681,-518.144159
4153.900632,-1332.370696,-6511.811733,-666.185348
4153.900956,4589.276840,-6435.202183,666.185348
4153.901281,8364.327145,-7507.735880,518.144159
4153.901605,10066.800811,-8810.098227,370.102971
4153.901930,8438.347739,-8350.440928,296.082377
4153.902254,4885.359217,-9576.193725,-518.144159
4153.902578,814.226536,-10725.336972,-222.061783
4153.902903,-5033.400406,-9652.803275,-1184.329507
4153.903227,-8586.388927,-9806.022374,-296.082377
4153.903552,-9622.677246,-8350.440928,-1036.288319
4153.903876,-9178.553681,-8197.221829,-444.123565
4153.904201,-4811.338623,-6894.859482,-1110.308913
4153.904525,814.226536,-6052.154434,0.000000
4153.904849,5847.626942,-7124.688131,-296.082377
4153.905174,8364.327145,-7737.564530,370.102971
4153.905498,10214.842000,-8810.098227,0.000000
4153.905823,8364.327145,-9193.145976,-74.020594
4153.906147,4959.379811,-10342.289223,-74.020594
4153.906471,74.020594,-10572.117872,-1110.308913
4153.906796,-5181.441594,-10418.898773,-1184.329507
4153.907120,-9400.615463,-9193.145976,-1110.308913
4153.907445,-9400.615463,-8656.879127,0.000000
4153.907769,-6661.853478,-7584.345430,-888.247130
4153.908093,-5995.668130,-6435.202183,-1554.432478
4153.908418,4071.132681,-8044.002729,-148.041188
4153.908742,6661.853478,-6588.421283,-1406.391290
4153.909067,10658.965565,-10878.556072,1184.329507
4153.909391,11325.150913,-7354.516781,-1554.432478
4153.909715,6735.874072,-10648.727422,888.247130
4153.910040,3552.988522,-10112.460574,-1110.308913
4153.910364,-740.205942,-10955.165621,-814.226536
4153.910689,-7550.100608,-9806.022374,-888.247130
4153.911013,-9844.739029,-9039.926876,-1184.329507
4153.911337,-9918.759623,-8120.612279,-592.164754
4153.911662,-6957.935855,-6894.859482,-962.267725
4153.911986,-2072.576638,-7048.078582,148.041188
4153.912311,4737.318029,-6588.421283,-888.247130
4153.912635,8290.306550,-7814.174080,0.000000
4153.912959,10066.800811,-7814.174080,-370.102971
4153.913284,11103.089130,-9346.365076,148.041188
4153.913608,6143.709319,-9422.974625,-666.185348
4153.913933,3256.906145,-10801.946522,148.041188
4153.914257,-2442.679609,-10112.460574,-740.205942
4153.914582,-7846.182985,-9806.022374,-1332.370696
4153.914906,-8882.471304,-8503.660028,-296.082377
4153.915230,-8216.285956,-7354.516781,-740.205942
4153.915555,-3627.009116,-7584.345430,-296.082377
4153.915879,-518.144159,-5439.278036,-814.226536
4153.916204,4589.276840,-7277.907231,74.020594
4153.916528,8216.285956,-7431.126331,962.267725
4153.916852,10066.800811,-8120.612279,-148.041188
4153.917177,9622.677246,-9346.365076,222.061783
4153.917501,5773.606348,-8580.269578,0.000000
4153.917826,1332.370696,-11568.042020,0.000000
4153.918150,-3478.967927,-10418.898773,-962.267725
4153.918474,-7846.182985,-9346.365076,-370.102971
4153.918799,-9474.636058,-8427.050478,-592.164754
4153.919123,-8734.430116,-7354.516781,296.082377
4153.919448,-5107.421000,-6511.811733,-592.164754
4153.919772,370.102971,-7124.688131,0.000000
4153.920096,5995.668130,-5439.278036,518.144159
4153.920421,8660.409521,-8273.831378,0.000000
4153.920745,10436.903782,-8733.488677,296.082377
4153.921070,8882.471304,-8963.317327,-222.061783
4153.921394,5329.482782,-10878.556072,222.061783
4153.921718,518.144159,-10342.289223,-370.102971
4153.922043,-4367.215058,-10725.336972,-814.226536
4153.922367,-8068.244768,-9499.584175,-222.061783
4153.922692,-8660.409521,-8120.612279,-370.102971
4153.923016,-6587.832884,-7048.078582,-814.226536
4153.923340,-3923.091493,-6511.811733,-740.205942
4153.923665,518.144159,-6281.983084,296.082377
4153.923989,7402.059420,-7814.174080,74.020594
4153.924314,8882.471304,-8580.269578,296.082377
4153.924638,9844.739029,-8810.098227,-370.102971
4153.924963,6735.874072,-9576.193725,0.000000
4153.925287,2886.803174,-10648.727422,-148.041188
4153.925611,-1924.535449,-10955.165621,-370.102971
4153.925936,-5921.647536,-10418.898773,-888.247130
4153.926260,-10214.842000,-9576.193725,-740.205942
4153.926585,-12287.418637,-7890.783629,-888.247130
4153.926909,-8364.327145,-7890.783629,-666.185348
4153.927233,-1036.288319,-6281.983084,666.185348
4153.927558,3997.112087,-6665.030833,-1110.308913
4153.927882,8438.347739,-7967.393179,-444.123565
4153.928207,9918.759623,-7737.564530,-666.185348
4153.928531,9622.677246,-9039.926876,222.061783
4153.928855,7254.018232,-9269.755526,0.000000
4153.929180,4145.153275,-10955.165621,592.164754
4153.929504,-2738.761985,-10955.165621,-222.061783
4153.929829,-6291.750507,-9806.022374,-888.247130
4153.930153,-8808.450710,-9346.365076,-1776.494261
4153.930477,-10140.821405,-8503.660028,-666.185348
4153.930802,-6143.709319,-6894.859482,-222.061783
4153.931126,-1776.494261,-6511.811733,-814.226536
4153.931451,3775.050304,-6435.202183,592.164754
4153.931775,8142.265362,-7660.954980,0.000000
4153.932099,9622.677246,-8427.050478,0.000000
4153.932424,9104.533087,-9116.536426,0.000000
4153.932748,6217.729913,-9806.022374,-592.164754
4153.933073,1184.329507,-10495.508323,-592.164754
4153.933397,-4811.338623,-10342.289223,-814.226536
4153.933721,-7698.141797,-10035.851024,-444.123565
4153.934046,-10584.944971,-8273.831378,0.000000
4153.934370,-7994.224174,-8810.098227,74.020594
4153.934695,-4811.338623,-6128.763984,-1036.288319
4153.935019,1110.308913,-6435.202183,148.041188
4153.935344,5773.606348,-6281.983084,0.000000
4153.935668,9400.615463,-7354.516781,-740.205942
4153.935992,10140.821405,-8044.002729,-296.082377
4153.936317,8734.430116,-8886.707777,-148.041188
4153.936641,5033.400406,-10418.898773,148.041188
4153.936966,740.205942,-10189.070123,-518.144159
4153.937290,-4293.194464,-10572.117872,74.020594
4153.937614,-6957.935855,-9269.755526,-222.061783
4153.937939,-8808.450710,-8810.098227,-296.082377
4153.938263,-6661.853478,-7814.174080,0.000000
4153.938588,-3256.906145,-6128.763984,-666.185348
4153.938912,1110.308913,-6894.859482,-888.247130
4153.939236,6439.791695,-7354.516781,-592.164754
4153.939561,8882.471304,-7507.735880,-592.164754
4153.939885,9252.574275,-8733.488677,-222.061783
4153.940210,6883.915261,-8656.879127,-444.123565
4153.940534,3330.926739,-10801.946522,0.000000
4153.940858,-1332.370696,-10648.727422,-296.082377
4153.941183,-6439.791695,-9882.631924,0.000000
4153.941507,-8216.285956,-9499.584175,-1036.288319
4153.941832,-8438.347739,-8350.440928,-222.061783
4153.942156,-6735.874072,-7507.735880,-666.185348
4153.942480,-1554.432478,-6511.811733,-444.123565
4153.942805,3552.988522,-5898.935335,-222.061783
4153.943129,7105.977043,-7354.516781,0.000000
4153.943454,10658.965565,-7890.783629,-296.082377
4153.943778,8882.471304,-8733.488677,0.000000
4153.944102,7031.956449,-9652.803275,74.020594
4153.944427,2812.782580,-10265.679673,-370.102971
4153.944751,-3108.864956,-11031.775171,-666.185348
4153.945076,-6809.894666,-10725.336972,-148.041188
4153.945400,-8956.491898,-9193.145976,-962.267725
4153.945725,-8290.306550,-8350.440928,-1258.350101
4153.946049,-5551.544565,-7201.297681,-518.144159
4153.946373,-148.041188,-7277.907231,-518.144159
4153.946698,4737.318029,-7048.078582,-296.082377
4153.947022,8512.368333,-7124.688131,-296.082377
4153.947347,9474.636058,-8120.612279,-296.082377
4153.947671,8364.327145,-8350.440928,222.061783
4153.947995,5181.441594,-10648.727422,-148.041188
4153.948320,666.185348,-11184.994271,0.000000
4153.948644,-4737.318029,-10189.070123,-666.185348
4153.948969,-8660.409521,-10418.898773,-592.164754
4153.949293,-10584.944971,-8963.317327,-1036.288319
4153.949617,-8660.409521,-8120.612279,-518.144159
4153.949942,-4959.379811,-6741.640382,148.041188
4153.950266,0.000000,-6588.421283,-444.123565
4153.950591,6143.709319,-6358.592633,-740.205942
4153.950915,9030.512492,-7277.907231,148.041188
4153.951239,10362.883188,-7201.297681,-222.061783
4153.951564,7994.224174,-8886.707777,148.041188
4153.951888,4441.235652,-10495.508323,518.144159
4153.952213,518.144159,-10572.117872,518.144159
4153.952537,-5033.400406,-10572.117872,-962.267725
4153.952861,-8512.368333,-10189.070123,0.000000
4153.953186,-9400.615463,-7967.393179,-370.102971
4153.953510,-7476.080014,-8044.002729,148.041188
4153.953835,-3775.050304,-6665.030833,-370.102971
4153.954159,2738.761985,-6128.763984,74.020594
4153.954483,5551.544565,-6358.592633,148.041188
4153.954808,9252.574275,-7431.126331,-518.144159
4153.955132,10732.986159,-8044.002729,-74.020594
4153.955457,7772.162391,-9346.365076,0.000000
4153.955781,3997.112087,-10878.556072,666.185348
4153.956106,-2072.576638,-10495.508323,-296.082377
4153.956430,-6809.894666,-10878.556072,0.000000
4153.956754,-9326.594869,-8733.488677,-444.123565
4153.957079,-9548.656652,-8810.098227,0.000000
4153.957403,-6883.915261,-7737.564530,-1332.370696
4153.957728,-1998.556043,-6818.249932,148.041188
4153.958052,2960.823768,-5439.278036,-296.082377
4153.958376,7624.121203,-6358.592633,444.123565
4153.958701,10584.944971,-7201.297681,0.000000
4153.959025,9770.718434,-8580.269578,-222.061783
4153.959350,7624.121203,-9652.803275,148.041188
4153.959674,2960.823768,-10648.727422,-444.123565
4153.959998,-2294.638420,-11414.822920,-740.205942
4153.960323,-6661.853478,-9806.022374,-1258.350101
4153.960647,-9030.512492,-10342.289223,-222.061783
4153.960972,-9030.512492,-7584.345430,-592.164754
4153.961296,-5551.544565,-6971.469032,-666.185348
4153.961620,-1406.391290,-6511.811733,-592.164754
4153.961945,4589.276840,-6435.202183,-814.226536
4153.962269,9326.594869,-7354.516781,-888.247130
4153.962594,11103.089130,-6435.202183,0.000000
4153.962918,9918.759623,-8810.098227,74.020594
4153.963242,6069.688724,-9729.412825,-1110.308913
4153.963567,962.267725,-11184.994271,-518.144159
4153.963891,-3923.091493,-11108.384721,-1258.350101
4153.964216,-8364.327145,-10112.460574,-1258.350101
4153.964540,-9178.553681,-8963.317327,-148.041188
4153.964864,-8290.306550,-7967.393179,-296.082377
4153.965189,-5699.585753,-6435.202183,-1406.391290
4153.965513,518.144159,-7277.907231,-148.041188
4153.965838,5773.606348,-7201.297681,0.000000
4153.966162,10288.862594,-6894.859482,-1332.370696
4153.966487,10214.842000,-8350.440928,-222.061783
4153.966811,8734.430116,-8350.440928,-370.102971
4153.967135,5107.421000,-10342.289223,222.061783
4153.967460,-1036.288319,-11414.822920,0.000000
4153.967784,-5033.400406,-10801.946522,-1332.370696
4153.968109,-9030.512492,-9116.536426,-1110.308913
4153.968433,-8512.368333,-10572.117872,0.000000
4153.968757,-6439.791695,-6894.859482,-1110.308913
4153.969082,-2960.823768,-8427.050478,1406.391290
4153.969406,2442.679609,-5439.278036,-888.247130
4153.969731,6735.874072,-7584.345430,962.267725
4153.970055,10807.006753,-7277.907231,-1332.370696
4153.970379,9696.697840,-8503.660028,0.000000
4153.970704,7476.080014,-9193.145976,0.000000
4153.971028,2886.803174,-11261.603821,296.082377
4153.971353,-2738.761985,-11338.213370,0.000000
4153.971677,-7105.977043,-10265.679673,-1332.370696
4153.972001,-10510.924376,-9729.412825,0.000000
4153.972326,-10584.944971,-8273.831378,-370.102971
4153.972650,-5773.606348,-8273.831378,148.041188
4153.972974,-2516.700203,-6971.469032,-222.061783
4153.973299,3627.009116,-6358.592633,74.020594
4153.973623,6883.915261,-6435.202183,-592.164754
4153.973947,10436.903782,-7967.393179,74.020594
4153.974271,9844.739029,-7431.126331,-370.102971
4153.974596,7476.080014,-10265.679673,814.226536
4153.974920,2368.659014,-10495.508323,222.061783
4153.975244,-2812.782580,-10801.946522,-296.082377
4153.975569,-8068.244768,-9959.241474,0.000000
4153.975893,-9474.636058,-9116.536426,-148.041188
4153.976217,-7994.224174,-8197.221829,-296.082377
4153.976542,-4663.297435,-7431.126331,0.000000
4153.976866,-518.144159,-6052.154434,0.000000
4153.977190,5107.421000,-6971.469032,0.000000
4153.977514,8660.409521,-6588.421283,0.000000
4153.977839,10584.944971,-8120.612279,-148.041188
4153.978163,9400.615463,-8197.221829,0.000000
4153.978487,5773.606348,-10189.070123,296.082377
4153.978812,444.123565,-11031.775171,0.000000
4153.979136,-4737.318029,-10648.727422,-370.102971
4153.979460,-9178.553681,-9729.412825,-592.164754
4153.979784,-10288.862594,-8810.098227,-592.164754
4153.980109,-7994.224174,-7660.954980,-148.041188
4153.980433,-5625.565159,-7124.688131,-740.205942
4153.980757,1850.514855,-6511.811733,-592.164754
4153.981082,6661.853478,-5362.668486,-1258.350101
4153.981406,9844.739029,-8197.221829,0.000000
4153.981730,11399.171507,-7737.564530,-666.185348
4153.982055,8068.244768,-9269.755526,0.000000
4153.982379,4219.173869,-9882.631924,-222.061783
4153.982703,0.000000,-10801.946522,-666.185348
4153.983027,-5625.565159,-10801.946522,-1406.391290
4153.983352,-7994.224174,-9882.631924,-518.144159
4153.983676,-8512.368333,-8503.660028,-888.247130
4153.984000,-7105.977043,-7890.783629,-666.185348
4153.984325,-3404.947333,-6894.859482,-666.185348
4153.984649,2220.617826,-6588.421283,-814.226536
4153.984973,6809.894666,-6588.421283,-592.164754
4153.985298,10362.883188,-7890.783629,-666.185348
4153.985622,10881.027347,-7967.393179,-1184.329507
4153.985946,6809.894666,-10265.679673,-296.082377
4153.986270,2960.823768,-10725.336972,-444.123565
4153.986595,-1924.535449,-10801.946522,-296.082377
4153.986919,-6735.874072,-10035.851024,-222.061783
4153.987243,-9548.656652,-9193.145976,-962.267725
4153.987568,-9178.553681,-8733.488677,-592.164754
4153.987892,-6957.935855,-7507.735880,-1036.288319
4153.988216,-370.102971,-6818.249932,-296.082377
4153.988541,4441.235652,-6511.811733,-592.164754
4153.988865,7772.162391,-6511.811733,-518.144159
4153.989189,10288.862594,-7584.345430,-222.061783
4153.989513,10066.800811,-8963.317327,-370.102971
4153.989838,6513.812290,-9882.631924,0.000000
4153.990162,2294.638420,-10801.946522,-148.041188
4153.990486,-3627.009116,-11338.213370,-296.082377
4153.990811,-7550.100608,-9959.241474,-1036.288319
4153.991135,-8660.409521,-9422.974625,-740.205942
4153.991459,-8068.244768,-8120.612279,-740.205942
4153.991784,-5255.462188,-6894.859482,74.020594
4153.992108,0.000000,-6818.249932,-148.041188
4153.992432,5181.441594,-6435.202183,-518.144159
4153.992756,9030.512492,-7124.688131,0.000000
4153.993081,10066.800811,-8120.612279,-888.247130
4153.993405,8956.491898,-9193.145976,-666.185348
4153.993729,4959.379811,-8963.317327,148.041188
4153.994054,296.082377,-10955.165621,518.144159
4153.994378,-4441.235652,-10418.898773,-296.082377
4153.994702,-8068.244768,-9806.022374,0.000000
4153.995027,-9770.718434,-8733.488677,-222.061783
4153.995351,-7698.141797,-7814.174080,-148.041188
4153.995675,-4515.256246,-6665.030833,-74.020594
4153.995999,1406.391290,-6588.421283,0.000000
4153.996324,5995.668130,-6511.811733,-740.205942
4153.996648,9030.512492,-8427.050478,-444.123565
4153.996972,9252.574275,-7584.345430,-148.041188
4153.997297,7772.162391,-9269.755526,518.144159
4153.997621,3478.967927,-10265.679673,0.000000
4153.997945,-814.226536,-11414.822920,592.164754
4153.998270,-4663.297435,-9882.631924,-296.082377
4153.998594,-9400.615463,-9806.022374,0.000000
4153.998918,-8438.347739,-8810.098227,0.000000
4153.999242,-7328.038826,-7507.735880,-444.123565
4153.999567,-2812.782580,-7048.078582,74.020594
4153.999891,1776.494261,-6971.469032,-814.226536
4154.000215,7254.018232,-7048.078582,0.000000
4154.000540,9326.594869,-7660.954980,0.000000
4154.000864,10288.862594,-9193.145976,0.000000
4154.001188,7179.997637,-9959.241474,-148.041188
4154.001512,2368.659014,-10342.289223,-518.144159
4154.001837,-2516.700203,-11031.775171,148.041188
4154.002161,-6661.853478,-10418.898773,-592.164754
4154.002485,-9326.594869,-9806.022374,0.000000
4154.002810,-9252.574275,-7660.954980,-666.185348
4154.003134,-6365.771101,-7201.297681,0.000000
4154.003458,-1258.350101,-5822.325785,-592.164754
4154.003783,3404.947333,-7354.516781,-444.123565
4154.004107,8808.450710,-7201.297681,-1406.391290
4154.004431,10955.047942,-7660.954980,-444.123565
4154.004755,9474.636058,-8350.440928,-1184.329507
4154.005080,7105.977043,-11568.042020,0.000000
4154.005404,1480.411884,-10418.898773,0.000000
4154.005728,-3552.988522,-11568.042020,0.000000
4154.006053,-8512.368333,-10418.898773,-1110.308913
4154.006377,-9622.677246,-9652.803275,-666.185348
4154.006701,-8364.327145,-7890.783629,-666.185348
4154.007026,-5551.544565,-6741.640382,-370.102971
4154.007350,444.123565,-6971.469032,-148.041188
4154.007674,4811.338623,-5745.716235,-814.226536
4154.007998,9548.656652,-7660.954980,0.000000
4154.008323,11103.089130,-7507.735880,-1258.350101
4154.008647,8438.347739,-9039.926876,296.082377
4154.008971,5773.606348,-10112.460574,-592.164754
4154.009296,666.185348,-10418.898773,370.102971
4154.009620,-5181.441594,-10648.727422,-444.123565
4154.009944,-8660.409521,-9806.022374,-740.205942
4154.010269,-10362.883188,-8503.660028,0.000000
4154.010593,-8364.327145,-8044.002729,-222.061783
4154.010917,-4293.194464,-6205.373534,-1036.288319
4154.011241,888.247130,-6665.030833,-592.164754
4154.011566,6735.874072,-6435.202183,-740.205942
4154.011890,9104.533087,-7507.735880,-296.082377
4154.012214,10066.800811,-6971.469032,-666.185348
4154.012539,7994.224174,-9422.974625,592.164754
4154.012863,3997.112087,-10189.070123,0.000000
4154.013187,296.082377,-11184.994271,666.185348
4154.013512,-4293.194464,-10189.070123,-1036.288319
4154.013836,-8216.285956,-9652.803275,-296.082377
4154.014160,-7698.141797,-7967.393179,222.061783
4154.014484,-5329.482782,-8044.002729,-666.185348
4154.014809,-2516.700203,-6358.592633,0.000000
4154.015133,814.226536,-6052.154434,0.000000
4154.015457,5847.626942,-7048.078582,-370.102971
4154.015782,9178.553681,-7890.783629,-592.164754
4154.016106,9770.718434,-8886.707777,-296.082377
4154.016430,7105.977043,-9422.974625,0.000000
4154.016755,1776.494261,-10801.946522,74.020594
4154.017079,-2442.679609,-11721.261119,296.082377
4154.017403,-7328.038826,-9959.241474,-1036.288319
4154.017727,-9696.697840,-9882.631924,-444.123565
4154.018052,-9178.553681,-7584.345430,0.000000
4154.018376,-6069.688724,-7201.297681,0.000000
4154.018700,-1036.288319,-6741.640382,0.000000
4154.019025,4441.235652,-5898.935335,-962.267725
4154.019349,8364.327145,-7507.735880,0.000000
4154.019673,10732.986159,-7201.297681,-296.082377
4154.019998,9252.574275,-9039.926876,444.123565
4154.020322,6291.750507,-10112.460574,0.000000
4154.020646,3108.864956,-11951.089769,-222.061783
4154.020970,-3330.926739,-10955.165621,-740.205942
4154.021295,-7846.182985,-10418.898773,-1036.288319
4154.021619,-9252.574275,-9422.974625,-1258.350101
4154.021943,-9770.718434,-8503.660028,-296.082377
4154.022268,-6365.771101,-7431.126331,-222.061783
4154.022592,-740.205942,-6818.249932,-444.123565
4154.022916,4811.338623,-6741.640382,222.061783
4154.023241,9400.615463,-6281.983084,-740.205942
4154.023565,10807.006753,-8963.317327,-814.226536
4154.023889,9770.718434,-8427.050478,-518.144159
4154.024213,5033.400406,-10495.508323,740.205942
4154.024538,0.000000,-10572.117872,-740.205942
4154.024862,-5107.421000,-11797.870669,0.000000
4154.025186,-9030.512492,-10035.851024,-592.164754
4154.025511,-10362.883188,-9193.145976,-592.164754
4154.025835,-9326.594869,-7737.564530,-1036.288319
4154.026159,-4071.132681,-7507.735880,74.020594
4154.026483,1480.411884,-5515.887586,-814.226536
4154.026808,6883.915261,-7048.078582,-740.205942
4154.027132,10362.883188,-6741.640382,0.000000
4154.027456,10140.821405,-7737.564530,0.000000
4154.027781,9030.512492,-9499.584175,-592.164754
4154.028105,5255.462188,-10342.289223,0.000000
4154.028429,-444.123565,-11491.432470,-296.082377
4154.028754,-5773.606348,-10342.289223,-888.247130
4154.029078,-9178.553681,-10725.336972,-1110.308913
4154.029402,-10362.883188,-8656.879127,-370.102971
4154.029726,-7254.018232,-7507.735880,296.082377
4154.030051,-1702.473667,-6741.640382,0.000000
4154.030375,2146.597232,-5975.544884,-592.164754
4154.030699,8216.285956,-6741.640382,0.000000
4154.031024,11251.130318,-7277.907231,-518.144159
4154.031348,11029.068536,-8810.098227,-666.185348
4154.031672,9252.574275,-9729.412825,0.000000
4154.031997,2960.823768,-10495.508323,962.267725
4154.032321,-2146.597232,-11491.432470,0.000000
4154.032645,-6957.935855,-10648.727422,-740.205942
4154.032969,-10140.821405,-9882.631924,-370.102971
4154.033294,-10288.862594,-8580.269578,-592.164754
4154.033618,-7031.956449,-7354.516781,-296.082377
4154.033942,-1406.391290,-7048.078582,0.000000
4154.034267,3849.070898,-5745.716235,-296.082377
4154.034591,8808.450710,-7277.907231,0.000000
4154.034915,11473.192101,-7277.907231,-740.205942
4154.035240,9622.677246,-7967.393179,0.000000
4154.035564,7920.203579,-9806.022374,-666.185348
4154.035888,1554.432478,-10572.117872,-222.061783
4154.036212,-2960.823768,-12257.527968,0.000000
4154.036537,-7402.059420,-9499.584175,-1036.288319
4154.036861,-10140.821405,-9882.631924,-666.185348
4154.037185,-9252.574275,-7660.954980,-666.185348
4154.037510,-4737.318029,-7431.126331,666.185348
4154.037834,-740.205942,-6588.421283,-740.205942
4154.038158,6587.832884,-6511.811733,148.041188
4154.038483,8882.471304,-6435.202183,-296.082377
4154.038807,11251.130318,-7737.564530,-296.082377
4154.039131,10288.862594,-7890.783629,0.000000
4154.039455,6291.750507,-10342.289223,-518.144159
4154.039780,296.082377,-11184.994271,-370.102971
4154.040104,-5181.441594,-10572.117872,-962.267725
4154.040428,-10584.944971,-10648.727422,-518.144159
4154.040753,-10436.903782,-9039.926876,-592.164754
4154.041077,-10955.047942,-8120.612279,148.041188
4154.041401,-5699.585753,-7660.954980,0.000000
4154.041726,-740.205942,-6052.154434,-296.082377
4154.042050,5625.565159,-7507.735880,-518.144159
4154.042374,9104.533087,-7277.907231,-740.205942
4154.042698,10362.883188,-7890.783629,-296.082377
4154.043023,8808.450710,-9269.755526,370.102971
4154.043347,5625.565159,-10418.898773,-296.082377
4154.043671,222.061783,-11491.432470,148.041188
4154.043996,-5255.462188,-10265.679673,-666.185348
4154.044320,-8216.285956,-10035.851024,-592.164754
4154.044644,-10140.821405,-9193.145976,-296.082377
4154.044969,-7402.059420,-8044.002729,-222.061783
4154.045293,-4071.132681,-6281.983084,-962.267725
4154.045617,1628.453072,-6971.469032,518.144159
4154.045941,6957.935855,-6435.202183,-148.041188
4154.046266,10362.883188,-8197.221829,-666.185348
4154.046590,10362.883188,-8120.612279,-296.082377
4154.046914,7994.224174,-9116.536426,-370.102971
4154.047239,3404.947333,-10495.508323,-666.185348
4154.047563,-2220.617826,-11414.822920,-296.082377
4154.047887,-7328.038826,-10265.679673,-518.144159
4154.048211,-10732.986159,-9652.803275,-592.164754
4154.048536,-10510.924376,-8580.269578,222.061783
4154.048860,-6069.688724,-7201.297681,-444.123565
4154.049184,-2516.700203,-7354.516781,0.000000
4154.049509,3923.091493,-6281.983084,0.000000
4154.049833,7994.224174,-6588.421283,-666.185348
4154.050157,11103.089130,-7967.393179,-148.041188
4154.050482,10066.800811,-7967.393179,-592.164754
4154.050806,7846.182985,-9729.412825,74.020594
4154.051130,2664.741391,-10112.460574,0.000000
4154.051454,-2072.576638,-10725.336972,-370.102971
4154.051779,-6883.915261,-10572.117872,-222.061783
4154.052103,-9030.512492,-9116.536426,-666.185348
4154.052427,-8660.409521,-8427.050478,-518.144159
4154.052752,-5033.400406,-6971.469032,-444.123565
4154.053076,-962.267725,-7354.516781,222.061783
4154.053400,5033.400406,-6588.421283,-666.185348
4154.053725,9918.759623,-7354.516781,0.000000
4154.054049,10584.944971,-7814.174080,-1110.308913
4154.054373,11103.089130,-9499.584175,-666.185348
4154.054697,5699.585753,-8733.488677,0.000000
4154.055022,962.267725,-11491.432470,148.041188
4154.055346,-4959.379811,-10189.070123,-592.164754
4154.055670,-8956.491898,-10418.898773,0.000000
4154.055995,-11103.089130,-9499.584175,74.020594
4154.056319,-8734.430116,-7814.174080,-518.144159
4154.056643,-4515.256246,-7277.907231,370.102971
4154.056968,666.185348,-6818.249932,-518.144159
4154.057292,6883.915261,-7354.516781,-1036.288319
4154.057616,9178.553681,-7277.907231,-370.102971
4154.057940,10362.883188,-7507.735880,-444.123565
4154.058265,8290.306550,-8656.879127,0.000000
4154.058589,3849.070898,-10342.289223,0.000000
4154.058913,-814.226536,-10572.117872,222.061783
4154.059238,-5107.421000,-10418.898773,-1184.329507
4154.059562,-8734.430116,-10418.898773,-740.205942
4154.059886,-8956.491898,-8733.488677,-592.164754
4154.060211,-7031.956449,-8044.002729,0.000000
4154.060535,-1776.494261,-7277.907231,444.123565
4154.060859,3478.967927,-5975.544884,-370.102971
4154.061183,7920.203579,-6205.373534,-1406.391290
4154.061508,10881.027347,-9346.365076,0.000000
4154.061832,8882.471304,-7201.297681,-1332.370696
4154.062156,8216.285956,-9806.022374,-444.123565
4154.062481,2220.617826,-10878.556072,222.061783
4154.062805,-3330.926739,-10955.165621,-518.144159
4154.063129,-7476.080014,-10112.460574,-666.185348
4154.063454,-10955.047942,-9882.631924,-222.061783
4154.063778,-10732.986159,-8044.002729,-1110.308913
4154.064102,-6291.750507,-7584.345430,-518.144159
4154.064426,-2738.761985,-7124.688131,-444.123565
4154.064751,2812.782580,-6588.421283,-74.020594
4154.065075,6957.935855,-6128.763984,-962.267725
4154.065399,9030.512492,-8503.660028,518.144159
4154.065724,8882.471304,-8044.002729,-1702.473667
4154.066048,6661.853478,-10495.508323,740.205942
4154.066372,296.082377,-10495.508323,74.020594
4154.066697,-3552.988522,-10725.336972,-444.123565
4154.067021,-7476.080014,-10112.460574,-370.102971
4154.067345,-9326.594869,-9729.412825,0.000000
4154.067669,-8142.265362,-7890.783629,-296.082377
4154.067994,-3849.070898,-7124.688131,-370.102971
4154.068318,0.000000,-6741.640382,148.041188
4154.068642,6439.791695,-7124.688131,148.041188
4154.068967,9696.697840,-6894.859482,-518.144159
4154.069291,10584.944971,-8044.002729,-148.041188
4154.069615,9104.533087,-8810.098227,-296.082377
4154.069939,4367.215058,-10189.070123,-148.041188
4154.070264,-666.185348,-10418.898773,0.000000
4154.070588,-5921.647536,-10035.851024,-592.164754
4154.070912,-9326.594869,-9959.241474,-592.164754
4154.071237,-10881.027347,-8810.098227,-592.164754
4154.071561,-8290.306550,-8503.660028,518.144159
4154.071885,-4293.194464,-6741.640382,-222.061783
4154.072210,2220.617826,-6741.640382,0.000000
4154.072534,6143.709319,-6358.592633,-1110.308913
4154.072858,10066.800811,-7277.907231,0.000000
4154.073182,10214.842000,-7967.393179,-814.226536
4154.073506,7994.224174,-9729.412825,-518.144159
4154.073830,4219.173869,-9882.631924,-148.041188
4154.074155,-1998.556043,-10878.556072,0.000000
4154.074479,-5033.400406,-11108.384721,-888.247130
4154.074803,-8364.327145,-9116.536426,-740.205942
4154.075127,-7105.977043,-9499.584175,0.000000
4154.075451,-6069.688724,-7124.688131,-888.247130
4154.075775,-296.082377,-7354.516781,0.000000
4154.076100,2738.761985,-5822.325785,-296.082377
4154.076424,9030.512492,-7507.735880,666.185348
4154.076748,10362.883188,-7431.126331,-1110.308913
4154.077072,10510.924376,-8810.098227,0.000000
4154.077396,6809.894666,-8810.098227,-296.082377
4154.077720,1924.535449,-10878.556072,-592.164754
4154.078045,-3552.988522,-11568.042020,-888.247130
4154.078369,-7994.224174,-10648.727422,-740.205942
4154.078693,-9992.780217,-9806.022374,-370.102971
4154.079017,-9474.636058,-8733.488677,222.061783
4154.079341,-6365.771101,-7277.907231,-518.144159
4154.079665,370.102971,-7354.516781,0.000000
4154.079990,4515.256246,-7048.078582,-1110.308913
4154.080314,9252.574275,-7890.783629,-666.185348
4154.080638,10362.883188,-6665.030833,-222.061783
4154.080962,8882.471304,-8427.050478,0.000000
4154.081286,5403.503377,-10342.289223,-666.185348
4154.081610,1628.453072,-9806.022374,-666.185348
4154.081935,-4515.256246,-10725.336972,222.061783
4154.082259,-7624.121203,-9193.145976,-1258.350101
4154.082583,-8808.450710,-9806.022374,-1332.370696
4154.082907,-7105.977043,-8273.831378,-592.164754
4154.083231,-3849.070898,-6665.030833,-222.061783
4154.083555,1406.391290,-7660.954980,-296.082377
4154.083880,5477.523971,-7048.078582,74.020594
4154.084204,9030.512492,-7277.907231,444.123565
4154.084528,10288.862594,-7737.564530,-1258.350101
4154.084852,7698.141797,-8886.707777,-148.041188
4154.085176,3478.967927,-10035.851024,-592.164754
4154.085500,-1184.329507,-10801.946522,-740.205942
4154.085825,-6587.832884,-10955.165621,74.020594
4154.086149,-9474.636058,-10495.508323,-740.205942
4154.086473,-10140.821405,-8886.707777,-962.267725
4154.086797,-7772.162391,-8273.831378,74.020594
4154.087121,-3108.864956,-7277.907231,0.000000
4154.087445,3849.070898,-6435.202183,0.000000
4154.087769,7624.121203,-6971.469032,74.020594
4154.088094,10510.924376,-7354.516781,-444.123565
4154.088418,9696.697840,-7277.907231,-740.205942
4154.088742,6661.853478,-9652.803275,-148.041188
4154.089066,2960.823768,-10342.289223,-222.061783
4154.089390,-1998.556043,-10418.898773,-296.082377
4154.089714,-6439.791695,-10648.727422,-148.041188
4154.090039,-8734.430116,-9116.536426,-1110.308913
4154.090363,-8808.450710,-9039.926876,-666.185348
4154.090687,-6809.894666,-7890.783629,0.000000
4154.091011,-444.123565,-6588.421283,74.020594
4154.091335,4441.235652,-6741.640382,1184.329507
4154.091659,9474.636058,-7277.907231,0.000000
4154.091984,11769.274478,-7277.907231,-370.102971
4154.092308,9844.739029,-8273.831378,-592.164754
4154.092632,5329.482782,-10112.460574,222.061783
4154.092956,592.164754,-9806.022374,74.020594
4154.093280,-4589.276840,-11414.822920,-148.041188
4154.093604,-8364.327145,-10572.117872,-814.226536
4154.093929,-11325.150913,-9039.926876,-666.185348
4154.094253,-10066.800811,-8503.660028,592.164754
4154.094577,-6217.729913,-6894.859482,-592.164754
4154.094901,518.144159,-7967.393179,0.000000
4154.095225,5403.503377,-6128.763984,-370.102971
4154.095549,9918.759623,-7584.345430,1036.288319
4154.095874,11695.253884,-6971.469032,-888.247130
4154.096198,9474.636058,-8350.440928,222.061783
4154.096522,6365.771101,-9499.584175,-740.205942
4154.096846,1110.308913,-10342.289223,-518.144159
4154.097170,-4293.194464,-10342.289223,-666.185348
4154.097494,-8216.285956,-10189.070123,-370.102971
4154.097819,-9548.656652,-9346.365076,-1110.308913
4154.098143,-9548.656652,-8810.098227,0.000000
4154.098467,-4441.235652,-6818.249932,0.000000
4154.098791,1406.391290,-6511.811733,-222.061783
4154.099115,7920.203579,-7354.516781,-518.144159
4154.099439,10140.821405,-7124.688131,-222.061783
4154.099764,11177.109724,-7737.564530,-740.205942
4154.100088,8438.347739,-9116.536426,-222.061783
4154.100412,3775.050304,-10878.556072,-740.205942
4154.100736,-1480.411884,-10878.556072,-222.061783
4154.101060,-7550.100608,-10725.336972,-1332.370696
4154.101384,-9770.718434,-10495.508323,-1110.308913
4154.101709,-11177.109724,-8886.707777,-962.267725
4154.102033,-9326.594869,-8503.660028,370.102971
4154.102357,-3923.091493,-6052.154434,0.000000
4154.102681,3701.029710,-7584.345430,0.000000
4154.103005,8438.347739,-6818.249932,-296.082377
4154.103329,10881.027347,-7431.126331,0.000000
4154.103654,10288.862594,-7201.297681,-370.102971
4154.103978,7698.141797,-10035.851024,0.000000
4154.104302,3849.070898,-10035.851024,-592.164754
4154.104626,-1258.350101,-11414.822920,222.061783
4154.104950,-6883.915261,-9729.412825,-1776.494261
4154.105274,-9178.553681,-10035.851024,-222.061783
4154.105599,-9918.759623,-7507.735880,0.000000
4154.105923,-6809.894666,-8503.660028,0.000000
4154.106247,-1258.350101,-6741.640382,-518.144159
4154.106571,4293.194464,-6818.249932,740.205942
4154.106895,8882.471304,-6588.421283,-444.123565
4154.107219,11991.336260,-8120.612279,-666.185348
4154.107544,10288.862594,-8120.612279,-1036.288319
4154.107868,6143.709319,-9729.412825,148.041188
4154.108192,1924.535449,-9806.022374,-666.185348
4154.108516,-3404.947333,-12257.527968,444.123565
4154.108840,-8512.368333,-9959.241474,-1480.411884
4154.109164,-11177.109724,-9269.755526,-592.164754
4154.109489,-10288.862594,-8273.831378,-740.205942
4154.109813,-6439.791695,-7507.735880,-222.061783
4154.110137,74.020594,-6435.202183,0.000000
4154.110461,6291.750507,-6971.469032,1036.288319
4154.110785,8142.265362,-5898.935335,-518.144159
4154.111109,12435.459826,-7124.688131,0.000000
4154.111434,8364.327145,-7431.126331,-1184.329507
4154.111758,6069.688724,-11338.213370,444.123565
4154.112082,888.247130,-9806.022374,-1628.453072
4154.112406,-4145.153275,-11951.089769,0.000000
4154.112730,-9030.512492,-9806.022374,-1110.308913
4154.113054,-9696.697840,-9729.412825,-666.185348
4154.113379,-9104.533087,-8503.660028,-296.082377
4154.113703,-4737.318029,-7584.345430,74.020594
4154.114027,2516.700203,-6818.249932,148.041188
4154.114351,7624.121203,-6128.763984,0.000000
4154.114675,9992.780217,-6971.469032,0.000000
4154.114999,11473.192101,-7277.907231,-740.205942
4154.115323,8290.306550,-9039.926876,0.000000
4154.115648,5329.482782,-10342.289223,74.020594
4154.115972,-592.164754,-10801.946522,-814.226536
4154.116296,-7031.956449,-11031.775171,-148.041188
4154.116620,-10066.800811,-10035.851024,-666.185348
4154.116944,-11325.150913,-9499.584175,-592.164754
4154.117268,-7550.100608,-8120.612279,148.041188
4154.117593,-3182.885551,-6971.469032,-444.123565
4154.117917,2072.576638,-5745.716235,-962.267725
4154.118241,6143.709319,-8120.612279,0.000000
4154.118565,8216.285956,-6281.983084,-1702.473667
4154.118889,10584.944971,-7431.126331,-222.061783
4154.119213,7698.141797,-9039.926876,-962.267725
4154.119538,3775.050304,-10265.679673,0.000000
4154.119862,-370.102971,-10648.727422,-1110.308913
4154.120186,-5699.585753,-11261.603821,-962.267725
4154.120510,-8438.347739,-10035.851024,-814.226536
4154.120834,-9770.718434,-8580.269578,0.000000
4154.121158,-6365.771101,-7967.393179,-666.185348
4154.121483,-1406.391290,-7584.345430,222.061783
4154.121807,3997.112087,-6435.202183,-222.061783
4154.122131,8882.471304,-7354.516781,-296.082377
4154.122455,11473.192101,-7507.735880,-1184.329507
4154.122779,8586.388927,-7967.393179,-1332.370696
4154.123103,6069.688724,-9652.803275,0.000000
4154.123428,0.000000,-10035.851024,-74.020594
4154.123752,-4145.153275,-11184.994271,-296.082377
4154.124076,-7476.080014,-9882.631924,-814.226536
4154.124400,-10362.883188,-10112.460574,0.000000
4154.124724,-9252.574275,-8503.660028,-444.123565
4154.125048,-5107.421000,-7277.907231,-148.041188
4154.125373,222.061783,-6818.249932,-296.082377
4154.125697,5033.400406,-6128.763984,-148.041188
4154.126021,9918.759623,-5745.716235,-518.144159
4154.126345,10140.821405,-7431.126331,592.164754
4154.126669,8882.471304,-7584.345430,-148.041188
4154.126993,4959.379811,-9499.584175,-518.144159
4154.127318,666.185348,-10878.556072,-814.226536
4154.127642,-3182.885551,-11414.822920,0.000000
4154.127966,-7179.997637,-9806.022374,-740.205942
4154.128290,-8290.306550,-9499.584175,0.000000
4154.128614,-7105.977043,-8044.002729,74.020594
4154.128938,-3330.926739,-7507.735880,0.000000
4154.129263,2368.659014,-7124.688131,148.041188
4154.129587,6365.771101,-6588.421283,370.102971
4154.129911,9178.553681,-7048.078582,-518.144159
4154.130235,9844.739029,-7354.516781,0.000000
4154.130559,8290.306550,-8810.098227,-888.247130
4154.130883,4441.235652,-10418.898773,296.082377
4154.131208,-1628.453072,-10495.508323,-592.164754
4154.131532,-5921.647536,-11491.432470,0.000000
4154.131856,-9622.677246,-9882.631924,-888.247130
4154.132180,-9326.594869,-9193.145976,-296.082377
4154.132504,-7772.162391,-7584.345430,-592.164754
4154.132828,-1776.494261,-7431.126331,740.205942
4154.133153,2738.761985,-5209.449386,-1036.288319
4154.133477,8068.244768,-7354.516781,0.000000
4154.133801,11029.068536,-6665.030833,-888.247130
4154.134125,9770.718434,-8350.440928,0.000000
4154.134449,7698.141797,-9116.536426,-518.144159
4154.134773,2886.803174,-10035.851024,-296.082377
4154.135098,-2146.597232,-11338.213370,-296.082377
4154.135422,-6439.791695,-10495.508323,-296.082377
4154.135746,-8808.450710,-10189.070123,-222.061783
4154.136070,-9104.533087,-9116.536426,-592.164754
4154.136394,-5847.626942,-7814.174080,0.000000
4154.136718,-222.061783,-7048.078582,370.102971
4154.137043,3849.070898,-6205.373534,-444.123565
4154.137367,9770.718434,-6665.030833,-296.082377
4154.137691,9622.677246,-6665.030833,-962.267725
4154.138015,9400.615463,-9193.145976,74.020594
4154.138339,5255.462188,-9269.755526,-222.061783
4154.138663,814.226536,-11644.651570,148.041188
4154.138988,-3923.091493,-11568.042020,-814.226536
4154.139312,-8882.471304,-10495.508323,-962.267725
4154.139636,-10436.903782,-9116.536426,-518.144159
4154.139960,-9770.718434,-8580.269578,222.061783
4154.140284,-4811.338623,-7507.735880,-814.226536
4154.140608,-666.185348,-6971.469032,-370.102971
4154.140933,5403.503377,-5669.106685,-666.185348
4154.141257,8142.265362,-6205.373534,-1036.288319
4154.141581,10362.883188,-8044.002729,-222.061783
4154.141905,8882.471304,-8120.612279,-740.205942
4154.142229,6217.729913,-10572.117872,370.102971
4154.142553,592.164754,-10265.679673,-444.123565
4154.142877,-3108.864956,-11108.384721,-666.185348
4154.143202,-8734.430116,-10035.851024,-666.185348
4154.143526,-9326.594869,-9576.193725,-370.102971
4154.143850,-8290.306550,-7814.174080,370.102971
4154.144174,-2960.823768,-6971.469032,0.000000
4154.144498,1332.370696,-5975.544884,0.000000
4154.144822,6809.894666,-5822.325785,-888.247130
4154.145147,9326.594869,-6588.421283,-740.205942
4154.145471,10584.944971,-8197.221829,-148.041188
4154.145795,8512.368333,-9039.926876,-814.226536
4154.146119,3552.988522,-10189.070123,222.061783
4154.146443,-666.185348,-11414.822920,0.000000
4154.146767,-6587.832884,-10725.336972,-888.247130
4154.147092,-9474.636058,-11108.384721,-666.185348
4154.147416,-10214.842000,-9269.755526,-222.061783
4154.147740,-7846.182985,-7890.783629,-518.144159
4154.148064,-2812.782580,-6818.249932,296.082377
4154.148388,2294.638420,-5439.278036,-444.123565
4154.148712,9400.615463,-6435.202183,-222.061783
4154.149037,9992.780217,-5669.106685,-888.247130
4154.149361,11473.192101,-8120.612279,370.102971
4154.149685,8068.244768,-9116.536426,-962.267725
4154.150009,2664.741391,-10955.165621,148.041188
4154.150333,-1332.370696,-11568.042020,-296.082377
4154.150657,-5921.647536,-10189.070123,0.000000
4154.150982,-9400.615463,-10342.289223,-296.082377
4154.151306,-9326.594869,-9652.803275,-222.061783
4154.151630,-6587.832884,-7277.907231,-148.041188
4154.151954,-666.185348,-6741.640382,740.205942
4154.152278,4589.276840,-5592.497135,222.061783
4154.152602,9252.574275,-6665.030833,-518.144159
4154.152927,11325.150913,-6281.983084,-444.123565
4154.153251,9844.739029,-8580.269578,0.000000
4154.153575,6143.709319,-10112.460574,-1850.514855
4154.153899,1184.329507,-10955.165621,0.000000
4154.154223,-4441.235652,-11031.775171,-370.102971
4154.154547,-8142.265362,-11108.384721,-444.123565
4154.154872,-10881.027347,-10035.851024,-740.205942
4154.155196,-9992.780217,-8656.879127,74.020594
4154.155520,-6143.709319,-6588.421283,-518.144159
4154.155844,222.061783,-6741.640382,-518.144159
4154.156168,6069.688724,-5898.935335,-444.123565
4154.156492,9548.656652,-5669.106685,0.000000
4154.156817,10955.047942,-7584.345430,-1184.329507
4154.157141,9104.533087,-8350.440928,-740.205942
4154.157465,4737.318029,-9806.022374,-814.226536
4154.157789,0.000000,-11031.775171,-296.082377
4154.158113,-5477.523971,-11338.213370,-370.102971
4154.158437,-8068.244768,-11644.651570,-592.164754
4154.158762,-9844.739029,-9729.412825,-296.082377
4154.159086,-7402.059420,-9193.145976,0.000000
4154.159410,-4145.153275,-6511.811733,0.000000
4154.159734,2294.638420,-6818.249932,148.041188
4154.160058,7698.141797,-6052.154434,-222.061783
4154.160382,10732.986159,-6894.859482,-1036.288319
4154.160707,11325.150913,-6741.640382,-444.123565
4154.161031,8512.368333,-9499.584175,-592.164754
4154.161355,3330.926739,-10112.460574,-518.144159
4154.161679,-1332.370696,-11797.870669,0.000000
4154.162003,-6587.832884,-11261.603821,-740.205942
4154.162327,-10584.944971,-11108.384721,518.144159
4154.162652,-11399.171507,-8503.660028,-888.247130
4154.162976,-8216.285956,-8503.660028,740.205942
4154.163300,-3330.926739,-6435.202183,-592.164754
4154.163624,2960.823768,-6588.421283,-148.041188
4154.163948,8290.306550,-5669.106685,-1036.288319
4154.164272,10362.883188,-6358.592633,-222.061783
4154.164597,9548.656652,-7354.516781,-1332.370696
4154.164921,8216.285956,-9959.241474,-1258.350101
4154.165245,2368.659014,-10112.460574,-296.082377
4154.165569,-2886.803174,-11874.480219,-148.041188
4154.165893,-7105.977043,-10648.727422,-814.226536
4154.166217,-9326.594869,-11644.651570,370.102971
4154.166542,-9622.677246,-9269.755526,-296.082377
4154.166866,-5403.503377,-7584.345430,370.102971
4154.167190,-962.267725,-6511.811733,296.082377
4154.167514,5403.503377,-5898.935335,148.041188
4154.167838,9178.553681,-5822.325785,-1036.288319
4154.168162,12361.439231,-7354.516781,-962.267725
4154.168487,10436.903782,-7354.516781,-888.247130
4154.168811,6809.894666,-9193.145976,-370.102971
4154.169135,1776.494261,-11568.042020,0.000000
4154.169459,-3404.947333,-10572.117872,-1110.308913
4154.169783,-9252.574275,-11031.775171,296.082377
4154.170107,-10584.944971,-9422.974625,-592.164754
4154.170431,-10066.800811,-9422.974625,592.164754
4154.170756,-5847.626942,-7584.345430,0.000000
4154.171080,370.102971,-6281.983084,370.102971
4154.171404,5255.462188,-6281.983084,-148.041188
4154.171728,8290.306550,-6665.030833,-1036.288319
4154.172052,10362.883188,-6971.469032,-1332.370696
4154.172376,8512.368333,-8427.050478,-1036.288319
4154.172701,4885.359217,-10572.117872,0.000000
4154.173025,740.205942,-11108.384721,-592.164754
4154.173349,-3849.070898,-12334.137518,-148.041188
4154.173673,-8068.244768,-10035.851024,0.000000
4154.173998,-9770.718434,-9882.631924,296.082377
4154.174322,-7624.121203,-8503.660028,-222.061783
4154.174646,-3404.947333,-7354.516781,592.164754
4154.174971,2590.720797,-6358.592633,-592.164754
4154.175295,7698.141797,-6358.592633,-666.185348
4154.175619,10955.047942,-6971.469032,-1036.288319
4154.175943,11103.089130,-7277.907231,-1258.350101
4154.176268,7994.224174,-8810.098227,-370.102971
4154.176592,4589.276840,-10418.898773,-222.061783
4154.176916,-740.205942,-11721.261119,-666.185348
4154.177241,-6069.688724,-10955.165621,0.000000
4154.177565,-10658.965565,-9806.022374,0.000000
4154.177889,-11251.130318,-8886.707777,-296.082377
4154.178213,-9326.594869,-8733.488677,-148.041188
4154.178538,-3108.864956,-7354.516781,-518.144159
4154.178862,3108.864956,-5822.325785,0.000000
4154.179186,7550.100608,-6818.249932,-1036.288319
4154.179511,11103.089130,-7507.735880,-1258.350101
4154.179835,10881.027347,-7201.297681,-888.247130
4154.180159,8142.265362,-9729.412825,-666.185348
4154.180483,3923.091493,-11031.775171,-962.267725
4154.180808,-2072.576638,-12180.918418,0.000000
4154.181132,-8290.306550,-10035.851024,-814.226536
4154.181456,-8586.388927,-9729.412825,-592.164754
4154.181781,-10510.924376,-10801.946522,-222.061783
4154.182105,-7328.038826,-7967.393179,74.020594
4154.182429,444.123565,-6358.592633,0.000000
4154.182753,3997.112087,-6818.249932,-518.144159
4154.183078,9548.656652,-6741.640382,-962.267725
4154.183402,10658.965565,-5898.935335,-2072.576638
4154.183726,9400.615463,-9269.755526,-296.082377
4154.184051,6069.688724,-8273.831378,814.226536
4154.184375,2738.761985,-10572.117872,74.020594
4154.184699,-2294.638420,-11338.213370,-740.205942
4154.185023,-8660.409521,-10112.460574,-740.205942
4154.185348,-11251.130318,-9882.631924,296.082377
4154.185672,-10658.965565,-8427.050478,0.000000
4154.185996,-6291.750507,-7967.393179,592.164754
4154.186321,-2146.597232,-6358.592633,-666.185348
4154.186645,4589.276840,-6665.030833,-814.226536
4154.186969,8734.430116,-7890.783629,-592.164754
4154.187293,9252.574275,-6052.154434,-740.205942
4154.187618,11029.068536,-7814.174080,-814.226536
4154.187942,6661.853478,-10955.165621,0.000000
4154.188266,1184.329507,-10418.898773,-592.164754
4154.188591,-3256.906145,-10725.336972,74.020594
4154.188915,-8512.368333,-9882.631924,-444.123565
4154.189239,-9622.677246,-9806.022374,592.164754
4154.189563,-8216.285956,-7737.564530,0.000000
4154.189888,-3849.070898,-7354.516781,518.144159
4154.190212,814.226536,-6435.202183,296.082377
4154.190536,7254.018232,-5439.278036,-148.041188
4154.190861,10510.924376,-7431.126331,-370.102971
4154.191185,10881.027347,-7048.078582,-1406.391290
4154.191509,8068.244768,-8197.221829,-592.164754
4154.191833,4441.235652,-9652.803275,222.061783
4154.192158,-962.267725,-11568.042020,148.041188
4154.192482,-6439.791695,-10572.117872,-740.205942
4154.192806,-10288.862594,-9729.412825,370.102971
4154.193131,-10362.883188,-9116.536426,0.000000
4154.193455,-8142.265362,-9039.926876,0.000000
4154.193779,-2368.659014,-7584.345430,148.041188
4154.194103,4293.194464,-6588.421283,740.205942
4154.194428,5995.668130,-5669.106685,-2220.617826
4154.194752,9474.636058,-8580.269578,444.123565
4154.195076,9474.636058,-5822.325785,-2368.659014
4154.195401,8068.244768,-10035.851024,148.041188
4154.195725,3330.926739,-9806.022374,-1480.411884
4154.196049,-1850.514855,-10878.556072,814.226536
4154.196373,-7105.977043,-9806.022374,-444.123565
4154.196698,-9252.574275,-10342.289223,0.000000
4154.197022,-8290.306550,-9193.145976,0.000000
4154.197346,-6069.688724,-8273.831378,-222.061783
4154.197671,-222.061783,-7431.126331,444.123565
4154.197995,5995.668130,-6128.763984,-1258.350101
4154.198319,9474.636058,-7048.078582,-1406.391290
4154.198643,10362.883188,-7277.907231,-888.247130
4154.198968,9178.553681,-8120.612279,-444.123565
4154.199292,6143.709319,-9422.974625,-370.102971
4154.199616,1406.391290,-10955.165621,-814.226536
4154.199941,-3330.926739,-10572.117872,-666.185348
4154.200265,-8068.244768,-10801.946522,-148.041188
4154.200589,-10881.027347,-9269.755526,0.000000
4154.200913,-9326.594869,-9652.803275,0.000000
4154.201238,-5403.503377,-7277.907231,0.000000
4154.201562,74.020594,-7048.078582,-444.123565
4154.201886,6809.894666,-7277.907231,-740.205942
4154.202211,9178.553681,-5898.935335,-1628.453072
4154.202535,10807.006753,-8273.831378,-592.164754
4154.202859,8364.327145,-7967.393179,-1480.411884
4154.203183,5773.606348,-10495.508323,222.061783
4154.203508,1036.288319,-10342.289223,-296.082377
4154.203832,-4663.297435,-10572.117872,148.041188
4154.204156,-8956.491898,-9729.412825,-962.267725
4154.204481,-9326.594869,-9806.022374,296.082377
4154.204805,-7698.141797,-8197.221829,-518.144159
4154.205129,-2516.700203,-7354.516781,222.061783
4154.205453,1036.288319,-6358.592633,74.020594
4154.205778,7846.182985,-6588.421283,0.000000
4154.206102,9622.677246,-6971.469032,-1998.556043
4154.206426,10955.047942,-8503.660028,-222.061783
4154.206750,8438.347739,-7507.735880,-370.102971
4154.207075,4293.194464,-10648.727422,0.000000
4154.207399,-444.123565,-11414.822920,-518.144159
4154.207723,-5773.606348,-10801.946522,74.020594
4154.208048,-10214.842000,-9729.412825,518.144159
4154.208372,-11103.089130,-8886.707777,0.000000
4154.208696,-7328.038826,-7967.393179,592.164754
4154.209020,-2072.576638,-7354.516781,666.185348
4154.209345,1480.411884,-5439.278036,0.000000
4154.209669,7846.182985,-7660.954980,-222.061783
4154.209993,9104.533087,-6205.373534,-1480.411884
4154.210318,9326.594869,-8656.879127,74.020594
4154.210642,7624.121203,-8810.098227,-1184.329507
4154.210966,3404.947333,-10955.165621,148.041188
4154.211290,-1702.473667,-9806.022374,-148.041188
4154.211615,-6809.894666,-10035.851024,0.000000
4154.211939,-9474.636058,-9729.412825,0.000000
4154.212263,-8956.491898,-9499.584175,0.000000
4154.212588,-6069.688724,-7354.516781,-296.082377
4154.212912,-518.144159,-6818.249932,1036.288319
4154.213236,3849.070898,-5592.497135,-962.267725
4154.213560,9104.533087,-7354.516781,-666.185348
4154.213885,10140.821405,-6741.640382,-1258.350101
4154.214209,8364.327145,-8197.221829,0.000000
4154.214533,6513.812290,-9422.974625,-592.164754
4154.214858,2368.659014,-11184.994271,-814.226536
4154.215182,-3701.029710,-11644.651570,-296.082377
4154.215506,-9030.512492,-9882.631924,-592.164754
4154.215830,-11325.150913,-9576.193725,518.144159
4154.216155,-10658.965565,-8733.488677,0.000000
4154.216479,-6513.812290,-8120.612279,0.000000
4154.216803,-740.205942,-6281.983084,0.000000
4154.217128,6365.771101,-7124.688131,0.000000
4154.217452,9474.636058,-6205.373534,-1184.329507
4154.217776,10807.006753,-7660.954980,-962.267725
4154.218100,9326.594869,-7890.783629,-666.185348
4154.218425,6291.750507,-10572.117872,-666.185348
4154.218749,2590.720797,-10801.946522,-666.185348
4154.219073,-4737.318029,-10878.556072,0.000000
4154.219398,-9548.656652,-9652.803275,222.061783
4154.219722,-10066.800811,-9959.241474,-370.102971
4154.220046,-8438.347739,-9882.631924,296.082377
4154.220370,-4145.153275,-7277.907231,222.061783
4154.220695,2442.679609,-6358.592633,-740.205942
4154.221019,6587.832884,-6818.249932,-444.123565
4154.221343,10362.883188,-6741.640382,-814.226536
4154.221668,10881.027347,-6971.469032,-1036.288319
4154.221992,8808.450710,-9576.193725,74.020594
4154.222316,4663.297435,-9806.022374,-962.267725
4154.222640,-148.041188,-11644.651570,-740.205942
4154.222965,-6809.894666,-10801.946522,-888.247130
4154.223289,-10436.903782,-10878.556072,148.041188
4154.223613,-11103.089130,-8273.831378,0.000000
4154.223938,-8068.244768,-9346.365076,518.144159
4154.224262,-2516.700203,-6205.373534,0.000000
4154.224586,2886.803174,-6128.763984,74.020594
4154.224910,8290.306550,-6052.154434,-962.267725
4154.225235,10807.006753,-7354.516781,-888.247130
4154.225559,9992.780217,-7354.516781,-962.267725
4154.225883,8956.491898,-9346.365076,0.000000
4154.226208,3478.967927,-10189.070123,-740.205942
4154.226532,-814.226536,-10955.165621,-518.144159
4154.226856,-6957.935855,-10265.679673,148.041188
4154.227180,-9696.697840,-10035.851024,-592.164754
4154.227505,-9400.615463,-9499.584175,74.020594
4154.227829,-6069.688724,-7660.954980,0.000000
4154.228153,-444.123565,-6818.249932,740.205942
4154.228478,4737.318029,-5745.716235,-444.123565
4154.228802,9400.615463,-6665.030833,-814.226536
4154.229126,10658.965565,-7201.297681,-1110.308913
4154.229450,9474.636058,-7967.393179,-666.185348
4154.229775,5995.668130,-9422.974625,0.000000
4154.230099,1480.411884,-10189.070123,-592.164754
4154.230423,-4219.173869,-11414.822920,-148.041188
4154.230748,-8438.347739,-10342.289223,-592.164754
4154.231072,-11103.089130,-9882.631924,592.164754
4154.231396,-9992.780217,-7890.783629,296.082377
4154.231720,-5403.503377,-8810.098227,370.102971
4154.232045,740.205942,-6511.811733,-222.061783
4154.232369,5625.565159,-7048.078582,296.082377
4154.232693,8808.450710,-5898.935335,-1332.370696
4154.233018,9030.512492,-7814.174080,0.000000
4154.233342,9326.594869,-7967.393179,-1480.411884
4154.233666,5107.421000,-9806.022374,-444.123565
4154.233990,592.164754,-10648.727422,-1036.288319
4154.234315,-4515.256246,-10342.289223,0.000000
4154.234639,-8808.450710,-10112.460574,0.000000
4154.234963,-9474.636058,-10112.460574,222.061783
4154.235288,-7402.059420,-8733.488677,148.041188
4154.235612,-2812.782580,-7277.907231,-296.082377
4154.235936,2146.597232,-6818.249932,222.061783
4154.236260,7550.100608,-6128.763984,-666.185348
4154.236585,10214.842000,-7124.688131,-1036.288319
4154.236909,9918.759623,-7507.735880,-962.267725
4154.237233,7846.182985,-8733.488677,-296.082377
4154.237558,4071.132681,-10035.851024,-962.267725
4154.237882,-2146.597232,-11184.994271,-518.144159
4154.238206,-7105.977043,-10035.851024,-814.226536
4154.238530,-9992.780217,-10189.070123,444.123565
4154.238855,-11769.274478,-9269.755526,-148.041188
4154.239179,-8290.306550,-8963.317327,370.102971
4154.239503,-3256.906145,-7201.297681,74.020594
4154.239828,2294.638420,-7048.078582,-370.102971
4154.240152,8438.347739,-6741.640382,-1036.288319
4154.240476,9400.615463,-7048.078582,-962.267725
4154.240800,9622.677246,-7584.345430,-740.205942
4154.241125,7772.162391,-8810.098227,-740.205942
4154.241449,2664.741391,-10418.898773,-444.123565
4154.241773,-1702.473667,-11491.432470,296.082377
4154.242097,-7105.977043,-9499.584175,-814.226536
4154.242422,-10214.842000,-10801.946522,0.000000
4154.242746,-9474.636058,-8580.269578,74.020594
4154.243070,-5625.565159,-7814.174080,1110.308913
4154.243395,740.205942,-6971.469032,0.000000
4154.243719,5699.585753,-6971.469032,-666.185348
4154.244043,9622.677246,-7124.688131,-592.164754
4154.244367,10955.047942,-6971.469032,-666.185348
4154.244692,10658.965565,-7967.393179,-148.041188
4154.245016,6661.853478,-8427.050478,-666.185348
4154.245340,1850.514855,-10878.556072,-1110.308913
4154.245665,-4589.276840,-11031.775171,148.041188
4154.245989,-9474.636058,-10035.851024,370.102971
4154.246313,-11843.295072,-8886.707777,444.123565
4154.246637,-9326.594869,-9116.536426,592.164754
4154.246962,-5847.626942,-8120.612279,0.000000
4154.247286,1184.329507,-6894.859482,666.185348
4154.247610,4811.338623,-4443.353888,0.000000
4154.247935,10732.986159,-8197.221829,-1036.288319
4154.248259,10288.862594,-8044.002729,-1554.432478
4154.248583,8956.491898,-8120.612279,-148.041188
4154.248907,5551.544565,-9193.145976,-1036.288319
4154.249232,370.102971,-11261.603821,-370.102971
4154.249556,-4515.256246,-10648.727422,0.000000
4154.249880,-9326.594869,-9269.755526,-444.123565
4154.250205,-10510.924376,-10725.336972,296.082377
4154.250529,-7476.080014,-8273.831378,222.061783
4154.250853,-1924.535449,-7201.297681,592.164754
4154.251177,3034.844362,-6511.811733,-740.205942
4154.251502,7328.038826,-6511.811733,-592.164754
4154.251826,11399.171507,-6511.811733,-888.247130
4154.252150,10584.944971,-6281.983084,-370.102971
4154.252475,10510.924376,-9116.536426,-222.061783
4154.252799,2812.782580,-10035.851024,-592.164754
4154.253123,-1184.329507,-11338.213370,-740.205942
4154.253447,-5329.482782,-10495.508323,-962.267725
4154.253772,-10214.842000,-10418.898773,0.000000
4154.254096,-11251.130318,-8810.098227,74.020594
4154.254420,-8068.244768,-8120.612279,666.185348
4154.254745,-3182.885551,-8503.660028,-222.061783
4154.255069,2368.659014,-6741.640382,-296.082377
4154.255393,7624.121203,-6281.983084,0.000000
4154.255717,9474.636058,-7431.126331,-962.267725
4154.256042,9326.594869,-7737.564530,-814.226536
4154.256366,8216.285956,-9346.365076,-1332.370696
4154.256690,4367.215058,-10112.460574,-1406.391290
4154.257015,-2442.679609,-11338.213370,-518.144159
4154.257339,-6439.791695,-10495.508323,-518.144159
4154.257663,-7994.224174,-9882.631924,1628.453072
4154.257987,-10436.903782,-9116.536426,-296.082377
4154.258312,-4293.194464,-9269.755526,0.000000
4154.258636,-2072.576638,-5975.544884,-666.185348
4154.258960,4959.379811,-7048.078582,-296.082377
4154.259285,9252.574275,-6281.983084,-1406.391290
4154.259609,11029.068536,-7507.735880,-888.247130
4154.259933,8882.471304,-7354.516781,0.000000
4154.260257,6513.812290,-8656.879127,-518.144159
4154.260582,666.185348,-10648.727422,-666.185348
4154.260906,-4737.318029,-11338.213370,-1332.370696
4154.261230,-7698.141797,-10725.336972,-296.082377
4154.261555,-10955.047942,-10112.460574,666.185348
4154.261879,-9770.718434,-7967.393179,74.020594
4154.262203,-5033.400406,-8580.269578,962.267725
4154.262527,-814.226536,-6205.373534,-592.164754
4154.262852,5329.482782,-7201.297681,444.123565
4154.263176,8512.368333,-5286.058936,-1776.494261
4154.263500,10955.047942,-8656.879127,0.000000
4154.263825,9252.574275,-7201.297681,-740.205942
4154.264149,6217.729913,-10035.851024,0.000000
4154.264473,296.082377,-10189.070123,-1258.350101
4154.264797,-3849.070898,-11414.822920,0.000000
4154.265122,-8808.450710,-9652.803275,-518.144159
4154.265446,-9548.656652,-9729.412825,1110.308913
4154.265770,-7402.059420,-8503.660028,74.020594
4154.266095,-3330.926739,-7660.954980,740.205942
4154.266419,1332.370696,-5669.106685,148.041188
4154.266743,7476.080014,-6358.592633,-296.082377
4154.267067,9474.636058,-6435.202183,-1850.514855
4154.267392,10436.903782,-8197.221829,0.000000
4154.267716,8364.327145,-8273.831378,-1628.453072
4154.268040,3775.050304,-10265.679673,-296.082377
4154.268365,-1110.308913,-10725.336972,-962.267725
4154.268689,-6587.832884,-11108.384721,-444.123565
4154.269013,-9770.718434,-9652.803275,-444.123565
4154.269337,-9252.574275,-9576.193725,740.205942
4154.269662,-7031.956449,-7967.393179,148.041188
4154.269986,-2886.803174,-7354.516781,0.000000
4154.270310,2664.741391,-6588.421283,74.020594
4154.270635,7476.080014,-6128.763984,-888.247130
4154.270959,10955.047942,-7201.297681,-1036.288319
4154.271283,9474.636058,-7814.174080,-740.205942
4154.271607,7402.059420,-8963.317327,-666.185348
4154.271932,2664.741391,-9729.412825,-1110.308913
4154.272256,-1998.556043,-11721.261119,-148.041188
4154.272580,-6661.853478,-10112.460574,-1036.288319
4154.272905,-8734.430116,-10418.898773,0.000000
4154.273229,-9178.553681,-8886.707777,-444.123565
4154.273553,-5033.400406,-8120.612279,222.061783
4154.273878,0.000000,-6588.421283,0.000000
4154.274202,5033.400406,-6435.202183,0.000000
4154.274526,9548.656652,-6511.811733,-962.267725
4154.274851,9918.759623,-7354.516781,-1184.329507
4154.275175,9252.574275,-8044.002729,-666.185348
4154.275499,5477.523971,-8963.317327,-888.247130
4154.275823,592.164754,-10878.556072,-1036.288319
4154.276148,-5255.462188,-11184.994271,-518.144159
4154.276472,-9474.636058,-10955.165621,-740.205942
4154.276796,-10288.862594,-10648.727422,0.000000
4154.277121,-8660.409521,-8350.440928,148.041188
4154.277445,-4959.379811,-8120.612279,370.102971
4154.277769,0.000000,-6894.859482,0.000000
4154.278094,5181.441594,-6128.763984,-296.082377
4154.278418,8882.471304,-7048.078582,-518.144159
4154.278742,10362.883188,-7814.174080,-1480.411884
4154.279067,8586.388927,-8350.440928,-814.226536
4154.279391,4441.235652,-8656.879127,-148.041188
4154.279715,-740.205942,-10112.460574,-518.144159
4154.280039,-4885.359217,-10418.898773,-222.061783
4154.280364,-8660.409521,-10035.851024,-296.082377
4154.280688,-8808.450710,-9729.412825,740.205942
4154.281012,-7179.997637,-7201.297681,222.061783
4154.281337,-2664.741391,-8427.050478,666.185348
4154.281661,3256.906145,-5745.716235,-962.267725
4154.281985,7402.059420,-7737.564530,296.082377
4154.282310,10140.821405,-5975.544884,-1036.288319
4154.282634,9622.677246,-7277.907231,518.144159
4154.282958,7179.997637,-9039.926876,-666.185348
4154.283283,2960.823768,-10265.679673,-518.144159
4154.283607,-2146.597232,-10189.070123,-444.123565
4154.283931,-7402.059420,-10801.946522,-518.144159
4154.284255,-10288.862594,-9806.022374,222.061783
4154.284580,-10436.903782,-8656.879127,296.082377
4154.284904,-7179.997637,-8503.660028,518.144159
4154.285228,-2664.741391,-7048.078582,296.082377
4154.285553,3923.091493,-7124.688131,-296.082377
4154.285877,7994.224174,-6818.249932,-148.041188
4154.286201,10955.047942,-6358.592633,-444.123565
4154.286526,9474.636058,-7354.516781,222.061783
4154.286850,7550.100608,-8733.488677,-1036.288319
4154.287174,2664.741391,-10572.117872,-296.082377
4154.287499,-3256.906145,-10265.679673,-740.205942
4154.287823,-6587.832884,-10035.851024,0.000000
4154.288147,-10288.862594,-10265.679673,0.000000
4154.288471,-8882.471304,-8427.050478,0.000000
4154.288796,-4515.256246,-8656.879127,740.205942
4154.289120,666.185348,-6971.469032,-1036.288319
4154.289444,4737.318029,-7660.954980,148.041188
4154.289769,9474.636058,-4979.620737,-1406.391290
4154.290093,10807.006753,-8580.269578,-148.041188
4154.290417,9474.636058,-8120.612279,-1924.535449
4154.290742,5551.544565,-10189.070123,74.020594
4154.291066,-444.123565,-9959.241474,-1110.308913
4154.291390,-5477.523971,-11568.042020,-148.041188
4154.291715,-9548.656652,-10189.070123,-592.164754
4154.292039,-10214.842000,-9806.022374,148.041188
4154.292363,-8734.430116,-9193.145976,370.102971
4154.292687,-4737.318029,-6894.859482,0.000000
4154.293012,2664.741391,-7201.297681,666.185348
4154.293336,5329.482782,-6205.373534,-1628.453072
4154.293660,10955.047942,-7277.907231,-740.205942
4154.293985,10510.924376,-6588.421283,-1628.453072
4154.294309,8882.471304,-9806.022374,-1036.288319
4154.294633,4367.215058,-9576.193725,-1628.453072
4154.294958,-666.185348,-11797.870669,74.020594
4154.295282,-6883.915261,-10725.336972,-962.267725
4154.295606,-8586.388927,-10955.165621,-1258.350101
4154.295931,-9696.697840,-9959.241474,222.061783
4154.296255,-7031.956449,-7507.735880,592.164754
4154.296579,-1036.288319,-7737.564530,-222.061783
4154.296903,3552.988522,-6588.421283,-1110.308913
4154.297228,8586.388927,-7124.688131,0.000000
4154.297552,10140.821405,-5669.106685,-1554.432478
4154.297876,9252.574275,-8733.488677,0.000000
4154.298201,8364.327145,-8120.612279,-962.267725
4154.298525,2738.761985,-10189.070123,0.000000
4154.298849,-2368.659014,-10648.727422,-518.144159
4154.299174,-7254.018232,-10572.117872,-1628.453072
4154.299498,-10436.903782,-9959.241474,222.061783
4154.299822,-9992.780217,-8963.317327,296.082377
4154.300147,-7105.977043,-8427.050478,1036.288319
4154.300471,-296.082377,-5822.325785,370.102971
4154.300795,3478.967927,-6588.421283,370.102971
4154.301119,9326.594869,-6281.983084,-1850.514855
4154.301444,10288.862594,-7354.516781,518.144159
4154.301768,9252.574275,-7201.297681,-1480.411884
4154.302092,6365.771101,-9346.365076,370.102971
4154.302417,1258.350101,-9346.365076,-888.247130
4154.302741,-3256.906145,-12257.527968,666.185348
4154.303065,-8068.244768,-9193.145976,-1184.329507
4154.303390,-7920.203579,-11568.042020,518.144159
4154.303714,-8142.265362,-8810.098227,888.247130
4154.304038,-4145.153275,-6588.421283,1184.329507
4154.304363,1332.370696,-7354.516781,592.164754
4154.304687,6217.729913,-6358.592633,-296.082377
4154.305011,10288.862594,-7201.297681,222.061783
4154.305335,10807.006753,-6358.592633,-222.061783
4154.305660,9474.636058,-7890.783629,-888.247130
4154.305984,4737.318029,-9576.193725,-1110.308913
4154.306308,-1184.329507,-11031.775171,-740.205942
4154.306633,-6069.688724,-10955.165621,-74.020594
4154.306957,-10584.944971,-10801.946522,-888.247130
4154.307281,-10584.944971,-9652.803275,222.061783
4154.307606,-8956.491898,-8810.098227,1110.308913
4154.307930,-4811.338623,-7584.345430,0.000000
4154.308254,1332.370696,-7124.688131,444.123565
4154.308579,6291.750507,-5898.935335,-1036.288319
4154.308903,9474.636058,-6665.030833,-1036.288319
4154.309227,10584.944971,-7354.516781,-222.061783
4154.309551,7105.977043,-8503.660028,-1850.514855
4154.309876,4737.318029,-9959.241474,-962.267725
4154.310200,-1776.494261,-10035.851024,-1850.514855
4154.310524,-4885.359217,-12717.185267,0.000000
4154.310849,-8734.430116,-9806.022374,-740.205942
4154.311173,-8512.368333,-9269.755526,-592.164754
4154.311497,-7698.141797,-10189.070123,740.205942
4154.311822,-1480.411884,-7277.907231,-370.102971
4154.312146,2146.597232,-7584.345430,518.144159
4154.312470,8216.285956,-5745.716235,-888.247130
4154.312795,11325.150913,-7277.907231,-666.185348
4154.313119,9844.739029,-7277.907231,-2442.679609
4154.313443,8438.347739,-9806.022374,0.000000
4154.313767,3552.988522,-9346.365076,-1702.473667
4154.314092,-3108.864956,-11797.870669,0.000000
4154.314416,-8216.285956,-10342.289223,-1184.329507
4154.314740,-10955.047942,-11721.261119,444.123565
4154.315065,-10584.944971,-9422.974625,-444.123565
4154.315389,-7179.997637,-9116.536426,1480.411884
4154.315713,-2516.700203,-6665.030833,0.000000
4154.316038,3552.988522,-7660.954980,222.061783
4154.316362,7920.203579,-5209.449386,-2516.700203
4154.316686,11103.089130,-7967.393179,-148.041188
4154.317011,9696.697840,-6894.859482,-1110.308913
4154.317335,6513.812290,-9039.926876,-296.082377
4154.317659,2368.659014,-10801.946522,-1406.391290
4154.317983,-3256.906145,-10265.679673,-148.041188
4154.318308,-7031.956449,-11108.384721,-962.267725
4154.318632,-8660.409521,-10955.165621,-148.041188
4154.318956,-7476.080014,-9116.536426,1184.329507
4154.319281,-4515.256246,-7967.393179,592.164754
4154.319605,814.226536,-6511.811733,0.000000
4154.319929,5403.503377,-6435.202183,-296.082377
4154.320254,8956.491898,-5898.935335,-370.102971
4154.320578,11177.109724,-6435.202183,-962.267725
4154.320902,10214.842000,-8197.221829,-518.144159
4154.321227,5551.544565,-8810.098227,-1258.350101
4154.321551,0.000000,-10955.165621,-592.164754
4154.321875,-4959.379811,-10342.289223,0.000000
4154.322199,-8734.430116,-10495.508323,222.061783
4154.322524,-10436.903782,-10725.336972,592.164754
4154.322848,-7402.059420,-7967.393179,-74.020594
4154.323172,-4219.173869,-8810.098227,1036.288319
4154.323497,2294.638420,-5592.497135,370.102971
4154.323821,5255.462188,-7124.688131,0.000000
4154.324145,9178.553681,-5822.325785,-1406.391290
4154.324470,9992.780217,-7354.516781,-296.082377
4154.324794,8882.471304,-8427.050478,-1036.288319
4154.325118,4663.297435,-10035.851024,-740.205942
4154.325443,-1554.432478,-9576.193725,-222.061783
4154.325767,-5107.421000,-10418.898773,-592.164754
4154.326091,-7254.018232,-10878.556072,-148.041188
4154.326415,-7698.141797,-10189.070123,518.144159
4154.326740,-6291.750507,-7584.345430,296.082377
4154.327064,-1924.535449,-8197.221829,592.164754
4154.327388,2960.823768,-7048.078582,-444.123565
4154.327713,7328.038826,-7431.126331,296.082377
4154.328037,10510.924376,-5286.058936,-1480.411884
4154.328361,9400.615463,-8350.440928,296.082377
4154.328686,7476.080014,-8427.050478,-2072.576638
4154.329010,2812.782580,-11108.384721,-222.061783
4154.329334,-3478.967927,-9806.022374,-814.226536
4154.329659,-7846.182985,-11338.213370,74.020594
4154.329983,-10214.842000,-9729.412825,-148.041188
4154.330307,-10584.944971,-10189.070123,1036.288319
4154.330631,-7105.977043,-7507.735880,-222.061783
4154.330956,-1480.411884,-7814.174080,296.082377
4154.331280,4293.194464,-6971.469032,-1036.288319
4154.331604,7254.018232,-7354.516781,-222.061783
4154.331929,10066.800811,-6435.202183,-1332.370696
4154.332253,9104.533087,-7967.393179,-962.267725
4154.332577,7105.977043,-9499.584175,-740.205942
4154.332902,1554.432478,-9729.412825,-1480.411884
4154.333226,-3775.050304,-11338.213370,222.061783
4154.333550,-7105.977043,-10112.460574,-296.082377
4154.333875,-9104.533087,-10189.070123,-74.020594
4154.334199,-8956.491898,-8733.488677,74.020594
4154.334523,-5329.482782,-8503.660028,518.144159
4154.334847,2072.576638,-8273.831378,-444.123565
4154.335172,5995.668130,-6435.202183,-1184.329507
4154.335496,9030.512492,-7890.783629,444.123565
4154.335820,9844.739029,-6281.983084,-1850.514855
4154.336145,8808.450710,-8120.612279,148.041188
4154.336469,5551.544565,-10418.898773,-1110.308913
4154.336793,666.185348,-9499.584175,-222.061783
4154.337118,-6143.709319,-9806.022374,-666.185348
4154.337442,-9548.656652,-11568.042020,592.164754
4154.337766,-10436.903782,-9959.241474,148.041188
4154.338091,-8216.285956,-8886.707777,-222.061783
4154.338415,-4515.256246,-7890.783629,962.267725
4154.338739,1258.350101,-6205.373534,-296.082377
4154.339063,6809.894666,-6894.859482,-148.041188
4154.339388,9252.574275,-5745.716235,-1258.350101
4154.339712,9770.718434,-8120.612279,296.082377
4154.340036,8142.265362,-7354.516781,-740.205942
4154.340361,4811.338623,-9806.022374,-814.226536
4154.340685,-1776.494261,-10342.289223,0.000000
4154.341009,-4885.359217,-9959.241474,-296.082377
4154.341334,-9252.574275,-10801.946522,-444.123565
4154.341658,-7550.100608,-10418.898773,74.020594
4154.341982,-5921.647536,-8197.221829,1036.288319
4154.342307,-1628.453072,-6818.249932,296.082377
4154.342631,3701.029710,-7431.126331,0.000000
4154.342955,8290.306550,-6818.249932,74.020594
4154.343279,10214.842000,-6665.030833,-888.247130
4154.343604,9992.780217,-7431.126331,-592.164754
4154.343928,7105.977043,-8886.707777,-1258.350101
4154.344252,2960.823768,-10418.898773,-666.185348
4154.344577,-2220.617826,-9729.412825,-962.267725
4154.344901,-7550.100608,-11184.994271,-222.061783
4154.345225,-9770.718434,-10342.289223,0.000000
4154.345550,-9326.594869,-9269.755526,222.061783
4154.345874,-6217.729913,-8350.440928,1184.329507
4154.346198,-1036.288319,-7354.516781,296.082377
4154.346523,4219.173869,-7124.688131,-1184.329507
4154.346847,8290.306550,-6894.859482,-222.061783
4154.347171,9918.759623,-6052.154434,-1184.329507
4154.347495,8216.285956,-8580.269578,-370.102971
4154.347820,4885.359217,-8427.050478,-1702.473667
4154.348144,1406.391290,-10955.165621,-444.123565
4154.348468,-2886.803174,-10265.679673,-1184.329507
4154.348793,-6883.915261,-10189.070123,-592.164754
4154.349117,-9474.636058,-10189.070123,1332.370696
4154.349441,-7476.080014,-8197.221829,148.041188
4154.349766,-3108.864956,-8963.317327,74.020594
4154.350090,962.267725,-6358.592633,0.000000
4154.350414,5699.585753,-7048.078582,222.061783
4154.350739,9104.533087,-6052.154434,-888.247130
4154.351063,10140.821405,-7660.954980,-1480.411884
4154.351387,9104.533087,-9193.145976,-962.267725
4154.351711,5181.441594,-8503.660028,-1332.370696
4154.352036,-1776.494261,-10801.946522,-962.267725
4154.352360,-5107.421000,-11031.775171,-222.061783
4154.352684,-8734.430116,-10418.898773,-592.164754
4154.353009,-9548.656652,-10035.851024,-444.123565
4154.353333,-7846.182985,-8733.488677,1406.391290
4154.353657,-4219.173869,-6358.592633,370.102971
4154.353982,1184.329507,-8044.002729,148.041188
4154.354306,5255.462188,-5515.887586,-962.267725
4154.354630,8882.471304,-7431.126331,-666.185348
4154.354955,9474.636058,-6665.030833,-592.164754
4154.355279,7772.162391,-8503.660028,-1110.308913
4154.355603,3775.050304,-10342.289223,-518.144159
4154.355927,-1036.288319,-9039.926876,-1110.308913
4154.356252,-5921.647536,-11721.261119,0.000000
4154.356576,-7846.182985,-11108.384721,222.061783
4154.356900,-7772.162391,-9039.926876,148.041188
4154.357225,-5403.503377,-8197.221829,1184.329507
4154.357549,-1258.350101,-6971.469032,0.000000
4154.357873,4145.153275,-6894.859482,-370.102971
4154.358198,6513.812290,-5515.887586,-74.020594
4154.358522,10362.883188,-6665.030833,-666.185348
4154.358846,10362.883188,-7584.345430,-518.144159
4154.359171,6365.771101,-9116.536426,-1998.556043
4154.359495,1332.370696,-10648.727422,-592.164754
4154.359819,-3627.009116,-9652.803275,-962.267725
4154.360143,-8142.265362,-11951.089769,-370.102971
4154.360468,-10732.986159,-10342.289223,-148.041188
4154.360792,-9844.739029,-9729.412825,962.267725
4154.361116,-7624.121203,-7737.564530,444.123565
4154.361441,-666.185348,-6971.469032,592.164754
4154.361765,3256.906145,-6052.154434,-370.102971
4154.362089,7550.100608,-6511.811733,-740.205942
4154.362414,11473.192101,-6281.983084,-1332.370696
4154.362738,9918.759623,-8044.002729,-1184.329507
4154.363062,7105.977043,-8733.488677,-962.267725
4154.363387,2146.597232,-10418.898773,-888.247130
4154.363711,-4145.153275,-11491.432470,296.082377
4154.364035,-7105.977043,-10189.070123,-296.082377
4154.364359,-9104.533087,-9806.022374,666.185348
4154.364684,-8512.368333,-9039.926876,0.000000
4154.365008,-3849.070898,-8120.612279,296.082377
4154.365332,1110.308913,-6205.373534,74.020594
4154.365657,5477.523971,-6665.030833,74.020594
4154.365981,9326.594869,-6128.763984,-1184.329507
4154.366305,11695.253884,-7584.345430,-1110.308913
4154.366630,9400.615463,-8963.317327,-1480.411884
4154.366954,4885.359217,-8427.050478,-592.164754
4154.367278,444.123565,-10112.460574,-666.185348
4154.367603,-5329.482782,-12180.918418,0.000000
4154.367927,-8586.388927,-9499.584175,0.000000
4154.368251,-9474.636058,-9882.631924,888.247130
4154.368575,-9178.553681,-8733.488677,-148.041188
4154.368900,-3182.885551,-8197.221829,814.226536
4154.369224,592.164754,-5209.449386,-666.185348
4154.369548,4811.338623,-7354.516781,0.000000
4154.369873,9770.718434,-5745.716235,-1480.411884
4154.370197,10140.821405,-8580.269578,-370.102971
4154.370521,8512.368333,-7737.564530,-1628.453072
4154.370846,5033.400406,-9882.631924,-814.226536
4154.371170,222.061783,-11414.822920,-370.102971
4154.371494,-4293.194464,-10572.117872,-666.185348
4154.371819,-7772.162391,-9346.365076,148.041188
4154.372143,-9030.512492,-9882.631924,740.205942
4154.372467,-5551.544565,-8810.098227,0.000000
4154.372791,-1628.453072,-7354.516781,0.000000
4154.373116,2812.782580,-6511.811733,-148.041188
4154.373440,5773.606348,-6205.373534,-888.247130
4154.373764,10881.027347,-7431.126331,-592.164754
4154.374089,10066.800811,-7890.783629,-1406.391290
4154.374413,8586.388927,-9806.022374,-592.164754
4154.374737,2590.720797,-9422.974625,-1110.308913
4154.375062,-2220.617826,-10648.727422,-222.061783
4154.375386,-6809.894666,-10418.898773,-666.185348
4154.375711,-10881.027347,-10801.946522,74.020594
4154.376035,-10140.821405,-9269.755526,444.123565
4154.376359,-7920.203579,-8350.440928,592.164754
4154.376684,-2146.597232,-6511.811733,0.000000
4154.377008,1924.535449,-6358.592633,-296.082377
4154.377332,7698.141797,-5592.497135,-2072.576638
4154.377657,9696.697840,-7660.954980,-296.082377
4154.377981,9992.780217,-7507.735880,-1702.473667
4154.378305,6809.894666,-9806.022374,-148.041188
4154.378630,1776.494261,-9039.926876,-1184.329507
4154.378954,-3701.029710,-11491.432470,0.000000
4154.379278,-7105.977043,-10189.070123,-1184.329507
4154.379603,-8956.491898,-10035.851024,518.144159
4154.379927,-8808.450710,-8503.660028,-370.102971
4154.380252,-5181.441594,-8120.612279,0.000000
4154.380576,-888.247130,-6894.859482,222.061783
4154.380900,5255.462188,-6665.030833,74.020594
4154.381225,8882.471304,-6052.154434,-592.164754
4154.381549,10214.842000,-7507.735880,-666.185348
4154.381873,9770.718434,-8044.002729,-888.247130
4154.382198,5477.523971,-9652.803275,-888.247130
4154.382522,-296.082377,-10955.165621,-740.205942
4154.382846,-4441.235652,-10342.289223,0.000000
4154.383171,-8956.491898,-10112.460574,148.041188
4154.383495,-10658.965565,-9959.241474,0.000000
4154.383819,-8660.409521,-7890.783629,888.247130
4154.384144,-5329.482782,-6741.640382,0.000000
4154.384468,0.000000,-7584.345430,74.020594
4154.384793,5181.441594,-6358.592633,-296.082377
4154.385117,9474.636058,-7354.516781,296.082377
4154.385441,9918.759623,-7967.393179,-814.226536
4154.385766,7328.038826,-9193.145976,-1258.350101
4154.386090,3849.070898,-10265.679673,-1480.411884
4154.386414,-962.267725,-10418.898773,-370.102971
4154.386739,-3849.070898,-9882.631924,-148.041188
4154.387063,-7772.162391,-9959.241474,370.102971
4154.387387,-8068.244768,-8733.488677,0.000000
4154.387712,-5773.606348,-7814.174080,0.000000
4154.388036,-2368.659014,-7507.735880,1110.308913
4154.388360,2812.782580,-5515.887586,0.000000
4154.388685,7624.121203,-7354.516781,370.102971
4154.389009,9326.594869,-7584.345430,-1406.391290
4154.389334,9696.697840,-8886.707777,-1332.370696
4154.389658,7179.997637,-8886.707777,-1480.411884
4154.389982,2590.720797,-10342.289223,-666.185348
4154.390307,-2146.597232,-10418.898773,-1258.350101
4154.390631,-6587.832884,-10648.727422,-370.102971
4154.390955,-8882.471304,-9576.193725,0.000000
4154.391280,-8956.491898,-8733.488677,518.144159
4154.391604,-5995.668130,-7201.297681,518.144159
4154.391928,222.061783,-6971.469032,370.102971
4154.392253,4367.215058,-7124.688131,-888.247130
4154.392577,8512.368333,-8273.831378,-962.267725
4154.392902,9178.553681,-7507.735880,-1110.308913
4154.393226,8734.430116,-9193.145976,-592.164754
4154.393550,6809.894666,-8810.098227,-1776.494261
4154.393875,1702.473667,-10495.508323,-888.247130
4154.394199,-2812.782580,-10495.508323,-1036.288319
4154.394523,-6587.832884,-10112.460574,-888.247130
4154.394848,-7698.141797,-9422.974625,0.000000
4154.395172,-7476.080014,-8810.098227,666.185348
4154.395496,-4737.318029,-7048.078582,666.185348
4154.395821,592.164754,-7277.907231,740.205942
4154.396145,5403.503377,-6511.811733,-1036.288319
4154.396469,8512.368333,-7890.783629,-370.102971
4154.396794,9326.594869,-7431.126331,-1924.535449
4154.397118,8808.450710,-9576.193725,-1480.411884
4154.397443,4811.338623,-10112.460574,-1406.391290
4154.397767,148.041188,-10418.898773,-740.205942
4154.398091,-4737.318029,-10342.289223,0.000000
4154.398416,-7920.203579,-10035.851024,-370.102971
4154.398740,-9104.533087,-9346.365076,148.041188
4154.399064,-7402.059420,-7814.174080,296.082377
4154.399389,-4663.297435,-6588.421283,518.144159
4154.399713,1184.329507,-6894.859482,814.226536
4154.400037,4663.297435,-7124.688131,-666.185348
4154.400362,8364.327145,-7431.126331,-444.123565
4154.400686,9030.512492,-8350.440928,-888.247130
4154.401010,8586.388927,-9882.631924,-1850.514855
4154.401335,4071.132681,-10342.289223,-1036.288319
4154.401659,-740.205942,-9806.022374,-666.185348
4154.401984,-4737.318029,-10801.946522,0.000000
4154.402308,-7920.203579,-9499.584175,-444.123565
4154.402632,-7846.182985,-9806.022374,740.205942
4154.402957,-5921.647536,-7048.078582,0.000000
4154.403281,-1406.391290,-7584.345430,1184.329507
4154.403605,2220.617826,-6052.154434,0.000000
4154.403930,6957.935855,-8580.269578,518.144159
4154.404254,8734.430116,-7584.345430,-1406.391290
4154.404578,8142.265362,-8656.879127,-444.123565
4154.404903,6587.832884,-9193.145976,-1628.453072
4154.405227,1998.556043,-10495.508323,-1332.370696
4154.405551,-2812.782580,-10725.336972,-296.082377
4154.405876,-6439.791695,-9422.974625,-370.102971
4154.406200,-7994.224174,-9269.755526,370.102971
4154.406525,-8808.450710,-8350.440928,814.226536
4154.406849,-5995.668130,-6665.030833,370.102971
4154.407173,-1998.556043,-6511.811733,1110.308913
4154.407498,3404.947333,-6588.421283,0.000000
4154.407822,7179.997637,-7277.907231,-370.102971
4154.408146,9474.636058,-7967.393179,0.000000
4154.408471,7920.203579,-8580.269578,-1480.411884
4154.408795,5403.503377,-10035.851024,-1850.514855
4154.409119,1480.411884,-10495.508323,-962.267725
4154.409444,-2960.823768,-10265.679673,-296.082377
4154.409768,-5255.462188,-9882.631924,0.000000
4154.410092,-7476.080014,-9269.755526,370.102971
4154.410417,-6809.894666,-8044.002729,888.247130
4154.410741,-3627.009116,-6741.640382,740.205942
4154.411066,518.144159,-6665.030833,740.205942
4154.411390,5625.565159,-7354.516781,-222.061783
4154.411714,8290.306550,-7277.907231,-1258.350101
4154.412039,8734.430116,-8427.050478,-1406.391290
4154.412363,7254.018232,-8963.317327,-1332.370696
4154.412687,4293.194464,-10112.460574,-1776.494261
4154.413012,222.061783,-10572.117872,-666.185348
4154.413336,-4441.235652,-9882.631924,-1258.350101
4154.413660,-6069.688724,-10265.679673,-222.061783
4154.413985,-12583.501014,-7967.393179,-222.061783
4154.414309,-3627.009116,-8810.098227,1924.535449
4154.414633,-4885.359217,-5592.497135,-814.226536
4154.414958,3034.844362,-9576.193725,2072.576638
4154.415282,6365.771101,-4596.572988,-3256.906145
4154.415607,6365.771101,-9193.145976,-740.205942
4154.415931,8882.471304,-7660.954980,-2072.576638
4154.416255,6661.853478,-9422.974625,-2072.576638
4154.416580,4293.194464,-10725.336972,-1406.391290
4154.416904,-1406.391290,-9422.974625,-1184.329507
4154.417228,-4293.194464,-11031.775171,0.000000
4154.417553,-7772.162391,-9193.145976,-592.164754
4154.417877,-7105.977043,-9576.193725,518.144159
4154.418201,-5773.606348,-7354.516781,444.123565
4154.418526,-1554.432478,-7124.688131,1776.494261
4154.418850,3552.988522,-6971.469032,444.123565
4154.419174,7772.162391,-7048.078582,-814.226536
4154.419499,9474.636058,-7737.564530,-592.164754
4154.419823,8512.368333,-8427.050478,-2220.617826
4154.420148,6143.709319,-9806.022374,-1554.432478
4154.420472,2442.679609,-10112.460574,-1480.411884
4154.420796,-2294.638420,-10495.508323,-370.102971
4154.421121,-6587.832884,-9346.365076,74.020594
4154.421445,-9030.512492,-9806.022374,740.205942
4154.421769,-8660.409521,-8273.831378,518.144159
4154.422094,-6069.688724,-7354.516781,1332.370696
4154.422418,-518.144159,-7431.126331,1110.308913
4154.422742,4071.132681,-7584.345430,-592.164754
4154.423067,6809.894666,-7354.516781,74.020594
4154.423391,9326.594869,-7814.174080,-1036.288319
4154.423715,7698.141797,-8197.221829,-1702.473667
4154.424040,5033.400406,-10572.117872,-888.247130
4154.424364,1184.329507,-9806.022374,-1258.350101
4154.424689,-2738.761985,-10342.289223,148.041188
4154.425013,-6735.874072,-8810.098227,-888.247130
4154.425337,-7550.100608,-9499.584175,1628.453072
4154.425662,-6587.832884,-7431.126331,740.205942
4154.425986,-3330.926739,-7431.126331,1184.329507
4154.426310,-370.102971,-6665.030833,148.041188
4154.426635,5625.565159,-7354.516781,444.123565
4154.426959,7698.141797,-7048.078582,-222.061783
4154.427283,9696.697840,-7048.078582,-1258.350101
4154.427608,8142.265362,-9729.412825,-1554.432478
4154.427932,5255.462188,-9729.412825,-1702.473667
4154.428256,-740.205942,-10725.336972,-1110.308913
4154.428581,-4811.338623,-9882.631924,0.000000
4154.428905,-7476.080014,-10265.679673,-370.102971
4154.429230,-9252.574275,-9269.755526,-148.041188
4154.429554,-7698.141797,-8733.488677,666.185348
4154.429878,-3997.112087,-6511.811733,666.185348
4154.430203,1110.308913,-7967.393179,1258.350101
4154.430527,5107.421000,-5975.544884,-962.267725
4154.430851,8882.471304,-8503.660028,370.102971
4154.431176,8586.388927,-7584.345430,-2294.638420
4154.431500,7550.100608,-9576.193725,-1554.432478
4154.431824,3923.091493,-10035.851024,-1850.514855
4154.432149,-1702.473667,-10725.336972,-1628.453072
4154.432473,-4441.235652,-10265.679673,-296.082377
4154.432797,-7550.100608,-9576.193725,222.061783
4154.433122,-7698.141797,-9039.926876,222.061783
4154.433446,-5255.462188,-7660.954980,444.123565
4154.433771,-1628.453072,-7431.126331,1110.308913
4154.434095,2738.761985,-6511.811733,-518.144159
4154.434419,6587.832884,-7354.516781,-148.041188
4154.434744,9622.677246,-7967.393179,-1036.288319
4154.435068,9474.636058,-8580.269578,-1702.473667
4154.435392,6661.853478,-9882.631924,-2294.638420
4154.435717,2516.700203,-10112.460574,-1850.514855
4154.436041,-2812.782580,-9959.241474,-1184.329507
4154.436365,-6513.812290,-10189.070123,0.000000
4154.436690,-9178.553681,-10035.851024,592.164754
4154.437014,-8364.327145,-7737.564530,444.123565
4154.437339,-5107.421000,-7354.516781,962.267725
4154.437663,-1776.494261,-6128.763984,296.082377
4154.437987,4145.153275,-6818.249932,1258.350101
4154.438312,7994.224174,-6281.983084,-1998.556043
4154.438636,9548.656652,-8350.440928,-222.061783
4154.438960,8290.306550,-7354.516781,-1554.432478
4154.439285,5033.400406,-10112.460574,-1184.329507
4154.439609,1850.514855,-10265.679673,-2220.617826
4154.439933,-2886.803174,-10801.946522,-148.041188
4154.440258,-6883.915261,-9729.412825,296.082377
4154.440582,-7254.018232,-9269.755526,444.123565
4154.440906,-6143.709319,-8503.660028,592.164754
4154.441231,-3330.926739,-7584.345430,1184.329507
4154.441555,1110.308913,-6741.640382,740.205942
4154.441880,6217.729913,-6741.640382,740.205942
4154.442204,7920.203579,-6741.640382,74.020594
4154.442528,9992.780217,-7890.783629,-1258.350101
4154.442853,7920.203579,-9039.926876,-1480.411884
4154.443177,3775.050304,-9576.193725,-2220.617826
4154.443501,-814.226536,-10572.117872,-444.123565
4154.443826,-4959.379811,-10035.851024,148.041188
4154.444150,-7698.141797,-10189.070123,518.144159
4154.444474,-8734.430116,-8810.098227,74.020594
4154.444799,-6661.853478,-7967.393179,1406.391290
4154.445123,-3182.885551,-6281.983084,1036.288319
