#time,accel_x,accel_y,accel_z
4582.779928,444.123565,-8503.660028,-444.123565
4582.780252,148.041188,-8810.098227,-370.102971
4582.780577,444.123565,-8733.488677,-296.082377
4582.780902,444.123565,-8197.221829,222.061783
4582.781226,296.082377,-8656.879127,0.000000
4582.781551,148.041188,-8503.660028,-148.041188
4582.781875,0.000000,-8733.488677,370.102971
4582.782200,518.144159,-8733.488677,296.082377
4582.782524,222.061783,-8427.050478,296.082377
4582.782849,222.061783,-8656.879127,814.226536
4582.783173,444.123565,-8656.879127,592.164754
4582.783498,444.123565,-8733.488677,592.164754
4582.783823,370.102971,-8656.879127,518.144159
4582.784147,518.144159,-8503.660028,814.226536
4582.784472,296.082377,-8503.660028,1036.288319
4582.784796,222.061783,-8733.488677,888.247130
4582.785121,370.102971,-8350.440928,666.185348
4582.785445,370.102971,-8273.831378,666.185348
4582.785770,296.082377,-8350.440928,814.226536
4582.786095,222.061783,-8503.660028,1406.391290
4582.786419,296.082377,-8503.660028,666.185348
4582.786744,592.164754,-8350.440928,666.185348
4582.787068,370.102971,-8273.831378,814.226536
4582.787393,370.102971,-8733.488677,888.247130
4582.787717,444.123565,-8427.050478,666.185348
4582.788042,222.061783,-8656.879127,592.164754
4582.788367,222.061783,-8810.098227,444.123565
4582.788691,444.123565,-8580.269578,296.082377
4582.789016,740.205942,-8273.831378,222.061783
4582.789340,222.061783,-8273.831378,0.000000
4582.789665,222.061783,-8503.660028,370.102971
4582.789989,296.082377,-8503.660028,74.020594
4582.790314,370.102971,-8580.269578,370.102971
4582.790638,518.144159,-8810.098227,74.020594
4582.790963,518.144159,-8733.488677,518.144159
4582.791287,592.164754,-8656.879127,296.082377
4582.791611,666.185348,-9039.926876,222.061783
4582.791935,444.123565,-8656.879127,74.020594
4582.792260,444.123565,-8733.488677,0.000000
4582.792584,444.123565,-8810.098227,-222.061783
4582.792908,296.082377,-8656.879127,74.020594
4582.793232,444.123565,-8120.612279,-148.041188
4582.793556,444.123565,-8656.879127,-296.082377
4582.793881,370.102971,-8503.660028,-592.164754
4582.794205,592.164754,-8810.098227,-296.082377
4582.794529,740.205942,-8733.488677,-296.082377
4582.794853,296.082377,-8810.098227,-148.041188
4582.795177,370.102971,-8733.488677,-740.205942
4582.795502,222.061783,-8427.050478,-444.123565
4582.795826,444.123565,-8580.269578,-740.205942
4582.796150,148.041188,-8733.488677,-666.185348
4582.796474,222.061783,-8427.050478,-814.226536
4582.796799,444.123565,-8656.879127,-962.267725
4582.797123,444.123565,-8350.440928,-1036.288319
4582.797447,740.205942,-9116.536426,-1332.370696
4582.797771,666.185348,-8656.879127,-1258.350101
4582.798095,814.226536,-8427.050478,-740.205942
4582.798420,370.102971,-8503.660028,-1258.350101
4582.798744,592.164754,-8963.317327,-962.267725
4582.799068,444.123565,-8656.879127,-1258.350101
4582.799392,666.185348,-8810.098227,-1184.329507
4582.799716,666.185348,-8656.879127,-1258.350101
4582.800041,370.102971,-8810.098227,-1258.350101
4582.800365,444.123565,-8810.098227,-1110.308913
4582.800689,740.205942,-8733.488677,-1406.391290
4582.801013,666.185348,-8963.317327,-1628.453072
4582.801338,666.185348,-9499.584175,-1184.329507
4582.801662,1036.288319,-8273.831378,-1110.308913
4582.801986,444.123565,-8656.879127,-1110.308913
4582.802310,222.061783,-8503.660028,-1184.329507
4582.802634,518.144159,-9039.926876,-1332.370696
4582.802959,222.061783,-8733.488677,-1258.350101
4582.803283,148.041188,-8810.098227,-1110.308913
4582.803607,74.020594,-8963.317327,-1258.350101
4582.803931,518.144159,-8580.269578,-1036.288319
4582.804255,296.082377,-8350.440928,-1036.288319
4582.804580,888.247130,-8886.707777,-1406.391290
4582.804904,740.205942,-8580.269578,-1184.329507
4582.805228,222.061783,-8656.879127,-814.226536
4582.805552,148.041188,-9039.926876,-1036.288319
4582.805877,0.000000,-9116.536426,-814.226536
4582.806201,74.020594,-8733.488677,-1036.288319
4582.806525,0.000000,-8656.879127,-1036.288319
4582.806849,0.000000,-8350.440928,-666.185348
4582.807173,148.041188,-8656.879127,-962.267725
4582.807498,370.102971,-8503.660028,-814.226536
4582.807822,444.123565,-8350.440928,-740.205942
4582.808146,592.164754,-8656.879127,-814.226536
4582.808470,666.185348,-7890.783629,-592.164754
4582.808794,74.020594,-8580.269578,0.000000
4582.809119,518.144159,-8580.269578,-444.123565
4582.809443,444.123565,-8503.660028,-370.102971
4582.809767,370.102971,-8810.098227,-370.102971
4582.810091,296.082377,-8810.098227,0.000000
4582.810416,296.082377,-8580.269578,0.000000
4582.810740,444.123565,-8580.269578,0.000000
4582.811064,592.164754,-8963.317327,74.020594
4582.811388,814.226536,-8810.098227,-148.041188
4582.811712,1036.288319,-9193.145976,222.061783
4582.812037,666.185348,-8273.831378,148.041188
4582.812361,888.247130,-8733.488677,296.082377
4582.812685,888.247130,-8580.269578,296.082377
4582.813009,962.267725,-8810.098227,518.144159
4582.813333,740.205942,-8656.879127,370.102971
4582.813658,518.144159,-8427.050478,740.205942
4582.813982,666.185348,-8656.879127,592.164754
4582.814306,592.164754,-9116.536426,814.226536
4582.814630,444.123565,-8427.050478,888.247130
4582.814955,518.144159,-8656.879127,740.205942
4582.815279,666.185348,-8656.879127,740.205942
4582.815603,444.123565,-8656.879127,962.267725
4582.815927,444.123565,-8656.879127,962.267725
4582.816251,592.164754,-8427.050478,1110.308913
4582.816576,592.164754,-8427.050478,814.226536
4582.816900,740.205942,-8580.269578,740.205942
4582.817224,518.144159,-8427.050478,888.247130
4582.817548,296.082377,-8810.098227,1036.288319
4582.817872,222.061783,-8503.660028,592.164754
4582.818197,148.041188,-8810.098227,518.144159
4582.818521,222.061783,-8886.707777,370.102971
4582.818845,222.061783,-8273.831378,1110.308913
4582.819169,222.061783,-8733.488677,962.267725
4582.819494,592.164754,-8656.879127,518.144159
4582.819818,666.185348,-8580.269578,518.144159
4582.820142,1110.308913,-8580.269578,518.144159
4582.820466,814.226536,-8580.269578,296.082377
4582.820790,444.123565,-8427.050478,518.144159
4582.821115,222.061783,-8733.488677,296.082377
4582.821439,592.164754,-8886.707777,518.144159
4582.821763,148.041188,-8350.440928,148.041188
4582.822087,222.061783,-8733.488677,222.061783
4582.822411,0.000000,-8197.221829,222.061783
4582.822736,0.000000,-8427.050478,74.020594
4582.823060,0.000000,-9116.536426,74.020594
4582.823384,370.102971,-8580.269578,148.041188
4582.823708,666.185348,-8580.269578,0.000000
4582.824033,592.164754,-8580.269578,74.020594
4582.824357,592.164754,-8503.660028,296.082377
4582.824681,444.123565,-8350.440928,222.061783
4582.825005,518.144159,-8273.831378,-148.041188
4582.825329,222.061783,-8656.879127,0.000000
4582.825654,444.123565,-7890.783629,222.061783
4582.825978,370.102971,-8273.831378,0.000000
4582.826302,74.020594,-8810.098227,-148.041188
4582.826626,370.102971,-8733.488677,-370.102971
4582.826950,148.041188,-8503.660028,-296.082377
4582.827275,740.205942,-8733.488677,-296.082377
4582.827599,518.144159,-8350.440928,-518.144159
4582.827923,592.164754,-8503.660028,-296.082377
4582.828247,518.144159,-8656.879127,-370.102971
4582.828572,962.267725,-8580.269578,-370.102971
4582.828896,370.102971,-9116.536426,-518.144159
4582.829220,222.061783,-8044.002729,-296.082377
4582.829544,74.020594,-8580.269578,-518.144159
4582.829868,0.000000,-8427.050478,-444.123565
4582.830193,0.000000,-8350.440928,-592.164754
4582.830517,0.000000,-8427.050478,-444.123565
4582.830841,0.000000,-8197.221829,-370.102971
4582.831165,148.041188,-8350.440928,-592.164754
4582.831489,518.144159,-8044.002729,-518.144159
4582.831814,740.205942,-8120.612279,-370.102971
4582.832138,592.164754,-8656.879127,-592.164754
4582.832462,666.185348,-8503.660028,-592.164754
4582.832786,666.185348,-8120.612279,-666.185348
4582.833110,222.061783,-8350.440928,-592.164754
4582.833435,74.020594,-8503.660028,-592.164754
4582.833759,0.000000,-7890.783629,-666.185348
4582.834083,-148.041188,-7890.783629,-444.123565
4582.834407,0.000000,-8273.831378,-518.144159
4582.834732,74.020594,-8733.488677,-370.102971
4582.835056,592.164754,-8580.269578,-666.185348
4582.835380,666.185348,-8273.831378,-296.082377
4582.835704,888.247130,-9116.536426,-518.144159
4582.836028,962.267725,-8886.707777,74.020594
4582.836353,666.185348,-8197.221829,0.000000
4582.836677,370.102971,-8810.098227,0.000000
4582.837001,666.185348,-9039.926876,-148.041188
4582.837325,148.041188,-8656.879127,0.000000
4582.837649,0.000000,-8350.440928,-296.082377
4582.837974,222.061783,-8580.269578,0.000000
4582.838298,74.020594,-8580.269578,0.000000
4582.838622,0.000000,-8580.269578,222.061783
4582.838946,592.164754,-8656.879127,296.082377
4582.839271,592.164754,-9039.926876,518.144159
4582.839595,814.226536,-8733.488677,518.144159
4582.839919,740.205942,-8963.317327,518.144159
4582.840243,444.123565,-8427.050478,222.061783
4582.840567,370.102971,-8886.707777,-148.041188
4582.840892,370.102971,-8503.660028,0.000000
4582.841216,370.102971,-9346.365076,0.000000
4582.841540,-296.082377,-8656.879127,-148.041188
4582.841864,0.000000,-8656.879127,0.000000
4582.842188,74.020594,-8656.879127,148.041188
4582.842513,222.061783,-8886.707777,222.061783
4582.842837,296.082377,-8580.269578,370.102971
4582.843161,740.205942,-8656.879127,370.102971
4582.843485,592.164754,-8503.660028,296.082377
4582.843810,518.144159,-8886.707777,222.061783
4582.844134,296.082377,-8427.050478,370.102971
4582.844458,444.123565,-8733.488677,74.020594
4582.844782,74.020594,-8503.660028,-296.082377
4582.845106,148.041188,-8503.660028,0.000000
4582.845431,222.061783,-7890.783629,0.000000
4582.845755,0.000000,-8656.879127,0.000000
4582.846079,296.082377,-8810.098227,0.000000
4582.846403,444.123565,-8656.879127,444.123565
4582.846727,296.082377,-8503.660028,518.144159
4582.847052,518.144159,-8656.879127,296.082377
4582.847376,666.185348,-8427.050478,222.061783
4582.847700,740.205942,-8350.440928,74.020594
4582.848024,518.144159,-8580.269578,0.000000
4582.848349,518.144159,-8580.269578,0.000000
4582.848673,444.123565,-8427.050478,0.000000
4582.848997,148.041188,-8427.050478,0.000000
4582.849321,0.000000,-8273.831378,-296.082377
4582.849645,0.000000,-8580.269578,-222.061783
4582.849970,0.000000,-8503.660028,-74.020594
4582.850294,518.144159,-8427.050478,-148.041188
4582.850618,444.123565,-8733.488677,-222.061783
4582.850942,444.123565,-8886.707777,-222.061783
4582.851266,888.247130,-8810.098227,-148.041188
4582.851591,740.205942,-8580.269578,0.000000
4582.851915,370.102971,-8503.660028,-296.082377
4582.852239,296.082377,-8810.098227,-370.102971
4582.852563,666.185348,-8350.440928,-370.102971
4582.852888,0.000000,-8580.269578,-592.164754
4582.853212,0.000000,-8350.440928,-740.205942
4582.853536,0.000000,-8197.221829,-444.123565
4582.853860,296.082377,-8503.660028,-296.082377
4582.854184,296.082377,-8886.707777,-222.061783
4582.854509,740.205942,-8503.660028,-592.164754
4582.854833,814.226536,-8810.098227,0.000000
4582.855157,740.205942,-8580.269578,0.000000
4582.855481,296.082377,-8427.050478,0.000000
4582.855805,518.144159,-8427.050478,-148.041188
4582.856130,740.205942,-8273.831378,-740.205942
4582.856454,370.102971,-8503.660028,-888.247130
4582.856778,740.205942,-7737.564530,-592.164754
4582.857102,592.164754,-7814.174080,-888.247130
4582.857427,222.061783,-8580.269578,-1036.288319
4582.857751,222.061783,-8273.831378,-962.267725
4582.858075,444.123565,-8733.488677,-444.123565
4582.858399,666.185348,-8810.098227,-296.082377
4582.858723,814.226536,-8580.269578,-666.185348
4582.859048,444.123565,-8963.317327,-370.102971
4582.859372,444.123565,-8656.879127,-592.164754
4582.859696,592.164754,-8580.269578,-1110.308913
4582.860020,296.082377,-8503.660028,-1184.329507
4582.860344,148.041188,-8503.660028,-962.267725
4582.860669,222.061783,-8886.707777,-1258.350101
4582.860993,666.185348,-8963.317327,-1184.329507
4582.861317,296.082377,-8656.879127,-888.247130
4582.861641,444.123565,-8580.269578,-888.247130
4582.861966,740.205942,-8810.098227,-370.102971
4582.862290,518.144159,-8733.488677,-518.144159
4582.862614,740.205942,-8656.879127,-592.164754
4582.862938,444.123565,-8656.879127,-814.226536
4582.863262,518.144159,-8810.098227,-1036.288319
4582.863587,296.082377,-8810.098227,-962.267725
4582.863911,592.164754,-8350.440928,-1480.411884
4582.864235,518.144159,-8733.488677,-1406.391290
4582.864559,296.082377,-8733.488677,-666.185348
4582.864883,518.144159,-8580.269578,-1036.288319
4582.865208,370.102971,-8503.660028,-518.144159
4582.865532,888.247130,-8656.879127,-444.123565
4582.865856,666.185348,-8886.707777,-444.123565
4582.866180,666.185348,-9039.926876,-592.164754
4582.866505,518.144159,-8810.098227,-518.144159
4582.866829,666.185348,-9039.926876,-888.247130
4582.867153,518.144159,-8963.317327,-740.205942
4582.867477,592.164754,-8733.488677,-814.226536
4582.867801,814.226536,-8733.488677,-814.226536
4582.868126,1036.288319,-9422.974625,-1406.391290
4582.868450,814.226536,-8656.879127,-1110.308913
4582.868774,814.226536,-8580.269578,-962.267725
4582.869098,518.144159,-8733.488677,-1110.308913
4582.869422,592.164754,-9116.536426,-1110.308913
4582.869747,666.185348,-8656.879127,-1110.308913
4582.870071,296.082377,-8503.660028,-888.247130
4582.870395,222.061783,-8886.707777,-1110.308913
4582.870719,444.123565,-8733.488677,-1036.288319
4582.871044,222.061783,-8503.660028,-666.185348
4582.871368,518.144159,-8886.707777,-1258.350101
4582.871692,444.123565,-8427.050478,-1184.329507
4582.872016,592.164754,-8656.879127,-1036.288319
4582.872340,296.082377,-8273.831378,-1332.370696
4582.872665,0.000000,-8503.660028,-1036.288319
4582.872989,148.041188,-8656.879127,-962.267725
4582.873313,222.061783,-8580.269578,-740.205942
4582.873637,296.082377,-8886.707777,-1110.308913
4582.873961,740.205942,-8810.098227,-888.247130
4582.874286,592.164754,-8810.098227,-370.102971
4582.874610,444.123565,-8580.269578,-740.205942
4582.874934,370.102971,-9039.926876,-888.247130
4582.875258,666.185348,-9116.536426,-1332.370696
4582.875583,592.164754,-8810.098227,-1184.329507
4582.875907,370.102971,-8503.660028,-1184.329507
4582.876231,444.123565,-8503.660028,-962.267725
4582.876555,666.185348,-8580.269578,-962.267725
4582.876879,296.082377,-8656.879127,-1184.329507
4582.877204,296.082377,-8350.440928,-1184.329507
4582.877528,592.164754,-8886.707777,-888.247130
4582.877852,444.123565,-8503.660028,-740.205942
4582.878176,444.123565,-8656.879127,-740.205942
4582.878500,222.061783,-8810.098227,-444.123565
4582.878825,222.061783,-8503.660028,-962.267725
4582.879149,74.020594,-8427.050478,-1110.308913
4582.879473,148.041188,-8503.660028,0.000000
4582.879797,222.061783,-8197.221829,-666.185348
4582.880122,296.082377,-8350.440928,-666.185348
4582.880446,666.185348,-8197.221829,-518.144159
4582.880770,962.267725,-9116.536426,74.020594
4582.881094,962.267725,-8580.269578,-370.102971
4582.881418,592.164754,-8273.831378,0.000000
4582.881743,666.185348,-8580.269578,0.000000
4582.882067,148.041188,-8427.050478,-148.041188
4582.882391,592.164754,-8503.660028,-148.041188
4582.882715,592.164754,-8120.612279,-148.041188
4582.883039,518.144159,-8503.660028,-222.061783
4582.883364,666.185348,-8580.269578,-296.082377
4582.883688,518.144159,-7584.345430,296.082377
4582.884012,740.205942,-8503.660028,148.041188
4582.884336,444.123565,-8044.002729,-370.102971
4582.884661,888.247130,-8273.831378,222.061783
4582.884985,296.082377,-8503.660028,148.041188
4582.885309,148.041188,-8656.879127,74.020594
4582.885633,296.082377,-8427.050478,-148.041188
4582.885957,222.061783,-8580.269578,-222.061783
4582.886282,222.061783,-8656.879127,74.020594
4582.886606,444.123565,-8427.050478,74.020594
4582.886930,518.144159,-8656.879127,222.061783
4582.887254,518.144159,-8656.879127,0.000000
4582.887578,814.226536,-8350.440928,0.000000
4582.887903,370.102971,-8886.707777,444.123565
4582.888227,444.123565,-8197.221829,370.102971
4582.888551,222.061783,-8656.879127,-222.061783
4582.888875,148.041188,-8656.879127,0.000000
4582.889200,148.041188,-8120.612279,-148.041188
4582.889524,296.082377,-8656.879127,0.000000
4582.889848,148.041188,-8580.269578,0.000000
4582.890172,74.020594,-8656.879127,74.020594
4582.890496,518.144159,-8656.879127,0.000000
4582.890821,740.205942,-8120.612279,-370.102971
4582.891145,666.185348,-8810.098227,0.000000
4582.891469,518.144159,-8350.440928,-444.123565
4582.891793,222.061783,-8427.050478,-222.061783
4582.892118,518.144159,-8580.269578,-296.082377
4582.892442,74.020594,-8656.879127,-296.082377
4582.892766,0.000000,-8656.879127,-370.102971
4582.893090,74.020594,-8963.317327,-370.102971
4582.893414,444.123565,-9039.926876,-296.082377
4582.893739,370.102971,-8733.488677,0.000000
4582.894063,444.123565,-8580.269578,-222.061783
4582.894387,518.144159,-8503.660028,-518.144159
4582.894711,592.164754,-8656.879127,-1036.288319
4582.895036,592.164754,-8044.002729,-518.144159
4582.895360,592.164754,-8273.831378,-1036.288319
4582.895684,148.041188,-8656.879127,-814.226536
4582.896008,370.102971,-8656.879127,-1258.350101
4582.896333,518.144159,-8273.831378,-888.247130
4582.896657,518.144159,-8963.317327,-666.185348
4582.896981,370.102971,-8656.879127,-962.267725
4582.897305,444.123565,-8733.488677,-888.247130
4582.897630,740.205942,-8580.269578,-888.247130
4582.897954,592.164754,-8656.879127,-1406.391290
4582.898278,666.185348,-8963.317327,-1184.329507
4582.898602,370.102971,-8120.612279,-1036.288319
4582.898926,444.123565,-8733.488677,-1258.350101
4582.899251,666.185348,-8733.488677,-1258.350101
4582.899575,740.205942,-8427.050478,-1110.308913
4582.899899,740.205942,-8427.050478,-1184.329507
4582.900223,444.123565,-8503.660028,-666.185348
4582.900548,1258.350101,-8656.879127,-1036.288319
4582.900872,740.205942,-8197.221829,-888.247130
4582.901196,666.185348,-8656.879127,-1332.370696
4582.901520,740.205942,-8656.879127,-1332.370696
4582.901845,592.164754,-8273.831378,-1110.308913
4582.902169,444.123565,-8656.879127,-1110.308913
4582.902493,444.123565,-8273.831378,-1258.350101
4582.902817,518.144159,-8503.660028,-962.267725
4582.903142,962.267725,-8350.440928,-1110.308913
4582.903466,962.267725,-8120.612279,-888.247130
4582.903790,444.123565,-8350.440928,-814.226536
4582.904114,740.205942,-8350.440928,-740.205942
4582.904439,592.164754,-8656.879127,-888.247130
4582.904763,518.144159,-7737.564530,-1184.329507
4582.905087,222.061783,-8733.488677,-1258.350101
4582.905411,518.144159,-8503.660028,-888.247130
4582.905735,0.000000,-8503.660028,-888.247130
4582.906060,370.102971,-8733.488677,-592.164754
4582.906384,370.102971,-8427.050478,-148.041188
4582.906708,518.144159,-8503.660028,-518.144159
4582.907032,666.185348,-8427.050478,-444.123565
4582.907357,592.164754,-8044.002729,0.000000
4582.907681,666.185348,-8503.660028,-370.102971
4582.908005,296.082377,-8044.002729,-592.164754
4582.908329,296.082377,-8580.269578,-370.102971
4582.908654,148.041188,-8350.440928,-370.102971
4582.908978,222.061783,-8427.050478,-148.041188
4582.909302,370.102971,-8350.440928,0.000000
4582.909626,518.144159,-8580.269578,74.020594
4582.909951,814.226536,-8273.831378,0.000000
4582.910275,888.247130,-8197.221829,0.000000
4582.910599,0.000000,-8273.831378,74.020594
4582.910923,740.205942,-8197.221829,-148.041188
4582.911248,444.123565,-8273.831378,0.000000
4582.911572,518.144159,-8427.050478,148.041188
4582.911896,296.082377,-8350.440928,-666.185348
4582.912220,518.144159,-8733.488677,0.000000
4582.912544,444.123565,-8503.660028,370.102971
4582.912869,444.123565,-8886.707777,148.041188
4582.913193,370.102971,-8733.488677,148.041188
4582.913517,666.185348,-8350.440928,296.082377
4582.913841,370.102971,-8810.098227,148.041188
4582.914166,222.061783,-8427.050478,296.082377
4582.914490,296.082377,-8503.660028,222.061783
4582.914814,444.123565,-9116.536426,74.020594
4582.915138,518.144159,-8656.879127,0.000000
4582.915463,518.144159,-8886.707777,74.020594
4582.915787,592.164754,-8580.269578,666.185348
4582.916111,666.185348,-9116.536426,740.205942
4582.916435,666.185348,-8733.488677,444.123565
4582.916760,740.205942,-8656.879127,444.123565
4582.917084,518.144159,-8656.879127,444.123565
4582.917408,444.123565,-8733.488677,296.082377
4582.917732,444.123565,-8503.660028,148.041188
4582.918056,592.164754,-8427.050478,0.000000
4582.918381,518.144159,-8350.440928,0.000000
4582.918705,518.144159,-8427.050478,0.000000
4582.919029,814.226536,-8810.098227,0.000000
4582.919353,666.185348,-8656.879127,222.061783
4582.919678,222.061783,-8503.660028,0.000000
4582.920002,0.000000,-8810.098227,222.061783
4582.920326,296.082377,-8197.221829,0.000000
4582.920650,222.061783,-8427.050478,-296.082377
4582.920975,518.144159,-8810.098227,-222.061783
4582.921299,296.082377,-8503.660028,-296.082377
4582.921623,518.144159,-9039.926876,-296.082377
4582.921947,740.205942,-8886.707777,74.020594
4582.922272,740.205942,-8810.098227,-222.061783
4582.922596,962.267725,-8656.879127,-222.061783
4582.922920,518.144159,-8427.050478,0.000000
4582.923244,666.185348,-8886.707777,74.020594
4582.923569,370.102971,-8580.269578,-370.102971
4582.923893,592.164754,-8656.879127,-518.144159
4582.924217,518.144159,-8656.879127,-444.123565
4582.924541,296.082377,-9039.926876,-370.102971
4582.924865,444.123565,-8886.707777,-444.123565
4582.925190,666.185348,-8580.269578,0.000000
4582.925514,518.144159,-8503.660028,0.000000
4582.925838,592.164754,-8810.098227,-296.082377
4582.926162,518.144159,-8350.440928,74.020594
4582.926487,370.102971,-8580.269578,-296.082377
4582.926811,296.082377,-9116.536426,-222.061783
4582.927135,148.041188,-8350.440928,-296.082377
4582.927459,814.226536,-8733.488677,-518.144159
4582.927784,74.020594,-8656.879127,-444.123565
4582.928108,370.102971,-8810.098227,-148.041188
4582.928432,222.061783,-8733.488677,-148.041188
4582.928756,666.185348,-8427.050478,0.000000
4582.929081,592.164754,-8273.831378,-296.082377
4582.929405,444.123565,-8733.488677,0.000000
4582.929729,444.123565,-8273.831378,296.082377
4582.930053,74.020594,-8273.831378,0.000000
4582.930378,666.185348,-8963.317327,-666.185348
4582.930702,148.041188,-8656.879127,-740.205942
4582.931026,74.020594,-8656.879127,-592.164754
4582.931350,148.041188,-8656.879127,-370.102971
4582.931674,222.061783,-8810.098227,222.061783
4582.931999,592.164754,-8733.488677,0.000000
4582.932323,296.082377,-8580.269578,0.000000
4582.932647,444.123565,-8963.317327,0.000000
4582.932971,444.123565,-8427.050478,0.000000
4582.933296,222.061783,-8197.221829,148.041188
4582.933620,222.061783,-8963.317327,-222.061783
4582.933944,148.041188,-8427.050478,0.000000
4582.934268,74.020594,-8580.269578,0.000000
4582.934593,296.082377,-8656.879127,148.041188
4582.934917,518.144159,-8656.879127,148.041188
4582.935241,370.102971,-8810.098227,148.041188
4582.935565,592.164754,-8503.660028,370.102971
4582.935890,518.144159,-8733.488677,740.205942
4582.936214,222.061783,-8963.317327,148.041188
4582.936538,370.102971,-8503.660028,148.041188
4582.936862,222.061783,-8580.269578,222.061783
4582.937186,74.020594,-8810.098227,0.000000
4582.937511,888.247130,-8733.488677,-74.020594
4582.937835,370.102971,-8886.707777,0.000000
4582.938159,666.185348,-8886.707777,0.000000
4582.938483,370.102971,-8733.488677,222.061783
4582.938808,592.164754,-8503.660028,444.123565
4582.939132,148.041188,-8656.879127,222.061783
4582.939456,222.061783,-8580.269578,0.000000
4582.939780,74.020594,-9116.536426,-296.082377
4582.940105,148.041188,-7814.174080,148.041188
4582.940429,148.041188,-8733.488677,0.000000
4582.940753,222.061783,-8656.879127,-148.041188
4582.941077,370.102971,-8810.098227,222.061783
4582.941402,518.144159,-8810.098227,0.000000
4582.941726,370.102971,-8733.488677,0.000000
4582.942050,74.020594,-8733.488677,0.000000
4582.942374,296.082377,-8733.488677,0.000000
4582.942699,74.020594,-8427.050478,-222.061783
4582.943023,518.144159,-9652.803275,-444.123565
4582.943347,222.061783,-8656.879127,0.000000
4582.943671,0.000000,-8580.269578,-222.061783
4582.943995,222.061783,-8580.269578,0.000000
4582.944320,222.061783,-8273.831378,0.000000
4582.944644,814.226536,-8810.098227,0.000000
4582.944968,592.164754,-8350.440928,0.000000
4582.945292,222.061783,-8733.488677,0.000000
4582.945617,222.061783,-8503.660028,-296.082377
4582.945941,0.000000,-8350.440928,-222.061783
4582.946265,0.000000,-8503.660028,-740.205942
4582.946589,0.000000,-8656.879127,-666.185348
4582.946914,0.000000,-8580.269578,-518.144159
4582.947238,-222.061783,-8120.612279,-814.226536
4582.947562,148.041188,-8580.269578,-444.123565
4582.947886,222.061783,-8503.660028,-148.041188
4582.948211,444.123565,-8350.440928,-444.123565
4582.948535,518.144159,-8580.269578,0.000000
4582.948859,296.082377,-8503.660028,-444.123565
4582.949183,370.102971,-8656.879127,-592.164754
4582.949508,148.041188,-8656.879127,-592.164754
4582.949832,74.020594,-8580.269578,-444.123565
4582.950156,296.082377,-8886.707777,-1036.288319
4582.950480,0.000000,-8503.660028,-370.102971
4582.950804,222.061783,-8350.440928,0.000000
4582.951129,370.102971,-8580.269578,-148.041188
4582.951453,592.164754,-8580.269578,-148.041188
4582.951777,592.164754,-8580.269578,222.061783
4582.952101,296.082377,-8273.831378,-222.061783
4582.952426,740.205942,-8427.050478,-518.144159
4582.952750,444.123565,-8427.050478,-296.082377
4582.953074,148.041188,-8427.050478,0.000000
4582.953398,148.041188,-8580.269578,-444.123565
4582.953723,222.061783,-8503.660028,-148.041188
4582.954047,370.102971,-8350.440928,148.041188
4582.954371,592.164754,-9116.536426,296.082377
4582.954695,592.164754,-8503.660028,0.000000
4582.955020,1036.288319,-8120.612279,-148.041188
4582.955344,592.164754,-8656.879127,-370.102971
4582.955668,888.247130,-9422.974625,-222.061783
4582.955992,518.144159,-8427.050478,-444.123565
4582.956316,370.102971,-8656.879127,-518.144159
4582.956641,444.123565,-8656.879127,-740.205942
4582.956965,222.061783,-8810.098227,-740.205942
4582.957289,222.061783,-8733.488677,-222.061783
4582.957613,148.041188,-8733.488677,-296.082377
4582.957938,370.102971,-8886.707777,0.000000
4582.958262,592.164754,-8120.612279,-148.041188
4582.958586,74.020594,-8503.660028,0.000000
4582.958910,666.185348,-8503.660028,-666.185348
4582.959235,370.102971,-8580.269578,0.000000
4582.959559,370.102971,-8810.098227,-296.082377
4582.959883,444.123565,-8886.707777,-296.082377
4582.960207,370.102971,-8810.098227,-370.102971
4582.960532,666.185348,-9116.536426,-296.082377
4582.960856,814.226536,-8503.660028,0.000000
4582.961180,666.185348,-8733.488677,0.000000
4582.961504,370.102971,-8886.707777,370.102971
4582.961829,518.144159,-8427.050478,0.000000
4582.962153,518.144159,-8733.488677,-296.082377
4582.962477,592.164754,-8580.269578,-444.123565
4582.962801,222.061783,-8963.317327,296.082377
4582.963125,370.102971,-8733.488677,-370.102971
4582.963450,444.123565,-8580.269578,0.000000
4582.963774,740.205942,-8886.707777,222.061783
4582.964098,740.205942,-8963.317327,0.000000
4582.964422,592.164754,-8350.440928,0.000000
4582.964747,444.123565,-8580.269578,-222.061783
4582.965071,444.123565,-8656.879127,-592.164754
4582.965395,444.123565,-8427.050478,-518.144159
4582.965719,888.247130,-8427.050478,-962.267725
4582.966044,518.144159,-8580.269578,-592.164754
4582.966368,444.123565,-8273.831378,-592.164754
4582.966692,518.144159,-8733.488677,-222.061783
4582.967016,962.267725,-8503.660028,-296.082377
4582.967341,666.185348,-8656.879127,-148.041188
4582.967665,592.164754,-8580.269578,-148.041188
4582.967989,666.185348,-8427.050478,-148.041188
4582.968313,296.082377,-8580.269578,-222.061783
4582.968638,222.061783,-8656.879127,-370.102971
4582.968962,296.082377,-8427.050478,-592.164754
4582.969286,296.082377,-8580.269578,-740.205942
4582.969610,296.082377,-8350.440928,-666.185348
4582.969934,962.267725,-8273.831378,-222.061783
4582.970259,518.144159,-8733.488677,0.000000
4582.970583,814.226536,-8656.879127,-370.102971
4582.970907,666.185348,-8350.440928,-518.144159
4582.971231,666.185348,-8580.269578,-148.041188
4582.971556,518.144159,-8350.440928,-962.267725
4582.971880,666.185348,-8656.879127,-1036.288319
4582.972204,518.144159,-8503.660028,-962.267725
4582.972528,370.102971,-8273.831378,-1036.288319
4582.972853,592.164754,-8580.269578,-1184.329507
4582.973177,740.205942,-8350.440928,-1036.288319
4582.973501,666.185348,-8733.488677,-962.267725
4582.973825,592.164754,-8197.221829,-962.267725
4582.974150,888.247130,-8273.831378,-962.267725
4582.974474,222.061783,-8580.269578,-888.247130
4582.974798,296.082377,-8580.269578,-1036.288319
4582.975122,296.082377,-8350.440928,-1036.288319
4582.975446,444.123565,-8733.488677,-1480.411884
4582.975771,222.061783,-8427.050478,-1184.329507
4582.976095,518.144159,-8810.098227,-962.267725
4582.976419,592.164754,-8503.660028,-666.185348
4582.976743,518.144159,-8810.098227,-370.102971
4582.977068,888.247130,-8733.488677,-814.226536
4582.977392,592.164754,-8503.660028,-666.185348
4582.977716,592.164754,-8733.488677,-592.164754
4582.978040,74.020594,-8350.440928,-962.267725
4582.978365,1110.308913,-8503.660028,-814.226536
4582.978689,370.102971,-8197.221829,-518.144159
4582.979013,444.123565,-8427.050478,-740.205942
4582.979337,518.144159,-8503.660028,-740.205942
4582.979662,592.164754,-8963.317327,-296.082377
4582.979986,740.205942,-8427.050478,-148.041188
4582.980310,814.226536,-8503.660028,-444.123565
4582.980634,518.144159,-8427.050478,-518.144159
4582.980959,370.102971,-8427.050478,-592.164754
4582.981283,74.020594,-8580.269578,-740.205942
4582.981607,518.144159,-8427.050478,-592.164754
4582.981931,444.123565,-8580.269578,-666.185348
4582.982255,148.041188,-8503.660028,-518.144159
4582.982580,666.185348,-8503.660028,-296.082377
4582.982904,592.164754,-8197.221829,-370.102971
4582.983228,1036.288319,-8733.488677,-444.123565
4582.983552,592.164754,-8350.440928,-666.185348
4582.983877,592.164754,-8810.098227,-222.061783
4582.984201,222.061783,-8427.050478,-148.041188
4582.984525,296.082377,-8733.488677,-592.164754
4582.984849,370.102971,-8350.440928,-370.102971
4582.985174,370.102971,-8580.269578,-148.041188
4582.985498,148.041188,-8503.660028,0.000000
4582.985822,444.123565,-8886.707777,-370.102971
4582.986146,444.123565,-8810.098227,0.000000
4582.986471,666.185348,-8810.098227,0.000000
4582.986795,148.041188,-8580.269578,148.041188
4582.987119,222.061783,-8580.269578,222.061783
4582.987443,370.102971,-8886.707777,-222.061783
4582.987768,370.102971,-8580.269578,-148.041188
4582.988092,222.061783,-8503.660028,-370.102971
4582.988416,296.082377,-8733.488677,-370.102971
4582.988740,592.164754,-8580.269578,-74.020594
4582.989064,592.164754,-8656.879127,0.000000
4582.989389,666.185348,-8580.269578,148.041188
4582.989713,444.123565,-8273.831378,-222.061783
4582.990037,592.164754,-8656.879127,0.000000
4582.990361,370.102971,-8273.831378,0.000000
4582.990686,296.082377,-8733.488677,-296.082377
4582.991010,444.123565,-8656.879127,-296.082377
4582.991334,296.082377,-8656.879127,-518.144159
4582.991658,148.041188,-8656.879127,-814.226536
4582.991983,518.144159,-8656.879127,-518.144159
4582.992307,222.061783,-8427.050478,-296.082377
4582.992631,148.041188,-8886.707777,-296.082377
4582.992955,444.123565,-8733.488677,-592.164754
4582.993280,444.123565,-8886.707777,-592.164754
4582.993604,222.061783,-8580.269578,-518.144159
4582.993928,0.000000,-8733.488677,-518.144159
4582.994252,148.041188,-8733.488677,-740.205942
4582.994577,74.020594,-8427.050478,-444.123565
4582.994901,148.041188,-8427.050478,-888.247130
4582.995225,296.082377,-8580.269578,-740.205942
4582.995549,666.185348,-8350.440928,-222.061783
4582.995874,444.123565,-8350.440928,-370.102971
4582.996198,518.144159,-8580.269578,-518.144159
4582.996522,592.164754,-8580.269578,-518.144159
4582.996847,814.226536,-8963.317327,-666.185348
4582.997171,148.041188,-8656.879127,-888.247130
4582.997495,370.102971,-8580.269578,-592.164754
4582.997819,296.082377,-8963.317327,-740.205942
4582.998144,148.041188,-8810.098227,-296.082377
4582.998468,518.144159,-8503.660028,-1110.308913
4582.998792,666.185348,-8656.879127,-592.164754
4582.999116,666.185348,-8273.831378,-592.164754
4582.999441,740.205942,-8427.050478,-740.205942
4582.999765,740.205942,-8656.879127,-592.164754
4583.000089,370.102971,-8427.050478,-814.226536
4583.000413,444.123565,-8733.488677,-1110.308913
4583.000738,222.061783,-8350.440928,-888.247130
4583.001062,296.082377,-8733.488677,-592.164754
4583.001386,518.144159,-8656.879127,-1184.329507
4583.001710,666.185348,-8503.660028,-1036.288319
4583.002035,592.164754,-8963.317327,-740.205942
4583.002359,740.205942,-8197.221829,-444.123565
4583.002683,666.185348,-8427.050478,-888.247130
4583.003007,814.226536,-8733.488677,-740.205942
4583.003332,370.102971,-8503.660028,-740.205942
4583.003656,370.102971,-8810.098227,-1110.308913
4583.003980,444.123565,-8503.660028,-962.267725
4583.004304,444.123565,-8886.707777,-814.226536
4583.004629,518.144159,-9039.926876,-1110.308913
4583.004953,222.061783,-8580.269578,-666.185348
4583.005277,1184.329507,-8733.488677,-740.205942
4583.005602,518.144159,-9039.926876,-888.247130
4583.005926,666.185348,-8503.660028,-518.144159
4583.006250,370.102971,-8580.269578,-518.144159
4583.006574,518.144159,-9422.974625,-370.102971
4583.006899,370.102971,-8580.269578,-370.102971
4583.007223,444.123565,-8810.098227,-740.205942
4583.007547,296.082377,-8427.050478,-814.226536
4583.007871,296.082377,-8886.707777,-740.205942
4583.008196,592.164754,-8886.707777,-518.144159
4583.008520,444.123565,-8733.488677,-444.123565
4583.008844,444.123565,-8733.488677,-518.144159
4583.009168,296.082377,-8656.879127,-370.102971
4583.009493,666.185348,-8503.660028,222.061783
4583.009817,296.082377,-8580.269578,-518.144159
4583.010141,296.082377,-8580.269578,-518.144159
4583.010465,444.123565,-8580.269578,-518.144159
4583.010790,370.102971,-8580.269578,0.000000
4583.011114,222.061783,-8656.879127,-148.041188
4583.011438,148.041188,-8580.269578,0.000000
4583.011762,148.041188,-9039.926876,222.061783
4583.012087,370.102971,-8580.269578,0.000000
4583.012411,222.061783,-8503.660028,0.000000
4583.012735,592.164754,-8580.269578,148.041188
4583.013059,518.144159,-8656.879127,74.020594
4583.013384,444.123565,-8350.440928,-222.061783
4583.013708,814.226536,-7967.393179,148.041188
4583.014032,592.164754,-8580.269578,-518.144159
4583.014357,518.144159,-8810.098227,-222.061783
4583.014681,370.102971,-8580.269578,0.000000
4583.015005,518.144159,-8810.098227,148.041188
4583.015329,370.102971,-8580.269578,0.000000
4583.015654,518.144159,-8503.660028,74.020594
4583.015978,296.082377,-8427.050478,148.041188
4583.016302,666.185348,-8273.831378,74.020594
4583.016626,666.185348,-8197.221829,-740.205942
4583.016951,296.082377,-8656.879127,-370.102971
4583.017275,518.144159,-8580.269578,-518.144159
4583.017599,0.000000,-8733.488677,-370.102971
4583.017923,444.123565,-8427.050478,-148.041188
4583.018248,296.082377,-8503.660028,-222.061783
4583.018572,592.164754,-8503.660028,0.000000
4583.018896,444.123565,-8503.660028,-148.041188
4583.019220,740.205942,-8580.269578,-296.082377
4583.019545,666.185348,-8503.660028,-222.061783
4583.019869,740.205942,-8197.221829,-592.164754
4583.020193,518.144159,-8580.269578,-296.082377
4583.020517,444.123565,-8503.660028,-740.205942
4583.020842,1110.308913,-8350.440928,-370.102971
4583.021166,148.041188,-8503.660028,-518.144159
4583.021490,592.164754,-8886.707777,-222.061783
4583.021814,370.102971,-8427.050478,-148.041188
4583.022139,666.185348,-8733.488677,0.000000
4583.022463,518.144159,-8580.269578,-518.144159
4583.022787,518.144159,-8503.660028,-592.164754
4583.023112,444.123565,-8810.098227,-666.185348
4583.023436,518.144159,-8350.440928,-592.164754
4583.023760,518.144159,-8503.660028,-444.123565
4583.024084,444.123565,-8656.879127,-592.164754
4583.024409,518.144159,-8656.879127,-666.185348
4583.024733,592.164754,-8810.098227,-518.144159
4583.025057,222.061783,-8580.269578,-222.061783
4583.025381,444.123565,-8656.879127,-148.041188
4583.025706,370.102971,-8580.269578,-444.123565
4583.026030,666.185348,-8580.269578,-666.185348
4583.026354,592.164754,-8963.317327,-518.144159
4583.026678,592.164754,-8427.050478,-666.185348
4583.027003,296.082377,-8503.660028,-888.247130
4583.027327,518.144159,-8656.879127,-740.205942
4583.027651,518.144159,-8580.269578,-370.102971
4583.027975,370.102971,-8273.831378,-296.082377
4583.028300,222.061783,-8656.879127,-148.041188
4583.028624,148.041188,-8733.488677,0.000000
4583.028948,222.061783,-8810.098227,-444.123565
4583.029272,-296.082377,-8886.707777,0.000000
4583.029597,222.061783,-8427.050478,-518.144159
4583.029921,148.041188,-8963.317327,-370.102971
4583.030245,222.061783,-8273.831378,0.000000
4583.030569,148.041188,-8810.098227,74.020594
4583.030894,74.020594,-8656.879127,0.000000
4583.031218,222.061783,-8350.440928,74.020594
4583.031542,518.144159,-8656.879127,74.020594
4583.031867,592.164754,-8503.660028,370.102971
4583.032191,222.061783,-8044.002729,148.041188
4583.032515,148.041188,-8503.660028,-222.061783
4583.032839,296.082377,-8810.098227,0.000000
4583.033164,296.082377,-8197.221829,0.000000
4583.033488,518.144159,-8503.660028,-444.123565
4583.033812,296.082377,-8044.002729,148.041188
4583.034136,444.123565,-8810.098227,0.000000
4583.034461,444.123565,-8733.488677,0.000000
4583.034785,592.164754,-8580.269578,0.000000
4583.035109,370.102971,-8580.269578,74.020594
4583.035433,222.061783,-8656.879127,0.000000
4583.035758,296.082377,-8580.269578,0.000000
4583.036082,74.020594,-8733.488677,0.000000
4583.036406,0.000000,-8580.269578,222.061783
4583.036730,370.102971,-8733.488677,0.000000
4583.037055,370.102971,-8503.660028,74.020594
4583.037379,370.102971,-8427.050478,444.123565
4583.037703,-296.082377,-9269.755526,518.144159
4583.038027,296.082377,-8427.050478,518.144159
4583.038352,148.041188,-8580.269578,74.020594
4583.038676,148.041188,-8503.660028,0.000000
4583.039000,148.041188,-8503.660028,74.020594
4583.039325,444.123565,-8810.098227,0.000000
4583.039649,222.061783,-8580.269578,-222.061783
4583.039973,222.061783,-8427.050478,-222.061783
4583.040297,296.082377,-8810.098227,-148.041188
4583.040622,1258.350101,-7967.393179,0.000000
4583.040946,444.123565,-8656.879127,0.000000
4583.041270,370.102971,-8886.707777,0.000000
4583.041594,296.082377,-8427.050478,0.000000
4583.041919,370.102971,-8963.317327,0.000000
4583.042243,222.061783,-8580.269578,-148.041188
4583.042567,296.082377,-8810.098227,-370.102971
4583.042891,74.020594,-8503.660028,-592.164754
4583.043216,222.061783,-8427.050478,-148.041188
4583.043540,296.082377,-8810.098227,-370.102971
4583.043864,666.185348,-8733.488677,-296.082377
4583.044188,444.123565,-8120.612279,-222.061783
4583.044513,370.102971,-8656.879127,-222.061783
4583.044837,148.041188,-8044.002729,0.000000
4583.045161,370.102971,-8580.269578,-222.061783
4583.045485,296.082377,-8810.098227,-518.144159
4583.045810,74.020594,-8427.050478,0.000000
4583.046134,222.061783,-8810.098227,0.000000
4583.046458,148.041188,-8580.269578,-370.102971
4583.046782,296.082377,-8427.050478,0.000000
4583.047107,148.041188,-8886.707777,-148.041188
4583.047431,518.144159,-8503.660028,0.000000
4583.047755,962.267725,-8427.050478,0.000000
4583.048080,444.123565,-8810.098227,-444.123565
4583.048404,370.102971,-8580.269578,0.000000
4583.048728,444.123565,-8580.269578,-518.144159
4583.049052,666.185348,-8273.831378,0.000000
4583.049377,518.144159,-8197.221829,-296.082377
4583.049701,222.061783,-8810.098227,-296.082377
4583.050025,370.102971,-8427.050478,-370.102971
4583.050349,444.123565,-8733.488677,-222.061783
4583.050674,592.164754,-8733.488677,-296.082377
4583.050998,370.102971,-8273.831378,222.061783
4583.051322,296.082377,-8656.879127,-370.102971
4583.051646,370.102971,-8580.269578,-370.102971
4583.051971,296.082377,-8350.440928,-592.164754
4583.052295,222.061783,-8733.488677,-592.164754
4583.052619,148.041188,-8656.879127,-444.123565
4583.052943,0.000000,-8656.879127,-296.082377
4583.053268,518.144159,-8427.050478,74.020594
4583.053592,148.041188,-8580.269578,0.000000
4583.053916,518.144159,-8810.098227,0.000000
4583.054240,518.144159,-8503.660028,148.041188
4583.054565,370.102971,-8503.660028,0.000000
4583.054889,444.123565,-8810.098227,0.000000
4583.055213,296.082377,-8503.660028,0.000000
4583.055537,518.144159,-8656.879127,0.000000
4583.055862,370.102971,-8503.660028,-518.144159
4583.056186,518.144159,-8886.707777,592.164754
4583.056510,444.123565,-8427.050478,0.000000
4583.056835,592.164754,-8963.317327,148.041188
4583.057159,666.185348,-8197.221829,-148.041188
4583.057483,1110.308913,-8810.098227,74.020594
4583.057807,740.205942,-8427.050478,-148.041188
4583.058132,222.061783,-8656.879127,-444.123565
4583.058456,222.061783,-8886.707777,-222.061783
4583.058780,296.082377,-8733.488677,0.000000
4583.059104,296.082377,-8656.879127,-296.082377
4583.059429,518.144159,-8733.488677,-518.144159
4583.059753,666.185348,-8656.879127,0.000000
4583.060077,592.164754,-8656.879127,-148.041188
4583.060401,370.102971,-8656.879127,0.000000
4583.060726,296.082377,-8427.050478,0.000000
4583.061050,444.123565,-8963.317327,0.000000
4583.061374,296.082377,-8503.660028,0.000000
4583.061698,222.061783,-8963.317327,0.000000
4583.062023,296.082377,-8580.269578,0.000000
4583.062347,592.164754,-8733.488677,0.000000
4583.062671,444.123565,-8656.879127,0.000000
4583.062995,666.185348,-8963.317327,148.041188
4583.063320,740.205942,-8810.098227,0.000000
4583.063644,518.144159,-8810.098227,370.102971
4583.063968,518.144159,-8503.660028,222.061783
4583.064292,444.123565,-8886.707777,0.000000
4583.064617,592.164754,-8810.098227,-370.102971
4583.064941,592.164754,-8733.488677,0.000000
4583.065265,444.123565,-8427.050478,-296.082377
4583.065590,370.102971,-8656.879127,-222.061783
4583.065914,444.123565,-8656.879127,-296.082377
4583.066238,592.164754,-8733.488677,0.000000
4583.066562,370.102971,-8810.098227,74.020594
4583.066887,296.082377,-8427.050478,0.000000
4583.067211,296.082377,-8733.488677,0.000000
4583.067535,370.102971,-8810.098227,-444.123565
4583.067859,592.164754,-8580.269578,-666.185348
4583.068184,666.185348,-8427.050478,-666.185348
4583.068508,518.144159,-8350.440928,-444.123565
4583.068832,444.123565,-9116.536426,-518.144159
4583.069156,444.123565,-8656.879127,-444.123565
4583.069481,518.144159,-8656.879127,-518.144159
4583.069805,592.164754,-8580.269578,-518.144159
4583.070129,370.102971,-8197.221829,-370.102971
4583.070453,444.123565,-8886.707777,-370.102971
4583.070778,370.102971,-8427.050478,-740.205942
4583.071102,592.164754,-8350.440928,-666.185348
4583.071426,444.123565,-8733.488677,-962.267725
4583.071750,518.144159,-8273.831378,-370.102971
4583.072075,444.123565,-8503.660028,-592.164754
4583.072399,518.144159,-8580.269578,-592.164754
4583.072723,518.144159,-8580.269578,-444.123565
4583.073047,0.000000,-8963.317327,74.020594
4583.073372,518.144159,-8580.269578,0.000000
4583.073696,148.041188,-8656.879127,-222.061783
4583.074020,222.061783,-8580.269578,-592.164754
4583.074345,370.102971,-8503.660028,-518.144159
4583.074669,518.144159,-8427.050478,-740.205942
4583.074993,444.123565,-8273.831378,-962.267725
4583.075317,518.144159,-8427.050478,-592.164754
4583.075642,592.164754,-8350.440928,-666.185348
4583.075966,518.144159,-8656.879127,-740.205942
4583.076290,740.205942,-8580.269578,-740.205942
4583.076614,814.226536,-8733.488677,-444.123565
4583.076939,518.144159,-8656.879127,-518.144159
4583.077263,444.123565,-8733.488677,-888.247130
4583.077587,592.164754,-8503.660028,-740.205942
4583.077911,370.102971,-8427.050478,-962.267725
4583.078236,370.102971,-8427.050478,-962.267725
4583.078560,888.247130,-8810.098227,-666.185348
4583.078884,592.164754,-8503.660028,-666.185348
4583.079208,518.144159,-8733.488677,-370.102971
4583.079533,370.102971,-8580.269578,-518.144159
4583.079857,592.164754,-8733.488677,0.000000
4583.080181,888.247130,-8197.221829,-296.082377
4583.080505,444.123565,-8580.269578,-296.082377
4583.080830,666.185348,-8580.269578,-148.041188
4583.081154,370.102971,-8810.098227,-444.123565
4583.081478,444.123565,-8656.879127,-296.082377
4583.081802,370.102971,-8733.488677,-592.164754
4583.082127,296.082377,-8656.879127,0.000000
4583.082451,370.102971,-8580.269578,-222.061783
4583.082775,518.144159,-8810.098227,0.000000
4583.083100,814.226536,-8656.879127,0.000000
4583.083424,592.164754,-8427.050478,-666.185348
4583.083748,370.102971,-8580.269578,-518.144159
4583.084072,296.082377,-8810.098227,-518.144159
4583.084397,888.247130,-9346.365076,-666.185348
4583.084721,518.144159,-8580.269578,-518.144159
4583.085045,370.102971,-8427.050478,-370.102971
4583.085369,444.123565,-9039.926876,-296.082377
4583.085694,518.144159,-8350.440928,-222.061783
4583.086018,370.102971,-8656.879127,0.000000
4583.086342,74.020594,-8580.269578,0.000000
4583.086666,370.102971,-8580.269578,-296.082377
4583.086991,592.164754,-8656.879127,-518.144159
4583.087315,444.123565,-8273.831378,-370.102971
4583.087639,592.164754,-8733.488677,-370.102971
4583.087963,444.123565,-8350.440928,-592.164754
4583.088288,592.164754,-8503.660028,0.000000
4583.088612,888.247130,-8197.221829,0.000000
4583.088936,592.164754,-8580.269578,-370.102971
4583.089260,444.123565,-8580.269578,74.020594
4583.089585,296.082377,-8503.660028,-148.041188
4583.089909,370.102971,-8580.269578,-666.185348
4583.090233,296.082377,-7967.393179,-370.102971
4583.090558,444.123565,-8886.707777,-444.123565
4583.090882,444.123565,-8503.660028,-740.205942
4583.091206,296.082377,-8656.879127,-444.123565
4583.091530,518.144159,-8044.002729,-592.164754
4583.091855,518.144159,-8427.050478,-370.102971
4583.092179,518.144159,-8503.660028,-296.082377
4583.092503,888.247130,-8197.221829,-148.041188
4583.092828,814.226536,-8503.660028,-518.144159
4583.093152,370.102971,-8733.488677,-740.205942
4583.093476,518.144159,-8120.612279,-666.185348
4583.093801,518.144159,-8810.098227,-592.164754
4583.094125,222.061783,-8580.269578,-444.123565
4583.094449,148.041188,-8427.050478,-666.185348
4583.094774,518.144159,-8733.488677,-444.123565
4583.095098,370.102971,-8733.488677,-518.144159
4583.095423,518.144159,-8427.050478,-518.144159
4583.095747,814.226536,-8656.879127,-518.144159
4583.096071,296.082377,-8427.050478,-444.123565
4583.096396,148.041188,-8580.269578,-666.185348
4583.096720,222.061783,-8503.660028,-518.144159
4583.097044,444.123565,-8810.098227,-740.205942
4583.097369,518.144159,-8580.269578,-740.205942
4583.097693,444.123565,-8350.440928,-592.164754
4583.098017,444.123565,-8733.488677,-370.102971
4583.098342,814.226536,-8656.879127,-740.205942
4583.098666,444.123565,-8427.050478,-370.102971
4583.098991,370.102971,-8656.879127,-444.123565
4583.099315,518.144159,-8503.660028,-666.185348
4583.099639,296.082377,-8350.440928,-740.205942
4583.099964,592.164754,-8886.707777,-518.144159
4583.100288,370.102971,-8427.050478,-1036.288319
4583.100612,518.144159,-8580.269578,-962.267725
4583.100937,444.123565,-8427.050478,-592.164754
4583.101261,518.144159,-8656.879127,-370.102971
4583.101586,518.144159,-8656.879127,-666.185348
4583.101910,814.226536,-8656.879127,-592.164754
4583.102234,592.164754,-8350.440928,-740.205942
4583.102559,370.102971,-8810.098227,-814.226536
4583.102883,74.020594,-8427.050478,-814.226536
4583.103207,370.102971,-8427.050478,-740.205942
4583.103532,222.061783,-8733.488677,-888.247130
4583.103856,444.123565,-8580.269578,-814.226536
4583.104181,814.226536,-9116.536426,-1480.411884
4583.104505,814.226536,-8733.488677,-666.185348
4583.104829,666.185348,-8427.050478,-740.205942
4583.105154,666.185348,-8886.707777,-518.144159
4583.105478,740.205942,-8503.660028,-666.185348
4583.105802,518.144159,-8733.488677,-740.205942
4583.106127,518.144159,-8656.879127,-888.247130
4583.106451,296.082377,-8503.660028,-518.144159
4583.106776,148.041188,-8886.707777,-814.226536
4583.107100,0.000000,-8733.488677,0.000000
4583.107424,592.164754,-8810.098227,-444.123565
4583.107749,74.020594,-8580.269578,-444.123565
4583.108073,740.205942,-8886.707777,-296.082377
4583.108397,0.000000,-9039.926876,148.041188
4583.108722,444.123565,-9039.926876,74.020594
4583.109046,518.144159,-8350.440928,0.000000
4583.109370,0.000000,-8810.098227,-74.020594
4583.109695,148.041188,-8656.879127,-296.082377
4583.110019,222.061783,-8427.050478,-222.061783
4583.110344,518.144159,-8810.098227,-296.082377
4583.110668,444.123565,-8350.440928,0.000000
4583.110992,666.185348,-8656.879127,0.000000
4583.111317,296.082377,-8427.050478,296.082377
4583.111641,666.185348,-8273.831378,0.000000
4583.111965,444.123565,-8733.488677,-148.041188
4583.112290,370.102971,-8273.831378,-518.144159
4583.112614,296.082377,-8197.221829,-296.082377
4583.112939,222.061783,-8656.879127,-740.205942
4583.113263,222.061783,-8427.050478,-592.164754
4583.113587,370.102971,-8350.440928,-370.102971
4583.113912,296.082377,-8886.707777,-370.102971
4583.114236,222.061783,-8503.660028,-222.061783
4583.114560,518.144159,-8580.269578,-444.123565
4583.114885,518.144159,-8427.050478,0.000000
4583.115209,370.102971,-8580.269578,-148.041188
4583.115534,666.185348,-8044.002729,0.000000
4583.115858,296.082377,-8427.050478,-370.102971
4583.116182,296.082377,-8580.269578,-370.102971
4583.116507,222.061783,-8580.269578,-666.185348
4583.116831,518.144159,-8580.269578,-222.061783
4583.117155,592.164754,-8427.050478,0.000000
4583.117480,962.267725,-8580.269578,-222.061783
4583.117804,814.226536,-8197.221829,-222.061783
4583.118129,888.247130,-8656.879127,-296.082377
4583.118453,592.164754,-8427.050478,0.000000
4583.118777,370.102971,-8427.050478,-370.102971
4583.119102,518.144159,-8810.098227,-740.205942
4583.119426,444.123565,-8427.050478,-814.226536
4583.119750,222.061783,-8273.831378,-666.185348
4583.120075,444.123565,-8810.098227,-592.164754
4583.120399,666.185348,-8656.879127,-296.082377
4583.120724,444.123565,-8350.440928,-518.144159
4583.121048,222.061783,-8733.488677,-370.102971
4583.121372,444.123565,-8273.831378,-296.082377
4583.121697,370.102971,-8963.317327,-296.082377
4583.122021,296.082377,-8273.831378,-666.185348
4583.122345,0.000000,-8733.488677,-666.185348
4583.122670,148.041188,-8273.831378,-814.226536
4583.122994,222.061783,-8886.707777,-888.247130
4583.123318,518.144159,-8580.269578,-666.185348
4583.123643,148.041188,-8503.660028,-370.102971
4583.123967,296.082377,-8427.050478,0.000000
4583.124292,444.123565,-8503.660028,-740.205942
4583.124616,518.144159,-8350.440928,-666.185348
4583.124940,518.144159,-8810.098227,-444.123565
4583.125265,222.061783,-8656.879127,-740.205942
4583.125589,296.082377,-8886.707777,-888.247130
4583.125913,296.082377,-8733.488677,-592.164754
4583.126238,222.061783,-8580.269578,-592.164754
4583.126562,444.123565,-8810.098227,-444.123565
4583.126887,518.144159,-8503.660028,-444.123565
4583.127211,740.205942,-8350.440928,0.000000
4583.127535,444.123565,-8656.879127,0.000000
4583.127860,518.144159,-8580.269578,0.000000
4583.128184,296.082377,-7967.393179,0.000000
4583.128508,518.144159,-8427.050478,-370.102971
4583.128833,222.061783,-8427.050478,-370.102971
4583.129157,74.020594,-8580.269578,-296.082377
4583.129482,444.123565,-8503.660028,-296.082377
4583.129806,592.164754,-8503.660028,74.020594
4583.130130,592.164754,-8503.660028,-222.061783
4583.130455,666.185348,-8656.879127,0.000000
4583.130779,518.144159,-8273.831378,148.041188
4583.131103,666.185348,-8044.002729,370.102971
4583.131428,370.102971,-8656.879127,0.000000
4583.131752,296.082377,-8197.221829,-296.082377
4583.132077,444.123565,-8810.098227,-296.082377
4583.132401,666.185348,-8580.269578,-370.102971
4583.132725,222.061783,-8427.050478,0.000000
4583.133050,814.226536,-8503.660028,148.041188
4583.133374,962.267725,-8580.269578,74.020594
4583.133698,962.267725,-8656.879127,0.000000
4583.134023,962.267725,-8580.269578,296.082377
4583.134347,370.102971,-8963.317327,74.020594
4583.134671,148.041188,-8503.660028,0.000000
4583.134996,0.000000,-8503.660028,74.020594
4583.135320,592.164754,-8810.098227,0.000000
4583.135645,74.020594,-8886.707777,0.000000
4583.135969,148.041188,-8810.098227,0.000000
4583.136293,222.061783,-8656.879127,-148.041188
4583.136618,592.164754,-8580.269578,-148.041188
4583.136942,74.020594,-8656.879127,0.000000
4583.137266,370.102971,-8886.707777,-444.123565
4583.137591,296.082377,-8886.707777,-296.082377
4583.137915,222.061783,-8656.879127,-370.102971
4583.138240,296.082377,-8580.269578,-666.185348
4583.138564,296.082377,-8656.879127,-666.185348
4583.138888,666.185348,-8810.098227,-1036.288319
4583.139213,222.061783,-8810.098227,-444.123565
4583.139537,814.226536,-9422.974625,-592.164754
4583.139861,370.102971,-8656.879127,-370.102971
4583.140186,518.144159,-8580.269578,-518.144159
4583.140510,148.041188,-8580.269578,-370.102971
4583.140835,148.041188,-8733.488677,-666.185348
4583.141159,370.102971,-8427.050478,-518.144159
4583.141483,222.061783,-8733.488677,-370.102971
4583.141808,0.000000,-8810.098227,0.000000
4583.142132,148.041188,-8427.050478,-518.144159
4583.142456,222.061783,-8886.707777,-592.164754
4583.142781,444.123565,-8656.879127,0.000000
4583.143105,222.061783,-8810.098227,-370.102971
4583.143430,222.061783,-8886.707777,0.000000
4583.143754,666.185348,-9499.584175,0.000000
4583.144078,592.164754,-8963.317327,-296.082377
4583.144403,666.185348,-8427.050478,-296.082377
4583.144727,444.123565,-8427.050478,-148.041188
4583.145051,666.185348,-8733.488677,-518.144159
4583.145376,740.205942,-8656.879127,-444.123565
4583.145700,740.205942,-8580.269578,-296.082377
4583.146024,740.205942,-8733.488677,-296.082377
4583.146349,444.123565,-8427.050478,0.000000
4583.146673,370.102971,-8733.488677,0.000000
4583.146998,518.144159,-8273.831378,-222.061783
4583.147322,296.082377,-8810.098227,-518.144159
4583.147646,74.020594,-8120.612279,-444.123565
4583.147971,148.041188,-8427.050478,-296.082377
4583.148295,148.041188,-8273.831378,-370.102971
4583.148619,0.000000,-9039.926876,-370.102971
4583.148944,222.061783,-8350.440928,0.000000
4583.149268,518.144159,-8503.660028,0.000000
4583.149593,444.123565,-8886.707777,148.041188
4583.149917,444.123565,-8656.879127,0.000000
4583.150241,370.102971,-8580.269578,370.102971
4583.150566,222.061783,-8427.050478,0.000000
4583.150890,0.000000,-8810.098227,444.123565
4583.151214,444.123565,-8503.660028,-296.082377
4583.151539,222.061783,-8503.660028,148.041188
4583.151863,222.061783,-8580.269578,0.000000
4583.152188,444.123565,-8580.269578,0.000000
4583.152512,814.226536,-8427.050478,-222.061783
4583.152836,444.123565,-8810.098227,-296.082377
4583.153161,444.123565,-8810.098227,0.000000
4583.153485,444.123565,-8503.660028,0.000000
4583.153809,222.061783,-8963.317327,0.000000
4583.154134,148.041188,-8656.879127,-222.061783
4583.154458,74.020594,-8503.660028,-444.123565
4583.154783,370.102971,-9039.926876,-444.123565
4583.155107,0.000000,-8197.221829,0.000000
4583.155431,444.123565,-8963.317327,-296.082377
4583.155756,444.123565,-8733.488677,-370.102971
4583.156080,444.123565,-8427.050478,-222.061783
4583.156404,444.123565,-8733.488677,-296.082377
4583.156729,0.000000,-8656.879127,74.020594
4583.157053,74.020594,-8580.269578,-296.082377
4583.157378,370.102971,-8503.660028,-518.144159
4583.157702,74.020594,-8656.879127,0.000000
4583.158026,444.123565,-8656.879127,-444.123565
4583.158351,296.082377,-8350.440928,-370.102971
4583.158675,148.041188,-8886.707777,0.000000
4583.158999,296.082377,-8580.269578,-296.082377
4583.159324,666.185348,-9039.926876,0.000000
4583.159648,518.144159,-8580.269578,0.000000
4583.159972,740.205942,-8810.098227,0.000000
4583.160297,518.144159,-8427.050478,0.000000
4583.160621,296.082377,-8427.050478,-148.041188
4583.160946,222.061783,-8427.050478,0.000000
4583.161270,222.061783,-8503.660028,-592.164754
4583.161594,148.041188,-8580.269578,-222.061783
4583.161919,444.123565,-8120.612279,222.061783
4583.162243,666.185348,-8120.612279,0.000000
4583.162567,518.144159,-8810.098227,0.000000
4583.162892,814.226536,-8197.221829,-74.020594
4583.163216,666.185348,-8810.098227,0.000000
4583.163541,592.164754,-8503.660028,0.000000
4583.163865,222.061783,-8656.879127,-148.041188
4583.164189,222.061783,-8810.098227,0.000000
4583.164514,296.082377,-8656.879127,-222.061783
4583.164838,444.123565,-8963.317327,-518.144159
4583.165162,888.247130,-8503.660028,0.000000
4583.165487,592.164754,-8350.440928,0.000000
4583.165811,592.164754,-8810.098227,0.000000
4583.166136,296.082377,-8273.831378,0.000000
4583.166460,1184.329507,-8733.488677,-222.061783
4583.166784,444.123565,-8350.440928,-370.102971
4583.167109,444.123565,-8503.660028,0.000000
4583.167433,296.082377,-8350.440928,-296.082377
4583.167757,148.041188,-8656.879127,0.000000
4583.168082,222.061783,-8197.221829,-296.082377
4583.168406,592.164754,-8963.317327,0.000000
4583.168731,740.205942,-8580.269578,-148.041188
4583.169055,666.185348,-8427.050478,74.020594
4583.169379,222.061783,-8580.269578,148.041188
4583.169704,444.123565,-8733.488677,-222.061783
4583.170028,444.123565,-8197.221829,-296.082377
4583.170352,296.082377,-8503.660028,-148.041188
4583.170677,296.082377,-7967.393179,-222.061783
4583.171001,296.082377,-8580.269578,-370.102971
4583.171325,148.041188,-8350.440928,-370.102971
4583.171650,296.082377,-8733.488677,-444.123565
4583.171974,296.082377,-8733.488677,0.000000
4583.172299,444.123565,-8273.831378,0.000000
4583.172623,296.082377,-8580.269578,-148.041188
4583.172947,0.000000,-8886.707777,-444.123565
4583.173272,74.020594,-8427.050478,-740.205942
4583.173596,444.123565,-8503.660028,-666.185348
4583.173920,222.061783,-8656.879127,-666.185348
4583.174245,444.123565,-8733.488677,-740.205942
4583.174569,740.205942,-8656.879127,-370.102971
4583.174894,962.267725,-8427.050478,-592.164754
4583.175218,740.205942,-8656.879127,-888.247130
4583.175542,592.164754,-8503.660028,-444.123565
4583.175867,518.144159,-8197.221829,0.000000
4583.176191,222.061783,-8580.269578,-370.102971
4583.176515,370.102971,-8656.879127,-592.164754
4583.176840,592.164754,-8044.002729,-444.123565
4583.177164,222.061783,-8810.098227,-518.144159
4583.177489,444.123565,-8810.098227,-592.164754
4583.177813,740.205942,-8427.050478,-370.102971
4583.178137,740.205942,-8810.098227,-148.041188
4583.178462,592.164754,-8350.440928,-222.061783
4583.178786,666.185348,-8733.488677,0.000000
4583.179110,888.247130,-8886.707777,74.020594
4583.179435,296.082377,-8656.879127,-222.061783
4583.179759,222.061783,-8886.707777,-370.102971
4583.180084,370.102971,-8427.050478,-370.102971
4583.180408,444.123565,-8580.269578,-444.123565
4583.180732,518.144159,-8273.831378,-518.144159
4583.181057,666.185348,-8580.269578,-148.041188
4583.181381,518.144159,-8733.488677,-148.041188
4583.181705,444.123565,-8427.050478,-222.061783
4583.182030,518.144159,-9039.926876,0.000000
4583.182354,148.041188,-8886.707777,-370.102971
4583.182678,370.102971,-8580.269578,-444.123565
4583.183003,444.123565,-8427.050478,-740.205942
4583.183327,74.020594,-9116.536426,-444.123565
4583.183652,0.000000,-8350.440928,-444.123565
4583.183976,592.164754,-8427.050478,-370.102971
4583.184300,222.061783,-8350.440928,-296.082377
4583.184625,592.164754,-8427.050478,-148.041188
4583.184949,518.144159,-8273.831378,-296.082377
4583.185273,518.144159,-8427.050478,-148.041188
4583.185598,740.205942,-8733.488677,-296.082377
4583.185922,444.123565,-8810.098227,-222.061783
4583.186247,148.041188,-8273.831378,-444.123565
4583.186571,296.082377,-8656.879127,-666.185348
4583.186895,518.144159,-8733.488677,-740.205942
4583.187220,444.123565,-8350.440928,-444.123565
4583.187544,888.247130,-9576.193725,-222.061783
4583.187868,814.226536,-8350.440928,-370.102971
4583.188193,592.164754,-8427.050478,-222.061783
4583.188517,666.185348,-8733.488677,-296.082377
4583.188842,518.144159,-8350.440928,-740.205942
4583.189166,814.226536,-9039.926876,-518.144159
4583.189490,592.164754,-8503.660028,-444.123565
4583.189815,0.000000,-8810.098227,-592.164754
4583.190139,0.000000,-8963.317327,-814.226536
4583.190463,0.000000,-9193.145976,-444.123565
4583.190788,592.164754,-8810.098227,-370.102971
4583.191112,444.123565,-8733.488677,-518.144159
4583.191437,592.164754,-8427.050478,-222.061783
4583.191761,518.144159,-9193.145976,-222.061783
4583.192085,222.061783,-8580.269578,-370.102971
4583.192410,296.082377,-8580.269578,-518.144159
4583.192734,222.061783,-8733.488677,-444.123565
4583.193061,222.061783,-8733.488677,-370.102971
4583.193385,518.144159,-8503.660028,-814.226536
4583.193710,296.082377,-8656.879127,-444.123565
4583.194034,740.205942,-8580.269578,-296.082377
4583.194358,666.185348,-8503.660028,-370.102971
4583.194683,888.247130,-8580.269578,-444.123565
4583.195007,740.205942,-8580.269578,-444.123565
4583.195331,592.164754,-8580.269578,-296.082377
4583.195656,518.144159,-8273.831378,-740.205942
4583.195980,518.144159,-8733.488677,-888.247130
4583.196304,592.164754,-8656.879127,-666.185348
4583.196629,518.144159,-8350.440928,-444.123565
4583.196953,370.102971,-8503.660028,-666.185348
4583.197277,740.205942,-8427.050478,-370.102971
4583.197602,518.144159,-8580.269578,0.000000
4583.197926,814.226536,-8810.098227,-518.144159
4583.198250,444.123565,-8427.050478,-74.020594
4583.198575,814.226536,-8503.660028,-296.082377
4583.198899,444.123565,-8963.317327,-296.082377
4583.199223,296.082377,-8580.269578,-444.123565
4583.199548,296.082377,-8427.050478,-962.267725
4583.199872,370.102971,-8656.879127,-814.226536
4583.200196,370.102971,-8427.050478,-444.123565
4583.200521,444.123565,-8503.660028,-296.082377
4583.200845,814.226536,-8656.879127,0.000000
4583.201169,592.164754,-8580.269578,-444.123565
4583.201494,518.144159,-8580.269578,-370.102971
4583.201818,222.061783,-7737.564530,0.000000
4583.202142,592.164754,-8580.269578,-518.144159
4583.202467,370.102971,-8273.831378,-666.185348
4583.202791,222.061783,-8503.660028,-444.123565
4583.203116,222.061783,-8656.879127,-296.082377
4583.203440,740.205942,-8656.879127,-370.102971
4583.203764,444.123565,-8886.707777,74.020594
4583.204089,518.144159,-8656.879127,0.000000
4583.204413,444.123565,-8580.269578,0.000000
4583.204737,222.061783,-8427.050478,0.000000
4583.205062,222.061783,-8197.221829,-370.102971
4583.205386,0.000000,-8580.269578,0.000000
4583.205710,74.020594,-8656.879127,-148.041188
4583.206035,148.041188,-8350.440928,-222.061783
4583.206359,296.082377,-8427.050478,-666.185348
4583.206683,592.164754,-8963.317327,-296.082377
4583.207008,444.123565,-8427.050478,-148.041188
4583.207332,296.082377,-8580.269578,-370.102971
4583.207656,592.164754,-8656.879127,-592.164754
4583.207981,444.123565,-8733.488677,-518.144159
4583.208305,222.061783,-8273.831378,-666.185348
4583.208629,370.102971,-8580.269578,-814.226536
4583.208954,74.020594,-8886.707777,-666.185348
4583.209278,370.102971,-9039.926876,-814.226536
4583.209602,222.061783,-8273.831378,-666.185348
4583.209927,518.144159,-8886.707777,-444.123565
4583.210251,814.226536,-8427.050478,-148.041188
4583.210575,814.226536,-8503.660028,0.000000
4583.210900,370.102971,-8656.879127,-444.123565
4583.211224,222.061783,-8733.488677,0.000000
4583.211548,370.102971,-8120.612279,-666.185348
4583.211873,222.061783,-8503.660028,-444.123565
4583.212197,370.102971,-8503.660028,-518.144159
4583.212521,370.102971,-8656.879127,-444.123565
4583.212846,444.123565,-8580.269578,-740.205942
4583.213170,666.185348,-8503.660028,-666.185348
4583.213494,444.123565,-8886.707777,-370.102971
4583.213819,666.185348,-8733.488677,-444.123565
4583.214143,370.102971,-8580.269578,-370.102971
4583.214467,518.144159,-9652.803275,-296.082377
4583.214792,518.144159,-8580.269578,-740.205942
4583.215116,222.061783,-8580.269578,-888.247130
4583.215440,592.164754,-8503.660028,-1036.288319
4583.215765,74.020594,-8503.660028,-740.205942
4583.216089,518.144159,-8656.879127,-888.247130
4583.216414,740.205942,-8273.831378,-518.144159
4583.216738,518.144159,-8350.440928,-444.123565
4583.217062,962.267725,-8580.269578,-666.185348
4583.217387,444.123565,-8197.221829,-592.164754
4583.217711,370.102971,-8503.660028,-296.082377
4583.218035,370.102971,-8580.269578,-666.185348
4583.218360,444.123565,-8273.831378,-592.164754
4583.218684,222.061783,-8656.879127,-1332.370696
4583.219008,444.123565,-8656.879127,-592.164754
4583.219333,444.123565,-8580.269578,-370.102971
4583.219657,666.185348,-8580.269578,-296.082377
4583.219981,666.185348,-8427.050478,-222.061783
4583.220306,592.164754,-8503.660028,-444.123565
4583.220630,814.226536,-8580.269578,0.000000
4583.220954,444.123565,-8120.612279,-296.082377
4583.221279,370.102971,-8810.098227,-370.102971
4583.221603,444.123565,-8733.488677,-814.226536
4583.221927,296.082377,-8273.831378,-592.164754
4583.222252,296.082377,-8810.098227,-518.144159
4583.222576,148.041188,-8350.440928,-222.061783
4583.222900,370.102971,-9422.974625,0.000000
4583.223225,592.164754,-8503.660028,-666.185348
4583.223549,518.144159,-8427.050478,-444.123565
4583.223873,740.205942,-8580.269578,-370.102971
4583.224198,444.123565,-8503.660028,-296.082377
4583.224522,0.000000,-8810.098227,-370.102971
4583.224846,0.000000,-8963.317327,-666.185348
4583.225171,0.000000,-8427.050478,-740.205942
4583.225495,296.082377,-8503.660028,-1036.288319
4583.225819,0.000000,-9346.365076,-370.102971
4583.226144,518.144159,-8427.050478,-296.082377
4583.226468,518.144159,-8580.269578,-296.082377
4583.226792,296.082377,-8733.488677,-222.061783
4583.227117,666.185348,-8733.488677,-148.041188
4583.227441,444.123565,-8810.098227,-592.164754
4583.227765,444.123565,-8580.269578,-222.061783
4583.228090,740.205942,-8733.488677,-740.205942
4583.228414,148.041188,-8733.488677,-518.144159
4583.228738,0.000000,-8350.440928,-518.144159
4583.229063,370.102971,-8810.098227,-222.061783
4583.229387,222.061783,-8503.660028,-148.041188
4583.229712,518.144159,-8886.707777,-222.061783
4583.230036,592.164754,-8886.707777,-370.102971
4583.230360,518.144159,-8580.269578,-148.041188
4583.230685,592.164754,-8503.660028,-222.061783
4583.231009,518.144159,-8810.098227,-444.123565
4583.231333,592.164754,-8427.050478,-222.061783
4583.231658,296.082377,-8656.879127,-370.102971
4583.231982,444.123565,-8810.098227,-518.144159
4583.232306,444.123565,-8656.879127,-296.082377
4583.232631,444.123565,-8810.098227,-296.082377
4583.232955,740.205942,-8886.707777,0.000000
4583.233279,814.226536,-8427.050478,-296.082377
4583.233604,888.247130,-8656.879127,-296.082377
4583.233928,592.164754,-8350.440928,-518.144159
4583.234252,814.226536,-9039.926876,-592.164754
4583.234577,666.185348,-8273.831378,-370.102971
4583.234901,444.123565,-8044.002729,-518.144159
4583.235225,518.144159,-8810.098227,-592.164754
4583.235550,222.061783,-8656.879127,-666.185348
4583.235874,148.041188,-8580.269578,-222.061783
4583.236198,296.082377,-8656.879127,-222.061783
4583.236523,444.123565,-8273.831378,-296.082377
4583.236847,592.164754,-8503.660028,0.000000
4583.237171,148.041188,-7890.783629,0.000000
4583.237496,370.102971,-8656.879127,-296.082377
4583.237820,74.020594,-8580.269578,-296.082377
4583.238144,370.102971,-8656.879127,-148.041188
4583.238469,74.020594,-8580.269578,-222.061783
4583.238793,296.082377,-8886.707777,-296.082377
4583.239117,296.082377,-8733.488677,-296.082377
4583.239442,74.020594,-8503.660028,0.000000
4583.239766,444.123565,-8656.879127,-444.123565
4583.240090,444.123565,-8580.269578,-222.061783
4583.240415,222.061783,-8503.660028,-444.123565
4583.240739,148.041188,-8427.050478,-518.144159
4583.241063,518.144159,-8580.269578,-740.205942
4583.241388,814.226536,-9039.926876,-518.144159
4583.241712,444.123565,-8350.440928,-518.144159
4583.242036,370.102971,-8733.488677,-296.082377
4583.242361,444.123565,-8656.879127,-444.123565
4583.242685,666.185348,-8580.269578,0.000000
4583.243010,518.144159,-8810.098227,-444.123565
4583.243334,370.102971,-8733.488677,-370.102971
4583.243658,148.041188,-8427.050478,-518.144159
4583.243983,296.082377,-9116.536426,-370.102971
4583.244307,444.123565,-8044.002729,-666.185348
4583.244631,592.164754,-8810.098227,-518.144159
4583.244956,814.226536,-8503.660028,-296.082377
4583.245280,814.226536,-8656.879127,74.020594
4583.245604,666.185348,-8044.002729,0.000000
4583.245929,444.123565,-8350.440928,74.020594
4583.246253,666.185348,-8580.269578,0.000000
4583.246577,518.144159,-8733.488677,148.041188
4583.246902,444.123565,-8273.831378,-222.061783
4583.247226,666.185348,-8503.660028,0.000000
4583.247550,592.164754,-8503.660028,-148.041188
4583.247875,444.123565,-8427.050478,-296.082377
4583.248199,666.185348,-8503.660028,-370.102971
4583.248523,1036.288319,-8350.440928,148.041188
4583.248848,592.164754,-8810.098227,0.000000
4583.249172,592.164754,-8503.660028,-222.061783
4583.249496,740.205942,-8273.831378,0.000000
4583.249821,518.144159,-8886.707777,0.000000
4583.250145,148.041188,-8733.488677,-296.082377
4583.250469,592.164754,-8810.098227,0.000000
4583.250794,518.144159,-8656.879127,-592.164754
4583.251118,740.205942,-8273.831378,-518.144159
4583.251442,518.144159,-8350.440928,-592.164754
4583.251767,666.185348,-8580.269578,-74.020594
4583.252091,592.164754,-8350.440928,-148.041188
4583.252415,444.123565,-8733.488677,-222.061783
4583.252740,222.061783,-8810.098227,-370.102971
4583.253064,74.020594,-8580.269578,0.000000
4583.253388,370.102971,-8733.488677,-370.102971
4583.253713,222.061783,-8656.879127,-296.082377
4583.254037,0.000000,-8350.440928,0.000000
4583.254361,296.082377,-8427.050478,-370.102971
4583.254686,148.041188,-8810.098227,0.000000
4583.255010,222.061783,-8886.707777,-148.041188
4583.255334,296.082377,-8656.879127,222.061783
4583.255659,518.144159,-8503.660028,0.000000
4583.255983,222.061783,-8886.707777,0.000000
4583.256308,74.020594,-8733.488677,-222.061783
4583.256632,74.020594,-9039.926876,-296.082377
4583.256956,740.205942,-9499.584175,-962.267725
4583.257281,222.061783,-8810.098227,-222.061783
4583.257605,222.061783,-8350.440928,-592.164754
4583.257929,444.123565,-8580.269578,0.000000
4583.258254,370.102971,-8656.879127,-370.102971
4583.258578,148.041188,-8503.660028,-222.061783
4583.258902,296.082377,-8427.050478,0.000000
4583.259227,74.020594,-8580.269578,-222.061783
4583.259551,0.000000,-8580.269578,-740.205942
4583.259875,518.144159,-8810.098227,-444.123565
4583.260200,0.000000,-8580.269578,-518.144159
4583.260524,0.000000,-8810.098227,-592.164754
4583.260848,222.061783,-8656.879127,-148.041188
4583.261173,222.061783,-9116.536426,-222.061783
4583.261497,296.082377,-8503.660028,-222.061783
4583.261821,666.185348,-8273.831378,-370.102971
4583.262146,592.164754,-8733.488677,0.000000
4583.262470,518.144159,-8273.831378,-370.102971
4583.262794,148.041188,-8580.269578,0.000000
4583.263119,592.164754,-8273.831378,-444.123565
4583.263443,444.123565,-8503.660028,-370.102971
4583.263767,444.123565,-8350.440928,-592.164754
4583.264092,592.164754,-8733.488677,148.041188
4583.264416,592.164754,-8350.440928,0.000000
4583.264740,740.205942,-8810.098227,148.041188
4583.265065,740.205942,-8044.002729,0.000000
4583.265389,814.226536,-8427.050478,0.000000
4583.265713,740.205942,-8733.488677,-222.061783
4583.266038,296.082377,-8120.612279,-296.082377
4583.266362,444.123565,-8503.660028,0.000000
4583.266686,370.102971,-8580.269578,-370.102971
4583.267011,666.185348,-8273.831378,-518.144159
4583.267335,666.185348,-8503.660028,-518.144159
4583.267659,518.144159,-8580.269578,74.020594
4583.267984,592.164754,-8580.269578,-74.020594
4583.268308,814.226536,-8733.488677,-370.102971
4583.268632,740.205942,-8503.660028,-222.061783
4583.268957,592.164754,-8580.269578,-444.123565
4583.269281,666.185348,-8580.269578,-592.164754
4583.269605,148.041188,-8810.098227,0.000000
4583.269930,296.082377,-8963.317327,-962.267725
4583.270254,296.082377,-8580.269578,-740.205942
4583.270579,444.123565,-8580.269578,-592.164754
4583.270903,370.102971,-8886.707777,-518.144159
4583.271227,370.102971,-8503.660028,-296.082377
4583.271552,296.082377,-8580.269578,-370.102971
4583.271876,518.144159,-8656.879127,-296.082377
4583.272200,444.123565,-8656.879127,-666.185348
4583.272525,370.102971,-7814.174080,-296.082377
4583.272849,222.061783,-8580.269578,-296.082377
4583.273173,74.020594,-8810.098227,-592.164754
4583.273498,518.144159,-8810.098227,-444.123565
4583.273822,518.144159,-8580.269578,0.000000
4583.274146,666.185348,-8963.317327,-296.082377
4583.274471,444.123565,-8963.317327,74.020594
4583.274795,592.164754,-8733.488677,0.000000
4583.275119,518.144159,-8656.879127,0.000000
4583.275444,592.164754,-8656.879127,-370.102971
4583.275768,296.082377,-8733.488677,-518.144159
4583.276092,370.102971,-8580.269578,-222.061783
4583.276417,0.000000,-8503.660028,-296.082377
4583.276741,666.185348,-8886.707777,-444.123565
4583.277065,222.061783,-8273.831378,-148.041188
4583.277390,370.102971,-8733.488677,-222.061783
4583.277714,444.123565,-8580.269578,-222.061783
4583.278038,444.123565,-8733.488677,148.041188
4583.278363,296.082377,-8427.050478,74.020594
4583.278687,370.102971,-8656.879127,-148.041188
4583.279011,296.082377,-8503.660028,-444.123565
4583.279336,444.123565,-8580.269578,-666.185348
4583.279660,592.164754,-8733.488677,0.000000
4583.279984,296.082377,-8810.098227,-148.041188
4583.280309,74.020594,-8810.098227,0.000000
4583.280633,444.123565,-8350.440928,0.000000
4583.280957,444.123565,-8120.612279,222.061783
4583.281282,518.144159,-8503.660028,-148.041188
4583.281606,222.061783,-8580.269578,0.000000
4583.281930,444.123565,-8580.269578,-444.123565
4583.282255,148.041188,-8733.488677,-296.082377
4583.282579,296.082377,-8810.098227,-370.102971
4583.282903,444.123565,-8886.707777,-370.102971
4583.283228,148.041188,-8427.050478,-296.082377
4583.283552,296.082377,-8503.660028,-296.082377
4583.283877,592.164754,-8120.612279,-222.061783
4583.284201,666.185348,-8273.831378,-370.102971
4583.284525,518.144159,-8273.831378,-148.041188
4583.284850,148.041188,-8656.879127,-518.144159
4583.285174,296.082377,-8427.050478,-370.102971
4583.285498,518.144159,-8427.050478,-666.185348
4583.285823,222.061783,-8197.221829,-666.185348
4583.286147,370.102971,-8656.879127,-888.247130
4583.286471,592.164754,-8656.879127,-888.247130
4583.286796,518.144159,-8427.050478,-666.185348
4583.287120,222.061783,-8580.269578,-518.144159
4583.287444,0.000000,-8733.488677,-296.082377
4583.287769,370.102971,-8197.221829,-444.123565
4583.288093,518.144159,-8656.879127,-370.102971
4583.288417,222.061783,-8733.488677,-518.144159
4583.288742,74.020594,-8656.879127,-814.226536
4583.289066,296.082377,-8886.707777,-370.102971
4583.289390,1036.288319,-8427.050478,-1184.329507
4583.289715,518.144159,-9346.365076,-666.185348
4583.290039,962.267725,-8580.269578,-518.144159
4583.290363,370.102971,-8656.879127,-222.061783
4583.290688,296.082377,-8886.707777,-518.144159
4583.291012,222.061783,-8427.050478,-296.082377
4583.291336,592.164754,-8656.879127,-370.102971
4583.291661,518.144159,-8273.831378,-518.144159
4583.291985,518.144159,-8427.050478,-518.144159
4583.292309,1036.288319,-9116.536426,-740.205942
4583.292634,740.205942,-8503.660028,-518.144159
4583.292958,1036.288319,-8810.098227,-370.102971
4583.293282,814.226536,-8350.440928,-370.102971
4583.293607,814.226536,-8963.317327,-148.041188
4583.293931,370.102971,-8273.831378,-370.102971
4583.294255,222.061783,-8810.098227,0.000000
4583.294580,222.061783,-8580.269578,-222.061783
4583.294904,370.102971,-8733.488677,-592.164754
4583.295228,222.061783,-8810.098227,-296.082377
4583.295553,592.164754,-8427.050478,-444.123565
4583.295877,592.164754,-8580.269578,-518.144159
4583.296202,592.164754,-8580.269578,-296.082377
4583.296526,1184.329507,-9269.755526,-444.123565
4583.296850,740.205942,-8810.098227,-222.061783
4583.297175,518.144159,-8427.050478,-296.082377
4583.297499,444.123565,-8810.098227,0.000000
4583.297823,74.020594,-8427.050478,-518.144159
4583.298148,296.082377,-8273.831378,-592.164754
4583.298472,444.123565,-8503.660028,-444.123565
4583.298796,0.000000,-8350.440928,-444.123565
4583.299121,518.144159,-8427.050478,-296.082377
4583.299445,666.185348,-8197.221829,-222.061783
4583.299769,592.164754,-8503.660028,-222.061783
4583.300094,518.144159,-8503.660028,-296.082377
4583.300418,444.123565,-8503.660028,0.000000
4583.300742,444.123565,-9039.926876,0.000000
4583.301067,0.000000,-8810.098227,-296.082377
4583.301391,296.082377,-8656.879127,0.000000
4583.301715,444.123565,-8580.269578,-370.102971
4583.302040,222.061783,-8810.098227,-296.082377
4583.302364,222.061783,-8580.269578,-296.082377
4583.302688,444.123565,-8656.879127,0.000000
4583.303013,592.164754,-8350.440928,-222.061783
4583.303337,592.164754,-8350.440928,-222.061783
4583.303661,74.020594,-8963.317327,-148.041188
4583.303986,222.061783,-8427.050478,-296.082377
4583.304310,0.000000,-8197.221829,-518.144159
4583.304634,148.041188,-8886.707777,-740.205942
4583.304959,296.082377,-8733.488677,-814.226536
4583.305283,296.082377,-8656.879127,-814.226536
4583.305607,518.144159,-8503.660028,-962.267725
4583.305932,444.123565,-8733.488677,-370.102971
4583.306256,518.144159,-8580.269578,-444.123565
4583.306581,296.082377,-8580.269578,-370.102971
4583.306905,370.102971,-8733.488677,-592.164754
4583.307229,518.144159,-8886.707777,-444.123565
4583.307554,222.061783,-8656.879127,-444.123565
4583.307878,222.061783,-8810.098227,-370.102971
4583.308202,0.000000,-8503.660028,-518.144159
4583.308527,74.020594,-8503.660028,-296.082377
4583.308851,370.102971,-8503.660028,-518.144159
4583.309175,518.144159,-8427.050478,74.020594
4583.309500,518.144159,-8427.050478,-296.082377
4583.309824,740.205942,-8503.660028,-222.061783
4583.310148,444.123565,-8350.440928,-222.061783
4583.310473,518.144159,-8810.098227,-444.123565
4583.310797,592.164754,-8733.488677,-814.226536
4583.311121,518.144159,-8503.660028,-444.123565
4583.311446,222.061783,-8656.879127,-592.164754
4583.311770,518.144159,-8580.269578,-518.144159
4583.312094,592.164754,-8963.317327,-592.164754
4583.312419,518.144159,-8580.269578,-444.123565
4583.312743,296.082377,-8733.488677,-518.144159
4583.313067,592.164754,-8733.488677,-518.144159
4583.313392,370.102971,-9039.926876,-296.082377
4583.313716,296.082377,-8580.269578,-666.185348
4583.314040,296.082377,-8810.098227,-592.164754
4583.314365,592.164754,-8273.831378,-296.082377
4583.314689,592.164754,-8656.879127,-814.226536
4583.315013,444.123565,-8580.269578,-1036.288319
4583.315338,666.185348,-8810.098227,-370.102971
4583.315662,444.123565,-8656.879127,-518.144159
4583.315986,666.185348,-9039.926876,-592.164754
4583.316311,592.164754,-8503.660028,-444.123565
4583.316635,444.123565,-8580.269578,-148.041188
4583.316960,444.123565,-8733.488677,-370.102971
4583.317284,518.144159,-8733.488677,-888.247130
4583.317608,444.123565,-8656.879127,-592.164754
4583.317933,296.082377,-8503.660028,-222.061783
4583.318257,222.061783,-8810.098227,-592.164754
4583.318581,814.226536,-8963.317327,-370.102971
4583.318906,666.185348,-8427.050478,-74.020594
4583.319230,370.102971,-8427.050478,222.061783
4583.319554,222.061783,-8273.831378,-370.102971
4583.319879,296.082377,-8656.879127,-296.082377
4583.320203,370.102971,-8503.660028,-592.164754
4583.320527,74.020594,-8273.831378,-222.061783
4583.320852,222.061783,-8656.879127,-592.164754
4583.321176,370.102971,-8427.050478,-444.123565
4583.321500,666.185348,-8273.831378,-518.144159
4583.321825,518.144159,-8503.660028,-444.123565
4583.322149,814.226536,-8427.050478,-518.144159
4583.322473,370.102971,-8197.221829,-444.123565
4583.322798,666.185348,-8810.098227,-296.082377
4583.323122,592.164754,-8733.488677,0.000000
4583.323446,814.226536,-8963.317327,-666.185348
4583.323771,222.061783,-8580.269578,-592.164754
4583.324095,296.082377,-8427.050478,-518.144159
4583.324419,296.082377,-8963.317327,-962.267725
4583.324744,1110.308913,-8810.098227,-444.123565
4583.325068,444.123565,-8503.660028,-148.041188
4583.325392,592.164754,-9116.536426,0.000000
4583.325717,888.247130,-8350.440928,-592.164754
4583.326041,888.247130,-8427.050478,0.000000
4583.326366,444.123565,-8427.050478,-222.061783
4583.326690,296.082377,-8733.488677,0.000000
4583.327014,74.020594,-8656.879127,-592.164754
4583.327339,222.061783,-8273.831378,-444.123565
4583.327663,148.041188,-8503.660028,-1184.329507
4583.327987,370.102971,-8656.879127,-370.102971
4583.328312,444.123565,-8273.831378,-444.123565
4583.328636,518.144159,-8810.098227,0.000000
4583.328960,222.061783,-7967.393179,-296.082377
4583.329285,296.082377,-9039.926876,148.041188
4583.329609,518.144159,-8886.707777,-592.164754
4583.329933,296.082377,-8580.269578,-370.102971
4583.330258,222.061783,-8350.440928,-296.082377
4583.330582,444.123565,-8656.879127,-444.123565
4583.330906,518.144159,-8350.440928,-666.185348
4583.331231,444.123565,-8656.879127,-740.205942
4583.331555,444.123565,-8963.317327,-222.061783
4583.331879,740.205942,-9346.365076,-148.041188
4583.332204,370.102971,-8656.879127,-148.041188
4583.332528,740.205942,-8656.879127,-222.061783
4583.332852,592.164754,-8733.488677,-444.123565
4583.333177,370.102971,-8503.660028,-370.102971
4583.333501,296.082377,-8733.488677,-148.041188
4583.333825,222.061783,-8580.269578,-592.164754
4583.334150,148.041188,-8733.488677,-444.123565
4583.334474,0.000000,-8273.831378,-370.102971
4583.334798,222.061783,-8656.879127,0.000000
4583.335123,296.082377,-8810.098227,0.000000
4583.335447,444.123565,-8580.269578,74.020594
4583.335771,444.123565,-8733.488677,-222.061783
4583.336096,222.061783,-8350.440928,-814.226536
4583.336420,592.164754,-8580.269578,-814.226536
4583.336745,518.144159,-8656.879127,-296.082377
4583.337069,370.102971,-8656.879127,-592.164754
4583.337393,370.102971,-8503.660028,-370.102971
4583.337718,296.082377,-8273.831378,-222.061783
4583.338042,444.123565,-8350.440928,-518.144159
4583.338366,666.185348,-8733.488677,-370.102971
4583.338691,592.164754,-8273.831378,-296.082377
4583.339015,666.185348,-8503.660028,-148.041188
4583.339339,518.144159,-8273.831378,-592.164754
4583.339664,592.164754,-8427.050478,-518.144159
4583.339988,666.185348,-8427.050478,-962.267725
4583.340312,518.144159,-8733.488677,-962.267725
4583.340637,370.102971,-8580.269578,-666.185348
4583.340961,444.123565,-8503.660028,-444.123565
4583.341285,518.144159,-8503.660028,-370.102971
4583.341610,296.082377,-8810.098227,-370.102971
4583.341934,814.226536,-8503.660028,-370.102971
4583.342258,370.102971,-8580.269578,0.000000
4583.342583,518.144159,-8733.488677,-518.144159
4583.342907,296.082377,-8427.050478,-592.164754
4583.343231,888.247130,-8350.440928,0.000000
4583.343556,444.123565,-8656.879127,-592.164754
4583.343880,296.082377,-8273.831378,-518.144159
4583.344204,148.041188,-8656.879127,-148.041188
4583.344529,592.164754,-8503.660028,-222.061783
4583.344853,148.041188,-8580.269578,-148.041188
4583.345177,222.061783,-8733.488677,-370.102971
4583.345502,296.082377,-8503.660028,0.000000
4583.345826,370.102971,-8580.269578,-444.123565
4583.346150,74.020594,-8886.707777,-518.144159
4583.346475,518.144159,-8350.440928,-518.144159
4583.346799,222.061783,-8656.879127,-592.164754
4583.347124,666.185348,-8886.707777,-888.247130
4583.347448,222.061783,-8733.488677,74.020594
4583.347772,592.164754,-8810.098227,-222.061783
4583.348097,666.185348,-8503.660028,-370.102971
4583.348421,444.123565,-8733.488677,0.000000
4583.348745,444.123565,-8733.488677,-148.041188
4583.349070,592.164754,-8656.879127,-444.123565
4583.349394,444.123565,-8503.660028,-518.144159
4583.349718,148.041188,-8656.879127,-222.061783
4583.350043,370.102971,-8503.660028,-444.123565
4583.350367,814.226536,-8886.707777,-740.205942
4583.350691,444.123565,-8963.317327,-370.102971
4583.351016,148.041188,-8886.707777,0.000000
4583.351340,370.102971,-8733.488677,-222.061783
4583.351664,518.144159,-8580.269578,0.000000
4583.351989,666.185348,-8963.317327,-222.061783
4583.352313,444.123565,-8656.879127,-222.061783
4583.352637,592.164754,-8503.660028,-370.102971
4583.352962,444.123565,-8810.098227,-222.061783
4583.353286,444.123565,-8656.879127,-592.164754
4583.353610,666.185348,-8427.050478,-370.102971
4583.353935,370.102971,-8273.831378,-222.061783
4583.354259,518.144159,-8886.707777,-296.082377
4583.354583,962.267725,-8886.707777,0.000000
4583.354908,592.164754,-8733.488677,0.000000
4583.355232,148.041188,-8733.488677,-296.082377
4583.355556,444.123565,-8656.879127,-148.041188
4583.355881,666.185348,-8656.879127,148.041188
4583.356205,444.123565,-8503.660028,-592.164754
4583.356529,370.102971,-8810.098227,-518.144159
4583.356854,222.061783,-8350.440928,-148.041188
4583.357178,592.164754,-8427.050478,-370.102971
4583.357503,296.082377,-8656.879127,0.000000
4583.357827,74.020594,-8733.488677,0.000000
4583.358151,148.041188,-8350.440928,0.000000
4583.358476,518.144159,-8656.879127,-148.041188
4583.358800,370.102971,-8273.831378,-222.061783
4583.359124,444.123565,-8656.879127,-370.102971
4583.359449,518.144159,-8580.269578,-444.123565
4583.359773,296.082377,-8350.440928,-666.185348
4583.360097,666.185348,-8963.317327,-296.082377
4583.360422,296.082377,-8580.269578,-444.123565
4583.360746,444.123565,-8733.488677,-370.102971
4583.361070,370.102971,-8427.050478,-296.082377
4583.361395,296.082377,-8503.660028,74.020594
4583.361719,518.144159,-8503.660028,-740.205942
4583.362043,296.082377,-8580.269578,-592.164754
4583.362368,222.061783,-8580.269578,-370.102971
4583.362692,296.082377,-8580.269578,-518.144159
4583.363016,666.185348,-8197.221829,-518.144159
4583.363341,222.061783,-8503.660028,-296.082377
4583.363665,296.082377,-8656.879127,-222.061783
4583.363989,296.082377,-8810.098227,0.000000
4583.364314,296.082377,-8427.050478,0.000000
4583.364638,592.164754,-8963.317327,0.000000
4583.364962,148.041188,-8350.440928,-296.082377
4583.365287,222.061783,-9039.926876,-370.102971
4583.365611,74.020594,-8427.050478,-444.123565
4583.365935,444.123565,-8886.707777,-740.205942
4583.366260,296.082377,-8273.831378,-592.164754
4583.366584,666.185348,-8350.440928,-518.144159
4583.366908,518.144159,-8580.269578,-444.123565
4583.367233,962.267725,-8810.098227,-444.123565
4583.367557,592.164754,-8656.879127,-370.102971
4583.367882,444.123565,-8427.050478,-370.102971
4583.368206,444.123565,-8580.269578,-370.102971
4583.368530,518.144159,-8580.269578,-666.185348
4583.368855,370.102971,-8656.879127,-222.061783
4583.369179,370.102971,-8503.660028,-740.205942
4583.369503,518.144159,-8656.879127,-370.102971
4583.369828,518.144159,-8427.050478,-296.082377
4583.370152,1110.308913,-8656.879127,-592.164754
4583.370476,222.061783,-8733.488677,-296.082377
4583.370801,296.082377,-8580.269578,-148.041188
4583.371125,296.082377,-8580.269578,-222.061783
4583.371449,740.205942,-9116.536426,-148.041188
4583.371774,74.020594,-8580.269578,0.000000
4583.372098,666.185348,-8427.050478,-444.123565
4583.372422,370.102971,-8580.269578,-518.144159
4583.372747,518.144159,-8427.050478,-222.061783
4583.373071,666.185348,-8886.707777,148.041188
4583.373395,444.123565,-8197.221829,0.000000
4583.373720,222.061783,-8427.050478,0.000000
4583.374044,296.082377,-8427.050478,-222.061783
4583.374368,740.205942,-8656.879127,0.000000
4583.374693,518.144159,-8733.488677,-518.144159
4583.375017,370.102971,-8503.660028,-296.082377
4583.375341,148.041188,-8656.879127,-370.102971
4583.375666,666.185348,-8580.269578,-370.102971
4583.375990,148.041188,-8197.221829,0.000000
4583.376314,148.041188,-8886.707777,0.000000
4583.376639,518.144159,-8503.660028,0.000000
4583.376963,444.123565,-8427.050478,0.000000
4583.377287,148.041188,-8810.098227,0.000000
4583.377612,222.061783,-8810.098227,0.000000
4583.377936,222.061783,-8427.050478,-222.061783
4583.378261,370.102971,-8733.488677,-296.082377
4583.378585,296.082377,-8503.660028,-370.102971
4583.378909,222.061783,-8963.317327,-148.041188
4583.379234,444.123565,-8733.488677,-222.061783
4583.379558,518.144159,-8656.879127,0.000000
4583.379882,296.082377,-9652.803275,0.000000
4583.380207,814.226536,-8886.707777,74.020594
4583.380531,666.185348,-8580.269578,0.000000
4583.380855,444.123565,-8503.660028,-222.061783
4583.381180,444.123565,-8427.050478,-296.082377
4583.381504,444.123565,-8580.269578,-444.123565
4583.381828,666.185348,-8733.488677,-592.164754
4583.382153,370.102971,-8656.879127,-296.082377
4583.382477,296.082377,-8733.488677,-370.102971
4583.382801,-222.061783,-8656.879127,74.020594
4583.383126,444.123565,-8580.269578,-592.164754
4583.383450,370.102971,-8886.707777,0.000000
4583.383774,592.164754,-8273.831378,0.000000
4583.384099,370.102971,-8656.879127,-444.123565
4583.384423,222.061783,-8503.660028,-370.102971
4583.384747,296.082377,-8120.612279,-370.102971
4583.385072,296.082377,-8886.707777,-592.164754
4583.385396,222.061783,-8350.440928,-592.164754
4583.385720,74.020594,-8503.660028,0.000000
4583.386045,370.102971,-8580.269578,0.000000
4583.386369,518.144159,-8273.831378,0.000000
4583.386693,592.164754,-8810.098227,-370.102971
4583.387018,666.185348,-8580.269578,-296.082377
4583.387342,444.123565,-8580.269578,0.000000
4583.387667,148.041188,-8503.660028,-518.144159
4583.387991,444.123565,-8427.050478,-370.102971
4583.388315,222.061783,-8503.660028,-444.123565
4583.388640,444.123565,-8886.707777,-518.144159
4583.388964,370.102971,-8656.879127,-296.082377
4583.389288,518.144159,-8427.050478,-222.061783
4583.389613,518.144159,-8656.879127,-148.041188
4583.389937,444.123565,-8810.098227,-222.061783
4583.390261,444.123565,-8886.707777,-444.123565
4583.390586,592.164754,-8580.269578,-444.123565
4583.390910,0.000000,-8580.269578,-592.164754
4583.391234,-296.082377,-9193.145976,-444.123565
4583.391559,222.061783,-8120.612279,-666.185348
4583.391883,222.061783,-8273.831378,-666.185348
4583.392207,296.082377,-8503.660028,-518.144159
4583.392532,740.205942,-8580.269578,-370.102971
4583.392856,444.123565,-8810.098227,-370.102971
4583.393180,296.082377,-8350.440928,-592.164754
4583.393505,296.082377,-8580.269578,-518.144159
4583.393829,370.102971,-8427.050478,-740.205942
4583.394153,814.226536,-7584.345430,-148.041188
4583.394478,222.061783,-8503.660028,-740.205942
4583.394802,0.000000,-8350.440928,-666.185348
4583.395126,444.123565,-8427.050478,-296.082377
4583.395451,740.205942,-9039.926876,-222.061783
4583.395775,518.144159,-8503.660028,0.000000
4583.396100,740.205942,-8503.660028,74.020594
4583.396424,888.247130,-8503.660028,0.000000
4583.396748,666.185348,-8273.831378,0.000000
4583.397073,444.123565,-8427.050478,-296.082377
4583.397397,814.226536,-8503.660028,-148.041188
4583.397721,296.082377,-8273.831378,0.000000
4583.398046,222.061783,-8580.269578,-148.041188
4583.398370,370.102971,-8427.050478,0.000000
4583.398694,592.164754,-8350.440928,-222.061783
4583.399019,666.185348,-8963.317327,-296.082377
4583.399343,444.123565,-8656.879127,-74.020594
4583.399667,518.144159,-8733.488677,148.041188
4583.399992,1036.288319,-8580.269578,-222.061783
4583.400316,370.102971,-8273.831378,-518.144159
4583.400640,370.102971,-8503.660028,-666.185348
4583.400965,518.144159,-8273.831378,-592.164754
4583.401289,222.061783,-8427.050478,-444.123565
4583.401614,296.082377,-8656.879127,-592.164754
4583.401938,296.082377,-8656.879127,-444.123565
4583.402262,518.144159,-8580.269578,-444.123565
4583.402587,296.082377,-8120.612279,0.000000
4583.402911,592.164754,-8580.269578,0.000000
4583.403235,148.041188,-8580.269578,-222.061783
4583.403560,444.123565,-8963.317327,-296.082377
4583.403884,518.144159,-8427.050478,-370.102971
4583.404208,444.123565,-8733.488677,-370.102971
4583.404533,592.164754,-8427.050478,-148.041188
4583.404857,370.102971,-8810.098227,-148.041188
4583.405181,518.144159,-8810.098227,0.000000
4583.405506,888.247130,-8580.269578,-148.041188
4583.405830,592.164754,-8886.707777,0.000000
4583.406154,74.020594,-8427.050478,0.000000
4583.406479,370.102971,-8656.879127,0.000000
4583.406803,518.144159,-8886.707777,0.000000
4583.407128,222.061783,-8503.660028,-444.123565
4583.407452,222.061783,-8656.879127,-296.082377
4583.407776,296.082377,-8580.269578,-740.205942
4583.408101,518.144159,-8427.050478,-370.102971
4583.408425,444.123565,-8886.707777,-518.144159
4583.408749,444.123565,-8656.879127,-370.102971
4583.409074,370.102971,-8580.269578,-518.144159
4583.409398,370.102971,-8963.317327,-592.164754
4583.409722,518.144159,-8580.269578,-222.061783
4583.410047,444.123565,-8580.269578,-518.144159
4583.410371,444.123565,-8733.488677,-444.123565
4583.410695,148.041188,-8197.221829,-740.205942
4583.411020,296.082377,-8427.050478,-740.205942
4583.411344,592.164754,-8350.440928,-666.185348
4583.411668,592.164754,-8427.050478,-296.082377
4583.411993,444.123565,-8886.707777,-592.164754
4583.412317,518.144159,-8350.440928,-370.102971
4583.412642,370.102971,-8580.269578,-666.185348
4583.412966,222.061783,-8580.269578,-592.164754
4583.413290,222.061783,-8427.050478,-444.123565
4583.413615,222.061783,-8656.879127,-444.123565
4583.413939,666.185348,-8656.879127,-740.205942
4583.414263,444.123565,-8580.269578,-518.144159
4583.414588,592.164754,-8580.269578,-370.102971
4583.414912,518.144159,-8197.221829,-148.041188
4583.415236,814.226536,-8810.098227,-296.082377
4583.415561,296.082377,-8580.269578,-370.102971
4583.415885,518.144159,-8580.269578,-222.061783
4583.416209,444.123565,-8350.440928,-444.123565
4583.416534,296.082377,-8503.660028,-370.102971
4583.416858,148.041188,-8503.660028,-518.144159
4583.417182,370.102971,-8733.488677,-666.185348
4583.417507,444.123565,-8273.831378,-888.247130
4583.417831,814.226536,-8810.098227,-666.185348
4583.418156,962.267725,-9039.926876,-296.082377
4583.418480,740.205942,-8350.440928,-444.123565
4583.418804,444.123565,-8580.269578,-370.102971
4583.419129,518.144159,-8580.269578,-296.082377
4583.419453,370.102971,-8580.269578,-962.267725
4583.419777,814.226536,-8963.317327,-666.185348
4583.420102,444.123565,-8273.831378,-592.164754
4583.420426,518.144159,-8733.488677,-814.226536
4583.420750,518.144159,-8810.098227,-518.144159
4583.421075,444.123565,-8580.269578,-518.144159
4583.421399,740.205942,-8810.098227,-444.123565
4583.421723,666.185348,-8580.269578,-296.082377
4583.422048,444.123565,-8580.269578,-222.061783
4583.422372,370.102971,-8656.879127,0.000000
4583.422696,370.102971,-8656.879127,-444.123565
4583.423021,148.041188,-8886.707777,-296.082377
4583.423345,222.061783,-8580.269578,-222.061783
4583.423670,74.020594,-8580.269578,0.000000
4583.423994,444.123565,-8656.879127,-518.144159
4583.424318,444.123565,-8656.879127,-148.041188
4583.424643,518.144159,-8580.269578,0.000000
4583.424967,370.102971,-8733.488677,-74.020594
4583.425291,370.102971,-8810.098227,370.102971
4583.425616,444.123565,-8656.879127,0.000000
4583.425940,222.061783,-8656.879127,-296.082377
4583.426264,518.144159,-8656.879127,-518.144159
4583.426589,0.000000,-9116.536426,-296.082377
4583.426913,444.123565,-8580.269578,-592.164754
4583.427237,296.082377,-8503.660028,-296.082377
4583.427562,518.144159,-8503.660028,-444.123565
4583.427886,444.123565,-8427.050478,-222.061783
4583.428210,444.123565,-8427.050478,0.000000
4583.428535,296.082377,-8503.660028,-222.061783
4583.428859,740.205942,-8580.269578,0.000000
4583.429184,222.061783,-8656.879127,-222.061783
4583.429508,148.041188,-8580.269578,-222.061783
4583.429832,370.102971,-8503.660028,-444.123565
4583.430157,0.000000,-8656.879127,-592.164754
4583.430481,444.123565,-8580.269578,148.041188
4583.430805,222.061783,-8503.660028,0.000000
4583.431130,222.061783,-8963.317327,0.000000
4583.431454,370.102971,-8120.612279,0.000000
4583.431778,592.164754,-8886.707777,0.000000
4583.432103,518.144159,-8503.660028,-370.102971
4583.432427,814.226536,-8350.440928,-222.061783
4583.432751,444.123565,-8580.269578,-444.123565
4583.433076,370.102971,-8503.660028,-592.164754
4583.433400,296.082377,-8427.050478,-296.082377
4583.433724,888.247130,-8733.488677,-444.123565
4583.434049,518.144159,-8427.050478,-296.082377
4583.434373,740.205942,-8503.660028,-222.061783
4583.434698,592.164754,-8350.440928,-370.102971
4583.435022,740.205942,-8503.660028,222.061783
4583.435346,518.144159,-8580.269578,-666.185348
4583.435671,592.164754,-8427.050478,-444.123565
4583.435995,444.123565,-8427.050478,-444.123565
4583.436319,222.061783,-8350.440928,-1110.308913
4583.436644,444.123565,-8963.317327,-814.226536
4583.436968,370.102971,-8656.879127,-592.164754
4583.437292,148.041188,-8733.488677,-296.082377
4583.437617,296.082377,-8656.879127,-370.102971
4583.437941,666.185348,-8273.831378,0.000000
4583.438265,518.144159,-8350.440928,-740.205942
4583.438590,222.061783,-8656.879127,-1036.288319
4583.438914,444.123565,-8886.707777,-740.205942
4583.439238,296.082377,-8197.221829,-592.164754
4583.439563,0.000000,-8810.098227,-666.185348
4583.439887,0.000000,-8656.879127,-740.205942
4583.440212,444.123565,-8503.660028,-518.144159
4583.440536,444.123565,-9116.536426,-592.164754
4583.440860,1110.308913,-8273.831378,-666.185348
4583.441185,370.102971,-8503.660028,-296.082377
4583.441509,592.164754,-8273.831378,-370.102971
4583.441833,592.164754,-8427.050478,-814.226536
4583.442158,1258.350101,-8580.269578,-888.247130
4583.442482,444.123565,-8503.660028,-518.144159
4583.442806,518.144159,-8427.050478,-888.247130
4583.443131,222.061783,-8580.269578,-666.185348
4583.443455,296.082377,-8350.440928,-518.144159
4583.443779,592.164754,-8733.488677,-370.102971
4583.444104,518.144159,-8580.269578,-518.144159
4583.444428,666.185348,-8886.707777,0.000000
4583.444752,518.144159,-8503.660028,-370.102971
4583.445077,962.267725,-8273.831378,0.000000
4583.445401,370.102971,-8273.831378,-518.144159
4583.445726,222.061783,-8886.707777,-370.102971
4583.446050,370.102971,-8503.660028,-592.164754
4583.446374,518.144159,-7584.345430,-74.020594
4583.446699,74.020594,-8733.488677,-370.102971
4583.447023,370.102971,-8656.879127,-296.082377
4583.447347,518.144159,-8503.660028,0.000000
4583.447672,518.144159,-8503.660028,0.000000
4583.447996,888.247130,-8733.488677,0.000000
4583.448320,444.123565,-8656.879127,-444.123565
4583.448645,518.144159,-8503.660028,74.020594
4583.448969,518.144159,-8580.269578,-444.123565
4583.449293,666.185348,-8886.707777,-222.061783
4583.449618,222.061783,-8197.221829,-148.041188
4583.449942,592.164754,-8656.879127,0.000000
4583.450266,592.164754,-8580.269578,-148.041188
4583.450591,1036.288319,-7890.783629,148.041188
4583.450915,666.185348,-8503.660028,74.020594
4583.451240,592.164754,-8580.269578,370.102971
4583.451564,592.164754,-8350.440928,-296.082377
4583.451888,222.061783,-8580.269578,-444.123565
4583.452213,296.082377,-8120.612279,-296.082377
4583.452537,222.061783,-8810.098227,-592.164754
4583.452861,592.164754,-8810.098227,0.000000
4583.453186,296.082377,-8273.831378,0.000000
4583.453510,222.061783,-9039.926876,-222.061783
4583.453834,0.000000,-8656.879127,-296.082377
4583.454159,592.164754,-9116.536426,0.000000
4583.454483,296.082377,-8656.879127,-370.102971
4583.454807,518.144159,-8580.269578,-222.061783
4583.455132,518.144159,-8580.269578,-222.061783
4583.455456,296.082377,-8427.050478,-296.082377
4583.455780,222.061783,-8656.879127,-444.123565
4583.456105,296.082377,-8886.707777,-370.102971
4583.456429,666.185348,-8886.707777,-444.123565
4583.456754,370.102971,-8963.317327,0.000000
4583.457078,592.164754,-9193.145976,-222.061783
4583.457402,222.061783,-8810.098227,-222.061783
4583.457727,222.061783,-9422.974625,-222.061783
4583.458051,0.000000,-8580.269578,-222.061783
4583.458375,74.020594,-8580.269578,-296.082377
4583.458700,370.102971,-8733.488677,-814.226536
4583.459024,296.082377,-8656.879127,-518.144159
4583.459348,74.020594,-8503.660028,-666.185348
4583.459673,370.102971,-8886.707777,-666.185348
4583.459997,296.082377,-8273.831378,0.000000
4583.460321,296.082377,-8886.707777,-148.041188
4583.460646,148.041188,-8427.050478,-296.082377
4583.460970,444.123565,-8197.221829,-666.185348
4583.461295,370.102971,-8886.707777,-592.164754
4583.461619,592.164754,-8197.221829,-444.123565
4583.461943,518.144159,-8350.440928,-888.247130
4583.462268,666.185348,-8120.612279,-518.144159
4583.462592,370.102971,-8044.002729,-444.123565
4583.462916,518.144159,-8733.488677,-296.082377
4583.463241,444.123565,-8350.440928,-370.102971
4583.463565,592.164754,-8503.660028,-296.082377
4583.463889,518.144159,-8427.050478,-296.082377
4583.464214,518.144159,-8656.879127,-444.123565
4583.464538,740.205942,-8580.269578,-592.164754
4583.464862,814.226536,-8810.098227,-296.082377
4583.465187,592.164754,-8503.660028,-444.123565
4583.465511,518.144159,-8580.269578,-444.123565
4583.465835,740.205942,-8503.660028,-296.082377
4583.466160,740.205942,-8963.317327,74.020594
4583.466484,666.185348,-8503.660028,-222.061783
4583.466809,888.247130,-8656.879127,148.041188
4583.467133,222.061783,-8350.440928,0.000000
4583.467457,370.102971,-8810.098227,-222.061783
4583.467782,296.082377,-8503.660028,0.000000
4583.468106,518.144159,-8580.269578,-296.082377
4583.468430,370.102971,-8656.879127,-444.123565
4583.468755,0.000000,-8580.269578,-370.102971
4583.469079,74.020594,-8503.660028,296.082377
4583.469403,222.061783,-8656.879127,-148.041188
4583.469728,296.082377,-8886.707777,-148.041188
4583.470052,444.123565,-8810.098227,74.020594
4583.470376,296.082377,-8273.831378,148.041188
4583.470701,296.082377,-8503.660028,-444.123565
4583.471025,296.082377,-8580.269578,-296.082377
4583.471349,296.082377,-8503.660028,-444.123565
4583.471674,296.082377,-8580.269578,-666.185348
4583.471998,222.061783,-8580.269578,-296.082377
4583.472323,222.061783,-8580.269578,0.000000
4583.472647,370.102971,-8350.440928,-370.102971
4583.472971,222.061783,-8656.879127,-296.082377
4583.473296,444.123565,-8963.317327,74.020594
4583.473620,444.123565,-8656.879127,-148.041188
4583.473944,444.123565,-8273.831378,-222.061783
4583.474269,444.123565,-8810.098227,-518.144159
4583.474593,296.082377,-8503.660028,-370.102971
4583.474917,296.082377,-8656.879127,-444.123565
4583.475242,444.123565,-8656.879127,-518.144159
4583.475566,148.041188,-8810.098227,-148.041188
4583.475890,148.041188,-8733.488677,0.000000
4583.476215,518.144159,-8963.317327,0.000000
4583.476539,370.102971,-8733.488677,-148.041188
4583.476863,222.061783,-8886.707777,-444.123565
4583.477188,666.185348,-8350.440928,-222.061783
4583.477512,518.144159,-9039.926876,0.000000
4583.477837,444.123565,-8886.707777,-296.082377
4583.478161,592.164754,-8427.050478,-444.123565
4583.478485,592.164754,-8810.098227,-148.041188
4583.478810,518.144159,-8656.879127,-222.061783
4583.479134,444.123565,-8580.269578,0.000000
4583.479458,666.185348,-8810.098227,0.000000
4583.479783,592.164754,-8810.098227,0.000000
4583.480107,370.102971,-8656.879127,-148.041188
4583.480431,740.205942,-8886.707777,-296.082377
4583.480756,518.144159,-8197.221829,0.000000
4583.481080,370.102971,-8350.440928,-444.123565
4583.481404,222.061783,-8503.660028,-296.082377
4583.481729,666.185348,-8273.831378,0.000000
4583.482053,592.164754,-8427.050478,222.061783
4583.482377,666.185348,-8503.660028,0.000000
4583.482702,296.082377,-8656.879127,222.061783
4583.483026,444.123565,-8886.707777,74.020594
4583.483351,370.102971,-8733.488677,0.000000
4583.483675,444.123565,-8427.050478,-222.061783
4583.483999,444.123565,-8427.050478,-148.041188
4583.484324,666.185348,-8273.831378,-222.061783
4583.484648,814.226536,-8427.050478,-148.041188
4583.484972,444.123565,-8656.879127,-296.082377
4583.485297,740.205942,-8733.488677,-222.061783
4583.485621,814.226536,-8503.660028,-148.041188
4583.485945,666.185348,-8656.879127,74.020594
4583.486270,518.144159,-8656.879127,-370.102971
4583.486594,370.102971,-8810.098227,-592.164754
4583.486918,148.041188,-8580.269578,-814.226536
4583.487243,148.041188,-8427.050478,-814.226536
4583.487567,74.020594,-8580.269578,-518.144159
4583.487891,222.061783,-8503.660028,-814.226536
4583.488216,296.082377,-8810.098227,-592.164754
4583.488540,222.061783,-8656.879127,-518.144159
4583.488865,444.123565,-8503.660028,-740.205942
4583.489189,222.061783,-8503.660028,-592.164754
4583.489513,296.082377,-8656.879127,-222.061783
4583.489838,222.061783,-8810.098227,-666.185348
4583.490162,74.020594,-8810.098227,-666.185348
4583.490486,148.041188,-8197.221829,-666.185348
4583.490811,74.020594,-8810.098227,-888.247130
4583.491135,222.061783,-8273.831378,-666.185348
4583.491459,0.000000,-8350.440928,0.000000
4583.491784,444.123565,-8733.488677,-370.102971
4583.492108,666.185348,-8273.831378,-296.082377
4583.492432,962.267725,-8886.707777,0.000000
4583.492757,592.164754,-8197.221829,-148.041188
4583.493081,814.226536,-8350.440928,-666.185348
4583.493405,666.185348,-8810.098227,-518.144159
4583.493730,370.102971,-8273.831378,-222.061783
4583.494054,518.144159,-8733.488677,-444.123565
4583.494379,444.123565,-8656.879127,-370.102971
4583.494703,740.205942,-8580.269578,-222.061783
4583.495027,518.144159,-8656.879127,-518.144159
4583.495352,740.205942,-8503.660028,-370.102971
4583.495676,962.267725,-8580.269578,-222.061783
4583.496000,370.102971,-8733.488677,-740.205942
4583.496325,370.102971,-8656.879127,-296.082377
4583.496649,444.123565,-8580.269578,-296.082377
4583.496973,370.102971,-8350.440928,-666.185348
4583.497298,518.144159,-8350.440928,-444.123565
4583.497622,296.082377,-8503.660028,-370.102971
4583.497947,518.144159,-8656.879127,-222.061783
4583.498271,592.164754,-7967.393179,0.000000
4583.498595,444.123565,-9116.536426,-370.102971
4583.498920,592.164754,-8580.269578,-518.144159
4583.499244,592.164754,-8197.221829,-518.144159
4583.499568,666.185348,-8733.488677,-370.102971
4583.499893,814.226536,-8580.269578,-296.082377
4583.500217,370.102971,-8503.660028,-592.164754
4583.500542,222.061783,-8733.488677,-370.102971
4583.500866,296.082377,-8427.050478,0.000000
4583.501190,518.144159,-8580.269578,0.000000
4583.501515,444.123565,-7890.783629,74.020594
4583.501839,444.123565,-8580.269578,148.041188
4583.502163,296.082377,-8810.098227,0.000000
4583.502488,370.102971,-8580.269578,0.000000
4583.502812,444.123565,-8656.879127,-518.144159
4583.503136,148.041188,-8733.488677,-222.061783
4583.503461,148.041188,-8963.317327,-222.061783
4583.503785,0.000000,-8503.660028,-518.144159
4583.504110,296.082377,-8733.488677,-148.041188
4583.504434,296.082377,-8503.660028,-296.082377
4583.504758,74.020594,-8963.317327,-74.020594
4583.505083,370.102971,-8503.660028,0.000000
4583.505407,74.020594,-8810.098227,0.000000
4583.505731,296.082377,-9193.145976,-666.185348
4583.506056,518.144159,-8503.660028,-740.205942
4583.506380,518.144159,-8580.269578,-592.164754
4583.506705,222.061783,-8810.098227,-592.164754
4583.507029,444.123565,-8580.269578,-518.144159
4583.507353,370.102971,-9116.536426,-370.102971
4583.507678,370.102971,-8580.269578,-222.061783
4583.508002,444.123565,-8656.879127,-370.102971
4583.508326,518.144159,-8580.269578,-296.082377
4583.508651,518.144159,-9039.926876,-222.061783
4583.508975,222.061783,-8580.269578,-592.164754
4583.509299,370.102971,-8733.488677,-518.144159
4583.509624,518.144159,-8427.050478,-592.164754
4583.509948,518.144159,-8656.879127,-444.123565
4583.510273,148.041188,-8427.050478,-370.102971
4583.510597,592.164754,-8350.440928,0.000000
4583.510921,444.123565,-8580.269578,-296.082377
4583.511246,518.144159,-8580.269578,-592.164754
4583.511570,296.082377,-8886.707777,0.000000
4583.511894,370.102971,-8503.660028,0.000000
4583.512219,518.144159,-8350.440928,-444.123565
4583.512543,666.185348,-8350.440928,-592.164754
4583.512868,814.226536,-8273.831378,-222.061783
4583.513192,814.226536,-8580.269578,-740.205942
4583.513516,962.267725,-8350.440928,-740.205942
4583.513841,592.164754,-8580.269578,-518.144159
4583.514165,740.205942,-8580.269578,-370.102971
4583.514489,740.205942,-8886.707777,-666.185348
4583.514814,518.144159,-8427.050478,-518.144159
4583.515138,740.205942,-8733.488677,-222.061783
4583.515462,296.082377,-8197.221829,-666.185348
4583.515787,666.185348,-8733.488677,-666.185348
4583.516111,296.082377,-8427.050478,-740.205942
4583.516436,592.164754,-8580.269578,-592.164754
4583.516760,296.082377,-8733.488677,-370.102971
4583.517084,814.226536,-8963.317327,-148.041188
4583.517409,296.082377,-8503.660028,-148.041188
4583.517733,444.123565,-8580.269578,-148.041188
4583.518057,296.082377,-8656.879127,-148.041188
4583.518382,222.061783,-8656.879127,-296.082377
4583.518706,592.164754,-8810.098227,-148.041188
4583.519031,370.102971,-8350.440928,-222.061783
4583.519355,370.102971,-8580.269578,-370.102971
4583.519679,296.082377,-8503.660028,-814.226536
4583.520004,222.061783,-9039.926876,0.000000
4583.520328,370.102971,-8427.050478,-518.144159
4583.520652,222.061783,-8733.488677,0.000000
4583.520977,444.123565,-8580.269578,-296.082377
4583.521301,296.082377,-8350.440928,-518.144159
4583.521625,370.102971,-8350.440928,-814.226536
4583.521950,148.041188,-8427.050478,-666.185348
4583.522274,222.061783,-8580.269578,-518.144159
4583.522599,74.020594,-8427.050478,-592.164754
4583.522923,222.061783,-8503.660028,-1258.350101
4583.523247,296.082377,-8273.831378,-592.164754
4583.523572,296.082377,-8656.879127,-296.082377
4583.523896,296.082377,-8810.098227,-518.144159
4583.524220,444.123565,-8580.269578,-222.061783
4583.524545,296.082377,-8810.098227,0.000000
4583.524869,296.082377,-8656.879127,-296.082377
4583.525194,296.082377,-8656.879127,-518.144159
4583.525518,666.185348,-8963.317327,-518.144159
4583.525842,296.082377,-8580.269578,-148.041188
4583.526167,222.061783,-9039.926876,-370.102971
4583.526491,222.061783,-8427.050478,0.000000
4583.526815,814.226536,-8580.269578,0.000000
4583.527140,962.267725,-8120.612279,296.082377
4583.527464,666.185348,-8810.098227,148.041188
4583.527788,592.164754,-8733.488677,0.000000
4583.528113,888.247130,-8580.269578,0.000000
4583.528437,814.226536,-8503.660028,0.000000
4583.528762,370.102971,-8810.098227,-148.041188
4583.529086,666.185348,-8503.660028,-296.082377
4583.529410,592.164754,-8427.050478,-370.102971
4583.529735,888.247130,-8503.660028,-444.123565
4583.530059,222.061783,-8656.879127,74.020594
4583.530383,592.164754,-8350.440928,0.000000
4583.530708,740.205942,-8733.488677,-148.041188
4583.531032,444.123565,-8656.879127,0.000000
4583.531357,666.185348,-7967.393179,0.000000
4583.531681,444.123565,-8273.831378,-370.102971
4583.532005,370.102971,-8503.660028,-296.082377
4583.532330,296.082377,-8427.050478,-518.144159
4583.532654,370.102971,-8580.269578,74.020594
4583.532978,518.144159,-8197.221829,-370.102971
4583.533303,888.247130,-8580.269578,-222.061783
4583.533627,518.144159,-8427.050478,-296.082377
4583.533951,592.164754,-8656.879127,-518.144159
4583.534276,814.226536,-8580.269578,-518.144159
4583.534600,444.123565,-8273.831378,-444.123565
4583.534925,222.061783,-8886.707777,-444.123565
4583.535249,518.144159,-8503.660028,-740.205942
4583.535573,592.164754,-8580.269578,-666.185348
4583.535898,296.082377,-8733.488677,-740.205942
4583.536222,444.123565,-8656.879127,-296.082377
4583.536546,0.000000,-8886.707777,0.000000
4583.536871,222.061783,-8197.221829,-370.102971
4583.537195,444.123565,-8273.831378,-444.123565
4583.537520,148.041188,-8886.707777,-296.082377
4583.537844,222.061783,-8886.707777,-444.123565
4583.538168,296.082377,-8810.098227,-592.164754
4583.538493,74.020594,-8273.831378,-814.226536
4583.538817,0.000000,-8503.660028,-740.205942
4583.539141,222.061783,-8580.269578,-1036.288319
4583.539466,518.144159,-8580.269578,-592.164754
4583.539790,518.144159,-8273.831378,-296.082377
4583.540114,444.123565,-8733.488677,-518.144159
4583.540439,444.123565,-8733.488677,-592.164754
4583.540763,370.102971,-8580.269578,-592.164754
4583.541088,296.082377,-8656.879127,-592.164754
4583.541412,518.144159,-8580.269578,-740.205942
4583.541736,444.123565,-8427.050478,-740.205942
4583.542061,444.123565,-8656.879127,-592.164754
4583.542385,296.082377,-8350.440928,-740.205942
4583.542709,666.185348,-8656.879127,-1110.308913
4583.543034,518.144159,-8656.879127,-148.041188
4583.543358,370.102971,-8580.269578,-518.144159
4583.543683,592.164754,-8733.488677,-370.102971
4583.544007,962.267725,-8886.707777,-74.020594
4583.544331,740.205942,-8350.440928,-444.123565
4583.544656,740.205942,-8810.098227,-370.102971
4583.544980,592.164754,-8503.660028,-444.123565
4583.545304,518.144159,-8656.879127,-296.082377
4583.545629,370.102971,-8733.488677,-296.082377
4583.545953,444.123565,-8350.440928,-222.061783
4583.546277,444.123565,-8733.488677,-296.082377
4583.546602,666.185348,-8044.002729,0.000000
4583.546926,814.226536,-8120.612279,0.000000
4583.547251,666.185348,-8350.440928,-370.102971
4583.547575,814.226536,-8427.050478,-370.102971
4583.547899,666.185348,-8427.050478,-444.123565
4583.548224,444.123565,-7890.783629,-444.123565
4583.548548,666.185348,-8427.050478,-296.082377
4583.548872,518.144159,-8656.879127,-444.123565
4583.549197,444.123565,-8733.488677,0.000000
4583.549521,222.061783,-8656.879127,-296.082377
4583.549846,740.205942,-8656.879127,-370.102971
4583.550170,666.185348,-8044.002729,0.000000
4583.550494,814.226536,-8580.269578,0.000000
4583.550819,370.102971,-8350.440928,-222.061783
4583.551143,740.205942,-8197.221829,222.061783
4583.551467,592.164754,-8503.660028,-444.123565
4583.551792,296.082377,-9039.926876,0.000000
4583.552116,222.061783,-8503.660028,0.000000
4583.552440,296.082377,-9039.926876,0.000000
4583.552765,0.000000,-8733.488677,-222.061783
4583.553089,222.061783,-9193.145976,-370.102971
4583.553414,222.061783,-8580.269578,-296.082377
4583.553738,222.061783,-8656.879127,-148.041188
4583.554062,444.123565,-9116.536426,-518.144159
4583.554387,370.102971,-8656.879127,-518.144159
4583.554711,74.020594,-8886.707777,-592.164754
4583.555035,0.000000,-8810.098227,-666.185348
4583.555360,222.061783,-9116.536426,-740.205942
4583.555684,222.061783,-8810.098227,-296.082377
4583.556009,296.082377,-8580.269578,-222.061783
4583.556333,518.144159,-8810.098227,-370.102971
4583.556657,518.144159,-8810.098227,-518.144159
4583.556982,296.082377,-8503.660028,148.041188
4583.557306,148.041188,-8503.660028,-444.123565
4583.557630,222.061783,-8810.098227,-518.144159
4583.557955,222.061783,-8273.831378,-518.144159
4583.558279,0.000000,-8580.269578,-666.185348
4583.558603,296.082377,-8350.440928,-518.144159
4583.558928,296.082377,-8580.269578,-296.082377
4583.559252,148.041188,-8350.440928,0.000000
4583.559577,296.082377,-8886.707777,-296.082377
4583.559901,592.164754,-8427.050478,-148.041188
4583.560225,592.164754,-8963.317327,-222.061783
4583.560550,666.185348,-8273.831378,-148.041188
4583.560874,666.185348,-8733.488677,-370.102971
4583.561198,814.226536,-8427.050478,-740.205942
4583.561523,740.205942,-8503.660028,-518.144159
4583.561847,518.144159,-8503.660028,-444.123565
4583.562172,518.144159,-8503.660028,74.020594
4583.562496,888.247130,-8350.440928,-296.082377
4583.562820,592.164754,-8656.879127,0.000000
4583.563145,444.123565,-7967.393179,-370.102971
4583.563469,814.226536,-8580.269578,-444.123565
4583.563793,814.226536,-8810.098227,-444.123565
4583.564118,666.185348,-8427.050478,-148.041188
4583.564442,444.123565,-8503.660028,-666.185348
4583.564766,296.082377,-8427.050478,-592.164754
4583.565091,814.226536,-8733.488677,-518.144159
4583.565415,814.226536,-9039.926876,-518.144159
4583.565740,370.102971,-8656.879127,-148.041188
4583.566064,370.102971,-8350.440928,0.000000
4583.566388,74.020594,-8120.612279,0.000000
4583.566713,222.061783,-8810.098227,222.061783
4583.567037,518.144159,-8503.660028,-666.185348
4583.567361,962.267725,-8427.050478,-370.102971
4583.567686,518.144159,-8580.269578,-814.226536
4583.568010,444.123565,-9116.536426,-444.123565
4583.568335,518.144159,-8350.440928,-518.144159
4583.568659,444.123565,-9039.926876,-370.102971
4583.568983,222.061783,-8656.879127,-518.144159
4583.569308,222.061783,-8580.269578,-222.061783
4583.569632,148.041188,-8810.098227,-370.102971
4583.569956,148.041188,-8580.269578,-296.082377
4583.570281,148.041188,-8810.098227,-814.226536
4583.570605,148.041188,-8886.707777,-592.164754
4583.570929,962.267725,-8580.269578,-888.247130
4583.571254,222.061783,-8580.269578,-444.123565
4583.571578,370.102971,-8656.879127,-444.123565
4583.571903,222.061783,-8580.269578,-222.061783
4583.572227,296.082377,-8810.098227,-370.102971
4583.572551,296.082377,-8810.098227,-370.102971
4583.572876,370.102971,-8503.660028,-296.082377
4583.573200,296.082377,-8503.660028,-444.123565
4583.573524,74.020594,-8810.098227,-518.144159
4583.573849,444.123565,-8963.317327,-666.185348
4583.574173,444.123565,-8963.317327,-592.164754
4583.574498,370.102971,-8273.831378,-370.102971
4583.574822,222.061783,-9039.926876,-148.041188
4583.575146,666.185348,-8810.098227,-296.082377
4583.575471,592.164754,-8580.269578,-222.061783
4583.575795,444.123565,-8810.098227,0.000000
4583.576119,296.082377,-8580.269578,0.000000
4583.576444,444.123565,-8886.707777,-296.082377
4583.576768,370.102971,-8273.831378,-222.061783
4583.577092,222.061783,-8427.050478,-518.144159
4583.577417,592.164754,-8810.098227,-296.082377
4583.577741,518.144159,-8120.612279,-296.082377
4583.578066,370.102971,-8273.831378,666.185348
4583.578390,370.102971,-8273.831378,0.000000
4583.578714,666.185348,-8350.440928,0.000000
4583.579039,666.185348,-8273.831378,0.000000
4583.579363,222.061783,-8580.269578,444.123565
4583.579687,666.185348,-8503.660028,-222.061783
4583.580012,444.123565,-8273.831378,-222.061783
4583.580336,592.164754,-8427.050478,-444.123565
4583.580661,370.102971,-8580.269578,-370.102971
4583.580985,888.247130,-8273.831378,-296.082377
4583.581309,666.185348,-8197.221829,0.000000
4583.581634,740.205942,-8427.050478,-222.061783
4583.581958,814.226536,-8580.269578,-296.082377
4583.582282,518.144159,-8120.612279,-814.226536
4583.582607,666.185348,-8656.879127,-296.082377
4583.582931,370.102971,-8350.440928,-296.082377
4583.583255,518.144159,-8656.879127,-592.164754
4583.583580,592.164754,-8120.612279,-296.082377
4583.583904,148.041188,-8810.098227,-370.102971
4583.584229,518.144159,-8656.879127,-518.144159
4583.584553,592.164754,-8810.098227,-148.041188
4583.584877,296.082377,-8503.660028,148.041188
4583.585202,444.123565,-8503.660028,74.020594
4583.585526,148.041188,-8503.660028,0.000000
4583.585850,370.102971,-8810.098227,-444.123565
4583.586175,222.061783,-8580.269578,-444.123565
4583.586499,518.144159,-8810.098227,-148.041188
4583.586824,444.123565,-8886.707777,-222.061783
4583.587148,296.082377,-8580.269578,-296.082377
4583.587472,148.041188,-8733.488677,-222.061783
4583.587797,444.123565,-8427.050478,-370.102971
4583.588121,740.205942,-8503.660028,-518.144159
4583.588445,444.123565,-8580.269578,0.000000
4583.588770,444.123565,-8810.098227,-296.082377
4583.589094,444.123565,-8656.879127,-592.164754
4583.589418,740.205942,-8733.488677,-814.226536
4583.589743,222.061783,-8810.098227,-740.205942
4583.590067,148.041188,-8733.488677,-518.144159
4583.590392,296.082377,-8733.488677,-666.185348
4583.590716,222.061783,-8503.660028,-888.247130
4583.591040,592.164754,-8656.879127,-592.164754
4583.591365,296.082377,-8886.707777,-592.164754
4583.591689,296.082377,-8427.050478,-370.102971
4583.592013,148.041188,-8427.050478,-370.102971
4583.592338,444.123565,-8580.269578,-740.205942
4583.592662,370.102971,-8350.440928,-888.247130
4583.592986,370.102971,-8810.098227,-888.247130
4583.593311,296.082377,-8733.488677,-1036.288319
4583.593635,222.061783,-8963.317327,-592.164754
4583.593960,444.123565,-8733.488677,-296.082377
4583.594284,444.123565,-8503.660028,-370.102971
4583.594608,518.144159,-8580.269578,-296.082377
4583.594933,592.164754,-8886.707777,0.000000
4583.595257,740.205942,-8503.660028,296.082377
4583.595582,296.082377,-8273.831378,-370.102971
4583.595906,666.185348,-8503.660028,-370.102971
4583.596230,740.205942,-8580.269578,-444.123565
4583.596555,370.102971,-8810.098227,0.000000
4583.596879,370.102971,-8427.050478,-148.041188
4583.597204,666.185348,-8427.050478,222.061783
4583.597528,814.226536,-8503.660028,0.000000
4583.597853,666.185348,-8044.002729,0.000000
4583.598177,518.144159,-8963.317327,0.000000
4583.598502,592.164754,-8197.221829,0.000000
4583.598826,740.205942,-8120.612279,-222.061783
4583.599150,222.061783,-8810.098227,-444.123565
4583.599475,592.164754,-8580.269578,-370.102971
4583.599799,148.041188,-8273.831378,-74.020594
4583.600124,370.102971,-8733.488677,0.000000
4583.600448,444.123565,-8580.269578,-296.082377
4583.600773,814.226536,-8963.317327,-296.082377
4583.601097,518.144159,-8273.831378,0.000000
4583.601421,592.164754,-8273.831378,-296.082377
4583.601746,444.123565,-8810.098227,0.000000
