#time,accel_x,accel_y,accel_z
4451.497441,444.123565,-8886.707777,-222.061783
4451.497765,222.061783,-8503.660028,-666.185348
4451.498090,148.041188,-8810.098227,0.000000
4451.498414,444.123565,-8733.488677,-296.082377
4451.498739,592.164754,-8886.707777,0.000000
4451.499063,518.144159,-8350.440928,-296.082377
4451.499388,444.123565,-8886.707777,0.000000
4451.499713,518.144159,-8580.269578,0.000000
4451.500037,444.123565,-8273.831378,222.061783
4451.500362,518.144159,-9422.974625,74.020594
4451.500686,370.102971,-8733.488677,444.123565
4451.501011,370.102971,-8810.098227,370.102971
4451.501335,444.123565,-8503.660028,444.123565
4451.501660,296.082377,-8580.269578,592.164754
4451.501985,74.020594,-8733.488677,740.205942
4451.502309,666.185348,-8427.050478,666.185348
4451.502634,296.082377,-8273.831378,444.123565
4451.502958,222.061783,-8427.050478,888.247130
4451.503283,0.000000,-7967.393179,1480.411884
4451.503607,370.102971,-8427.050478,814.226536
4451.503932,74.020594,-8273.831378,740.205942
4451.504257,222.061783,-8503.660028,962.267725
4451.504581,370.102971,-9269.755526,740.205942
4451.504906,0.000000,-8580.269578,888.247130
4451.505230,444.123565,-8656.879127,666.185348
4451.505555,444.123565,-8580.269578,666.185348
4451.505879,296.082377,-8273.831378,518.144159
4451.506204,148.041188,-8273.831378,814.226536
4451.506528,148.041188,-8197.221829,592.164754
4451.506853,222.061783,-8273.831378,518.144159
4451.507178,296.082377,-8580.269578,222.061783
4451.507502,0.000000,-8963.317327,740.205942
4451.507827,296.082377,-8580.269578,518.144159
4451.508151,444.123565,-8580.269578,370.102971
4451.508475,592.164754,-8273.831378,296.082377
4451.508800,814.226536,-8427.050478,222.061783
4451.509124,444.123565,-8503.660028,370.102971
4451.509449,444.123565,-8350.440928,296.082377
4451.509773,666.185348,-8810.098227,222.061783
4451.510097,296.082377,-8120.612279,222.061783
4451.510422,962.267725,-8656.879127,0.000000
4451.510746,296.082377,-8580.269578,-296.082377
4451.511071,518.144159,-8810.098227,-222.061783
4451.511395,370.102971,-8427.050478,0.000000
4451.511719,666.185348,-8733.488677,-444.123565
4451.512044,444.123565,-8580.269578,-296.082377
4451.512368,444.123565,-8580.269578,-370.102971
4451.512692,518.144159,-8427.050478,-370.102971
4451.513017,222.061783,-8580.269578,-814.226536
4451.513341,296.082377,-8580.269578,-444.123565
4451.513666,444.123565,-8350.440928,-444.123565
4451.513990,444.123565,-8503.660028,-962.267725
4451.514314,444.123565,-8350.440928,-1110.308913
4451.514639,740.205942,-8350.440928,-1036.288319
4451.514963,740.205942,-8580.269578,-888.247130
4451.515287,518.144159,-8427.050478,-888.247130
4451.515612,444.123565,-8350.440928,-740.205942
4451.515936,444.123565,-8350.440928,-962.267725
4451.516261,370.102971,-8427.050478,-1036.288319
4451.516585,222.061783,-8580.269578,-1258.350101
4451.516909,296.082377,-8580.269578,-1110.308913
4451.517234,444.123565,-8810.098227,-1110.308913
4451.517558,444.123565,-9039.926876,-1406.391290
4451.517882,222.061783,-8503.660028,-888.247130
4451.518207,370.102971,-8886.707777,-1110.308913
4451.518531,518.144159,-8733.488677,-1184.329507
4451.518856,666.185348,-7890.783629,-1036.288319
4451.519180,666.185348,-8733.488677,-1406.391290
4451.519504,518.144159,-8656.879127,-1258.350101
4451.519829,370.102971,-8656.879127,-888.247130
4451.520153,370.102971,-8733.488677,-740.205942
4451.520477,370.102971,-8963.317327,-1184.329507
4451.520802,296.082377,-8886.707777,-1036.288319
4451.521126,444.123565,-8963.317327,-888.247130
4451.521451,222.061783,-8733.488677,-1036.288319
4451.521775,296.082377,-9116.536426,-1110.308913
4451.522099,148.041188,-8733.488677,-1036.288319
4451.522424,222.061783,-8810.098227,-740.205942
4451.522748,296.082377,-8963.317327,-1110.308913
4451.523072,370.102971,-8503.660028,-370.102971
4451.523397,444.123565,-8503.660028,-962.267725
4451.523721,296.082377,-9269.755526,-888.247130
4451.524046,74.020594,-8810.098227,-1184.329507
4451.524370,74.020594,-9039.926876,-222.061783
4451.524694,74.020594,-9116.536426,-666.185348
4451.525019,296.082377,-8810.098227,-888.247130
4451.525343,444.123565,-8810.098227,-962.267725
4451.525667,296.082377,-8580.269578,-814.226536
4451.525992,592.164754,-8350.440928,-592.164754
4451.526316,1036.288319,-8503.660028,-888.247130
4451.526641,1110.308913,-8350.440928,-592.164754
4451.526965,1036.288319,-8656.879127,-518.144159
4451.527289,814.226536,-8350.440928,0.000000
4451.527614,1036.288319,-8580.269578,-592.164754
4451.527938,518.144159,-8733.488677,-222.061783
4451.528262,370.102971,-8656.879127,-370.102971
4451.528587,370.102971,-8810.098227,0.000000
4451.528911,148.041188,-8427.050478,0.000000
4451.529236,370.102971,-8427.050478,0.000000
4451.529560,518.144159,-8580.269578,-148.041188
4451.529884,740.205942,-8427.050478,0.000000
4451.530209,666.185348,-8197.221829,740.205942
4451.530533,888.247130,-8580.269578,444.123565
4451.530858,888.247130,-8580.269578,444.123565
4451.531182,1110.308913,-8503.660028,296.082377
4451.531506,592.164754,-8733.488677,518.144159
4451.531831,888.247130,-8503.660028,518.144159
4451.532155,444.123565,-8733.488677,888.247130
4451.532479,592.164754,-8656.879127,666.185348
4451.532804,666.185348,-8273.831378,444.123565
4451.533128,888.247130,-8810.098227,296.082377
4451.533453,888.247130,-8580.269578,518.144159
4451.533777,740.205942,-8580.269578,962.267725
4451.534101,666.185348,-8810.098227,1036.288319
4451.534426,1184.329507,-8656.879127,1036.288319
4451.534750,814.226536,-8886.707777,962.267725
4451.535074,518.144159,-8273.831378,740.205942
4451.535399,370.102971,-8656.879127,1184.329507
4451.535723,74.020594,-8733.488677,1258.350101
4451.536048,222.061783,-8580.269578,1184.329507
4451.536372,0.000000,-8273.831378,1184.329507
4451.536696,0.000000,-8656.879127,1184.329507
4451.537021,222.061783,-8044.002729,1184.329507
4451.537345,518.144159,-8044.002729,1110.308913
4451.537669,444.123565,-8350.440928,1184.329507
4451.537994,740.205942,-8273.831378,1110.308913
4451.538318,444.123565,-8810.098227,1036.288319
4451.538643,666.185348,-8963.317327,1110.308913
4451.538967,518.144159,-8350.440928,962.267725
4451.539291,148.041188,-8273.831378,888.247130
4451.539616,0.000000,-8273.831378,888.247130
4451.539940,0.000000,-8273.831378,296.082377
4451.540264,222.061783,-8580.269578,666.185348
4451.540589,0.000000,-7814.174080,666.185348
4451.540913,148.041188,-8350.440928,666.185348
4451.541238,222.061783,-8273.831378,814.226536
4451.541562,592.164754,-8503.660028,888.247130
4451.541886,814.226536,-8197.221829,222.061783
4451.542211,518.144159,-8656.879127,592.164754
4451.542535,444.123565,-8350.440928,222.061783
4451.542859,740.205942,-8810.098227,592.164754
4451.543184,222.061783,-8273.831378,296.082377
4451.543508,0.000000,-8810.098227,222.061783
4451.543833,444.123565,-8503.660028,0.000000
4451.544157,296.082377,-8656.879127,222.061783
4451.544481,296.082377,-8810.098227,0.000000
4451.544806,444.123565,-8580.269578,74.020594
4451.545130,592.164754,-8350.440928,0.000000
4451.545454,518.144159,-8503.660028,-148.041188
4451.545779,888.247130,-8350.440928,-296.082377
4451.546103,296.082377,-8810.098227,0.000000
4451.546428,148.041188,-8580.269578,-370.102971
4451.546752,148.041188,-8733.488677,-370.102971
4451.547076,370.102971,-9193.145976,-814.226536
4451.547401,222.061783,-8810.098227,-740.205942
4451.547725,0.000000,-8427.050478,-666.185348
4451.548050,222.061783,-8810.098227,-592.164754
4451.548374,296.082377,-8503.660028,-962.267725
4451.548698,370.102971,-8963.317327,-666.185348
4451.549023,444.123565,-8580.269578,-1036.288319
4451.549347,370.102971,-8733.488677,-888.247130
4451.549671,518.144159,-8810.098227,-1110.308913
4451.549996,592.164754,-8656.879127,-518.144159
4451.550320,444.123565,-8503.660028,-1258.350101
4451.550645,222.061783,-8810.098227,-1258.350101
4451.550969,370.102971,-8273.831378,-1184.329507
4451.551293,814.226536,-8656.879127,-1184.329507
4451.551618,0.000000,-8656.879127,-1258.350101
4451.551942,74.020594,-8427.050478,-1110.308913
4451.552266,0.000000,-8580.269578,-1258.350101
4451.552591,222.061783,-8580.269578,-740.205942
4451.552915,444.123565,-8656.879127,-962.267725
4451.553240,296.082377,-8810.098227,-740.205942
4451.553564,222.061783,-8350.440928,-814.226536
4451.553888,370.102971,-8733.488677,-962.267725
4451.554213,740.205942,-8350.440928,-666.185348
4451.554537,296.082377,-8350.440928,-518.144159
4451.554861,296.082377,-8580.269578,-444.123565
4451.555186,74.020594,-8427.050478,-370.102971
4451.555510,0.000000,-8656.879127,-666.185348
4451.555835,444.123565,-8580.269578,-444.123565
4451.556159,222.061783,-8427.050478,-222.061783
4451.556483,592.164754,-8580.269578,-444.123565
4451.556808,592.164754,-8656.879127,0.000000
4451.557132,222.061783,-8427.050478,0.000000
4451.557456,444.123565,-8810.098227,-444.123565
4451.557781,518.144159,-8350.440928,-148.041188
4451.558105,740.205942,-8350.440928,-296.082377
4451.558430,814.226536,-9116.536426,-592.164754
4451.558754,296.082377,-8580.269578,-74.020594
4451.559078,592.164754,-8656.879127,-222.061783
4451.559403,296.082377,-8580.269578,-296.082377
4451.559727,296.082377,-8810.098227,0.000000
4451.560051,444.123565,-8810.098227,-222.061783
4451.560376,222.061783,-8503.660028,0.000000
4451.560700,222.061783,-8733.488677,0.000000
4451.561025,370.102971,-8503.660028,-222.061783
4451.561349,888.247130,-8656.879127,0.000000
4451.561673,296.082377,-8273.831378,-370.102971
4451.561998,148.041188,-8963.317327,0.000000
4451.562322,370.102971,-8044.002729,-148.041188
4451.562646,370.102971,-9193.145976,74.020594
4451.562971,148.041188,-8580.269578,-148.041188
4451.563295,148.041188,-8656.879127,0.000000
4451.563620,222.061783,-8580.269578,-518.144159
4451.563944,444.123565,-8580.269578,-296.082377
4451.564268,0.000000,-8886.707777,-370.102971
4451.564593,592.164754,-8733.488677,-296.082377
4451.564917,666.185348,-8273.831378,-592.164754
4451.565242,222.061783,-8580.269578,-518.144159
4451.565566,518.144159,-8197.221829,-592.164754
4451.565890,518.144159,-8427.050478,-888.247130
4451.566215,666.185348,-8656.879127,-814.226536
4451.566539,740.205942,-8733.488677,-666.185348
4451.566863,518.144159,-8733.488677,-962.267725
4451.567188,518.144159,-8963.317327,-592.164754
4451.567512,74.020594,-8503.660028,-370.102971
4451.567837,296.082377,-8963.317327,-518.144159
4451.568161,74.020594,-8580.269578,-370.102971
4451.568485,222.061783,-8503.660028,-444.123565
4451.568810,0.000000,-8810.098227,-370.102971
4451.569134,0.000000,-8810.098227,-518.144159
4451.569458,148.041188,-8427.050478,-666.185348
4451.569783,74.020594,-8810.098227,0.000000
4451.570107,222.061783,-8427.050478,-148.041188
4451.570432,370.102971,-8503.660028,-296.082377
4451.570756,222.061783,-8350.440928,-222.061783
4451.571080,148.041188,-8886.707777,-222.061783
4451.571405,148.041188,-8427.050478,-148.041188
4451.571729,444.123565,-8273.831378,0.000000
4451.572053,296.082377,-8273.831378,-222.061783
4451.572378,222.061783,-8580.269578,-148.041188
4451.572702,0.000000,-8503.660028,0.000000
4451.573027,444.123565,-8503.660028,-518.144159
4451.573351,444.123565,-8273.831378,0.000000
4451.573675,148.041188,-8273.831378,74.020594
4451.574000,444.123565,-8427.050478,74.020594
4451.574324,370.102971,-8197.221829,-148.041188
4451.574648,370.102971,-8427.050478,-222.061783
4451.574973,148.041188,-8350.440928,0.000000
4451.575297,0.000000,-8580.269578,0.000000
4451.575622,74.020594,-8273.831378,0.000000
4451.575946,148.041188,-8273.831378,0.000000
4451.576270,148.041188,-8273.831378,-370.102971
4451.576595,222.061783,-7967.393179,0.000000
4451.576919,296.082377,-8427.050478,0.000000
4451.577243,222.061783,-8503.660028,-222.061783
4451.577568,444.123565,-8503.660028,-222.061783
4451.577892,296.082377,-8427.050478,-444.123565
4451.578217,814.226536,-8886.707777,-148.041188
4451.578541,666.185348,-8273.831378,-592.164754
4451.578865,962.267725,-8580.269578,-592.164754
4451.579190,592.164754,-8350.440928,-740.205942
4451.579514,814.226536,-8656.879127,-666.185348
4451.579838,666.185348,-8503.660028,-962.267725
4451.580163,888.247130,-8733.488677,-592.164754
4451.580487,814.226536,-8580.269578,-1110.308913
4451.580812,592.164754,-8886.707777,-814.226536
4451.581136,1110.308913,-8503.660028,-740.205942
4451.581460,666.185348,-8886.707777,-888.247130
4451.581785,962.267725,-8963.317327,-1332.370696
4451.582109,888.247130,-8886.707777,-814.226536
4451.582434,740.205942,-9269.755526,-888.247130
4451.582758,740.205942,-9193.145976,-1184.329507
4451.583082,592.164754,-8656.879127,-1258.350101
4451.583407,444.123565,-9269.755526,-1110.308913
4451.583731,518.144159,-9346.365076,-1480.411884
4451.584055,444.123565,-9499.584175,-1258.350101
4451.584380,370.102971,-9422.974625,-1332.370696
4451.584704,592.164754,-9346.365076,-1110.308913
4451.585029,740.205942,-9193.145976,-1332.370696
4451.585353,666.185348,-8733.488677,-814.226536
4451.585677,740.205942,-8656.879127,-1184.329507
4451.586002,518.144159,-9116.536426,-1332.370696
4451.586326,666.185348,-9116.536426,-1554.432478
4451.586650,814.226536,-9039.926876,-888.247130
4451.586975,666.185348,-9193.145976,-1628.453072
4451.587299,592.164754,-9116.536426,-1332.370696
4451.587624,370.102971,-8656.879127,-1258.350101
4451.587948,222.061783,-8656.879127,-1258.350101
4451.588272,592.164754,-8810.098227,-1184.329507
4451.588597,666.185348,-8810.098227,-1332.370696
4451.588921,814.226536,-8503.660028,-1184.329507
4451.589245,518.144159,-8580.269578,-1110.308913
4451.589570,518.144159,-8503.660028,-888.247130
4451.589894,444.123565,-8810.098227,-1184.329507
4451.590219,518.144159,-9039.926876,-1480.411884
4451.590543,296.082377,-8810.098227,-1110.308913
4451.590867,222.061783,-8503.660028,-1110.308913
4451.591192,148.041188,-8733.488677,-1036.288319
4451.591516,0.000000,-8656.879127,-962.267725
4451.591840,296.082377,-8350.440928,-888.247130
4451.592165,370.102971,-8656.879127,-1110.308913
4451.592489,740.205942,-8580.269578,-1110.308913
4451.592814,518.144159,-8273.831378,-888.247130
4451.593138,592.164754,-8733.488677,-1110.308913
4451.593462,592.164754,-8197.221829,-814.226536
4451.593787,444.123565,-7814.174080,-592.164754
4451.594111,148.041188,-8350.440928,-814.226536
4451.594435,370.102971,-8427.050478,-518.144159
4451.594760,222.061783,-8197.221829,-518.144159
4451.595084,296.082377,-8580.269578,-296.082377
4451.595409,222.061783,-8197.221829,-370.102971
4451.595733,444.123565,-8503.660028,-518.144159
4451.596057,814.226536,-7967.393179,-296.082377
4451.596382,592.164754,-8197.221829,-296.082377
4451.596706,814.226536,-7890.783629,-370.102971
4451.597030,592.164754,-8044.002729,-296.082377
4451.597355,740.205942,-8656.879127,-444.123565
4451.597679,592.164754,-8273.831378,-370.102971
4451.598004,1036.288319,-8120.612279,-666.185348
4451.598328,740.205942,-8427.050478,-370.102971
4451.598652,592.164754,-8273.831378,-740.205942
4451.598977,222.061783,-8503.660028,-814.226536
4451.599301,666.185348,-8350.440928,-444.123565
4451.599626,444.123565,-8120.612279,-370.102971
4451.599950,518.144159,-8580.269578,-592.164754
4451.600274,370.102971,-8427.050478,-518.144159
4451.600599,518.144159,-8580.269578,-222.061783
4451.600923,296.082377,-8580.269578,-814.226536
4451.601247,666.185348,-8733.488677,-444.123565
4451.601572,444.123565,-8580.269578,-370.102971
4451.601896,592.164754,-8733.488677,-370.102971
4451.602221,592.164754,-7660.954980,-222.061783
4451.602545,444.123565,-8733.488677,-444.123565
4451.602869,666.185348,-8273.831378,-296.082377
4451.603194,148.041188,-8810.098227,-222.061783
4451.603518,222.061783,-8810.098227,-148.041188
4451.603842,222.061783,-8580.269578,-148.041188
4451.604167,518.144159,-8886.707777,-296.082377
4451.604491,592.164754,-8963.317327,74.020594
4451.604816,592.164754,-8733.488677,0.000000
4451.605140,666.185348,-8580.269578,148.041188
4451.605464,444.123565,-8503.660028,0.000000
4451.605789,666.185348,-9039.926876,0.000000
4451.606113,518.144159,-8580.269578,-222.061783
4451.606438,444.123565,-8656.879127,518.144159
4451.606762,370.102971,-8350.440928,-148.041188
4451.607086,296.082377,-8733.488677,-296.082377
4451.607411,222.061783,-8656.879127,-296.082377
4451.607735,148.041188,-8580.269578,0.000000
4451.608060,74.020594,-8503.660028,296.082377
4451.608384,296.082377,-8580.269578,222.061783
4451.608709,518.144159,-8580.269578,74.020594
4451.609033,296.082377,-8503.660028,74.020594
4451.609357,666.185348,-8273.831378,74.020594
4451.609682,888.247130,-8503.660028,0.000000
4451.610006,444.123565,-8273.831378,222.061783
4451.610331,444.123565,-8350.440928,222.061783
4451.610655,222.061783,-8350.440928,0.000000
4451.610979,592.164754,-8503.660028,148.041188
4451.611304,296.082377,-8503.660028,0.000000
4451.611628,370.102971,-8503.660028,222.061783
4451.611953,370.102971,-8656.879127,74.020594
4451.612277,888.247130,-8273.831378,296.082377
4451.612602,666.185348,-8503.660028,0.000000
4451.612926,740.205942,-8733.488677,0.000000
4451.613250,1036.288319,-8350.440928,148.041188
4451.613575,740.205942,-8503.660028,370.102971
4451.613899,740.205942,-8580.269578,-296.082377
4451.614224,518.144159,-8503.660028,0.000000
4451.614548,444.123565,-8503.660028,-296.082377
4451.614873,296.082377,-8580.269578,-444.123565
4451.615197,148.041188,-8350.440928,0.000000
4451.615521,148.041188,-8580.269578,0.000000
4451.615846,444.123565,-8656.879127,-222.061783
4451.616170,296.082377,-8503.660028,-592.164754
4451.616495,592.164754,-8963.317327,0.000000
4451.616819,592.164754,-8120.612279,-518.144159
4451.617143,148.041188,-8350.440928,-444.123565
4451.617468,740.205942,-8503.660028,-814.226536
4451.617792,666.185348,-8810.098227,-740.205942
4451.618117,444.123565,-8886.707777,-518.144159
4451.618441,518.144159,-8656.879127,-962.267725
4451.618766,444.123565,-8580.269578,-814.226536
4451.619090,370.102971,-8733.488677,-666.185348
4451.619414,0.000000,-8503.660028,-592.164754
4451.619739,444.123565,-8580.269578,-740.205942
4451.620063,444.123565,-8580.269578,-518.144159
4451.620388,592.164754,-8503.660028,-370.102971
4451.620712,962.267725,-8656.879127,-592.164754
4451.621037,592.164754,-8656.879127,-740.205942
4451.621361,666.185348,-8656.879127,-666.185348
4451.621685,370.102971,-8733.488677,-740.205942
4451.622010,740.205942,-8350.440928,-666.185348
4451.622334,518.144159,-8503.660028,-888.247130
4451.622659,296.082377,-8656.879127,-592.164754
4451.622983,444.123565,-8503.660028,-1036.288319
4451.623307,740.205942,-8963.317327,-666.185348
4451.623632,444.123565,-8273.831378,-666.185348
4451.623956,592.164754,-8427.050478,-370.102971
4451.624281,148.041188,-8350.440928,-666.185348
4451.624605,518.144159,-8656.879127,-370.102971
4451.624930,1036.288319,-9116.536426,-296.082377
4451.625254,370.102971,-8427.050478,-222.061783
4451.625578,444.123565,-8503.660028,-296.082377
4451.625903,222.061783,-8350.440928,-370.102971
4451.626227,74.020594,-8656.879127,0.000000
4451.626552,222.061783,-8273.831378,-444.123565
4451.626876,148.041188,-8273.831378,-296.082377
4451.627200,296.082377,-8044.002729,0.000000
4451.627525,666.185348,-8197.221829,-296.082377
4451.627849,296.082377,-8580.269578,0.000000
4451.628174,296.082377,-8273.831378,74.020594
4451.628498,592.164754,-8503.660028,0.000000
4451.628823,518.144159,-8273.831378,0.000000
4451.629147,814.226536,-8120.612279,148.041188
4451.629471,518.144159,-8656.879127,222.061783
4451.629796,222.061783,-8197.221829,0.000000
4451.630120,222.061783,-8427.050478,0.000000
4451.630445,444.123565,-8503.660028,0.000000
4451.630769,296.082377,-8273.831378,222.061783
4451.631094,296.082377,-8427.050478,148.041188
4451.631418,148.041188,-8503.660028,222.061783
4451.631742,222.061783,-8427.050478,0.000000
4451.632067,0.000000,-8427.050478,148.041188
4451.632391,74.020594,-8503.660028,74.020594
4451.632716,148.041188,-8503.660028,296.082377
4451.633040,222.061783,-8580.269578,74.020594
4451.633364,296.082377,-8656.879127,296.082377
4451.633689,222.061783,-8580.269578,0.000000
4451.634013,296.082377,-8656.879127,0.000000
4451.634338,370.102971,-8427.050478,0.000000
4451.634662,222.061783,-8350.440928,0.000000
4451.634987,74.020594,-8656.879127,0.000000
4451.635311,444.123565,-8427.050478,-296.082377
4451.635635,296.082377,-8580.269578,0.000000
4451.635960,296.082377,-8886.707777,-148.041188
4451.636284,518.144159,-8886.707777,370.102971
4451.636609,518.144159,-8580.269578,0.000000
4451.636933,444.123565,-8580.269578,-148.041188
4451.637258,444.123565,-8810.098227,-296.082377
4451.637582,740.205942,-9193.145976,-296.082377
4451.637906,444.123565,-8733.488677,-222.061783
4451.638231,518.144159,-9039.926876,0.000000
4451.638555,666.185348,-8733.488677,-296.082377
4451.638880,370.102971,-8810.098227,0.000000
4451.639204,222.061783,-8963.317327,148.041188
4451.639528,222.061783,-8810.098227,74.020594
4451.639853,444.123565,-8886.707777,0.000000
4451.640177,370.102971,-8963.317327,0.000000
4451.640502,74.020594,-9269.755526,888.247130
4451.640826,370.102971,-9039.926876,74.020594
4451.641151,592.164754,-8580.269578,148.041188
4451.641475,592.164754,-8656.879127,0.000000
4451.641799,370.102971,-9193.145976,0.000000
4451.642124,592.164754,-8503.660028,0.000000
4451.642448,444.123565,-8580.269578,0.000000
4451.642773,518.144159,-8886.707777,0.000000
4451.643097,592.164754,-8580.269578,-222.061783
4451.643422,370.102971,-8427.050478,0.000000
4451.643746,444.123565,-8733.488677,-370.102971
4451.644070,518.144159,-8963.317327,0.000000
4451.644395,592.164754,-8656.879127,-148.041188
4451.644719,444.123565,-8580.269578,0.000000
4451.645044,666.185348,-8963.317327,0.000000
4451.645368,666.185348,-8427.050478,-148.041188
4451.645692,1110.308913,-8656.879127,-222.061783
4451.646017,814.226536,-8580.269578,-444.123565
4451.646341,666.185348,-8503.660028,0.000000
4451.646666,592.164754,-8350.440928,-222.061783
4451.646990,592.164754,-8810.098227,0.000000
4451.647315,74.020594,-8503.660028,0.000000
4451.647639,222.061783,-8733.488677,0.000000
4451.647963,518.144159,-8503.660028,0.000000
4451.648288,444.123565,-9039.926876,222.061783
4451.648612,0.000000,-8810.098227,0.000000
4451.648937,444.123565,-8886.707777,0.000000
4451.649261,518.144159,-8580.269578,-222.061783
4451.649585,296.082377,-8886.707777,148.041188
4451.649910,518.144159,-8120.612279,0.000000
4451.650234,148.041188,-8656.879127,0.000000
4451.650559,148.041188,-8427.050478,0.000000
4451.650883,0.000000,-8503.660028,74.020594
4451.651208,222.061783,-8810.098227,-444.123565
4451.651532,148.041188,-8503.660028,0.000000
4451.651856,666.185348,-8503.660028,-518.144159
4451.652181,222.061783,-8810.098227,0.000000
4451.652505,148.041188,-8273.831378,-444.123565
4451.652830,592.164754,-8810.098227,-296.082377
4451.653154,370.102971,-8656.879127,-296.082377
4451.653479,444.123565,-8503.660028,-222.061783
4451.653803,296.082377,-8656.879127,-444.123565
4451.654127,222.061783,-8656.879127,-518.144159
4451.654452,0.000000,-8810.098227,-740.205942
4451.654776,0.000000,-8810.098227,-370.102971
4451.655101,296.082377,-8350.440928,-370.102971
4451.655425,148.041188,-8733.488677,-444.123565
4451.655749,222.061783,-8580.269578,-222.061783
4451.656074,148.041188,-7967.393179,148.041188
4451.656398,222.061783,-8427.050478,-518.144159
4451.656723,296.082377,-8733.488677,-296.082377
4451.657047,222.061783,-8580.269578,0.000000
4451.657372,296.082377,-8656.879127,-222.061783
4451.657696,370.102971,-8580.269578,-370.102971
4451.658020,296.082377,-8963.317327,-296.082377
4451.658345,518.144159,-8810.098227,-370.102971
4451.658669,296.082377,-8656.879127,-296.082377
4451.658994,592.164754,-8886.707777,-666.185348
4451.659318,370.102971,-8656.879127,-666.185348
4451.659643,296.082377,-8810.098227,-370.102971
4451.659967,296.082377,-9193.145976,-592.164754
4451.660291,1110.308913,-8886.707777,-518.144159
4451.660616,444.123565,-9039.926876,-444.123565
4451.660940,296.082377,-8580.269578,-518.144159
4451.661265,592.164754,-8656.879127,-666.185348
4451.661589,444.123565,-8733.488677,-592.164754
4451.661913,740.205942,-8810.098227,-518.144159
4451.662238,370.102971,-8580.269578,-444.123565
4451.662562,74.020594,-8810.098227,-592.164754
4451.662887,148.041188,-8427.050478,-592.164754
4451.663211,666.185348,-8733.488677,-740.205942
4451.663536,148.041188,-8580.269578,-666.185348
4451.663860,296.082377,-8656.879127,-148.041188
4451.664184,74.020594,-8580.269578,-222.061783
4451.664509,296.082377,-8350.440928,0.000000
4451.664833,370.102971,-8503.660028,-296.082377
4451.665158,296.082377,-8580.269578,-296.082377
4451.665482,296.082377,-8350.440928,-222.061783
4451.665807,148.041188,-8656.879127,-148.041188
4451.666131,518.144159,-8427.050478,-222.061783
4451.666455,370.102971,-8120.612279,-296.082377
4451.666780,296.082377,-8503.660028,-148.041188
4451.667104,222.061783,-8580.269578,-222.061783
4451.667429,296.082377,-8580.269578,0.000000
4451.667753,74.020594,-8427.050478,0.000000
4451.668077,74.020594,-8197.221829,0.000000
4451.668402,444.123565,-8733.488677,0.000000
4451.668726,740.205942,-7584.345430,74.020594
4451.669051,888.247130,-8503.660028,148.041188
4451.669375,296.082377,-8427.050478,-370.102971
4451.669700,592.164754,-8580.269578,0.000000
4451.670024,222.061783,-8120.612279,-296.082377
4451.670348,518.144159,-8963.317327,-222.061783
4451.670673,74.020594,-8273.831378,-296.082377
4451.670997,0.000000,-8580.269578,0.000000
4451.671322,74.020594,-8273.831378,0.000000
4451.671646,222.061783,-9039.926876,74.020594
4451.671970,222.061783,-8733.488677,-370.102971
4451.672295,444.123565,-8197.221829,74.020594
4451.672619,148.041188,-8503.660028,0.000000
4451.672944,1036.288319,-8656.879127,-222.061783
4451.673268,518.144159,-8580.269578,0.000000
4451.673593,370.102971,-8656.879127,-296.082377
4451.673917,518.144159,-8580.269578,-222.061783
4451.674241,444.123565,-8580.269578,0.000000
4451.674566,444.123565,-8886.707777,0.000000
4451.674890,296.082377,-8427.050478,-148.041188
4451.675215,148.041188,-8886.707777,-222.061783
4451.675539,222.061783,-8733.488677,-296.082377
4451.675864,814.226536,-8350.440928,-222.061783
4451.676188,370.102971,-8580.269578,-370.102971
4451.676512,518.144159,-8427.050478,-592.164754
4451.676837,444.123565,-8427.050478,-370.102971
4451.677161,592.164754,-7660.954980,-740.205942
4451.677486,666.185348,-8656.879127,-444.123565
4451.677810,518.144159,-8350.440928,-592.164754
4451.678134,592.164754,-8733.488677,-814.226536
4451.678459,296.082377,-8350.440928,-962.267725
4451.678783,814.226536,-8886.707777,-1036.288319
4451.679108,518.144159,-8427.050478,-888.247130
4451.679432,518.144159,-8580.269578,-592.164754
4451.679757,518.144159,-8733.488677,-666.185348
4451.680081,666.185348,-9499.584175,-740.205942
4451.680405,592.164754,-8733.488677,-592.164754
4451.680730,592.164754,-8810.098227,-888.247130
4451.681054,814.226536,-8810.098227,-370.102971
4451.681379,592.164754,-8580.269578,-444.123565
4451.681703,814.226536,-8656.879127,-666.185348
4451.682028,592.164754,-8273.831378,-740.205942
4451.682352,518.144159,-8886.707777,-518.144159
4451.682676,444.123565,-8580.269578,-370.102971
4451.683001,0.000000,-8810.098227,-148.041188
4451.683325,296.082377,-8733.488677,-370.102971
4451.683650,370.102971,-8273.831378,-296.082377
4451.683974,518.144159,-8503.660028,-444.123565
4451.684298,592.164754,-8503.660028,0.000000
4451.684623,888.247130,-8427.050478,-370.102971
4451.684947,740.205942,-8427.050478,-370.102971
4451.685272,592.164754,-8580.269578,-222.061783
4451.685596,444.123565,-8350.440928,-444.123565
4451.685921,666.185348,-8580.269578,-518.144159
4451.686245,592.164754,-8197.221829,-518.144159
4451.686569,148.041188,-8197.221829,-444.123565
4451.686894,370.102971,-8427.050478,-518.144159
4451.687218,296.082377,-8197.221829,-518.144159
4451.687543,518.144159,-8273.831378,-666.185348
4451.687867,296.082377,-8580.269578,-444.123565
4451.688192,296.082377,-8580.269578,-370.102971
4451.688516,518.144159,-8580.269578,-1036.288319
4451.688840,518.144159,-8580.269578,-222.061783
4451.689165,444.123565,-8197.221829,-370.102971
4451.689489,740.205942,-8503.660028,-370.102971
4451.689814,444.123565,-8273.831378,-518.144159
4451.690138,444.123565,-8656.879127,-518.144159
4451.690462,222.061783,-8273.831378,-666.185348
4451.690787,222.061783,-8580.269578,-296.082377
4451.691111,518.144159,-8580.269578,-666.185348
4451.691436,740.205942,-9193.145976,-962.267725
4451.691760,444.123565,-8427.050478,-444.123565
4451.692085,592.164754,-8580.269578,-222.061783
4451.692409,592.164754,-8350.440928,-518.144159
4451.692733,592.164754,-9806.022374,-518.144159
4451.693058,592.164754,-8427.050478,-518.144159
4451.693382,444.123565,-8580.269578,-518.144159
4451.693707,518.144159,-8733.488677,-814.226536
4451.694031,666.185348,-8810.098227,-962.267725
4451.694355,814.226536,-8733.488677,-1110.308913
4451.694680,518.144159,-8580.269578,-962.267725
4451.695004,592.164754,-8580.269578,-814.226536
4451.695329,370.102971,-8580.269578,-814.226536
4451.695653,444.123565,-9422.974625,-888.247130
4451.695978,296.082377,-8427.050478,-666.185348
4451.696302,518.144159,-9039.926876,-1110.308913
4451.696626,592.164754,-8503.660028,-814.226536
4451.696951,666.185348,-8503.660028,-814.226536
4451.697275,444.123565,-8656.879127,-740.205942
4451.697600,592.164754,-8580.269578,-1036.288319
4451.697924,296.082377,-8733.488677,-888.247130
4451.698249,444.123565,-8810.098227,-518.144159
4451.698573,444.123565,-8733.488677,-518.144159
4451.698897,518.144159,-8503.660028,-666.185348
4451.699222,444.123565,-8733.488677,-888.247130
4451.699546,592.164754,-8963.317327,-888.247130
4451.699871,518.144159,-9193.145976,-666.185348
4451.700195,518.144159,-8580.269578,-518.144159
4451.700519,444.123565,-8810.098227,-592.164754
4451.700844,592.164754,-8733.488677,-814.226536
4451.701168,888.247130,-8810.098227,-740.205942
4451.701493,740.205942,-8580.269578,-888.247130
4451.701817,592.164754,-8963.317327,-518.144159
4451.702142,518.144159,-8810.098227,-814.226536
4451.702466,444.123565,-8580.269578,-888.247130
4451.702790,814.226536,-8886.707777,-370.102971
4451.703115,444.123565,-8580.269578,-592.164754
4451.703439,814.226536,-8810.098227,-518.144159
4451.703764,592.164754,-8273.831378,-370.102971
4451.704088,296.082377,-9039.926876,-222.061783
4451.704413,222.061783,-8427.050478,-370.102971
4451.704737,74.020594,-8810.098227,-518.144159
4451.705061,74.020594,-8733.488677,-296.082377
4451.705386,444.123565,-8427.050478,-222.061783
4451.705710,370.102971,-8733.488677,-222.061783
4451.706035,296.082377,-8197.221829,0.000000
4451.706359,518.144159,-8197.221829,-444.123565
4451.706683,518.144159,-8733.488677,-370.102971
4451.707008,148.041188,-8656.879127,0.000000
4451.707332,74.020594,-8503.660028,0.000000
4451.707657,74.020594,-8733.488677,-148.041188
4451.707981,740.205942,-8503.660028,-296.082377
4451.708306,444.123565,-9193.145976,0.000000
4451.708630,296.082377,-8580.269578,-296.082377
4451.708954,518.144159,-8273.831378,0.000000
4451.709279,370.102971,-8580.269578,74.020594
4451.709603,740.205942,-8427.050478,-296.082377
4451.709928,592.164754,-8197.221829,-74.020594
4451.710252,888.247130,-8733.488677,-222.061783
4451.710576,370.102971,-8044.002729,-296.082377
4451.710901,518.144159,-8350.440928,-222.061783
4451.711225,222.061783,-8733.488677,-296.082377
4451.711549,296.082377,-8580.269578,0.000000
4451.711874,74.020594,-8427.050478,-370.102971
4451.712198,518.144159,-8580.269578,0.000000
4451.712523,148.041188,-8580.269578,0.000000
4451.712847,444.123565,-8810.098227,-296.082377
4451.713171,518.144159,-8350.440928,-296.082377
4451.713496,518.144159,-8810.098227,0.000000
4451.713820,740.205942,-8427.050478,-222.061783
4451.714145,888.247130,-8580.269578,-370.102971
4451.714469,518.144159,-8810.098227,-444.123565
4451.714793,444.123565,-8580.269578,-740.205942
4451.715118,518.144159,-8580.269578,-296.082377
4451.715442,518.144159,-8273.831378,-592.164754
4451.715766,444.123565,-8733.488677,-222.061783
4451.716091,592.164754,-8810.098227,-222.061783
4451.716415,740.205942,-8810.098227,-296.082377
4451.716740,444.123565,-8580.269578,-518.144159
4451.717064,740.205942,-8886.707777,-370.102971
4451.717388,888.247130,-8580.269578,-666.185348
4451.717713,370.102971,-8733.488677,-740.205942
4451.718037,592.164754,-9116.536426,-962.267725
4451.718362,666.185348,-8810.098227,-740.205942
4451.718686,518.144159,-8886.707777,-740.205942
4451.719010,444.123565,-8886.707777,-888.247130
4451.719335,370.102971,-8656.879127,-740.205942
4451.719659,592.164754,-9346.365076,0.000000
4451.719983,518.144159,-8810.098227,-518.144159
4451.720308,444.123565,-8733.488677,-296.082377
4451.720632,518.144159,-8886.707777,-444.123565
4451.720957,370.102971,-8580.269578,-296.082377
4451.721281,222.061783,-8810.098227,-370.102971
4451.721605,148.041188,-8733.488677,-370.102971
4451.721930,740.205942,-8580.269578,-666.185348
4451.722254,222.061783,-8733.488677,-592.164754
4451.722579,0.000000,-8350.440928,0.000000
4451.722903,296.082377,-8656.879127,-296.082377
4451.723227,296.082377,-8350.440928,-444.123565
4451.723552,296.082377,-8503.660028,-518.144159
4451.723876,444.123565,-8963.317327,-518.144159
4451.724200,666.185348,-8886.707777,-296.082377
4451.724525,518.144159,-8427.050478,-666.185348
4451.724849,518.144159,-8733.488677,-518.144159
4451.725174,592.164754,-8656.879127,-592.164754
4451.725498,518.144159,-8503.660028,-222.061783
4451.725822,370.102971,-8503.660028,-592.164754
4451.726147,444.123565,-8733.488677,-370.102971
4451.726471,296.082377,-8580.269578,-518.144159
4451.726796,518.144159,-8503.660028,-370.102971
4451.727120,222.061783,-8503.660028,-370.102971
4451.727444,296.082377,-8580.269578,-592.164754
4451.727769,296.082377,-8580.269578,-518.144159
4451.728093,444.123565,-8580.269578,0.000000
4451.728417,370.102971,-8656.879127,-296.082377
4451.728742,296.082377,-8503.660028,-444.123565
4451.729066,518.144159,-8427.050478,-296.082377
4451.729391,222.061783,-8503.660028,-518.144159
4451.729715,222.061783,-8273.831378,0.000000
4451.730039,222.061783,-8580.269578,-370.102971
4451.730364,296.082377,-8503.660028,-148.041188
4451.730688,296.082377,-8350.440928,-296.082377
4451.731012,444.123565,-8197.221829,148.041188
4451.731337,740.205942,-8503.660028,-296.082377
4451.731661,444.123565,-8427.050478,-74.020594
4451.731986,444.123565,-8733.488677,-370.102971
4451.732310,296.082377,-8427.050478,-296.082377
4451.732634,666.185348,-8733.488677,-370.102971
4451.732959,518.144159,-8503.660028,-222.061783
4451.733283,444.123565,-8580.269578,-592.164754
4451.733608,296.082377,-8503.660028,-74.020594
4451.733932,814.226536,-8427.050478,-740.205942
4451.734256,444.123565,-8810.098227,-296.082377
4451.734581,592.164754,-8273.831378,-370.102971
4451.734905,444.123565,-8427.050478,-296.082377
4451.735229,814.226536,-8733.488677,-296.082377
4451.735554,444.123565,-8656.879127,-148.041188
4451.735878,444.123565,-8580.269578,-370.102971
4451.736203,518.144159,-9039.926876,-444.123565
4451.736527,666.185348,-8733.488677,-222.061783
4451.736851,592.164754,-8810.098227,-148.041188
4451.737176,518.144159,-8656.879127,0.000000
4451.737500,370.102971,-8273.831378,0.000000
4451.737825,444.123565,-8273.831378,-148.041188
4451.738149,1036.288319,-8963.317327,148.041188
4451.738473,296.082377,-8427.050478,296.082377
4451.738798,74.020594,-8656.879127,0.000000
4451.739122,0.000000,-8733.488677,74.020594
4451.739446,444.123565,-8656.879127,0.000000
4451.739771,444.123565,-8886.707777,222.061783
4451.740095,370.102971,-8503.660028,74.020594
4451.740420,370.102971,-8580.269578,0.000000
4451.740744,444.123565,-8580.269578,0.000000
4451.741068,518.144159,-8503.660028,-222.061783
4451.741393,444.123565,-8656.879127,-222.061783
4451.741717,592.164754,-8044.002729,-222.061783
4451.742042,370.102971,-8503.660028,0.000000
4451.742366,666.185348,-8350.440928,-296.082377
4451.742690,518.144159,-8350.440928,-444.123565
4451.743015,370.102971,-8580.269578,-370.102971
4451.743339,370.102971,-8580.269578,-296.082377
4451.743663,370.102971,-8044.002729,-148.041188
4451.743988,444.123565,-8580.269578,-296.082377
4451.744312,370.102971,-8503.660028,-370.102971
4451.744637,370.102971,-8810.098227,0.000000
4451.744961,370.102971,-8503.660028,-296.082377
4451.745285,814.226536,-8427.050478,0.000000
4451.745610,592.164754,-8273.831378,-296.082377
4451.745934,222.061783,-8656.879127,0.000000
4451.746259,444.123565,-8350.440928,-148.041188
4451.746583,222.061783,-8580.269578,0.000000
4451.746907,222.061783,-8273.831378,0.000000
4451.747232,222.061783,-8656.879127,0.000000
4451.747556,222.061783,-8580.269578,296.082377
4451.747880,74.020594,-8427.050478,0.000000
4451.748205,444.123565,-8503.660028,0.000000
4451.748529,592.164754,-8273.831378,-148.041188
4451.748854,518.144159,-8273.831378,0.000000
4451.749178,592.164754,-8580.269578,-518.144159
4451.749502,666.185348,-8810.098227,-666.185348
4451.749827,740.205942,-8427.050478,-370.102971
4451.750151,518.144159,-8580.269578,-444.123565
4451.750476,222.061783,-8656.879127,-148.041188
4451.750800,222.061783,-8580.269578,-222.061783
4451.751124,444.123565,-8427.050478,-444.123565
4451.751449,518.144159,-8503.660028,-444.123565
4451.751773,296.082377,-8273.831378,-370.102971
4451.752097,518.144159,-8350.440928,-148.041188
4451.752422,518.144159,-8044.002729,-444.123565
4451.752746,444.123565,-8810.098227,0.000000
4451.753071,296.082377,-8273.831378,-370.102971
4451.753395,444.123565,-8503.660028,-296.082377
4451.753719,370.102971,-8350.440928,-666.185348
4451.754044,74.020594,-8580.269578,74.020594
4451.754368,0.000000,-8427.050478,0.000000
4451.754692,296.082377,-8733.488677,0.000000
4451.755017,814.226536,-9039.926876,0.000000
4451.755341,296.082377,-8656.879127,0.000000
4451.755666,296.082377,-8427.050478,148.041188
4451.755990,148.041188,-8427.050478,0.000000
4451.756314,444.123565,-8733.488677,0.000000
4451.756639,222.061783,-8273.831378,0.000000
4451.756963,518.144159,-8656.879127,0.000000
4451.757288,74.020594,-8580.269578,74.020594
4451.757612,518.144159,-8580.269578,0.000000
4451.757936,296.082377,-8044.002729,-296.082377
4451.758261,296.082377,-8580.269578,0.000000
4451.758585,296.082377,-8503.660028,-148.041188
4451.758909,444.123565,-8733.488677,0.000000
4451.759234,444.123565,-7890.783629,-296.082377
4451.759558,296.082377,-8503.660028,-296.082377
4451.759883,296.082377,-8656.879127,-222.061783
4451.760207,296.082377,-8810.098227,-148.041188
4451.760531,444.123565,-8503.660028,-222.061783
4451.760856,518.144159,-8503.660028,-370.102971
4451.761180,296.082377,-8350.440928,-296.082377
4451.761505,592.164754,-8733.488677,-444.123565
4451.761829,592.164754,-8427.050478,-296.082377
4451.762153,370.102971,-8580.269578,-444.123565
4451.762478,370.102971,-8427.050478,-296.082377
4451.762802,296.082377,-8503.660028,-222.061783
4451.763126,0.000000,-8580.269578,0.000000
4451.763451,74.020594,-8810.098227,-148.041188
4451.763775,296.082377,-8580.269578,-74.020594
4451.764100,222.061783,-8733.488677,0.000000
4451.764424,370.102971,-8427.050478,222.061783
4451.764748,444.123565,-8886.707777,0.000000
4451.765073,592.164754,-8733.488677,296.082377
4451.765397,666.185348,-8427.050478,-370.102971
4451.765722,518.144159,-8580.269578,-222.061783
4451.766046,592.164754,-8350.440928,0.000000
4451.766370,370.102971,-9346.365076,0.000000
4451.766695,370.102971,-8580.269578,-296.082377
4451.767019,222.061783,-8120.612279,-296.082377
4451.767343,518.144159,-8503.660028,-296.082377
4451.767668,148.041188,-8503.660028,0.000000
4451.767992,222.061783,-8197.221829,-296.082377
4451.768317,370.102971,-8810.098227,0.000000
4451.768641,296.082377,-8350.440928,-296.082377
4451.768965,222.061783,-8733.488677,-296.082377
4451.769290,222.061783,-8197.221829,-370.102971
4451.769614,222.061783,-8197.221829,-74.020594
4451.769939,370.102971,-8656.879127,-444.123565
4451.770263,222.061783,-8810.098227,-518.144159
4451.770587,370.102971,-8503.660028,-370.102971
4451.770912,296.082377,-8656.879127,-296.082377
4451.771236,74.020594,-8350.440928,-222.061783
4451.771560,74.020594,-8427.050478,-148.041188
4451.771885,444.123565,-8580.269578,-222.061783
4451.772209,222.061783,-8427.050478,0.000000
4451.772534,444.123565,-8503.660028,-444.123565
4451.772858,518.144159,-8733.488677,0.000000
4451.773182,666.185348,-8427.050478,-444.123565
4451.773507,296.082377,-8350.440928,-518.144159
4451.773831,444.123565,-8733.488677,0.000000
4451.774156,296.082377,-8503.660028,-296.082377
4451.774480,296.082377,-8656.879127,-370.102971
4451.774804,444.123565,-8427.050478,-666.185348
4451.775129,444.123565,-8886.707777,-592.164754
4451.775453,296.082377,-8350.440928,-592.164754
4451.775777,296.082377,-8197.221829,-370.102971
4451.776102,518.144159,-8656.879127,-666.185348
4451.776426,888.247130,-8427.050478,-148.041188
4451.776751,148.041188,-8503.660028,-370.102971
4451.777075,370.102971,-8886.707777,0.000000
4451.777399,370.102971,-8273.831378,-444.123565
4451.777724,666.185348,-9116.536426,-666.185348
4451.778048,222.061783,-8503.660028,-592.164754
4451.778373,222.061783,-8656.879127,-296.082377
4451.778697,444.123565,-8733.488677,-518.144159
4451.779021,592.164754,-8503.660028,-370.102971
4451.779346,592.164754,-8733.488677,-444.123565
4451.779670,370.102971,-8810.098227,-222.061783
4451.779994,666.185348,-8503.660028,-222.061783
4451.780319,592.164754,-8656.879127,0.000000
4451.780643,814.226536,-8886.707777,-370.102971
4451.780968,740.205942,-8503.660028,-296.082377
4451.781292,740.205942,-8810.098227,-296.082377
4451.781616,592.164754,-8580.269578,0.000000
4451.781941,740.205942,-9116.536426,-518.144159
4451.782265,740.205942,-8273.831378,-518.144159
4451.782589,444.123565,-8427.050478,-370.102971
4451.782914,814.226536,-8733.488677,-592.164754
4451.783238,592.164754,-8503.660028,-370.102971
4451.783563,444.123565,-8273.831378,-296.082377
4451.783887,592.164754,-8580.269578,-370.102971
4451.784211,296.082377,-8580.269578,-296.082377
4451.784536,370.102971,-8656.879127,-222.061783
4451.784860,592.164754,-8580.269578,-666.185348
4451.785185,592.164754,-8503.660028,-148.041188
4451.785509,666.185348,-8273.831378,-370.102971
4451.785833,296.082377,-8427.050478,-148.041188
4451.786158,444.123565,-8273.831378,-592.164754
4451.786482,296.082377,-8733.488677,-370.102971
4451.786806,518.144159,-8580.269578,-518.144159
4451.787131,296.082377,-8810.098227,-370.102971
4451.787455,444.123565,-8656.879127,-370.102971
4451.787780,0.000000,-8733.488677,-222.061783
4451.788104,148.041188,-8580.269578,-444.123565
4451.788428,222.061783,-9039.926876,-444.123565
4451.788753,518.144159,-8733.488677,-444.123565
4451.789077,666.185348,-8656.879127,-148.041188
4451.789402,518.144159,-8733.488677,-444.123565
4451.789726,666.185348,-8503.660028,-518.144159
4451.790050,666.185348,-8733.488677,-666.185348
4451.790375,592.164754,-8503.660028,-296.082377
4451.790699,592.164754,-8503.660028,-740.205942
4451.791023,296.082377,-8580.269578,-370.102971
4451.791348,592.164754,-8656.879127,-666.185348
4451.791672,444.123565,-8733.488677,-592.164754
4451.791997,592.164754,-8427.050478,-370.102971
4451.792321,370.102971,-8733.488677,-148.041188
4451.792645,370.102971,-8656.879127,-296.082377
4451.792970,370.102971,-8350.440928,-444.123565
4451.793294,148.041188,-8350.440928,-888.247130
4451.793619,518.144159,-8580.269578,-592.164754
4451.793943,370.102971,-8273.831378,-666.185348
4451.794267,370.102971,-8656.879127,-740.205942
4451.794592,592.164754,-8503.660028,-444.123565
4451.794916,370.102971,-8273.831378,-888.247130
4451.795240,518.144159,-8427.050478,-592.164754
4451.795565,444.123565,-8503.660028,-518.144159
4451.795889,592.164754,-8580.269578,-518.144159
4451.796214,222.061783,-8197.221829,-740.205942
4451.796538,518.144159,-8427.050478,-666.185348
4451.796862,592.164754,-8580.269578,-592.164754
4451.797187,740.205942,-8350.440928,-666.185348
4451.797511,740.205942,-8580.269578,-1036.288319
4451.797836,592.164754,-8810.098227,-740.205942
4451.798160,592.164754,-8503.660028,-888.247130
4451.798484,592.164754,-8886.707777,-888.247130
4451.798809,740.205942,-8733.488677,-888.247130
4451.799133,222.061783,-8733.488677,-518.144159
4451.799457,518.144159,-8733.488677,-740.205942
4451.799782,296.082377,-8503.660028,-666.185348
4451.800106,296.082377,-8656.879127,-444.123565
4451.800431,74.020594,-9116.536426,-444.123565
4451.800755,592.164754,-8427.050478,-296.082377
4451.801079,370.102971,-8273.831378,-444.123565
4451.801404,518.144159,-8656.879127,-740.205942
4451.801728,296.082377,-8810.098227,222.061783
4451.802053,518.144159,-8503.660028,-518.144159
4451.802377,444.123565,-8580.269578,-370.102971
4451.802701,296.082377,-8273.831378,-740.205942
4451.803026,370.102971,-8733.488677,-592.164754
4451.803350,222.061783,-8656.879127,-592.164754
4451.803674,296.082377,-8580.269578,-592.164754
4451.803999,370.102971,-8580.269578,-666.185348
4451.804323,444.123565,-8503.660028,-296.082377
4451.804648,296.082377,-8810.098227,0.000000
4451.804972,740.205942,-8580.269578,-666.185348
4451.805296,592.164754,-8503.660028,-592.164754
4451.805621,814.226536,-8656.879127,-814.226536
4451.805945,518.144159,-9193.145976,0.000000
4451.806269,370.102971,-8503.660028,-666.185348
4451.806594,148.041188,-8503.660028,-370.102971
4451.806918,148.041188,-8503.660028,-666.185348
4451.807243,74.020594,-8733.488677,-592.164754
4451.807567,444.123565,-8580.269578,-222.061783
4451.807891,666.185348,-8580.269578,-370.102971
4451.808216,444.123565,-8580.269578,-296.082377
4451.808540,518.144159,-8580.269578,-296.082377
4451.808865,592.164754,-8120.612279,74.020594
4451.809189,444.123565,-8580.269578,-296.082377
4451.809513,518.144159,-8427.050478,-518.144159
4451.809838,148.041188,-8427.050478,-370.102971
4451.810162,444.123565,-9193.145976,-148.041188
4451.810487,370.102971,-8427.050478,-444.123565
4451.810811,296.082377,-8733.488677,-518.144159
4451.811135,370.102971,-8273.831378,-148.041188
4451.811460,370.102971,-8503.660028,-296.082377
4451.811784,814.226536,-8350.440928,-592.164754
4451.812109,592.164754,-8503.660028,-444.123565
4451.812433,666.185348,-8656.879127,-740.205942
4451.812757,296.082377,-8656.879127,-222.061783
4451.813082,1110.308913,-8580.269578,-296.082377
4451.813406,518.144159,-8503.660028,-592.164754
4451.813731,592.164754,-8350.440928,-518.144159
4451.814055,592.164754,-8580.269578,-592.164754
4451.814379,666.185348,-8580.269578,-740.205942
4451.814704,666.185348,-8350.440928,-296.082377
4451.815028,370.102971,-8733.488677,-592.164754
4451.815353,444.123565,-8810.098227,-296.082377
4451.815677,370.102971,-8580.269578,-444.123565
4451.816001,888.247130,-8963.317327,-444.123565
4451.816326,592.164754,-8503.660028,-518.144159
4451.816650,518.144159,-8733.488677,-518.144159
4451.816975,296.082377,-8503.660028,-370.102971
4451.817299,666.185348,-9039.926876,-444.123565
4451.817623,740.205942,-8810.098227,-666.185348
4451.817948,518.144159,-8656.879127,-444.123565
4451.818272,592.164754,-8580.269578,-370.102971
4451.818597,296.082377,-8503.660028,-444.123565
4451.818921,296.082377,-8963.317327,-370.102971
4451.819245,370.102971,-8503.660028,-740.205942
4451.819570,148.041188,-8580.269578,-666.185348
4451.819894,0.000000,-8350.440928,-370.102971
4451.820219,518.144159,-8044.002729,0.000000
4451.820543,222.061783,-8197.221829,-518.144159
4451.820867,296.082377,-8427.050478,-444.123565
4451.821192,444.123565,-8733.488677,-592.164754
4451.821516,592.164754,-7967.393179,-370.102971
4451.821841,370.102971,-8503.660028,-740.205942
4451.822165,296.082377,-8733.488677,-518.144159
4451.822489,0.000000,-8350.440928,-592.164754
4451.822814,370.102971,-8580.269578,-592.164754
4451.823138,370.102971,-8580.269578,-666.185348
4451.823462,370.102971,-8350.440928,-370.102971
4451.823787,74.020594,-8273.831378,-444.123565
4451.824111,296.082377,-8733.488677,-296.082377
4451.824436,740.205942,-7814.174080,-222.061783
4451.824760,370.102971,-8810.098227,-370.102971
4451.825084,444.123565,-8273.831378,0.000000
4451.825409,296.082377,-8503.660028,0.000000
4451.825733,444.123565,-8810.098227,-296.082377
4451.826058,370.102971,-8503.660028,-370.102971
4451.826382,444.123565,-8350.440928,-296.082377
4451.826706,444.123565,-8733.488677,-222.061783
4451.827031,370.102971,-8350.440928,-222.061783
4451.827355,814.226536,-8427.050478,-296.082377
4451.827680,296.082377,-8427.050478,-296.082377
4451.828004,444.123565,-8580.269578,-148.041188
4451.828328,666.185348,-8427.050478,-592.164754
4451.828653,1110.308913,-8810.098227,-296.082377
4451.828977,666.185348,-8656.879127,-444.123565
4451.829302,222.061783,-8273.831378,-296.082377
4451.829626,444.123565,-8503.660028,-518.144159
4451.829950,518.144159,-8273.831378,-444.123565
4451.830275,592.164754,-8733.488677,-370.102971
4451.830599,444.123565,-8503.660028,-444.123565
4451.830924,518.144159,-8503.660028,-592.164754
4451.831248,370.102971,-8427.050478,-518.144159
4451.831572,592.164754,-8733.488677,-444.123565
4451.831897,666.185348,-8503.660028,-444.123565
4451.832221,518.144159,-8120.612279,-296.082377
4451.832546,296.082377,-9039.926876,-296.082377
4451.832870,592.164754,-8427.050478,-296.082377
4451.833194,370.102971,-8733.488677,-370.102971
4451.833519,370.102971,-8810.098227,-222.061783
4451.833843,222.061783,-8580.269578,0.000000
4451.834168,518.144159,-8810.098227,-222.061783
4451.834492,666.185348,-8656.879127,-74.020594
4451.834816,296.082377,-8580.269578,-148.041188
4451.835141,370.102971,-8810.098227,-148.041188
4451.835465,296.082377,-8503.660028,-296.082377
4451.835790,518.144159,-8963.317327,0.000000
4451.836114,0.000000,-8580.269578,-148.041188
4451.836438,296.082377,-8810.098227,-370.102971
4451.836763,370.102971,-8733.488677,-296.082377
4451.837087,962.267725,-8503.660028,0.000000
4451.837412,444.123565,-8656.879127,-148.041188
4451.837736,518.144159,-8886.707777,-296.082377
4451.838060,296.082377,-8656.879127,-148.041188
4451.838385,296.082377,-8963.317327,-370.102971
4451.838709,666.185348,-8503.660028,-518.144159
4451.839034,370.102971,-8580.269578,-296.082377
4451.839358,444.123565,-8656.879127,-370.102971
4451.839682,296.082377,-8503.660028,-370.102971
4451.840007,444.123565,-8656.879127,-296.082377
4451.840331,296.082377,-8503.660028,-296.082377
4451.840656,296.082377,-8580.269578,-74.020594
4451.840980,518.144159,-8350.440928,-296.082377
4451.841304,814.226536,-8733.488677,-296.082377
4451.841629,296.082377,-8350.440928,-296.082377
4451.841953,518.144159,-8733.488677,-296.082377
4451.842278,518.144159,-8503.660028,-296.082377
4451.842602,592.164754,-8273.831378,-296.082377
4451.842926,370.102971,-8503.660028,-148.041188
4451.843251,148.041188,-8503.660028,0.000000
4451.843575,444.123565,-8503.660028,0.000000
4451.843900,444.123565,-8733.488677,-370.102971
4451.844224,888.247130,-9269.755526,-296.082377
4451.844548,444.123565,-8733.488677,-222.061783
4451.844873,370.102971,-8350.440928,0.000000
4451.845197,444.123565,-8427.050478,-370.102971
4451.845522,444.123565,-9116.536426,0.000000
4451.845846,814.226536,-8197.221829,-222.061783
4451.846170,444.123565,-8503.660028,0.000000
4451.846495,222.061783,-8273.831378,-296.082377
4451.846819,148.041188,-8733.488677,-296.082377
4451.847144,666.185348,-9116.536426,-370.102971
4451.847468,148.041188,-8197.221829,-222.061783
4451.847792,0.000000,-8580.269578,148.041188
4451.848117,0.000000,-8503.660028,0.000000
4451.848441,666.185348,-9193.145976,0.000000
4451.848766,518.144159,-8656.879127,0.000000
4451.849090,518.144159,-8580.269578,-222.061783
4451.849414,666.185348,-8503.660028,-148.041188
4451.849739,592.164754,-8503.660028,-222.061783
4451.850063,370.102971,-8656.879127,0.000000
4451.850388,444.123565,-8427.050478,-296.082377
4451.850712,370.102971,-8656.879127,-370.102971
4451.851036,222.061783,-8580.269578,0.000000
4451.851361,0.000000,-8733.488677,444.123565
4451.851685,222.061783,-8656.879127,-148.041188
4451.852010,444.123565,-8503.660028,0.000000
4451.852334,444.123565,-8886.707777,0.000000
4451.852658,888.247130,-8503.660028,0.000000
4451.852983,666.185348,-8350.440928,74.020594
4451.853307,444.123565,-8656.879127,0.000000
4451.853632,592.164754,-8503.660028,-222.061783
4451.853956,592.164754,-8810.098227,-148.041188
4451.854280,666.185348,-8810.098227,-370.102971
4451.854605,296.082377,-8580.269578,-222.061783
4451.854929,370.102971,-8656.879127,-296.082377
4451.855254,0.000000,-8733.488677,-222.061783
4451.855578,370.102971,-8197.221829,74.020594
4451.855902,444.123565,-8656.879127,-370.102971
4451.856227,518.144159,-8503.660028,-74.020594
4451.856551,666.185348,-8963.317327,0.000000
4451.856876,592.164754,-8273.831378,-222.061783
4451.857200,814.226536,-8580.269578,-148.041188
4451.857524,518.144159,-8656.879127,-148.041188
4451.857849,444.123565,-8656.879127,-370.102971
4451.858173,370.102971,-8810.098227,-370.102971
4451.858498,518.144159,-8427.050478,-296.082377
4451.858822,444.123565,-8503.660028,-296.082377
4451.859146,444.123565,-8503.660028,-518.144159
4451.859471,296.082377,-8810.098227,-222.061783
4451.859795,444.123565,-8427.050478,74.020594
4451.860120,444.123565,-8503.660028,-444.123565
4451.860444,592.164754,-8656.879127,-222.061783
4451.860768,740.205942,-8427.050478,-666.185348
4451.861093,518.144159,-8733.488677,-222.061783
4451.861417,518.144159,-8580.269578,-148.041188
4451.861742,296.082377,-8810.098227,-296.082377
4451.862066,518.144159,-8350.440928,-296.082377
4451.862390,296.082377,-8656.879127,-296.082377
4451.862715,296.082377,-8503.660028,-370.102971
4451.863039,296.082377,-8580.269578,-444.123565
4451.863364,444.123565,-8350.440928,-222.061783
4451.863688,222.061783,-8427.050478,-296.082377
4451.864012,74.020594,-8350.440928,-740.205942
4451.864337,370.102971,-8656.879127,0.000000
4451.864661,74.020594,-8580.269578,-148.041188
4451.864986,592.164754,-8503.660028,0.000000
4451.865310,370.102971,-8427.050478,0.000000
4451.865634,592.164754,-8580.269578,0.000000
4451.865959,296.082377,-8810.098227,-222.061783
4451.866283,222.061783,-8580.269578,-296.082377
4451.866608,370.102971,-8733.488677,-74.020594
4451.866932,148.041188,-8580.269578,0.000000
4451.867256,74.020594,-8810.098227,-296.082377
4451.867581,296.082377,-8427.050478,-148.041188
4451.867905,296.082377,-8580.269578,-222.061783
4451.868230,444.123565,-9039.926876,0.000000
4451.868554,370.102971,-8427.050478,-296.082377
4451.868878,518.144159,-8733.488677,-222.061783
4451.869203,518.144159,-8427.050478,-296.082377
4451.869527,444.123565,-8733.488677,-296.082377
4451.869852,370.102971,-8733.488677,-518.144159
4451.870176,444.123565,-8503.660028,-370.102971
4451.870500,222.061783,-8427.050478,-370.102971
4451.870825,148.041188,-8656.879127,-370.102971
4451.871149,296.082377,-8350.440928,-296.082377
4451.871474,296.082377,-8503.660028,-370.102971
4451.871798,444.123565,-8580.269578,-296.082377
4451.872122,222.061783,-8427.050478,-74.020594
4451.872447,518.144159,-8427.050478,-518.144159
4451.872771,370.102971,-8503.660028,0.000000
4451.873096,888.247130,-9039.926876,-444.123565
4451.873420,666.185348,-8580.269578,-296.082377
4451.873744,814.226536,-8197.221829,0.000000
4451.874069,444.123565,-8580.269578,-296.082377
4451.874393,444.123565,-8886.707777,-222.061783
4451.874718,592.164754,-8427.050478,-370.102971
4451.875042,592.164754,-8656.879127,-370.102971
4451.875366,888.247130,-8120.612279,-222.061783
4451.875691,444.123565,-8503.660028,0.000000
4451.876015,666.185348,-8580.269578,-444.123565
4451.876340,592.164754,-8427.050478,-148.041188
4451.876664,666.185348,-9039.926876,-148.041188
4451.876988,814.226536,-8733.488677,0.000000
4451.877313,444.123565,-8503.660028,0.000000
4451.877637,518.144159,-8656.879127,-296.082377
4451.877962,296.082377,-8733.488677,-370.102971
4451.878286,370.102971,-8886.707777,0.000000
4451.878610,296.082377,-8580.269578,-370.102971
4451.878935,296.082377,-8810.098227,0.000000
4451.879259,148.041188,-8656.879127,0.000000
4451.879584,148.041188,-9193.145976,74.020594
4451.879908,518.144159,-8503.660028,-222.061783
4451.880232,148.041188,-8580.269578,-296.082377
4451.880557,296.082377,-8580.269578,74.020594
4451.880881,222.061783,-8963.317327,0.000000
4451.881206,148.041188,-8656.879127,0.000000
4451.881530,296.082377,-8503.660028,-222.061783
4451.881854,518.144159,-8656.879127,-444.123565
4451.882179,518.144159,-8427.050478,-296.082377
4451.882503,0.000000,-8733.488677,0.000000
4451.882828,444.123565,-8503.660028,0.000000
4451.883152,148.041188,-8197.221829,0.000000
4451.883476,222.061783,-8656.879127,-370.102971
4451.883801,148.041188,-8503.660028,0.000000
4451.884125,370.102971,-8120.612279,0.000000
4451.884450,222.061783,-8656.879127,0.000000
4451.884774,222.061783,-8503.660028,0.000000
4451.885098,518.144159,-8273.831378,-148.041188
4451.885423,592.164754,-8503.660028,-666.185348
4451.885747,444.123565,-8810.098227,-296.082377
4451.886072,518.144159,-8273.831378,-296.082377
4451.886396,592.164754,-8197.221829,-518.144159
4451.886720,962.267725,-8427.050478,-666.185348
4451.887045,592.164754,-8810.098227,-666.185348
4451.887369,370.102971,-8580.269578,-370.102971
4451.887694,222.061783,-8273.831378,0.000000
4451.888018,740.205942,-9039.926876,0.000000
4451.888342,222.061783,-8733.488677,-296.082377
4451.888667,518.144159,-8503.660028,-370.102971
4451.888991,296.082377,-8427.050478,-444.123565
4451.889316,518.144159,-8350.440928,-74.020594
4451.889640,592.164754,-8580.269578,0.000000
4451.889964,222.061783,-8427.050478,-370.102971
4451.890289,370.102971,-8427.050478,-444.123565
4451.890613,370.102971,-8580.269578,-370.102971
4451.890938,592.164754,-8733.488677,-222.061783
4451.891262,518.144159,-8656.879127,-370.102971
4451.891586,592.164754,-8503.660028,-222.061783
4451.891911,370.102971,-8580.269578,-370.102971
4451.892235,444.123565,-8810.098227,-518.144159
4451.892560,370.102971,-8503.660028,-666.185348
4451.892884,666.185348,-8350.440928,-370.102971
4451.893208,518.144159,-8427.050478,-518.144159
4451.893533,518.144159,-8427.050478,-888.247130
4451.893857,1036.288319,-8580.269578,-1184.329507
4451.894182,592.164754,-8656.879127,-814.226536
4451.894506,740.205942,-8580.269578,-888.247130
4451.894830,592.164754,-8580.269578,-740.205942
4451.895155,962.267725,-8886.707777,-740.205942
4451.895479,444.123565,-8350.440928,-814.226536
4451.895804,222.061783,-9116.536426,-370.102971
4451.896128,74.020594,-8503.660028,-592.164754
4451.896452,222.061783,-8810.098227,-592.164754
4451.896777,444.123565,-8656.879127,-888.247130
4451.897101,444.123565,-8656.879127,-222.061783
4451.897426,296.082377,-8810.098227,-518.144159
4451.897750,592.164754,-8810.098227,-444.123565
4451.898074,814.226536,-8350.440928,-370.102971
4451.898399,444.123565,-8886.707777,-444.123565
4451.898723,222.061783,-8656.879127,-370.102971
4451.899048,296.082377,-8733.488677,-296.082377
4451.899372,148.041188,-8120.612279,0.000000
4451.899696,592.164754,-8503.660028,-666.185348
4451.900021,296.082377,-8656.879127,-370.102971
4451.900345,296.082377,-8273.831378,-222.061783
4451.900670,666.185348,-8733.488677,-518.144159
4451.900994,518.144159,-8656.879127,-666.185348
4451.901318,592.164754,-8427.050478,-444.123565
4451.901643,444.123565,-8273.831378,-518.144159
4451.901967,518.144159,-8886.707777,-740.205942
4451.902292,888.247130,-8963.317327,-888.247130
4451.902616,296.082377,-8503.660028,-592.164754
4451.902940,666.185348,-8656.879127,-666.185348
4451.903265,296.082377,-8733.488677,-518.144159
4451.903589,0.000000,-8503.660028,-296.082377
4451.903914,296.082377,-8197.221829,-518.144159
4451.904238,370.102971,-8503.660028,-592.164754
4451.904562,518.144159,-8810.098227,-740.205942
4451.904887,814.226536,-8273.831378,-370.102971
4451.905211,444.123565,-8197.221829,-444.123565
4451.905536,222.061783,-8733.488677,-370.102971
4451.905860,444.123565,-8350.440928,-296.082377
4451.906184,444.123565,-8120.612279,-518.144159
4451.906509,740.205942,-8427.050478,-666.185348
4451.906833,0.000000,-8273.831378,-370.102971
4451.907157,222.061783,-8733.488677,-296.082377
4451.907482,148.041188,-8350.440928,-222.061783
4451.907806,518.144159,-8427.050478,-370.102971
4451.908130,740.205942,-8273.831378,-296.082377
4451.908455,592.164754,-8427.050478,74.020594
4451.908779,518.144159,-8656.879127,-296.082377
4451.909103,592.164754,-8427.050478,-296.082377
4451.909428,814.226536,-8580.269578,-296.082377
4451.909752,740.205942,-8656.879127,-666.185348
4451.910076,370.102971,-8733.488677,0.000000
4451.910401,222.061783,-8580.269578,-518.144159
4451.910725,444.123565,-8656.879127,-444.123565
4451.911049,0.000000,-8273.831378,0.000000
4451.911374,222.061783,-9116.536426,-296.082377
4451.911698,296.082377,-8350.440928,-296.082377
4451.912022,592.164754,-8963.317327,0.000000
4451.912347,296.082377,-8656.879127,-370.102971
4451.912671,296.082377,-8656.879127,-148.041188
4451.912996,222.061783,-8503.660028,-296.082377
4451.913320,518.144159,-8886.707777,-518.144159
4451.913644,518.144159,-9269.755526,-222.061783
4451.913969,444.123565,-8733.488677,-444.123565
4451.914293,222.061783,-8503.660028,-296.082377
4451.914617,222.061783,-8963.317327,-666.185348
4451.914942,444.123565,-9116.536426,-518.144159
4451.915266,518.144159,-8120.612279,0.000000
4451.915590,370.102971,-8580.269578,-444.123565
4451.915915,444.123565,-8580.269578,-444.123565
4451.916239,666.185348,-8580.269578,-370.102971
4451.916563,518.144159,-8656.879127,-444.123565
4451.916888,444.123565,-8503.660028,-370.102971
4451.917212,370.102971,-8427.050478,0.000000
4451.917536,592.164754,-8503.660028,-518.144159
4451.917861,518.144159,-8580.269578,-518.144159
4451.918185,592.164754,-8656.879127,-666.185348
4451.918509,666.185348,-8656.879127,-296.082377
4451.918834,518.144159,-8427.050478,-518.144159
4451.919158,518.144159,-8810.098227,0.000000
4451.919482,74.020594,-8810.098227,-370.102971
4451.919807,518.144159,-8427.050478,-666.185348
4451.920131,444.123565,-8580.269578,-666.185348
4451.920455,296.082377,-8503.660028,-370.102971
4451.920780,296.082377,-8580.269578,-444.123565
4451.921104,666.185348,-8580.269578,-666.185348
4451.921428,518.144159,-8503.660028,-370.102971
4451.921753,814.226536,-8580.269578,-592.164754
4451.922077,1184.329507,-8580.269578,-222.061783
4451.922401,518.144159,-8197.221829,-296.082377
4451.922726,370.102971,-8580.269578,-592.164754
4451.923050,444.123565,-8503.660028,-296.082377
4451.923374,444.123565,-8580.269578,-370.102971
4451.923699,518.144159,-8656.879127,-370.102971
4451.924023,222.061783,-8886.707777,-74.020594
4451.924347,222.061783,-8427.050478,-222.061783
4451.924672,444.123565,-8503.660028,-518.144159
4451.924996,592.164754,-8656.879127,-370.102971
4451.925320,666.185348,-8810.098227,-666.185348
4451.925645,888.247130,-8503.660028,-518.144159
4451.925969,518.144159,-8350.440928,-592.164754
4451.926293,1036.288319,-9039.926876,-666.185348
4451.926618,370.102971,-8733.488677,-592.164754
4451.926942,592.164754,-8656.879127,-666.185348
4451.927266,444.123565,-8503.660028,-592.164754
4451.927591,148.041188,-8733.488677,-444.123565
4451.927915,148.041188,-8733.488677,-370.102971
4451.928239,148.041188,-8656.879127,-518.144159
4451.928564,222.061783,-8810.098227,-592.164754
4451.928888,592.164754,-8733.488677,-518.144159
4451.929212,962.267725,-8350.440928,-370.102971
4451.929537,518.144159,-8656.879127,-518.144159
4451.929861,740.205942,-8503.660028,-666.185348
4451.930185,518.144159,-8427.050478,-444.123565
4451.930510,1036.288319,-8733.488677,-370.102971
4451.930834,370.102971,-8580.269578,-370.102971
4451.931158,74.020594,-8656.879127,0.000000
4451.931483,222.061783,-8733.488677,-370.102971
4451.931807,0.000000,-8810.098227,-370.102971
4451.932131,222.061783,-8656.879127,-296.082377
4451.932456,444.123565,-8963.317327,-222.061783
4451.932780,666.185348,-8350.440928,-296.082377
4451.933104,666.185348,-8580.269578,-518.144159
4451.933429,814.226536,-8503.660028,-518.144159
4451.933753,1036.288319,-8810.098227,-518.144159
4451.934077,740.205942,-8886.707777,-666.185348
4451.934402,518.144159,-8963.317327,-444.123565
4451.934726,370.102971,-7967.393179,-370.102971
4451.935050,370.102971,-8733.488677,-444.123565
4451.935375,296.082377,-8503.660028,-592.164754
4451.935699,296.082377,-8886.707777,-592.164754
4451.936023,518.144159,-8350.440928,-296.082377
4451.936348,296.082377,-8503.660028,-296.082377
4451.936672,740.205942,-8656.879127,-444.123565
4451.936996,740.205942,-8350.440928,-370.102971
4451.937321,666.185348,-8503.660028,-370.102971
4451.937645,444.123565,-8503.660028,-1258.350101
4451.937969,518.144159,-8350.440928,-444.123565
4451.938294,74.020594,-8503.660028,-370.102971
4451.938618,148.041188,-8273.831378,-444.123565
4451.938942,296.082377,-7967.393179,-148.041188
4451.939267,518.144159,-8656.879127,-518.144159
4451.939591,444.123565,-8044.002729,0.000000
4451.939915,370.102971,-8273.831378,-444.123565
4451.940240,370.102971,-8273.831378,-222.061783
4451.940564,740.205942,-8273.831378,-444.123565
4451.940889,740.205942,-8733.488677,-370.102971
4451.941213,444.123565,-8580.269578,-296.082377
4451.941537,370.102971,-8656.879127,-148.041188
4451.941862,444.123565,-7890.783629,-222.061783
4451.942186,370.102971,-8503.660028,-296.082377
4451.942510,296.082377,-8580.269578,-222.061783
4451.942835,296.082377,-8273.831378,-222.061783
4451.943159,0.000000,-8580.269578,0.000000
4451.943483,222.061783,-8503.660028,-296.082377
4451.943808,370.102971,-8580.269578,-148.041188
4451.944132,148.041188,-8503.660028,0.000000
4451.944456,222.061783,-8733.488677,-444.123565
4451.944781,296.082377,-8503.660028,74.020594
4451.945105,222.061783,-8656.879127,-296.082377
4451.945429,74.020594,-8656.879127,-148.041188
4451.945754,222.061783,-8427.050478,-296.082377
4451.946078,592.164754,-8503.660028,-222.061783
4451.946402,370.102971,-8503.660028,-444.123565
4451.946727,296.082377,-8427.050478,-370.102971
4451.947051,222.061783,-8580.269578,-444.123565
4451.947375,222.061783,-7660.954980,0.000000
4451.947700,444.123565,-8350.440928,-518.144159
4451.948024,370.102971,-8503.660028,-518.144159
4451.948348,296.082377,-8656.879127,0.000000
4451.948673,296.082377,-8580.269578,-222.061783
4451.948997,444.123565,-8580.269578,-148.041188
4451.949321,222.061783,-8580.269578,0.000000
4451.949646,666.185348,-8886.707777,-296.082377
4451.949970,518.144159,-8427.050478,-222.061783
4451.950294,222.061783,-8044.002729,74.020594
4451.950619,370.102971,-8503.660028,-148.041188
4451.950943,518.144159,-8503.660028,-444.123565
4451.951267,296.082377,-8580.269578,-370.102971
4451.951592,518.144159,-8656.879127,-74.020594
4451.951916,74.020594,-8503.660028,74.020594
4451.952240,444.123565,-8733.488677,-296.082377
4451.952565,518.144159,-8656.879127,-370.102971
4451.952889,518.144159,-8580.269578,-370.102971
4451.953213,518.144159,-8427.050478,-518.144159
4451.953538,888.247130,-8273.831378,-296.082377
4451.953862,666.185348,-8120.612279,-296.082377
4451.954186,888.247130,-8733.488677,0.000000
4451.954511,592.164754,-7967.393179,-296.082377
4451.954835,666.185348,-8733.488677,-740.205942
4451.955159,518.144159,-8427.050478,-148.041188
4451.955484,74.020594,-8810.098227,-222.061783
4451.955808,444.123565,-8810.098227,-296.082377
4451.956132,814.226536,-8580.269578,-296.082377
4451.956457,444.123565,-9116.536426,-222.061783
4451.956781,740.205942,-8733.488677,-370.102971
4451.957105,740.205942,-8656.879127,-370.102971
4451.957430,592.164754,-8733.488677,-444.123565
4451.957754,740.205942,-8656.879127,-222.061783
4451.958078,666.185348,-8656.879127,-592.164754
4451.958403,444.123565,-8733.488677,-444.123565
4451.958727,444.123565,-8350.440928,-222.061783
4451.959051,444.123565,-8656.879127,-370.102971
4451.959376,296.082377,-8656.879127,-518.144159
4451.959700,222.061783,-8580.269578,-296.082377
4451.960024,222.061783,-8886.707777,-296.082377
4451.960349,444.123565,-8733.488677,-444.123565
4451.960673,444.123565,-8580.269578,-74.020594
4451.960997,296.082377,-8580.269578,-222.061783
4451.961322,296.082377,-8427.050478,-148.041188
4451.961646,592.164754,-9116.536426,-740.205942
4451.961970,370.102971,-8580.269578,-148.041188
4451.962295,222.061783,-8580.269578,0.000000
4451.962619,222.061783,-8427.050478,0.000000
4451.962943,0.000000,-8810.098227,0.000000
4451.963268,296.082377,-8810.098227,-148.041188
4451.963592,0.000000,-8656.879127,0.000000
4451.963916,296.082377,-8044.002729,0.000000
4451.964241,222.061783,-8350.440928,0.000000
4451.964565,74.020594,-8810.098227,0.000000
4451.964889,370.102971,-8273.831378,-222.061783
4451.965214,444.123565,-8427.050478,0.000000
4451.965538,370.102971,-8427.050478,0.000000
4451.965862,888.247130,-9116.536426,74.020594
4451.966187,666.185348,-8427.050478,-370.102971
4451.966511,370.102971,-8350.440928,-222.061783
4451.966835,592.164754,-8656.879127,-296.082377
4451.967160,444.123565,-8350.440928,0.000000
4451.967484,518.144159,-7967.393179,148.041188
4451.967808,74.020594,-8580.269578,-222.061783
4451.968133,444.123565,-8427.050478,0.000000
4451.968457,518.144159,-8273.831378,-148.041188
4451.968782,148.041188,-8810.098227,148.041188
4451.969106,370.102971,-8273.831378,-148.041188
4451.969430,444.123565,-8503.660028,0.000000
4451.969755,222.061783,-8656.879127,0.000000
4451.970079,814.226536,-8963.317327,-74.020594
4451.970403,444.123565,-8503.660028,-518.144159
4451.970728,296.082377,-8427.050478,-148.041188
4451.971052,370.102971,-8350.440928,-148.041188
4451.971376,0.000000,-8810.098227,-296.082377
4451.971701,148.041188,-8427.050478,-222.061783
4451.972025,148.041188,-8656.879127,0.000000
4451.972349,370.102971,-8580.269578,-296.082377
4451.972674,370.102971,-8656.879127,0.000000
4451.972998,592.164754,-8963.317327,0.000000
4451.973322,518.144159,-8656.879127,-296.082377
4451.973647,592.164754,-8503.660028,-518.144159
4451.973971,444.123565,-8580.269578,-370.102971
4451.974295,518.144159,-8503.660028,-370.102971
4451.974620,296.082377,-8503.660028,-296.082377
4451.974944,148.041188,-8580.269578,-814.226536
4451.975268,222.061783,-8733.488677,-444.123565
4451.975593,148.041188,-8656.879127,-814.226536
4451.975917,148.041188,-8733.488677,-518.144159
4451.976241,296.082377,-8733.488677,-222.061783
4451.976566,518.144159,-8656.879127,0.000000
4451.976890,222.061783,-8503.660028,-444.123565
4451.977214,444.123565,-9346.365076,-592.164754
4451.977539,444.123565,-8656.879127,-370.102971
4451.977863,296.082377,-8810.098227,-370.102971
4451.978187,296.082377,-8733.488677,-444.123565
4451.978512,296.082377,-9499.584175,-148.041188
4451.978836,370.102971,-8580.269578,-370.102971
4451.979160,148.041188,-8503.660028,-296.082377
4451.979485,370.102971,-8656.879127,0.000000
4451.979809,296.082377,-8810.098227,0.000000
4451.980133,518.144159,-9193.145976,-296.082377
4451.980458,518.144159,-8503.660028,-296.082377
4451.980782,518.144159,-8963.317327,-296.082377
4451.981106,962.267725,-8810.098227,-222.061783
4451.981431,518.144159,-8886.707777,-592.164754
4451.981755,740.205942,-8810.098227,-518.144159
4451.982079,592.164754,-8427.050478,-518.144159
4451.982404,518.144159,-8810.098227,-740.205942
4451.982728,518.144159,-8503.660028,-518.144159
4451.983052,444.123565,-8886.707777,-148.041188
4451.983377,518.144159,-8427.050478,-444.123565
4451.983701,148.041188,-8810.098227,0.000000
4451.984025,148.041188,-8350.440928,-370.102971
4451.984350,222.061783,-8810.098227,0.000000
4451.984674,444.123565,-7967.393179,0.000000
4451.984998,296.082377,-8427.050478,0.000000
4451.985323,444.123565,-8350.440928,-296.082377
4451.985647,888.247130,-9193.145976,148.041188
4451.985971,592.164754,-8427.050478,-444.123565
4451.986296,444.123565,-8503.660028,0.000000
4451.986620,74.020594,-8350.440928,0.000000
4451.986944,74.020594,-8810.098227,0.000000
4451.987269,148.041188,-8427.050478,0.000000
4451.987593,148.041188,-8503.660028,-222.061783
4451.987917,518.144159,-8580.269578,-74.020594
4451.988242,518.144159,-8273.831378,-148.041188
4451.988566,444.123565,-8273.831378,-148.041188
4451.988890,222.061783,-8427.050478,0.000000
4451.989215,518.144159,-8656.879127,-370.102971
4451.989539,370.102971,-8886.707777,-444.123565
4451.989863,666.185348,-9116.536426,-518.144159
4451.990188,444.123565,-8503.660028,-370.102971
4451.990512,518.144159,-8580.269578,-814.226536
4451.990836,370.102971,-8427.050478,-444.123565
4451.991161,444.123565,-8963.317327,-444.123565
4451.991485,296.082377,-8656.879127,-370.102971
4451.991809,370.102971,-8580.269578,-592.164754
4451.992134,444.123565,-8656.879127,-296.082377
4451.992458,444.123565,-8886.707777,-518.144159
4451.992782,592.164754,-9039.926876,-296.082377
4451.993107,370.102971,-8503.660028,-370.102971
4451.993431,222.061783,-8656.879127,0.000000
4451.993755,518.144159,-8810.098227,-592.164754
4451.994080,222.061783,-9346.365076,-370.102971
4451.994404,370.102971,-8656.879127,-296.082377
4451.994728,370.102971,-8656.879127,-444.123565
4451.995053,444.123565,-8503.660028,-148.041188
4451.995377,592.164754,-8656.879127,-592.164754
4451.995701,370.102971,-9039.926876,-518.144159
4451.996026,296.082377,-8580.269578,-518.144159
4451.996350,518.144159,-8886.707777,-296.082377
4451.996675,222.061783,-8656.879127,-444.123565
4451.996999,222.061783,-8580.269578,0.000000
4451.997323,370.102971,-8427.050478,-518.144159
4451.997648,444.123565,-8427.050478,-444.123565
4451.997972,740.205942,-8733.488677,-814.226536
4451.998296,814.226536,-8580.269578,-666.185348
4451.998621,814.226536,-8273.831378,-740.205942
4451.998945,370.102971,-8503.660028,-518.144159
4451.999269,370.102971,-8580.269578,-740.205942
4451.999594,518.144159,-8580.269578,-666.185348
4451.999918,222.061783,-8733.488677,-222.061783
4452.000242,148.041188,-8733.488677,-518.144159
4452.000567,148.041188,-8580.269578,-592.164754
4452.000891,370.102971,-8656.879127,-296.082377
4452.001215,0.000000,-8886.707777,296.082377
4452.001540,592.164754,-8503.660028,-518.144159
4452.001864,592.164754,-8580.269578,-296.082377
4452.002188,370.102971,-8350.440928,-296.082377
4452.002513,444.123565,-8350.440928,-222.061783
4452.002837,222.061783,-8580.269578,0.000000
4452.003161,518.144159,-8656.879127,-444.123565
4452.003486,148.041188,-8733.488677,0.000000
4452.003810,0.000000,-8580.269578,0.000000
4452.004134,148.041188,-8733.488677,370.102971
4452.004459,444.123565,-8656.879127,0.000000
4452.004783,296.082377,-8503.660028,74.020594
4452.005107,666.185348,-8503.660028,-296.082377
4452.005432,444.123565,-8350.440928,74.020594
4452.005756,222.061783,-8580.269578,0.000000
4452.006080,444.123565,-8733.488677,-370.102971
4452.006405,518.144159,-8350.440928,-518.144159
4452.006729,296.082377,-8503.660028,-296.082377
4452.007053,0.000000,-8044.002729,-370.102971
4452.007378,222.061783,-8656.879127,0.000000
4452.007702,222.061783,-8656.879127,-518.144159
4452.008026,296.082377,-8503.660028,-370.102971
4452.008351,814.226536,-8503.660028,-740.205942
4452.008675,296.082377,-8733.488677,-370.102971
4452.008999,740.205942,-8273.831378,-370.102971
4452.009323,518.144159,-8580.269578,-370.102971
4452.009648,296.082377,-8810.098227,-444.123565
4452.009972,444.123565,-8580.269578,-296.082377
4452.010296,592.164754,-8503.660028,-814.226536
4452.010621,296.082377,-8580.269578,-666.185348
4452.010945,222.061783,-8656.879127,-296.082377
4452.011269,148.041188,-8810.098227,-444.123565
4452.011594,222.061783,-8503.660028,-296.082377
4452.011918,592.164754,-8733.488677,-666.185348
4452.012242,592.164754,-8810.098227,0.000000
4452.012566,888.247130,-8580.269578,-296.082377
4452.012891,370.102971,-9039.926876,-296.082377
4452.013215,740.205942,-8503.660028,-592.164754
4452.013539,666.185348,-8733.488677,-444.123565
4452.013864,666.185348,-8886.707777,-296.082377
4452.014188,740.205942,-8886.707777,-666.185348
4452.014512,444.123565,-8503.660028,-592.164754
4452.014837,740.205942,-8503.660028,-592.164754
4452.015161,592.164754,-8273.831378,-814.226536
4452.015485,74.020594,-8427.050478,-518.144159
4452.015809,592.164754,-8120.612279,-814.226536
4452.016134,444.123565,-8733.488677,-592.164754
4452.016458,296.082377,-8427.050478,-814.226536
4452.016782,444.123565,-8044.002729,-148.041188
4452.017107,740.205942,-8580.269578,-666.185348
4452.017431,444.123565,-8810.098227,-518.144159
4452.017755,444.123565,-8580.269578,-814.226536
4452.018080,740.205942,-8810.098227,-592.164754
4452.018404,222.061783,-8503.660028,-444.123565
4452.018728,666.185348,-8350.440928,-592.164754
4452.019052,592.164754,-8350.440928,-592.164754
4452.019377,518.144159,-8120.612279,-370.102971
4452.019701,0.000000,-8427.050478,-444.123565
4452.020025,222.061783,-8656.879127,-592.164754
4452.020350,0.000000,-8503.660028,-296.082377
4452.020674,370.102971,-8580.269578,-370.102971
4452.020998,370.102971,-8810.098227,0.000000
4452.021323,666.185348,-8503.660028,-444.123565
4452.021647,666.185348,-8503.660028,-444.123565
4452.021971,592.164754,-8503.660028,-592.164754
4452.022295,592.164754,-8733.488677,-666.185348
4452.022620,518.144159,-8733.488677,-444.123565
4452.022944,296.082377,-8503.660028,-444.123565
4452.023268,148.041188,-8733.488677,-370.102971
4452.023593,0.000000,-8427.050478,-592.164754
4452.023917,518.144159,-8810.098227,-296.082377
4452.024241,296.082377,-8656.879127,-370.102971
4452.024566,444.123565,-8503.660028,-296.082377
4452.024890,592.164754,-8350.440928,-148.041188
4452.025214,740.205942,-7814.174080,222.061783
4452.025538,518.144159,-8273.831378,-370.102971
4452.025863,444.123565,-8656.879127,-518.144159
4452.026187,592.164754,-8197.221829,-518.144159
4452.026511,148.041188,-8427.050478,0.000000
4452.026836,222.061783,-8503.660028,-370.102971
4452.027160,370.102971,-8580.269578,-222.061783
4452.027484,74.020594,-8350.440928,-296.082377
4452.027809,444.123565,-8580.269578,0.000000
4452.028133,962.267725,-8273.831378,74.020594
4452.028457,444.123565,-8656.879127,0.000000
4452.028781,444.123565,-8580.269578,-222.061783
4452.029106,444.123565,-8503.660028,-444.123565
4452.029430,592.164754,-8656.879127,-296.082377
4452.029754,962.267725,-8580.269578,-296.082377
4452.030079,370.102971,-8273.831378,-74.020594
4452.030403,518.144159,-8656.879127,-296.082377
4452.030727,444.123565,-8350.440928,-370.102971
4452.031052,518.144159,-8427.050478,-222.061783
4452.031376,296.082377,-8580.269578,-296.082377
4452.031700,370.102971,-8580.269578,0.000000
4452.032024,518.144159,-8656.879127,0.000000
4452.032349,518.144159,-8273.831378,-74.020594
4452.032673,814.226536,-8656.879127,-444.123565
4452.032997,592.164754,-8810.098227,-296.082377
4452.033322,666.185348,-8427.050478,0.000000
4452.033646,222.061783,-8810.098227,-370.102971
4452.033970,592.164754,-8503.660028,-666.185348
4452.034295,592.164754,-8427.050478,-370.102971
4452.034619,592.164754,-8580.269578,-518.144159
4452.034943,296.082377,-8810.098227,-444.123565
4452.035267,592.164754,-8350.440928,-666.185348
4452.035592,370.102971,-8580.269578,-518.144159
4452.035916,370.102971,-8503.660028,-444.123565
4452.036240,444.123565,-8580.269578,-592.164754
4452.036565,666.185348,-8580.269578,0.000000
4452.036889,518.144159,-8503.660028,-370.102971
4452.037213,148.041188,-9039.926876,-370.102971
4452.037538,222.061783,-8580.269578,-222.061783
4452.037862,296.082377,-8733.488677,-370.102971
4452.038186,518.144159,-8503.660028,-592.164754
4452.038510,296.082377,-8503.660028,-148.041188
4452.038835,370.102971,-8503.660028,-444.123565
4452.039159,222.061783,-8503.660028,-370.102971
4452.039483,740.205942,-8733.488677,-814.226536
4452.039808,370.102971,-8810.098227,-592.164754
4452.040132,444.123565,-8197.221829,-222.061783
4452.040456,222.061783,-8580.269578,-370.102971
4452.040781,370.102971,-9116.536426,-370.102971
4452.041105,518.144159,-8886.707777,-296.082377
4452.041429,222.061783,-8886.707777,-444.123565
4452.041753,296.082377,-8733.488677,-370.102971
4452.042078,518.144159,-8503.660028,-370.102971
4452.042402,592.164754,-8810.098227,-592.164754
4452.042726,296.082377,-8044.002729,-740.205942
4452.043051,444.123565,-8503.660028,-592.164754
4452.043375,296.082377,-8580.269578,-370.102971
4452.043699,814.226536,-8350.440928,-518.144159
4452.044023,148.041188,-8503.660028,-222.061783
4452.044348,148.041188,-8580.269578,-444.123565
4452.044672,148.041188,-8810.098227,-296.082377
4452.044996,592.164754,-8273.831378,-296.082377
4452.045321,444.123565,-8503.660028,-222.061783
4452.045645,592.164754,-8503.660028,-296.082377
4452.045969,296.082377,-8350.440928,-222.061783
4452.046294,518.144159,-8273.831378,-222.061783
4452.046618,1036.288319,-8810.098227,-296.082377
4452.046942,666.185348,-8427.050478,-148.041188
4452.047266,222.061783,-8350.440928,-444.123565
4452.047591,444.123565,-8656.879127,-222.061783
4452.047915,370.102971,-9039.926876,0.000000
4452.048239,740.205942,-8427.050478,-74.020594
4452.048564,444.123565,-8656.879127,-296.082377
4452.048888,518.144159,-8580.269578,0.000000
4452.049212,518.144159,-8350.440928,-370.102971
4452.049537,666.185348,-8427.050478,0.000000
4452.049861,666.185348,-8197.221829,-444.123565
4452.050185,888.247130,-8503.660028,-592.164754
4452.050509,518.144159,-8427.050478,-296.082377
4452.050834,0.000000,-8350.440928,0.000000
4452.051158,74.020594,-8733.488677,-518.144159
4452.051482,222.061783,-8427.050478,-370.102971
4452.051807,444.123565,-8656.879127,-592.164754
4452.052131,666.185348,-8886.707777,-148.041188
4452.052455,592.164754,-8580.269578,-296.082377
4452.052780,444.123565,-8580.269578,-148.041188
4452.053104,740.205942,-8503.660028,-370.102971
4452.053428,592.164754,-8427.050478,-444.123565
4452.053752,740.205942,-8656.879127,-592.164754
4452.054077,740.205942,-8427.050478,-370.102971
4452.054401,444.123565,-8656.879127,-518.144159
4452.054725,296.082377,-8656.879127,-518.144159
4452.055050,444.123565,-8503.660028,-370.102971
4452.055374,296.082377,-8580.269578,-370.102971
4452.055698,592.164754,-8733.488677,-222.061783
4452.056023,666.185348,-8580.269578,-296.082377
4452.056347,370.102971,-9806.022374,0.000000
4452.056671,444.123565,-8273.831378,-222.061783
4452.056995,518.144159,-8963.317327,-296.082377
4452.057320,666.185348,-8656.879127,-148.041188
4452.057644,370.102971,-8503.660028,0.000000
4452.057968,222.061783,-9039.926876,0.000000
4452.058293,370.102971,-8580.269578,-296.082377
4452.058617,592.164754,-8503.660028,-222.061783
4452.058941,444.123565,-8656.879127,-148.041188
4452.059266,0.000000,-8580.269578,74.020594
4452.059590,74.020594,-8273.831378,-296.082377
4452.059914,370.102971,-8580.269578,0.000000
4452.060238,518.144159,-8580.269578,-296.082377
4452.060563,666.185348,-8886.707777,-222.061783
4452.060887,740.205942,-8656.879127,-592.164754
4452.061211,444.123565,-8273.831378,-370.102971
4452.061536,518.144159,-8886.707777,-444.123565
4452.061860,444.123565,-8350.440928,-222.061783
4452.062184,370.102971,-8503.660028,-222.061783
4452.062509,592.164754,-8503.660028,-518.144159
4452.062833,148.041188,-8656.879127,0.000000
4452.063157,592.164754,-8350.440928,-444.123565
4452.063481,518.144159,-8044.002729,-74.020594
4452.063806,296.082377,-8427.050478,-222.061783
4452.064130,148.041188,-8503.660028,-370.102971
4452.064454,0.000000,-8427.050478,0.000000
4452.064779,148.041188,-8963.317327,0.000000
4452.065103,296.082377,-8656.879127,-148.041188
4452.065427,296.082377,-8427.050478,-148.041188
4452.065752,518.144159,-8427.050478,-222.061783
4452.066076,444.123565,-8350.440928,-148.041188
4452.066400,296.082377,-8580.269578,0.000000
4452.066724,592.164754,-8273.831378,-222.061783
4452.067049,222.061783,-8580.269578,-370.102971
4452.067373,74.020594,-8810.098227,-444.123565
4452.067697,444.123565,-9116.536426,-296.082377
4452.068022,74.020594,-8733.488677,0.000000
4452.068346,222.061783,-8810.098227,-296.082377
4452.068670,592.164754,-8427.050478,-444.123565
4452.068995,666.185348,-8427.050478,-444.123565
4452.069319,592.164754,-8656.879127,-222.061783
4452.069643,740.205942,-8580.269578,-222.061783
4452.069967,592.164754,-8963.317327,-518.144159
4452.070292,518.144159,-8427.050478,-740.205942
4452.070616,518.144159,-8503.660028,-444.123565
4452.070940,296.082377,-8810.098227,-370.102971
4452.071265,296.082377,-8503.660028,-444.123565
4452.071589,0.000000,-8580.269578,-222.061783
4452.071913,296.082377,-9116.536426,-296.082377
4452.072238,74.020594,-8733.488677,0.000000
4452.072562,592.164754,-8656.879127,-296.082377
4452.072886,666.185348,-8656.879127,-148.041188
4452.073210,740.205942,-8427.050478,-296.082377
4452.073535,740.205942,-8656.879127,-444.123565
4452.073859,518.144159,-8656.879127,-296.082377
4452.074183,444.123565,-8733.488677,-222.061783
4452.074508,370.102971,-8810.098227,-444.123565
4452.074832,74.020594,-8810.098227,222.061783
4452.075156,0.000000,-8656.879127,-370.102971
4452.075481,74.020594,-8503.660028,-148.041188
4452.075805,370.102971,-8273.831378,-444.123565
4452.076129,592.164754,-9193.145976,0.000000
4452.076453,518.144159,-8427.050478,-222.061783
4452.076778,740.205942,-8580.269578,-370.102971
4452.077102,740.205942,-8656.879127,-444.123565
4452.077426,592.164754,-8580.269578,-666.185348
4452.077751,814.226536,-8503.660028,-370.102971
4452.078075,296.082377,-8427.050478,-444.123565
4452.078399,518.144159,-8503.660028,-296.082377
4452.078724,222.061783,-8503.660028,-444.123565
4452.079048,666.185348,-9269.755526,-296.082377
4452.079372,444.123565,-8427.050478,-296.082377
4452.079696,666.185348,-8580.269578,-148.041188
4452.080021,444.123565,-8733.488677,0.000000
4452.080345,444.123565,-9116.536426,0.000000
4452.080669,518.144159,-8810.098227,-518.144159
4452.080994,518.144159,-8427.050478,-296.082377
4452.081318,444.123565,-8963.317327,-148.041188
4452.081642,444.123565,-8733.488677,-74.020594
4452.081967,518.144159,-8810.098227,0.000000
4452.082291,370.102971,-8810.098227,-74.020594
4452.082615,518.144159,-8810.098227,-148.041188
4452.082939,296.082377,-8503.660028,-222.061783
4452.083264,444.123565,-8963.317327,0.000000
4452.083588,74.020594,-8350.440928,-222.061783
4452.083912,222.061783,-8733.488677,0.000000
4452.084237,370.102971,-8350.440928,0.000000
4452.084561,518.144159,-8427.050478,-518.144159
4452.084885,444.123565,-9116.536426,-296.082377
4452.085210,814.226536,-8427.050478,-518.144159
4452.085534,666.185348,-8733.488677,-296.082377
4452.085858,296.082377,-8810.098227,-592.164754
4452.086182,444.123565,-8580.269578,0.000000
4452.086507,222.061783,-8503.660028,-518.144159
4452.086831,370.102971,-8810.098227,-592.164754
4452.087155,74.020594,-8580.269578,-592.164754
4452.087480,296.082377,-8350.440928,0.000000
4452.087804,370.102971,-8350.440928,-518.144159
4452.088128,444.123565,-8503.660028,-666.185348
4452.088453,518.144159,-8733.488677,-296.082377
4452.088777,296.082377,-8580.269578,-370.102971
4452.089101,518.144159,-8733.488677,-148.041188
4452.089425,444.123565,-8503.660028,-222.061783
4452.089750,518.144159,-8733.488677,-370.102971
4452.090074,370.102971,-8810.098227,-370.102971
4452.090398,740.205942,-8044.002729,-148.041188
4452.090723,592.164754,-8656.879127,-296.082377
4452.091047,296.082377,-8733.488677,-444.123565
4452.091371,444.123565,-8427.050478,0.000000
4452.091696,296.082377,-8580.269578,0.000000
4452.092020,518.144159,-8580.269578,0.000000
4452.092344,444.123565,-8503.660028,0.000000
4452.092668,444.123565,-8886.707777,0.000000
4452.092993,370.102971,-8580.269578,-296.082377
4452.093317,888.247130,-8580.269578,-518.144159
4452.093641,666.185348,-8503.660028,-592.164754
4452.093966,666.185348,-8427.050478,-296.082377
4452.094290,666.185348,-8350.440928,-518.144159
4452.094614,814.226536,-8733.488677,-444.123565
4452.094939,148.041188,-8350.440928,-370.102971
4452.095263,370.102971,-8503.660028,-518.144159
4452.095587,518.144159,-8580.269578,-444.123565
4452.095911,370.102971,-8656.879127,-222.061783
4452.096236,296.082377,-8886.707777,-444.123565
4452.096560,296.082377,-8656.879127,-592.164754
4452.096884,370.102971,-8656.879127,-370.102971
4452.097209,296.082377,-8273.831378,-592.164754
4452.097533,888.247130,-8810.098227,-444.123565
4452.097857,592.164754,-8580.269578,-444.123565
4452.098182,592.164754,-8580.269578,-518.144159
4452.098506,296.082377,-8120.612279,-296.082377
4452.098830,1110.308913,-8886.707777,-148.041188
4452.099154,518.144159,-8273.831378,-370.102971
4452.099479,74.020594,-9039.926876,0.000000
4452.099803,74.020594,-8656.879127,-370.102971
4452.100127,0.000000,-8273.831378,-296.082377
4452.100452,222.061783,-8580.269578,0.000000
4452.100776,444.123565,-8580.269578,0.000000
4452.101100,444.123565,-8886.707777,-148.041188
4452.101425,518.144159,-8580.269578,-296.082377
4452.101749,740.205942,-8733.488677,-296.082377
4452.102073,592.164754,-8963.317327,-370.102971
4452.102397,370.102971,-8427.050478,-444.123565
4452.102722,370.102971,-8580.269578,-222.061783
4452.103046,370.102971,-8810.098227,-222.061783
4452.103370,148.041188,-8580.269578,-222.061783
4452.103695,444.123565,-8350.440928,-518.144159
4452.104019,370.102971,-8656.879127,-74.020594
4452.104343,296.082377,-8580.269578,0.000000
4452.104668,518.144159,-8886.707777,0.000000
4452.104992,518.144159,-8503.660028,-222.061783
4452.105316,592.164754,-8427.050478,-296.082377
4452.105640,518.144159,-8580.269578,-518.144159
4452.105965,740.205942,-8886.707777,0.000000
4452.106289,518.144159,-8197.221829,-444.123565
4452.106613,148.041188,-8656.879127,-370.102971
4452.106938,222.061783,-8656.879127,-518.144159
4452.107262,666.185348,-8580.269578,-518.144159
4452.107586,222.061783,-8656.879127,-592.164754
4452.107911,370.102971,-8810.098227,-148.041188
4452.108234,444.123565,-8656.879127,-296.082377
4452.108559,444.123565,-8580.269578,0.000000
4452.108883,296.082377,-8733.488677,-296.082377
4452.109207,444.123565,-8733.488677,-518.144159
4452.109531,592.164754,-8427.050478,-370.102971
4452.109856,296.082377,-8580.269578,-444.123565
4452.110180,444.123565,-8503.660028,-518.144159
4452.110504,370.102971,-8273.831378,-592.164754
4452.110828,444.123565,-8810.098227,-666.185348
4452.111153,666.185348,-8350.440928,-740.205942
4452.111477,296.082377,-8810.098227,-222.061783
4452.111801,740.205942,-8656.879127,-518.144159
4452.112125,444.123565,-8273.831378,-444.123565
4452.112450,518.144159,-8580.269578,-592.164754
4452.112774,518.144159,-8886.707777,-518.144159
4452.113098,740.205942,-8197.221829,-444.123565
4452.113423,444.123565,-8580.269578,-518.144159
4452.113747,296.082377,-8963.317327,-666.185348
4452.114071,666.185348,-8656.879127,-518.144159
4452.114395,518.144159,-8273.831378,-518.144159
4452.114720,518.144159,-8427.050478,-222.061783
4452.115044,370.102971,-8580.269578,0.000000
4452.115368,296.082377,-8580.269578,-444.123565
4452.115692,222.061783,-8503.660028,-814.226536
4452.116017,592.164754,-8733.488677,-296.082377
4452.116341,518.144159,-8886.707777,-370.102971
4452.116665,222.061783,-8656.879127,-222.061783
4452.116989,370.102971,-8886.707777,-444.123565
4452.117314,740.205942,-8580.269578,-444.123565
4452.117638,740.205942,-8886.707777,-518.144159
4452.117962,666.185348,-8733.488677,-518.144159
4452.118286,444.123565,-8580.269578,-444.123565
4452.118611,1036.288319,-8810.098227,-592.164754
4452.118935,370.102971,-8656.879127,-518.144159
4452.119259,296.082377,-8656.879127,-518.144159
4452.119584,296.082377,-8580.269578,-444.123565
4452.119908,370.102971,-8350.440928,-296.082377
4452.120232,0.000000,-8350.440928,-222.061783
4452.120556,0.000000,-8810.098227,-444.123565
4452.120881,296.082377,-8503.660028,-444.123565
4452.121205,148.041188,-8580.269578,-296.082377
4452.121529,296.082377,-8427.050478,-296.082377
4452.121853,444.123565,-8350.440928,-296.082377
4452.122178,222.061783,-8503.660028,-222.061783
4452.122502,222.061783,-8810.098227,-148.041188
4452.122826,370.102971,-8503.660028,0.000000
4452.123150,296.082377,-8580.269578,-370.102971
4452.123475,222.061783,-8273.831378,0.000000
4452.123799,222.061783,-8733.488677,-296.082377
4452.124123,296.082377,-8963.317327,-296.082377
4452.124447,296.082377,-8350.440928,0.000000
4452.124772,444.123565,-8580.269578,0.000000
4452.125096,518.144159,-8503.660028,-222.061783
4452.125420,444.123565,-8656.879127,0.000000
4452.125745,518.144159,-8503.660028,-666.185348
4452.126069,666.185348,-8273.831378,-444.123565
4452.126393,518.144159,-8580.269578,-444.123565
4452.126717,666.185348,-8427.050478,-370.102971
4452.127042,1110.308913,-7814.174080,-222.061783
4452.127366,370.102971,-8503.660028,-148.041188
4452.127690,74.020594,-8273.831378,-148.041188
4452.128014,518.144159,-8503.660028,-296.082377
4452.128339,444.123565,-8350.440928,-370.102971
4452.128663,518.144159,-8503.660028,-518.144159
4452.128987,296.082377,-8427.050478,-444.123565
4452.129311,518.144159,-8427.050478,-148.041188
4452.129636,444.123565,-8503.660028,-296.082377
4452.129960,444.123565,-8503.660028,-740.205942
4452.130284,740.205942,-8427.050478,-296.082377
4452.130608,666.185348,-8580.269578,-370.102971
4452.130933,444.123565,-8656.879127,-666.185348
4452.131257,370.102971,-7967.393179,-370.102971
4452.131581,296.082377,-8733.488677,-518.144159
4452.131906,296.082377,-8810.098227,-296.082377
4452.132230,518.144159,-8580.269578,-518.144159
4452.132554,222.061783,-8810.098227,-222.061783
4452.132878,444.123565,-8810.098227,-518.144159
4452.133203,518.144159,-8810.098227,-592.164754
4452.133527,592.164754,-8733.488677,-740.205942
4452.133851,1036.288319,-8503.660028,-444.123565
4452.134175,740.205942,-8580.269578,-666.185348
4452.134500,592.164754,-9116.536426,-592.164754
4452.134824,592.164754,-8427.050478,-518.144159
4452.135148,296.082377,-8963.317327,-962.267725
4452.135472,370.102971,-8810.098227,-592.164754
4452.135797,148.041188,-8580.269578,-296.082377
4452.136121,222.061783,-8810.098227,-518.144159
4452.136445,296.082377,-8656.879127,-444.123565
4452.136769,444.123565,-9039.926876,-592.164754
4452.137094,296.082377,-8810.098227,0.000000
4452.137418,444.123565,-8503.660028,0.000000
4452.137742,518.144159,-8656.879127,-518.144159
4452.138067,592.164754,-8503.660028,-444.123565
4452.138391,518.144159,-8197.221829,-592.164754
4452.138715,74.020594,-8503.660028,-296.082377
4452.139039,148.041188,-8427.050478,-370.102971
4452.139364,222.061783,-8656.879127,-592.164754
4452.139688,148.041188,-8580.269578,-370.102971
4452.140012,222.061783,-8427.050478,-666.185348
4452.140336,518.144159,-8580.269578,-296.082377
4452.140661,518.144159,-8503.660028,-444.123565
4452.140985,666.185348,-8427.050478,-296.082377
4452.141309,444.123565,-8120.612279,-444.123565
4452.141633,592.164754,-8810.098227,-518.144159
4452.141958,592.164754,-8580.269578,-592.164754
4452.142282,740.205942,-8656.879127,-814.226536
4452.142606,370.102971,-8580.269578,-962.267725
4452.142931,370.102971,-8963.317327,-296.082377
4452.143255,296.082377,-8656.879127,-370.102971
4452.143579,0.000000,-8350.440928,-296.082377
4452.143903,148.041188,-8580.269578,-518.144159
4452.144228,148.041188,-8273.831378,148.041188
4452.144552,296.082377,-8503.660028,-296.082377
4452.144876,296.082377,-8656.879127,-222.061783
4452.145200,666.185348,-8427.050478,-296.082377
4452.145525,592.164754,-9116.536426,-592.164754
4452.145849,518.144159,-8580.269578,-296.082377
4452.146173,370.102971,-8656.879127,-222.061783
4452.146497,444.123565,-8503.660028,-296.082377
4452.146822,370.102971,-8197.221829,-444.123565
4452.147146,296.082377,-8733.488677,-296.082377
4452.147470,222.061783,-8580.269578,-370.102971
4452.147794,370.102971,-8580.269578,0.000000
4452.148119,74.020594,-8273.831378,-592.164754
4452.148443,666.185348,-8810.098227,-296.082377
4452.148767,518.144159,-8044.002729,-74.020594
4452.149092,814.226536,-8580.269578,-518.144159
4452.149416,814.226536,-8503.660028,-370.102971
4452.149740,296.082377,-8503.660028,-444.123565
4452.150064,518.144159,-8580.269578,-592.164754
4452.150389,222.061783,-8656.879127,-444.123565
4452.150713,592.164754,-8810.098227,-592.164754
4452.151037,444.123565,-8886.707777,-148.041188
4452.151361,444.123565,-8503.660028,-518.144159
4452.151686,222.061783,-8886.707777,-296.082377
4452.152010,370.102971,-8580.269578,-370.102971
4452.152334,592.164754,-8963.317327,0.000000
4452.152658,444.123565,-8580.269578,-370.102971
4452.152983,740.205942,-8810.098227,-148.041188
4452.153307,444.123565,-8503.660028,-444.123565
4452.153631,592.164754,-8733.488677,-148.041188
4452.153955,370.102971,-8963.317327,-962.267725
4452.154280,814.226536,-8886.707777,-444.123565
4452.154604,518.144159,-8656.879127,-148.041188
4452.154928,296.082377,-8656.879127,-296.082377
4452.155253,74.020594,-9193.145976,-296.082377
4452.155577,222.061783,-8580.269578,0.000000
4452.155901,296.082377,-8580.269578,-370.102971
4452.156225,370.102971,-8810.098227,-74.020594
4452.156550,370.102971,-8427.050478,-148.041188
4452.156874,444.123565,-8656.879127,-370.102971
4452.157198,444.123565,-8810.098227,-222.061783
4452.157522,592.164754,-8733.488677,-444.123565
4452.157847,592.164754,-8656.879127,-444.123565
4452.158171,666.185348,-8350.440928,-148.041188
4452.158495,296.082377,-8580.269578,-444.123565
4452.158819,370.102971,-8580.269578,-592.164754
4452.159144,370.102971,-8427.050478,-444.123565
4452.159468,370.102971,-8273.831378,-518.144159
4452.159792,0.000000,-8427.050478,-296.082377
4452.160116,370.102971,-8350.440928,-518.144159
4452.160441,518.144159,-8580.269578,-518.144159
4452.160765,444.123565,-8273.831378,-370.102971
4452.161089,444.123565,-8810.098227,296.082377
4452.161414,592.164754,-8503.660028,-222.061783
4452.161738,518.144159,-8656.879127,-296.082377
4452.162062,444.123565,-8656.879127,-518.144159
4452.162386,370.102971,-9116.536426,0.000000
4452.162711,444.123565,-8273.831378,-148.041188
4452.163035,222.061783,-8503.660028,-518.144159
4452.163359,222.061783,-8427.050478,-222.061783
4452.163683,222.061783,-8350.440928,-148.041188
4452.164008,0.000000,-8120.612279,0.000000
4452.164332,370.102971,-8503.660028,0.000000
4452.164656,518.144159,-8656.879127,-148.041188
4452.164980,666.185348,-8427.050478,-148.041188
4452.165305,814.226536,-8656.879127,-518.144159
4452.165629,592.164754,-8733.488677,-370.102971
4452.165953,518.144159,-8273.831378,-444.123565
4452.166277,370.102971,-8580.269578,-444.123565
4452.166602,296.082377,-8656.879127,-444.123565
4452.166926,444.123565,-8503.660028,-296.082377
4452.167250,296.082377,-8273.831378,-296.082377
4452.167575,296.082377,-8656.879127,-222.061783
4452.167899,148.041188,-8580.269578,-444.123565
4452.168223,740.205942,-9039.926876,-370.102971
4452.168547,444.123565,-8427.050478,0.000000
4452.168872,222.061783,-8656.879127,-222.061783
4452.169196,222.061783,-8656.879127,-148.041188
4452.169520,444.123565,-8503.660028,-592.164754
4452.169844,370.102971,-8733.488677,-444.123565
4452.170169,444.123565,-8580.269578,-296.082377
4452.170493,296.082377,-8580.269578,0.000000
4452.170817,370.102971,-8733.488677,0.000000
4452.171141,444.123565,-8580.269578,0.000000
4452.171466,444.123565,-8427.050478,-296.082377
4452.171790,222.061783,-8273.831378,0.000000
4452.172114,370.102971,-8350.440928,0.000000
4452.172438,592.164754,-8427.050478,-370.102971
4452.172763,444.123565,-8503.660028,-296.082377
4452.173087,444.123565,-8273.831378,-370.102971
4452.173411,592.164754,-8733.488677,0.000000
4452.173736,666.185348,-8733.488677,-444.123565
4452.174060,888.247130,-8580.269578,-296.082377
4452.174384,666.185348,-8273.831378,-296.082377
4452.174708,444.123565,-8427.050478,-518.144159
4452.175033,518.144159,-8963.317327,-444.123565
4452.175357,296.082377,-8656.879127,-222.061783
4452.175681,370.102971,-8427.050478,-370.102971
4452.176005,370.102971,-8503.660028,-296.082377
4452.176330,370.102971,-8503.660028,0.000000
4452.176654,888.247130,-8963.317327,-296.082377
4452.176978,666.185348,-8580.269578,-444.123565
4452.177302,518.144159,-8733.488677,-222.061783
4452.177627,740.205942,-8503.660028,0.000000
4452.177951,444.123565,-8273.831378,-518.144159
4452.178275,592.164754,-8733.488677,-370.102971
4452.178599,444.123565,-8656.879127,-370.102971
4452.178924,444.123565,-8350.440928,-370.102971
4452.179248,296.082377,-8733.488677,-222.061783
4452.179572,444.123565,-8886.707777,0.000000
4452.179897,666.185348,-8427.050478,-296.082377
4452.180221,296.082377,-8503.660028,-370.102971
4452.180545,518.144159,-8656.879127,0.000000
4452.180869,518.144159,-9039.926876,0.000000
4452.181194,370.102971,-8656.879127,-222.061783
4452.181518,444.123565,-8580.269578,0.000000
4452.181842,592.164754,-8580.269578,-444.123565
4452.182166,444.123565,-9039.926876,-222.061783
4452.182491,296.082377,-8120.612279,0.000000
4452.182815,222.061783,-8350.440928,-222.061783
4452.183139,370.102971,-8580.269578,-444.123565
4452.183463,370.102971,-8273.831378,-296.082377
4452.183788,592.164754,-8503.660028,-296.082377
4452.184112,222.061783,-8580.269578,-444.123565
4452.184436,296.082377,-8580.269578,-370.102971
4452.184761,370.102971,-8580.269578,-370.102971
4452.185085,296.082377,-9116.536426,0.000000
4452.185409,370.102971,-8656.879127,-592.164754
4452.185733,444.123565,-8580.269578,-444.123565
4452.186058,444.123565,-8273.831378,-370.102971
4452.186382,444.123565,-8733.488677,-592.164754
4452.186706,740.205942,-8427.050478,-888.247130
4452.187030,148.041188,-8580.269578,-370.102971
4452.187355,518.144159,-8503.660028,-592.164754
4452.187679,74.020594,-8350.440928,-296.082377
4452.188003,592.164754,-8656.879127,-740.205942
4452.188327,74.020594,-8580.269578,-296.082377
4452.188652,222.061783,-8886.707777,-444.123565
4452.188976,74.020594,-8886.707777,-592.164754
4452.189300,1036.288319,-8656.879127,0.000000
4452.189624,518.144159,-8427.050478,-296.082377
4452.189949,370.102971,-8810.098227,-296.082377
4452.190273,592.164754,-8427.050478,-370.102971
4452.190597,444.123565,-8733.488677,-592.164754
4452.190922,444.123565,-8656.879127,-592.164754
4452.191246,296.082377,-8427.050478,-370.102971
4452.191570,296.082377,-8656.879127,-370.102971
4452.191894,74.020594,-8427.050478,-296.082377
4452.192219,1036.288319,-8503.660028,-518.144159
4452.192543,148.041188,-8656.879127,-296.082377
4452.192867,518.144159,-8656.879127,-370.102971
4452.193191,518.144159,-8886.707777,-444.123565
4452.193516,666.185348,-8656.879127,-518.144159
4452.193840,888.247130,-8427.050478,-444.123565
4452.194164,592.164754,-8733.488677,-444.123565
4452.194488,518.144159,-8503.660028,-370.102971
4452.194813,444.123565,-8503.660028,-370.102971
4452.195137,518.144159,-8427.050478,-518.144159
4452.195461,148.041188,-8580.269578,-370.102971
4452.195785,222.061783,-8503.660028,-148.041188
4452.196110,444.123565,-8656.879127,-370.102971
4452.196434,740.205942,-8963.317327,-74.020594
4452.196758,666.185348,-8886.707777,-148.041188
4452.197083,592.164754,-8427.050478,-222.061783
4452.197407,888.247130,-8656.879127,0.000000
4452.197731,666.185348,-8580.269578,0.000000
4452.198055,518.144159,-8733.488677,0.000000
4452.198380,296.082377,-8273.831378,-444.123565
4452.198704,592.164754,-8810.098227,0.000000
4452.199028,222.061783,-8503.660028,0.000000
4452.199352,0.000000,-8963.317327,0.000000
4452.199677,370.102971,-8427.050478,0.000000
4452.200001,222.061783,-8810.098227,0.000000
4452.200325,148.041188,-8580.269578,0.000000
4452.200649,222.061783,-7584.345430,148.041188
4452.200974,518.144159,-8733.488677,0.000000
4452.201298,444.123565,-8810.098227,-148.041188
4452.201622,518.144159,-8503.660028,0.000000
4452.201946,444.123565,-8733.488677,-222.061783
4452.202271,444.123565,-8427.050478,-296.082377
4452.202595,296.082377,-8503.660028,-518.144159
4452.202919,222.061783,-8656.879127,-592.164754
4452.203244,148.041188,-8503.660028,-296.082377
4452.203568,-148.041188,-7967.393179,-148.041188
4452.203892,148.041188,-8656.879127,-370.102971
4452.204216,148.041188,-8580.269578,-592.164754
4452.204541,518.144159,-8963.317327,-370.102971
4452.204865,296.082377,-9039.926876,74.020594
4452.205189,592.164754,-8886.707777,-518.144159
4452.205513,518.144159,-8656.879127,-666.185348
4452.205838,592.164754,-8733.488677,-296.082377
4452.206162,740.205942,-8656.879127,-888.247130
4452.206486,444.123565,-8656.879127,-666.185348
4452.206810,296.082377,-8656.879127,-592.164754
4452.207135,74.020594,-8810.098227,-518.144159
4452.207459,148.041188,-8810.098227,-370.102971
4452.207783,222.061783,-8197.221829,-222.061783
4452.208107,296.082377,-8656.879127,-592.164754
4452.208432,444.123565,-8503.660028,0.000000
4452.208756,592.164754,-8733.488677,-518.144159
4452.209080,592.164754,-8580.269578,148.041188
4452.209405,518.144159,-8427.050478,-518.144159
4452.209729,740.205942,-8963.317327,-444.123565
4452.210053,666.185348,-8503.660028,-518.144159
4452.210378,296.082377,-8503.660028,-222.061783
4452.210702,444.123565,-8273.831378,-370.102971
4452.211026,148.041188,-8273.831378,-444.123565
4452.211351,518.144159,-8273.831378,-444.123565
4452.211675,444.123565,-8886.707777,-296.082377
4452.211999,666.185348,-8120.612279,0.000000
4452.212324,444.123565,-8733.488677,-148.041188
4452.212648,74.020594,-8350.440928,-222.061783
4452.212972,666.185348,-8733.488677,-444.123565
4452.213297,592.164754,-8733.488677,0.000000
4452.213621,370.102971,-8580.269578,0.000000
4452.213945,222.061783,-8273.831378,-370.102971
4452.214270,296.082377,-8656.879127,-518.144159
4452.214594,444.123565,-8427.050478,-592.164754
4452.214918,444.123565,-8503.660028,-518.144159
4452.215243,148.041188,-8733.488677,-222.061783
4452.215567,296.082377,-8427.050478,-222.061783
4452.215891,444.123565,-8580.269578,-370.102971
4452.216216,148.041188,-7890.783629,74.020594
4452.216540,296.082377,-8810.098227,0.000000
4452.216864,222.061783,-8810.098227,-296.082377
4452.217189,74.020594,-8273.831378,0.000000
4452.217513,222.061783,-8656.879127,-296.082377
4452.217837,74.020594,-8580.269578,0.000000
4452.218162,444.123565,-8503.660028,-222.061783
4452.218486,740.205942,-8580.269578,-518.144159
4452.218810,518.144159,-8580.269578,0.000000
4452.219135,0.000000,-8197.221829,148.041188
4452.219459,296.082377,-8503.660028,0.000000
4452.219783,74.020594,-8656.879127,0.000000
4452.220108,666.185348,-8656.879127,-370.102971
4452.220432,444.123565,-8350.440928,0.000000
4452.220756,148.041188,-8580.269578,-296.082377
4452.221081,148.041188,-8733.488677,-444.123565
4452.221405,444.123565,-8733.488677,-444.123565
4452.221729,518.144159,-8503.660028,-222.061783
4452.222054,888.247130,-8580.269578,-518.144159
4452.222378,592.164754,-8197.221829,-296.082377
4452.222702,814.226536,-8656.879127,-518.144159
4452.223027,444.123565,-8810.098227,-666.185348
4452.223351,814.226536,-8656.879127,-888.247130
4452.223675,74.020594,-8810.098227,-296.082377
4452.224000,370.102971,-8656.879127,-370.102971
4452.224324,148.041188,-8886.707777,-222.061783
4452.224648,222.061783,-8503.660028,296.082377
4452.224973,444.123565,-8503.660028,-296.082377
4452.225297,740.205942,-8886.707777,0.000000
4452.225621,592.164754,-8503.660028,-370.102971
4452.225946,592.164754,-8503.660028,-296.082377
4452.226270,592.164754,-8810.098227,-296.082377
4452.226594,740.205942,-8580.269578,-296.082377
4452.226919,148.041188,-8427.050478,-518.144159
4452.227243,444.123565,-9039.926876,0.000000
4452.227567,296.082377,-8503.660028,-222.061783
4452.227892,148.041188,-8886.707777,0.000000
4452.228216,74.020594,-8427.050478,-592.164754
4452.228540,592.164754,-8503.660028,-296.082377
4452.228865,1036.288319,-8580.269578,-814.226536
4452.229189,740.205942,-8656.879127,-296.082377
4452.229513,666.185348,-8350.440928,-888.247130
4452.229838,592.164754,-8273.831378,-592.164754
4452.230162,444.123565,-8580.269578,-666.185348
4452.230486,592.164754,-8810.098227,-814.226536
4452.230811,592.164754,-8810.098227,-740.205942
4452.231135,296.082377,-8273.831378,-592.164754
4452.231459,148.041188,-8656.879127,-1036.288319
4452.231784,148.041188,-8733.488677,-296.082377
4452.232108,296.082377,-8427.050478,-370.102971
4452.232432,222.061783,-8580.269578,-518.144159
4452.232757,518.144159,-8733.488677,-592.164754
4452.233081,444.123565,-8350.440928,-222.061783
4452.233405,444.123565,-8733.488677,-370.102971
4452.233730,296.082377,-8273.831378,-592.164754
4452.234054,370.102971,-9039.926876,-518.144159
4452.234378,148.041188,-8427.050478,-444.123565
4452.234703,592.164754,-8580.269578,0.000000
4452.235027,222.061783,-8733.488677,-222.061783
4452.235351,444.123565,-8503.660028,-370.102971
4452.235676,814.226536,-8656.879127,-444.123565
4452.236000,888.247130,-8733.488677,-296.082377
4452.236324,444.123565,-8273.831378,-148.041188
4452.236649,592.164754,-8886.707777,-296.082377
4452.236973,518.144159,-8273.831378,-740.205942
4452.237297,592.164754,-8733.488677,-444.123565
4452.237622,888.247130,-8656.879127,-666.185348
4452.237946,592.164754,-8503.660028,0.000000
4452.238270,814.226536,-8427.050478,-814.226536
4452.238595,518.144159,-8886.707777,-518.144159
4452.238919,1036.288319,-8273.831378,-666.185348
4452.239243,518.144159,-8503.660028,-740.205942
4452.239568,518.144159,-8503.660028,-666.185348
4452.239892,592.164754,-8350.440928,-666.185348
4452.240216,888.247130,-8963.317327,-888.247130
4452.240541,370.102971,-8810.098227,-370.102971
4452.240865,222.061783,-8963.317327,-370.102971
4452.241189,518.144159,-8656.879127,-370.102971
4452.241514,296.082377,-8503.660028,-370.102971
4452.241838,148.041188,-8273.831378,-222.061783
4452.242162,592.164754,-8963.317327,-370.102971
4452.242487,444.123565,-8580.269578,-222.061783
4452.242811,444.123565,-8656.879127,-518.144159
4452.243135,296.082377,-8273.831378,-296.082377
4452.243460,296.082377,-8580.269578,-518.144159
4452.243784,296.082377,-8580.269578,-222.061783
4452.244108,74.020594,-8427.050478,-222.061783
4452.244433,148.041188,-8580.269578,-222.061783
4452.244757,370.102971,-8656.879127,-222.061783
4452.245081,370.102971,-8733.488677,-222.061783
4452.245406,370.102971,-8810.098227,-222.061783
4452.245730,740.205942,-8503.660028,-148.041188
4452.246054,666.185348,-8580.269578,-518.144159
4452.246379,444.123565,-8656.879127,-296.082377
4452.246703,296.082377,-8273.831378,-222.061783
4452.247027,222.061783,-8427.050478,-296.082377
4452.247352,0.000000,-8273.831378,-518.144159
4452.247676,74.020594,-8656.879127,-296.082377
4452.248000,148.041188,-8656.879127,-518.144159
4452.248325,296.082377,-8503.660028,0.000000
4452.248649,592.164754,-7967.393179,0.000000
4452.248973,222.061783,-8350.440928,0.000000
4452.249298,740.205942,-8427.050478,-296.082377
4452.249622,666.185348,-8733.488677,-296.082377
4452.249946,518.144159,-8427.050478,-296.082377
4452.250271,296.082377,-8350.440928,-296.082377
4452.250595,444.123565,-8503.660028,-296.082377
4452.250919,222.061783,-8580.269578,0.000000
4452.251244,370.102971,-8503.660028,-296.082377
4452.251568,740.205942,-8580.269578,0.000000
4452.251892,444.123565,-8197.221829,0.000000
4452.252217,370.102971,-8580.269578,-222.061783
4452.252541,444.123565,-8427.050478,0.000000
4452.252865,518.144159,-8350.440928,-370.102971
4452.253190,518.144159,-8656.879127,-592.164754
4452.253514,666.185348,-8656.879127,-296.082377
4452.253838,740.205942,-8273.831378,-148.041188
4452.254163,666.185348,-8656.879127,-296.082377
4452.254487,370.102971,-8503.660028,-148.041188
4452.254811,592.164754,-8350.440928,-518.144159
4452.255135,222.061783,-8503.660028,-148.041188
4452.255460,296.082377,-8273.831378,-296.082377
4452.255784,148.041188,-9499.584175,-222.061783
4452.256108,148.041188,-8580.269578,-370.102971
4452.256433,518.144159,-8503.660028,-444.123565
4452.256757,296.082377,-8427.050478,-444.123565
4452.257081,370.102971,-8580.269578,-296.082377
4452.257406,518.144159,-8810.098227,-518.144159
4452.257730,518.144159,-8886.707777,-518.144159
4452.258054,518.144159,-8580.269578,-592.164754
4452.258379,518.144159,-8656.879127,-518.144159
4452.258703,740.205942,-9039.926876,-592.164754
4452.259027,444.123565,-8733.488677,-592.164754
4452.259352,518.144159,-8886.707777,-592.164754
4452.259676,444.123565,-8656.879127,-592.164754
4452.260000,296.082377,-8656.879127,-518.144159
4452.260325,370.102971,-8733.488677,-592.164754
4452.260649,296.082377,-8656.879127,-518.144159
4452.260973,296.082377,-8733.488677,-592.164754
4452.261298,444.123565,-8656.879127,-592.164754
4452.261622,740.205942,-8810.098227,-814.226536
4452.261946,592.164754,-8810.098227,-666.185348
4452.262271,740.205942,-8580.269578,-592.164754
4452.262595,444.123565,-8886.707777,-666.185348
4452.262919,592.164754,-9269.755526,-814.226536
4452.263244,296.082377,-8580.269578,-518.144159
4452.263568,148.041188,-8580.269578,-518.144159
4452.263892,148.041188,-8580.269578,-370.102971
4452.264217,148.041188,-8273.831378,-296.082377
4452.264541,518.144159,-8886.707777,-444.123565
4452.264865,370.102971,-8580.269578,-222.061783
4452.265190,296.082377,-8810.098227,-370.102971
4452.265514,592.164754,-8810.098227,-222.061783
4452.265838,296.082377,-8350.440928,222.061783
4452.266163,518.144159,-8580.269578,-296.082377
4452.266487,518.144159,-8580.269578,-222.061783
4452.266811,592.164754,-8503.660028,-370.102971
4452.267136,592.164754,-7660.954980,0.000000
4452.267460,0.000000,-8427.050478,0.000000
4452.267784,222.061783,-8273.831378,-222.061783
4452.268109,518.144159,-8503.660028,0.000000
4452.268433,296.082377,-8503.660028,-148.041188
4452.268757,296.082377,-8580.269578,-222.061783
4452.269082,592.164754,-8197.221829,0.000000
4452.269406,592.164754,-8197.221829,-222.061783
4452.269730,888.247130,-8580.269578,-444.123565
4452.270055,592.164754,-8427.050478,0.000000
4452.270379,666.185348,-8503.660028,-296.082377
4452.270703,296.082377,-8427.050478,-296.082377
4452.271028,370.102971,-8503.660028,-370.102971
4452.271352,444.123565,-7967.393179,-296.082377
4452.271676,296.082377,-8197.221829,0.000000
4452.272001,148.041188,-8580.269578,-222.061783
4452.272325,444.123565,-8580.269578,-148.041188
4452.272649,296.082377,-8350.440928,0.000000
4452.272974,666.185348,-8503.660028,74.020594
4452.273298,444.123565,-8733.488677,0.000000
4452.273622,518.144159,-8503.660028,-74.020594
4452.273947,592.164754,-8503.660028,-444.123565
4452.274271,444.123565,-8120.612279,-222.061783
4452.274595,296.082377,-8580.269578,74.020594
4452.274920,370.102971,-8963.317327,-148.041188
4452.275244,370.102971,-8427.050478,0.000000
4452.275568,592.164754,-8963.317327,-740.205942
4452.275893,592.164754,-8963.317327,-444.123565
4452.276217,518.144159,-8427.050478,-222.061783
4452.276541,222.061783,-8963.317327,0.000000
4452.276866,444.123565,-8810.098227,-592.164754
4452.277190,370.102971,-8580.269578,-370.102971
4452.277514,592.164754,-8810.098227,-518.144159
4452.277839,444.123565,-8733.488677,-518.144159
4452.278163,518.144159,-8810.098227,-444.123565
4452.278487,592.164754,-8963.317327,-888.247130
4452.278812,518.144159,-8656.879127,-592.164754
4452.279136,74.020594,-8963.317327,-370.102971
4452.279460,370.102971,-8656.879127,-666.185348
4452.279785,296.082377,-8580.269578,-370.102971
4452.280109,74.020594,-9116.536426,-518.144159
4452.280433,370.102971,-8733.488677,-518.144159
4452.280758,814.226536,-8733.488677,-444.123565
4452.281082,444.123565,-8733.488677,-666.185348
4452.281406,814.226536,-8580.269578,-370.102971
4452.281731,518.144159,-8427.050478,-222.061783
4452.282055,518.144159,-8427.050478,-370.102971
4452.282379,370.102971,-8580.269578,-296.082377
4452.282704,444.123565,-8580.269578,-370.102971
4452.283028,296.082377,-8503.660028,-444.123565
4452.283352,222.061783,-8580.269578,-518.144159
4452.283677,0.000000,-8427.050478,-444.123565
4452.284001,74.020594,-8503.660028,-296.082377
4452.284325,666.185348,-8656.879127,-592.164754
4452.284650,666.185348,-8656.879127,-370.102971
4452.284974,518.144159,-8503.660028,-370.102971
4452.285298,666.185348,-8503.660028,-444.123565
4452.285623,1036.288319,-8427.050478,-444.123565
4452.285947,592.164754,-8656.879127,-592.164754
4452.286271,666.185348,-8580.269578,-888.247130
4452.286596,518.144159,-7814.174080,-296.082377
4452.286920,518.144159,-9269.755526,-740.205942
4452.287244,0.000000,-8427.050478,-370.102971
4452.287569,222.061783,-8503.660028,-148.041188
4452.287893,444.123565,-8503.660028,-444.123565
4452.288217,296.082377,-8503.660028,0.000000
4452.288542,74.020594,-8273.831378,0.000000
4452.288866,518.144159,-8503.660028,0.000000
4452.289190,222.061783,-8810.098227,0.000000
4452.289515,592.164754,-8886.707777,-222.061783
4452.289839,74.020594,-8197.221829,-222.061783
4452.290163,444.123565,-8427.050478,0.000000
4452.290488,0.000000,-8503.660028,-148.041188
4452.290812,222.061783,-8580.269578,0.000000
4452.291136,222.061783,-8427.050478,-518.144159
4452.291461,296.082377,-8427.050478,0.000000
4452.291785,370.102971,-8427.050478,-148.041188
4452.292109,518.144159,-8580.269578,0.000000
4452.292434,296.082377,-8580.269578,0.000000
4452.292758,0.000000,-8656.879127,-222.061783
4452.293082,444.123565,-8580.269578,-666.185348
4452.293407,518.144159,-8350.440928,-148.041188
4452.293731,666.185348,-8503.660028,-666.185348
4452.294055,592.164754,-8350.440928,-370.102971
4452.294380,370.102971,-8273.831378,-444.123565
4452.294704,518.144159,-8656.879127,-592.164754
4452.295028,370.102971,-8350.440928,-814.226536
4452.295353,296.082377,-8503.660028,0.000000
4452.295677,370.102971,-8427.050478,-592.164754
4452.296001,370.102971,-8656.879127,-518.144159
4452.296326,296.082377,-8963.317327,-814.226536
4452.296650,222.061783,-8656.879127,-666.185348
4452.296974,666.185348,-8810.098227,-296.082377
4452.297299,444.123565,-8810.098227,-148.041188
4452.297623,740.205942,-8656.879127,-518.144159
4452.297947,296.082377,-8656.879127,-444.123565
4452.298272,296.082377,-9269.755526,222.061783
4452.298596,222.061783,-8656.879127,-296.082377
4452.298920,222.061783,-8580.269578,-296.082377
4452.299245,592.164754,-8656.879127,0.000000
4452.299569,370.102971,-9039.926876,-148.041188
4452.299893,296.082377,-8656.879127,-148.041188
4452.300218,222.061783,-8427.050478,0.000000
4452.300542,370.102971,-8963.317327,0.000000
4452.300866,222.061783,-8656.879127,-370.102971
4452.301191,444.123565,-8197.221829,0.000000
4452.301515,666.185348,-8503.660028,0.000000
4452.301839,592.164754,-8810.098227,-296.082377
4452.302164,814.226536,-8273.831378,-370.102971
4452.302488,592.164754,-8733.488677,222.061783
4452.302812,518.144159,-8503.660028,-444.123565
4452.303137,370.102971,-8503.660028,-296.082377
4452.303461,148.041188,-8427.050478,-666.185348
4452.303785,444.123565,-8503.660028,0.000000
4452.304110,74.020594,-8580.269578,-148.041188
4452.304434,370.102971,-8810.098227,-444.123565
4452.304758,370.102971,-8580.269578,-370.102971
4452.305083,666.185348,-8886.707777,-296.082377
4452.305407,370.102971,-8656.879127,0.000000
4452.305731,148.041188,-8427.050478,0.000000
4452.306056,518.144159,-8580.269578,-592.164754
4452.306380,370.102971,-8350.440928,-370.102971
4452.306704,0.000000,-8503.660028,-296.082377
4452.307029,444.123565,-8580.269578,-518.144159
4452.307353,518.144159,-8120.612279,-222.061783
4452.307677,0.000000,-8427.050478,0.000000
4452.308002,0.000000,-8580.269578,-370.102971
4452.308326,444.123565,-8273.831378,-370.102971
4452.308650,148.041188,-8656.879127,-296.082377
4452.308975,296.082377,-8580.269578,0.000000
4452.309299,296.082377,-8273.831378,-222.061783
4452.309623,1036.288319,-8963.317327,-370.102971
4452.309948,444.123565,-8427.050478,-592.164754
4452.310272,444.123565,-8580.269578,-592.164754
4452.310596,666.185348,-8503.660028,-370.102971
4452.310920,444.123565,-8810.098227,-370.102971
4452.311245,444.123565,-8580.269578,-666.185348
4452.311569,222.061783,-8503.660028,-666.185348
4452.311893,370.102971,-8580.269578,-444.123565
4452.312218,148.041188,-8580.269578,-370.102971
4452.312542,222.061783,-9116.536426,-222.061783
4452.312866,370.102971,-8427.050478,-666.185348
4452.313191,370.102971,-8580.269578,-296.082377
4452.313515,444.123565,-8350.440928,-592.164754
4452.313839,1110.308913,-9193.145976,-814.226536
4452.314164,518.144159,-8733.488677,-518.144159
4452.314488,740.205942,-8580.269578,-518.144159
4452.314812,148.041188,-8810.098227,-740.205942
4452.315137,518.144159,-8656.879127,-444.123565
4452.315461,74.020594,-8503.660028,-444.123565
4452.315785,370.102971,-8580.269578,-444.123565
4452.316109,296.082377,-8427.050478,-518.144159
4452.316434,296.082377,-8963.317327,-296.082377
4452.316758,444.123565,-8580.269578,-74.020594
4452.317082,592.164754,-8656.879127,-370.102971
4452.317407,592.164754,-8580.269578,-296.082377
4452.317731,666.185348,-8197.221829,-148.041188
4452.318055,740.205942,-8810.098227,-222.061783
