#time,accel_x,accel_y,accel_z
4055.491515,-1036.288319,-9729.412825,-740.205942
4055.491839,-962.267725,-9652.803275,-1036.288319
4055.492164,-1406.391290,-9422.974625,-1036.288319
4055.492488,-1480.411884,-9193.145976,-1184.329507
4055.492812,-1184.329507,-9193.145976,-1110.308913
4055.493136,-518.144159,-9193.145976,-1258.350101
4055.493460,-1184.329507,-9039.926876,-814.226536
4055.493785,-222.061783,-8656.879127,-962.267725
4055.494109,148.041188,-9039.926876,-1110.308913
4055.494433,518.144159,-9959.241474,-1702.473667
4055.494757,0.000000,-9193.145976,-1850.514855
4055.495082,-1184.329507,-9652.803275,-1110.308913
4055.495406,-1776.494261,-9346.365076,-740.205942
4055.495730,-2738.761985,-9116.536426,-1184.329507
4055.496054,-2368.659014,-9882.631924,-888.247130
4055.496378,-2812.782580,-9116.536426,-814.226536
4055.496703,-2664.741391,-8810.098227,-814.226536
4055.497027,-2516.700203,-8733.488677,-740.205942
4055.497351,-2072.576638,-7814.174080,-1184.329507
4055.497675,-1702.473667,-8427.050478,-1184.329507
4055.497999,-2072.576638,-8733.488677,-296.082377
4055.498324,-2516.700203,-8580.269578,-370.102971
4055.498648,-2886.803174,-8656.879127,-444.123565
4055.498972,-3478.967927,-8656.879127,-370.102971
4055.499296,-3552.988522,-8656.879127,0.000000
4055.499621,-3627.009116,-8580.269578,0.000000
4055.499945,-3404.947333,-8886.707777,518.144159
4055.500269,-3552.988522,-8273.831378,296.082377
4055.500593,-3182.885551,-8656.879127,666.185348
4055.500917,-3182.885551,-7584.345430,-296.082377
4055.501242,-2664.741391,-8350.440928,74.020594
4055.501566,-3034.844362,-7584.345430,0.000000
4055.501890,-3034.844362,-8120.612279,592.164754
4055.502214,-3330.926739,-8197.221829,296.082377
4055.502538,-3701.029710,-8350.440928,740.205942
4055.502863,-3849.070898,-8656.879127,0.000000
4055.503187,-3034.844362,-8427.050478,444.123565
4055.503511,-3034.844362,-8197.221829,1332.370696
4055.503835,-2738.761985,-8273.831378,518.144159
4055.504160,-2294.638420,-8503.660028,296.082377
4055.504484,-2072.576638,-7967.393179,444.123565
4055.504808,-1332.370696,-8197.221829,370.102971
4055.505133,-1702.473667,-8044.002729,370.102971
4055.505458,-1554.432478,-8427.050478,148.041188
4055.505782,-2220.617826,-8273.831378,0.000000
4055.506107,-2294.638420,-8120.612279,444.123565
4055.506431,-2220.617826,-8580.269578,148.041188
4055.506756,-2294.638420,-8656.879127,0.000000
4055.507080,-2072.576638,-9269.755526,0.000000
4055.507405,-1702.473667,-8733.488677,0.000000
4055.507730,-1332.370696,-8733.488677,-592.164754
4055.508054,-962.267725,-8580.269578,-518.144159
4055.508379,-1258.350101,-8427.050478,-370.102971
4055.508703,-1036.288319,-8427.050478,-518.144159
4055.509028,-666.185348,-8427.050478,-592.164754
4055.509352,-370.102971,-8503.660028,-666.185348
4055.509677,-296.082377,-8503.660028,-592.164754
4055.510002,0.000000,-9116.536426,-888.247130
4055.510326,518.144159,-8656.879127,-666.185348
4055.510651,444.123565,-8963.317327,-1110.308913
4055.510975,814.226536,-9193.145976,-1406.391290
4055.511300,592.164754,-8733.488677,-1480.411884
4055.511624,296.082377,-8810.098227,-1480.411884
4055.511949,74.020594,-8810.098227,-1554.432478
4055.512274,0.000000,-9039.926876,-1628.453072
4055.512598,-222.061783,-9116.536426,-1702.473667
4055.512923,-962.267725,-8810.098227,-1332.370696
4055.513247,-1110.308913,-8810.098227,-1850.514855
4055.513572,-740.205942,-9039.926876,-1776.494261
4055.513896,74.020594,-8656.879127,-1184.329507
4055.514221,0.000000,-9116.536426,-1184.329507
4055.514546,1406.391290,-9193.145976,-1258.350101
4055.514870,1628.453072,-8580.269578,-1628.453072
4055.515195,2368.659014,-9652.803275,-1258.350101
4055.515519,2072.576638,-8810.098227,-1480.411884
4055.515844,2072.576638,-9346.365076,-814.226536
4055.516168,1628.453072,-9116.536426,-888.247130
4055.516493,888.247130,-9269.755526,-666.185348
4055.516818,444.123565,-9422.974625,-814.226536
4055.517142,296.082377,-8810.098227,74.020594
4055.517467,296.082377,-8580.269578,-370.102971
4055.517791,888.247130,-9039.926876,-148.041188
4055.518116,1924.535449,-8580.269578,-370.102971
4055.518440,2368.659014,-9039.926876,0.000000
4055.518765,2442.679609,-8503.660028,-518.144159
4055.519090,2442.679609,-9193.145976,0.000000
4055.519414,1628.453072,-9039.926876,148.041188
4055.519739,814.226536,-9039.926876,222.061783
4055.520063,148.041188,-9116.536426,592.164754
4055.520388,-962.267725,-8886.707777,296.082377
4055.520712,-2072.576638,-8273.831378,296.082377
4055.521037,-2516.700203,-7737.564530,444.123565
4055.521362,-2590.720797,-7507.735880,1184.329507
4055.521686,-2072.576638,-7584.345430,370.102971
4055.522011,-1110.308913,-7431.126331,518.144159
4055.522335,-370.102971,-7124.688131,74.020594
4055.522660,592.164754,-8120.612279,666.185348
4055.522984,888.247130,-8044.002729,592.164754
4055.523309,1554.432478,-8273.831378,518.144159
4055.523634,1036.288319,-8273.831378,666.185348
4055.523958,148.041188,-8810.098227,370.102971
4055.524283,-370.102971,-8273.831378,1184.329507
4055.524607,-666.185348,-8427.050478,444.123565
4055.524932,-814.226536,-8273.831378,0.000000
4055.525256,222.061783,-7660.954980,0.000000
4055.525581,370.102971,-8044.002729,296.082377
4055.525906,1628.453072,-8120.612279,74.020594
4055.526230,2146.597232,-7890.783629,0.000000
4055.526555,2812.782580,-8273.831378,0.000000
4055.526879,2960.823768,-8656.879127,0.000000
4055.527204,2664.741391,-8963.317327,0.000000
4055.527528,1850.514855,-9346.365076,-148.041188
4055.527853,592.164754,-9422.974625,370.102971
4055.528178,-296.082377,-9806.022374,-370.102971
4055.528502,-1480.411884,-9499.584175,-518.144159
4055.528827,-2146.597232,-9039.926876,-666.185348
4055.529151,-3034.844362,-8656.879127,-444.123565
4055.529476,-2368.659014,-8427.050478,-740.205942
4055.529800,-1480.411884,-8044.002729,-666.185348
4055.530125,-222.061783,-8503.660028,-370.102971
4055.530450,296.082377,-7584.345430,-1332.370696
4055.530774,1554.432478,-8810.098227,-740.205942
4055.531099,1184.329507,-8197.221829,-1110.308913
4055.531423,1702.473667,-9652.803275,-444.123565
4055.531748,148.041188,-9039.926876,-962.267725
4055.532072,222.061783,-9576.193725,-1258.350101
4055.532397,-1036.288319,-9116.536426,-1554.432478
4055.532722,-1332.370696,-9729.412825,-962.267725
4055.533046,-962.267725,-8810.098227,-1924.535449
4055.533371,0.000000,-8580.269578,-1628.453072
4055.533695,1184.329507,-8197.221829,-1110.308913
4055.534020,2812.782580,-7814.174080,-1332.370696
4055.534344,3997.112087,-8427.050478,-1258.350101
4055.534669,4663.297435,-7967.393179,-962.267725
4055.534994,4959.379811,-9039.926876,-1480.411884
4055.535318,4145.153275,-9499.584175,-1406.391290
4055.535643,3182.885551,-9499.584175,-666.185348
4055.535967,1110.308913,-9729.412825,-1110.308913
4055.536292,-592.164754,-9729.412825,-888.247130
4055.536616,-2146.597232,-9576.193725,-592.164754
4055.536941,-1924.535449,-8580.269578,-296.082377
4055.537266,-2960.823768,-8427.050478,-666.185348
4055.537590,-1924.535449,-8120.612279,-666.185348
4055.537915,-888.247130,-8044.002729,-148.041188
4055.538239,148.041188,-7890.783629,-222.061783
4055.538564,1110.308913,-8350.440928,0.000000
4055.538888,962.267725,-8273.831378,-222.061783
4055.539213,1184.329507,-8503.660028,0.000000
4055.539538,0.000000,-8656.879127,148.041188
4055.539862,-1036.288319,-9346.365076,888.247130
4055.540187,-1628.453072,-8810.098227,0.000000
4055.540511,-1924.535449,-9116.536426,74.020594
4055.540836,-1850.514855,-8044.002729,148.041188
4055.541160,-1036.288319,-7737.564530,370.102971
4055.541485,370.102971,-7354.516781,148.041188
4055.541810,2072.576638,-7354.516781,814.226536
4055.542134,3330.926739,-7354.516781,74.020594
4055.542459,4441.235652,-7737.564530,740.205942
4055.542783,4811.338623,-7737.564530,0.000000
4055.543108,4441.235652,-8503.660028,296.082377
4055.543432,3404.947333,-9039.926876,148.041188
4055.543757,1406.391290,-9422.974625,222.061783
4055.544082,-666.185348,-9269.755526,814.226536
4055.544406,-2146.597232,-9193.145976,518.144159
4055.544731,-2738.761985,-9269.755526,74.020594
4055.545055,-3182.885551,-8044.002729,444.123565
4055.545380,-2220.617826,-8350.440928,814.226536
4055.545704,-1184.329507,-7584.345430,0.000000
4055.546029,592.164754,-7737.564530,370.102971
4055.546354,1480.411884,-7507.735880,0.000000
4055.546678,2072.576638,-8273.831378,444.123565
4055.547003,1554.432478,-8120.612279,296.082377
4055.547327,814.226536,-9116.536426,518.144159
4055.547652,0.000000,-8810.098227,74.020594
4055.547976,-1406.391290,-10035.851024,222.061783
4055.548301,-1554.432478,-9193.145976,-518.144159
4055.548626,-2220.617826,-8963.317327,0.000000
4055.548950,-1924.535449,-9116.536426,-370.102971
4055.549275,-962.267725,-7967.393179,-518.144159
4055.549599,888.247130,-6818.249932,-444.123565
4055.549924,2368.659014,-7354.516781,-740.205942
4055.550248,3923.091493,-7660.954980,-666.185348
4055.550573,4367.215058,-8044.002729,-740.205942
4055.550898,4441.235652,-8580.269578,-888.247130
4055.551222,4219.173869,-8733.488677,-1110.308913
4055.551547,3034.844362,-9499.584175,-962.267725
4055.551871,1036.288319,-9729.412825,-814.226536
4055.552196,-592.164754,-9882.631924,-370.102971
4055.552520,-2072.576638,-9806.022374,-666.185348
4055.552845,-2590.720797,-9346.365076,-740.205942
4055.553170,-2442.679609,-8733.488677,-962.267725
4055.553494,-1332.370696,-8580.269578,-740.205942
4055.553819,0.000000,-7890.783629,-740.205942
4055.554143,814.226536,-8273.831378,-592.164754
4055.554468,1628.453072,-8197.221829,-444.123565
4055.554792,1998.556043,-8656.879127,-666.185348
4055.555117,1480.411884,-8963.317327,-592.164754
4055.555442,962.267725,-9269.755526,0.000000
4055.555766,-444.123565,-9806.022374,-370.102971
4055.556091,-1184.329507,-10189.070123,-962.267725
4055.556415,-1998.556043,-9806.022374,-740.205942
4055.556740,-2072.576638,-9576.193725,-666.185348
4055.557064,-1850.514855,-8656.879127,-666.185348
4055.557389,-444.123565,-8120.612279,-222.061783
4055.557714,1110.308913,-7737.564530,-740.205942
4055.558038,3034.844362,-7277.907231,-592.164754
4055.558363,4145.153275,-7814.174080,-888.247130
4055.558687,4441.235652,-7660.954980,-962.267725
4055.559012,4589.276840,-8044.002729,-962.267725
4055.559336,3108.864956,-8963.317327,-1036.288319
4055.559661,1702.473667,-9269.755526,-592.164754
4055.559986,0.000000,-9499.584175,-370.102971
4055.560310,-1628.453072,-9422.974625,-222.061783
4055.560635,-2664.741391,-9729.412825,0.000000
4055.560959,-2368.659014,-8810.098227,74.020594
4055.561284,-2294.638420,-8427.050478,0.000000
4055.561608,-1332.370696,-7890.783629,0.000000
4055.561933,0.000000,-7354.516781,74.020594
4055.562258,1998.556043,-7737.564530,74.020594
4055.562582,2294.638420,-7431.126331,0.000000
4055.562907,2294.638420,-8197.221829,740.205942
4055.563231,1702.473667,-8350.440928,222.061783
4055.563556,1258.350101,-9346.365076,74.020594
4055.563880,0.000000,-9422.974625,74.020594
4055.564205,-814.226536,-9959.241474,296.082377
4055.564530,-2294.638420,-9269.755526,74.020594
4055.564854,-1924.535449,-9269.755526,592.164754
4055.565179,-1184.329507,-8273.831378,0.000000
4055.565503,-444.123565,-7737.564530,370.102971
4055.565828,1332.370696,-7048.078582,-222.061783
4055.566152,2886.803174,-7277.907231,0.000000
4055.566477,4145.153275,-7201.297681,-370.102971
4055.566802,4367.215058,-7431.126331,-370.102971
4055.567126,4145.153275,-8427.050478,-296.082377
4055.567451,2812.782580,-8656.879127,0.000000
4055.567775,1258.350101,-9193.145976,-444.123565
4055.568100,-370.102971,-9806.022374,-518.144159
4055.568424,-1554.432478,-9652.803275,-370.102971
4055.568749,-2886.803174,-9346.365076,-518.144159
4055.569074,-2664.741391,-9116.536426,-370.102971
4055.569398,-2368.659014,-7890.783629,-370.102971
4055.569723,-1036.288319,-8120.612279,-444.123565
4055.570047,148.041188,-7890.783629,-592.164754
4055.570372,1184.329507,-7660.954980,-296.082377
4055.570696,1998.556043,-7890.783629,-740.205942
4055.571021,2146.597232,-8810.098227,-740.205942
4055.571346,1702.473667,-9193.145976,-518.144159
4055.571670,592.164754,-9422.974625,0.000000
4055.571995,-740.205942,-9806.022374,-370.102971
4055.572319,-2220.617826,-10035.851024,-814.226536
4055.572644,-1850.514855,-9576.193725,-296.082377
4055.572968,-2294.638420,-9039.926876,-296.082377
4055.573293,-1258.350101,-8810.098227,-592.164754
4055.573618,0.000000,-7354.516781,-518.144159
4055.573942,2146.597232,-7584.345430,-666.185348
4055.574267,2812.782580,-7584.345430,-1406.391290
4055.574591,3849.070898,-8044.002729,-1036.288319
4055.574916,3997.112087,-7890.783629,-1480.411884
4055.575240,3182.885551,-9039.926876,-888.247130
4055.575565,1776.494261,-9422.974625,-962.267725
4055.575890,222.061783,-10035.851024,-592.164754
4055.576214,-888.247130,-9729.412825,-518.144159
4055.576539,-1850.514855,-9193.145976,0.000000
4055.576863,-2294.638420,-9576.193725,-296.082377
4055.577188,-1924.535449,-8580.269578,-518.144159
4055.577512,-740.205942,-8273.831378,-148.041188
4055.577837,148.041188,-7507.735880,-148.041188
4055.578162,1184.329507,-7967.393179,444.123565
4055.578486,1998.556043,-6665.030833,-296.082377
4055.578811,2812.782580,-8350.440928,74.020594
4055.579135,2146.597232,-8273.831378,-518.144159
4055.579460,1258.350101,-9346.365076,296.082377
4055.579784,0.000000,-8886.707777,0.000000
4055.580109,-1184.329507,-9806.022374,74.020594
4055.580434,-2368.659014,-9346.365076,-370.102971
4055.580758,-2516.700203,-9193.145976,-74.020594
4055.581083,-2072.576638,-8350.440928,0.000000
4055.581407,-1110.308913,-7584.345430,-74.020594
4055.581732,1184.329507,-7584.345430,-222.061783
4055.582056,2664.741391,-6818.249932,-296.082377
4055.582381,4367.215058,-7201.297681,-888.247130
4055.582706,4811.338623,-7277.907231,-518.144159
4055.583030,5181.441594,-7814.174080,-148.041188
4055.583355,3923.091493,-8273.831378,-592.164754
4055.583679,2220.617826,-9039.926876,-444.123565
4055.584004,148.041188,-8886.707777,0.000000
4055.584328,-1184.329507,-9576.193725,74.020594
4055.584653,-2368.659014,-9269.755526,-444.123565
4055.584978,-3330.926739,-9422.974625,0.000000
4055.585302,-2664.741391,-8733.488677,-222.061783
4055.585627,-2220.617826,-8044.002729,-222.061783
4055.585951,-370.102971,-7507.735880,-444.123565
4055.586276,740.205942,-7660.954980,-296.082377
4055.586600,1258.350101,-7507.735880,-296.082377
4055.586925,1628.453072,-8044.002729,0.000000
4055.587250,1258.350101,-8503.660028,-296.082377
4055.587574,296.082377,-9116.536426,-148.041188
4055.587899,-296.082377,-9882.631924,-518.144159
4055.588223,-1480.411884,-9806.022374,-222.061783
4055.588548,-2368.659014,-9882.631924,0.000000
4055.588872,-2368.659014,-9346.365076,0.000000
4055.589197,-1480.411884,-9806.022374,-370.102971
4055.589522,-222.061783,-8350.440928,-888.247130
4055.589846,1850.514855,-7507.735880,-518.144159
4055.590171,3330.926739,-7354.516781,-888.247130
4055.590495,3701.029710,-7737.564530,-1110.308913
4055.590820,4589.276840,-8044.002729,-1332.370696
4055.591144,3330.926739,-8580.269578,-1406.391290
4055.591469,1850.514855,-9346.365076,-1036.288319
4055.591794,296.082377,-9269.755526,-814.226536
4055.592118,-1258.350101,-10572.117872,-370.102971
4055.592443,-2516.700203,-9652.803275,-814.226536
4055.592767,-2960.823768,-10035.851024,-666.185348
4055.593092,-2368.659014,-9193.145976,-1110.308913
4055.593416,-1850.514855,-8810.098227,0.000000
4055.593741,0.000000,-7737.564530,-370.102971
4055.594066,888.247130,-7507.735880,-370.102971
4055.594390,2294.638420,-7660.954980,-370.102971
4055.594715,2590.720797,-7660.954980,-222.061783
4055.595039,2664.741391,-8656.879127,-148.041188
4055.595364,1332.370696,-8733.488677,0.000000
4055.595688,814.226536,-9806.022374,0.000000
4055.596013,-1184.329507,-9729.412825,-222.061783
4055.596338,-1702.473667,-10189.070123,0.000000
4055.596662,-2886.803174,-9269.755526,0.000000
4055.596987,-2146.597232,-9346.365076,148.041188
4055.597311,-1850.514855,-8427.050478,-296.082377
4055.597636,0.000000,-8120.612279,0.000000
4055.597960,2294.638420,-7584.345430,-592.164754
4055.598285,3701.029710,-7201.297681,-296.082377
4055.598610,4737.318029,-7354.516781,-814.226536
4055.598934,5107.421000,-7507.735880,-296.082377
4055.599259,4515.256246,-8350.440928,-296.082377
4055.599583,3182.885551,-8656.879127,-296.082377
4055.599908,2072.576638,-9652.803275,0.000000
4055.600232,-222.061783,-9422.974625,-148.041188
4055.600557,-1036.288319,-9806.022374,74.020594
4055.600882,-1924.535449,-9193.145976,-148.041188
4055.601206,-2220.617826,-9039.926876,296.082377
4055.601531,-1702.473667,-7890.783629,-518.144159
4055.601855,0.000000,-8197.221829,518.144159
4055.602180,444.123565,-7584.345430,-666.185348
4055.602504,1406.391290,-7431.126331,0.000000
4055.602829,1258.350101,-7660.954980,-370.102971
4055.603154,1258.350101,-8580.269578,-148.041188
4055.603478,740.205942,-9346.365076,-444.123565
4055.603803,-666.185348,-9576.193725,222.061783
4055.604127,-1554.432478,-9806.022374,0.000000
4055.604452,-2738.761985,-9729.412825,-148.041188
4055.604776,-2442.679609,-9959.241474,222.061783
4055.605101,-2220.617826,-8886.707777,-222.061783
4055.605426,-1036.288319,-8656.879127,74.020594
4055.605750,518.144159,-7814.174080,0.000000
4055.606074,2886.803174,-7584.345430,-666.185348
4055.606399,3404.947333,-7431.126331,-962.267725
4055.606723,4293.194464,-7584.345430,-1036.288319
4055.607047,3997.112087,-7890.783629,-1332.370696
4055.607372,3034.844362,-8656.879127,-814.226536
4055.607696,814.226536,-8963.317327,-296.082377
4055.608020,-296.082377,-9882.631924,-518.144159
4055.608345,-2220.617826,-9729.412825,-888.247130
4055.608669,-3330.926739,-9806.022374,-666.185348
4055.608994,-3478.967927,-9499.584175,-296.082377
4055.609318,-3108.864956,-9039.926876,-296.082377
4055.609642,-1998.556043,-8656.879127,-370.102971
4055.609967,-74.020594,-7814.174080,-444.123565
4055.610291,1110.308913,-7660.954980,-444.123565
4055.610615,2072.576638,-7431.126331,0.000000
4055.610940,3034.844362,-8120.612279,-296.082377
4055.611264,2368.659014,-8503.660028,0.000000
4055.611588,1628.453072,-9346.365076,-296.082377
4055.611913,-148.041188,-9422.974625,370.102971
4055.612237,-1258.350101,-9882.631924,-518.144159
4055.612561,-2664.741391,-9652.803275,-222.061783
4055.612886,-2368.659014,-9422.974625,-296.082377
4055.613210,-2294.638420,-8580.269578,-148.041188
4055.613534,-962.267725,-7660.954980,0.000000
4055.613859,888.247130,-7584.345430,-666.185348
4055.614183,2664.741391,-6894.859482,-666.185348
4055.614508,4145.153275,-7431.126331,-814.226536
4055.614832,4737.318029,-7354.516781,-370.102971
4055.615156,4737.318029,-7967.393179,-962.267725
4055.615481,3552.988522,-8580.269578,-666.185348
4055.615805,2368.659014,-9422.974625,-740.205942
4055.616129,0.000000,-9346.365076,0.000000
4055.616454,-1184.329507,-10035.851024,0.000000
4055.616778,-2072.576638,-9422.974625,-444.123565
4055.617102,-2590.720797,-8810.098227,-370.102971
4055.617427,-2368.659014,-8580.269578,-74.020594
4055.617751,-1036.288319,-7890.783629,-222.061783
4055.618075,74.020594,-7354.516781,-370.102971
4055.618400,1110.308913,-7354.516781,74.020594
4055.618724,2368.659014,-7507.735880,-518.144159
4055.619048,3182.885551,-8120.612279,-222.061783
4055.619373,2590.720797,-8656.879127,-296.082377
4055.619697,1110.308913,-9193.145976,0.000000
4055.620022,222.061783,-9729.412825,-222.061783
4055.620346,-1554.432478,-10112.460574,-148.041188
4055.620670,-1998.556043,-9882.631924,0.000000
4055.620995,-1776.494261,-8810.098227,0.000000
4055.621319,-1480.411884,-8656.879127,74.020594
4055.621643,-444.123565,-7967.393179,-370.102971
4055.621968,1628.453072,-7814.174080,0.000000
4055.622292,2960.823768,-7201.297681,-666.185348
4055.622616,3997.112087,-7814.174080,-370.102971
4055.622941,4663.297435,-8273.831378,-962.267725
4055.623265,4589.276840,-9499.584175,-666.185348
4055.623589,2516.700203,-9193.145976,-888.247130
4055.623914,666.185348,-9652.803275,-518.144159
4055.624238,-1036.288319,-9806.022374,-814.226536
4055.624562,-2590.720797,-9806.022374,-296.082377
4055.624887,-3034.844362,-9499.584175,-296.082377
4055.625211,-3552.988522,-9269.755526,-518.144159
4055.625536,-2590.720797,-8656.879127,0.000000
4055.625860,-1332.370696,-7660.954980,-518.144159
4055.626184,592.164754,-8044.002729,-444.123565
4055.626509,1554.432478,-7048.078582,-592.164754
4055.626833,2664.741391,-7890.783629,0.000000
4055.627157,2886.803174,-8044.002729,-518.144159
4055.627482,2590.720797,-8886.707777,-148.041188
4055.627806,1332.370696,-9422.974625,-222.061783
4055.628130,296.082377,-9499.584175,-370.102971
4055.628455,-1258.350101,-9652.803275,-222.061783
4055.628779,-2368.659014,-9346.365076,0.000000
4055.629103,-2368.659014,-9039.926876,0.000000
4055.629428,-1554.432478,-8273.831378,0.000000
4055.629752,148.041188,-7890.783629,0.000000
4055.630076,1480.411884,-6894.859482,-370.102971
4055.630401,3552.988522,-7124.688131,0.000000
4055.630725,4293.194464,-7354.516781,-518.144159
4055.631050,5033.400406,-8044.002729,-148.041188
4055.631374,4441.235652,-8656.879127,-370.102971
4055.631698,3478.967927,-9422.974625,0.000000
4055.632023,1258.350101,-9499.584175,-148.041188
4055.632347,-962.267725,-9346.365076,-296.082377
4055.632671,-2516.700203,-9422.974625,0.000000
4055.632996,-2960.823768,-9116.536426,-148.041188
4055.633320,-3108.864956,-8733.488677,0.000000
4055.633644,-2442.679609,-7890.783629,0.000000
4055.633969,-962.267725,-7507.735880,296.082377
4055.634293,518.144159,-7354.516781,-222.061783
4055.634617,1554.432478,-7277.907231,0.000000
4055.634942,2738.761985,-7814.174080,0.000000
4055.635266,2812.782580,-8197.221829,0.000000
4055.635591,1998.556043,-9039.926876,-518.144159
4055.635915,1184.329507,-9499.584175,-296.082377
4055.636239,-222.061783,-9729.412825,-370.102971
4055.636564,-1554.432478,-9422.974625,0.000000
4055.636888,-1924.535449,-9193.145976,74.020594
4055.637212,-1998.556043,-8580.269578,0.000000
4055.637537,-518.144159,-7890.783629,-370.102971
4055.637861,1702.473667,-7737.564530,0.000000
4055.638185,1184.329507,-7584.345430,-592.164754
4055.638510,5181.441594,-7967.393179,-370.102971
4055.638834,3701.029710,-7201.297681,-1036.288319
4055.639158,3775.050304,-9039.926876,0.000000
4055.639483,2960.823768,-8120.612279,-1258.350101
4055.639807,814.226536,-9806.022374,-370.102971
4055.640131,-296.082377,-9652.803275,-592.164754
4055.640456,-1776.494261,-9576.193725,-814.226536
4055.640780,-2590.720797,-9806.022374,-148.041188
4055.641105,-2812.782580,-8350.440928,-592.164754
4055.641429,-1702.473667,-8886.707777,-444.123565
4055.641753,-1258.350101,-7431.126331,-296.082377
4055.642078,592.164754,-7814.174080,0.000000
4055.642402,1184.329507,-7431.126331,-666.185348
4055.642726,2294.638420,-7431.126331,-296.082377
4055.643051,2664.741391,-8503.660028,-518.144159
4055.643375,1924.535449,-8810.098227,-888.247130
4055.643699,962.267725,-9193.145976,0.000000
4055.644024,-370.102971,-9576.193725,-666.185348
4055.644348,-1110.308913,-9806.022374,-592.164754
4055.644672,-2368.659014,-9346.365076,-444.123565
4055.644997,-1628.453072,-9422.974625,-296.082377
4055.645321,-1332.370696,-8197.221829,-518.144159
4055.645645,370.102971,-8197.221829,0.000000
4055.645970,2072.576638,-7890.783629,-222.061783
4055.646294,3256.906145,-7660.954980,-518.144159
4055.646619,4145.153275,-7967.393179,-444.123565
4055.646943,4145.153275,-8503.660028,-222.061783
4055.647267,3849.070898,-8427.050478,-814.226536
4055.647592,2294.638420,-9193.145976,-222.061783
4055.647916,666.185348,-9422.974625,-592.164754
4055.648240,-962.267725,-9499.584175,-370.102971
4055.648565,-1628.453072,-9116.536426,-740.205942
4055.648889,-2294.638420,-9039.926876,0.000000
4055.649213,-2738.761985,-8656.879127,-592.164754
4055.649538,-1924.535449,-8044.002729,-222.061783
4055.649862,-1036.288319,-8120.612279,74.020594
4055.650186,148.041188,-7584.345430,0.000000
4055.650511,1480.411884,-8120.612279,0.000000
4055.650835,1332.370696,-7890.783629,0.000000
4055.651159,1480.411884,-8656.879127,0.000000
4055.651484,740.205942,-8120.612279,0.000000
4055.651808,296.082377,-9269.755526,-296.082377
4055.652133,-518.144159,-9422.974625,-222.061783
4055.652457,-1628.453072,-9193.145976,296.082377
4055.652781,-2146.597232,-8656.879127,-296.082377
4055.653106,-1036.288319,-8580.269578,296.082377
4055.653430,-518.144159,-7814.174080,296.082377
4055.653754,1258.350101,-7890.783629,296.082377
4055.654079,2812.782580,-7660.954980,0.000000
4055.654403,4071.132681,-8120.612279,0.000000
4055.654727,4071.132681,-7890.783629,-518.144159
4055.655052,3923.091493,-8580.269578,-592.164754
4055.655376,3256.906145,-9269.755526,-518.144159
4055.655700,1850.514855,-9039.926876,-592.164754
4055.656025,296.082377,-9729.412825,0.000000
4055.656349,-2146.597232,-9193.145976,-518.144159
4055.656673,-2664.741391,-9193.145976,-296.082377
4055.656998,-2960.823768,-8886.707777,-148.041188
4055.657322,-1998.556043,-8580.269578,-296.082377
4055.657647,-1406.391290,-7737.564530,-222.061783
4055.657971,296.082377,-8120.612279,0.000000
4055.658295,1036.288319,-7584.345430,0.000000
4055.658620,2220.617826,-8273.831378,148.041188
4055.658944,2590.720797,-8273.831378,0.000000
4055.659268,2812.782580,-8503.660028,0.000000
4055.659593,1480.411884,-9116.536426,-666.185348
4055.659917,0.000000,-9422.974625,0.000000
4055.660241,-592.164754,-8963.317327,-518.144159
4055.660566,-1998.556043,-9116.536426,-666.185348
4055.660890,-1110.308913,-9729.412825,0.000000
4055.661214,-1332.370696,-7967.393179,-518.144159
4055.661539,-518.144159,-8197.221829,0.000000
4055.661863,740.205942,-7814.174080,-148.041188
4055.662188,2812.782580,-7660.954980,-518.144159
4055.662512,3923.091493,-8120.612279,-888.247130
4055.662836,4367.215058,-8350.440928,-740.205942
4055.663161,4367.215058,-8580.269578,-1036.288319
4055.663485,2664.741391,-9116.536426,-888.247130
4055.663809,1628.453072,-9576.193725,-444.123565
4055.664134,-370.102971,-9806.022374,-666.185348
4055.664458,-1406.391290,-9806.022374,-962.267725
4055.664782,-2516.700203,-9269.755526,-296.082377
4055.665107,-2812.782580,-9193.145976,-518.144159
4055.665431,-2072.576638,-8120.612279,-444.123565
4055.665755,-1776.494261,-8120.612279,-592.164754
4055.666080,0.000000,-7967.393179,-518.144159
4055.666404,222.061783,-7814.174080,-518.144159
4055.666728,1480.411884,-8120.612279,-666.185348
4055.667053,1628.453072,-9039.926876,-444.123565
4055.667377,1110.308913,-8963.317327,-888.247130
4055.667702,444.123565,-9499.584175,-444.123565
4055.668026,-814.226536,-9729.412825,-814.226536
4055.668350,-2146.597232,-9499.584175,-518.144159
4055.668675,-1850.514855,-9806.022374,-592.164754
4055.668999,-2368.659014,-8810.098227,-444.123565
4055.669323,-1184.329507,-8810.098227,-370.102971
4055.669648,148.041188,-7507.735880,0.000000
4055.669972,1776.494261,-7584.345430,-148.041188
4055.670296,2664.741391,-7354.516781,-814.226536
4055.670621,4219.173869,-7660.954980,-740.205942
4055.670945,4219.173869,-8273.831378,-888.247130
4055.671269,3849.070898,-9193.145976,-592.164754
4055.671594,2368.659014,-9269.755526,-814.226536
4055.671918,1110.308913,-9729.412825,0.000000
4055.672242,-962.267725,-9576.193725,-296.082377
4055.672567,-2368.659014,-9729.412825,-444.123565
4055.672891,-2664.741391,-9346.365076,0.000000
4055.673216,-2738.761985,-8503.660028,148.041188
4055.673540,-2368.659014,-7967.393179,-296.082377
4055.673864,-814.226536,-7967.393179,148.041188
4055.674189,1184.329507,-8273.831378,592.164754
4055.674513,1702.473667,-7507.735880,-518.144159
4055.674837,2368.659014,-8427.050478,0.000000
4055.675162,2072.576638,-8197.221829,-148.041188
4055.675486,1998.556043,-9346.365076,0.000000
4055.675810,222.061783,-9269.755526,-518.144159
4055.676135,-222.061783,-9806.022374,0.000000
4055.676459,-1554.432478,-8810.098227,-518.144159
4055.676783,-2294.638420,-9346.365076,0.000000
4055.677108,-2072.576638,-8580.269578,0.000000
4055.677432,-888.247130,-8120.612279,74.020594
4055.677756,370.102971,-7737.564530,0.000000
4055.678081,2220.617826,-7431.126331,0.000000
4055.678405,4293.194464,-8580.269578,-518.144159
4055.678730,4811.338623,-7737.564530,-444.123565
4055.679054,5329.482782,-8273.831378,-592.164754
4055.679378,4145.153275,-8580.269578,-666.185348
4055.679703,2738.761985,-9422.974625,-296.082377
4055.680027,1332.370696,-9346.365076,0.000000
4055.680351,-962.267725,-9652.803275,-666.185348
4055.680676,-2590.720797,-9499.584175,-592.164754
4055.681000,-3034.844362,-9193.145976,-370.102971
4055.681324,-2442.679609,-9116.536426,-370.102971
4055.681649,-2368.659014,-8120.612279,-296.082377
4055.681973,-1184.329507,-7967.393179,-222.061783
4055.682297,-148.041188,-7967.393179,-296.082377
4055.682622,1110.308913,-9346.365076,-148.041188
4055.682946,1554.432478,-8197.221829,-666.185348
4055.683270,1850.514855,-8886.707777,-740.205942
4055.683595,888.247130,-8886.707777,-444.123565
4055.683919,222.061783,-9346.365076,-740.205942
4055.684244,-666.185348,-9806.022374,-444.123565
4055.684568,-1480.411884,-9193.145976,-444.123565
4055.684892,-2516.700203,-9346.365076,-518.144159
4055.685217,-1998.556043,-8733.488677,-222.061783
4055.685541,-1110.308913,-7737.564530,-148.041188
4055.685865,444.123565,-8120.612279,-148.041188
4055.686190,1924.535449,-7584.345430,-666.185348
4055.686514,3256.906145,-8120.612279,-518.144159
4055.686838,3849.070898,-8120.612279,-1406.391290
4055.687163,3775.050304,-8350.440928,-518.144159
4055.687487,2664.741391,-9039.926876,-740.205942
4055.687811,1776.494261,-9652.803275,-666.185348
4055.688136,444.123565,-9729.412825,-370.102971
4055.688460,-1628.453072,-9499.584175,-666.185348
4055.688785,-2294.638420,-9422.974625,-296.082377
4055.689109,-3034.844362,-9039.926876,0.000000
4055.689433,-2220.617826,-8350.440928,0.000000
4055.689758,-1924.535449,-7354.516781,-222.061783
4055.690082,-222.061783,-7814.174080,222.061783
4055.690406,888.247130,-7354.516781,-222.061783
4055.690731,1924.535449,-7660.954980,74.020594
4055.691055,2738.761985,-8044.002729,-592.164754
4055.691379,2220.617826,-8963.317327,-148.041188
4055.691704,1480.411884,-8503.660028,-592.164754
4055.692028,518.144159,-9499.584175,0.000000
4055.692352,-740.205942,-9039.926876,-740.205942
4055.692677,-2516.700203,-9882.631924,74.020594
4055.693001,-1850.514855,-8350.440928,-666.185348
4055.693325,-2368.659014,-8273.831378,296.082377
4055.693650,-296.082377,-7737.564530,-370.102971
4055.693974,1332.370696,-6588.421283,-444.123565
4055.694299,3182.885551,-7354.516781,-444.123565
4055.694623,3997.112087,-7354.516781,-592.164754
4055.694947,4885.359217,-7737.564530,-666.185348
4055.695272,4367.215058,-8733.488677,-370.102971
4055.695596,3108.864956,-9039.926876,-740.205942
4055.695920,1850.514855,-9499.584175,-592.164754
4055.696245,0.000000,-9499.584175,-296.082377
4055.696569,-1258.350101,-9652.803275,-370.102971
4055.696893,-2146.597232,-9193.145976,-518.144159
4055.697218,-2442.679609,-8963.317327,0.000000
4055.697542,-2146.597232,-7890.783629,-666.185348
4055.697866,-370.102971,-8044.002729,0.000000
4055.698191,0.000000,-8273.831378,-296.082377
4055.698515,1480.411884,-7890.783629,-222.061783
4055.698839,1480.411884,-7660.954980,-592.164754
4055.699164,1776.494261,-9039.926876,-592.164754
4055.699488,1258.350101,-8963.317327,-444.123565
4055.699813,74.020594,-9806.022374,0.000000
4055.700137,-888.247130,-9346.365076,-592.164754
4055.700461,-2146.597232,-9806.022374,-370.102971
4055.700786,-2368.659014,-9499.584175,0.000000
4055.701110,-1554.432478,-8963.317327,-296.082377
4055.701434,-888.247130,-8580.269578,-518.144159
4055.701759,222.061783,-7660.954980,-222.061783
4055.702083,2220.617826,-8120.612279,-296.082377
4055.702407,3404.947333,-8273.831378,-1110.308913
4055.702732,3849.070898,-8350.440928,-740.205942
4055.703056,3775.050304,-8656.879127,-666.185348
4055.703380,2516.700203,-9116.536426,-740.205942
4055.703705,1850.514855,-9422.974625,-740.205942
4055.704029,222.061783,-9652.803275,-666.185348
4055.704353,-1184.329507,-9806.022374,-370.102971
4055.704678,-2516.700203,-9346.365076,-888.247130
4055.705002,-2812.782580,-9193.145976,-518.144159
4055.705327,-2812.782580,-8963.317327,518.144159
4055.705651,-1480.411884,-8273.831378,370.102971
4055.705975,-592.164754,-7507.735880,0.000000
4055.706300,1110.308913,-8044.002729,518.144159
4055.706624,1850.514855,-8044.002729,-296.082377
4055.706948,2590.720797,-8503.660028,222.061783
4055.707272,1998.556043,-8503.660028,-666.185348
4055.707597,2072.576638,-9422.974625,222.061783
4055.707921,222.061783,-8580.269578,-296.082377
4055.708245,-518.144159,-9652.803275,0.000000
4055.708570,-1850.514855,-8963.317327,-296.082377
4055.708894,-2220.617826,-8733.488677,148.041188
4055.709218,-1332.370696,-8197.221829,-222.061783
4055.709543,222.061783,-8120.612279,0.000000
4055.709867,1332.370696,-7584.345430,0.000000
4055.710191,2812.782580,-7354.516781,0.000000
4055.710515,4293.194464,-7584.345430,-370.102971
4055.710840,4515.256246,-7967.393179,-518.144159
4055.711164,4663.297435,-8350.440928,0.000000
4055.711488,3478.967927,-8733.488677,-518.144159
4055.711813,1702.473667,-9346.365076,-222.061783
4055.712137,0.000000,-9269.755526,0.000000
4055.712461,-962.267725,-9652.803275,-296.082377
4055.712786,-2294.638420,-8963.317327,-592.164754
4055.713110,-2294.638420,-8963.317327,0.000000
4055.713434,-2220.617826,-8197.221829,-222.061783
4055.713759,-1406.391290,-8580.269578,74.020594
4055.714083,-592.164754,-7431.126331,-222.061783
4055.714407,740.205942,-7737.564530,-296.082377
4055.714731,1924.535449,-7967.393179,-444.123565
4055.715056,1998.556043,-8503.660028,-370.102971
4055.715380,2220.617826,-9039.926876,-666.185348
4055.715704,1110.308913,-9116.536426,-444.123565
4055.716029,518.144159,-9576.193725,-592.164754
4055.716353,-1406.391290,-9499.584175,-222.061783
4055.716677,-1776.494261,-9652.803275,-148.041188
4055.717002,-1850.514855,-8580.269578,-296.082377
4055.717326,-1480.411884,-8350.440928,-222.061783
4055.717650,222.061783,-7967.393179,-666.185348
4055.717974,1850.514855,-8427.050478,296.082377
4055.718299,2812.782580,-7431.126331,-740.205942
4055.718623,4367.215058,-8044.002729,-740.205942
4055.718947,3923.091493,-8350.440928,-1480.411884
4055.719272,3330.926739,-9116.536426,-888.247130
4055.719596,2072.576638,-9116.536426,-1258.350101
4055.719920,518.144159,-9806.022374,-740.205942
4055.720245,-888.247130,-9806.022374,-666.185348
4055.720569,-2368.659014,-9729.412825,-740.205942
4055.720893,-2960.823768,-8503.660028,-444.123565
4055.721217,-2812.782580,-8656.879127,-74.020594
4055.721542,-1628.453072,-8273.831378,-148.041188
4055.721866,-666.185348,-7507.735880,-370.102971
4055.722190,740.205942,-8503.660028,148.041188
4055.722515,1258.350101,-7201.297681,-814.226536
4055.722839,2516.700203,-8580.269578,-296.082377
4055.723163,1850.514855,-8273.831378,-814.226536
4055.723488,1776.494261,-9422.974625,-148.041188
4055.723812,0.000000,-9116.536426,-444.123565
4055.724136,-962.267725,-9959.241474,148.041188
4055.724460,-1850.514855,-9039.926876,-592.164754
4055.724785,-2146.597232,-9116.536426,0.000000
4055.725109,-1332.370696,-8273.831378,222.061783
4055.725433,-740.205942,-8044.002729,74.020594
4055.725758,888.247130,-7890.783629,0.000000
4055.726082,2368.659014,-7124.688131,74.020594
4055.726406,4145.153275,-7890.783629,-296.082377
4055.726731,4293.194464,-7584.345430,-370.102971
4055.727055,4811.338623,-8656.879127,-222.061783
4055.727379,3997.112087,-8810.098227,-370.102971
4055.727703,3034.844362,-9346.365076,222.061783
4055.728028,888.247130,-9193.145976,0.000000
4055.728352,-518.144159,-9499.584175,0.000000
4055.728676,-2368.659014,-9116.536426,222.061783
4055.729001,-2812.782580,-8810.098227,0.000000
4055.729325,-3182.885551,-8350.440928,74.020594
4055.729649,-2294.638420,-8044.002729,296.082377
4055.729974,-1110.308913,-7890.783629,148.041188
4055.730298,222.061783,-7431.126331,-148.041188
4055.730622,1258.350101,-8044.002729,370.102971
4055.730947,1480.411884,-7660.954980,0.000000
4055.731271,1924.535449,-9039.926876,-370.102971
4055.731595,1628.453072,-9269.755526,-296.082377
4055.731919,592.164754,-8963.317327,0.000000
4055.732244,-1036.288319,-9346.365076,74.020594
4055.732568,-1702.473667,-9269.755526,0.000000
4055.732892,-2146.597232,-8886.707777,-148.041188
4055.733217,-1998.556043,-8427.050478,74.020594
4055.733541,-740.205942,-8120.612279,444.123565
4055.733865,740.205942,-7660.954980,74.020594
4055.734190,2738.761985,-7814.174080,-444.123565
4055.734514,4293.194464,-8197.221829,-296.082377
4055.734838,4367.215058,-8120.612279,-814.226536
4055.735162,3997.112087,-8580.269578,-592.164754
4055.735487,3330.926739,-9116.536426,-666.185348
4055.735811,1258.350101,-9499.584175,-592.164754
4055.736135,-370.102971,-9806.022374,-592.164754
4055.736460,-1850.514855,-8733.488677,-444.123565
4055.736784,-2812.782580,-9652.803275,-444.123565
4055.737108,-2812.782580,-8886.707777,-444.123565
4055.737433,-1998.556043,-8350.440928,-370.102971
4055.737757,-1110.308913,-8427.050478,0.000000
4055.738081,0.000000,-7507.735880,-296.082377
4055.738405,1628.453072,-7814.174080,-592.164754
4055.738730,2664.741391,-8273.831378,-592.164754
4055.739054,2738.761985,-8503.660028,-666.185348
4055.739378,1850.514855,-8733.488677,-740.205942
4055.739703,888.247130,-9499.584175,-444.123565
4055.740027,-888.247130,-9269.755526,-518.144159
4055.740351,-1480.411884,-9806.022374,-370.102971
4055.740676,-2146.597232,-8350.440928,-370.102971
4055.741000,-1702.473667,-9422.974625,0.000000
4055.741324,-1332.370696,-7890.783629,-592.164754
4055.741648,296.082377,-8350.440928,0.000000
4055.741973,1406.391290,-7354.516781,-888.247130
4055.742297,3108.864956,-8120.612279,-444.123565
4055.742621,4219.173869,-7814.174080,-740.205942
4055.742946,3997.112087,-8503.660028,-518.144159
4055.743270,3701.029710,-8580.269578,-666.185348
4055.743594,3182.885551,-9193.145976,-888.247130
4055.743919,1258.350101,-9652.803275,-666.185348
4055.744243,-444.123565,-9576.193725,-518.144159
4055.744567,-1702.473667,-9729.412825,-444.123565
4055.744891,-2220.617826,-9269.755526,0.000000
4055.745216,-2442.679609,-8350.440928,-370.102971
4055.745540,-2368.659014,-7967.393179,-370.102971
4055.745864,-1184.329507,-7431.126331,0.000000
4055.746189,-592.164754,-7354.516781,-444.123565
4055.746513,518.144159,-8120.612279,-148.041188
4055.746837,1110.308913,-8197.221829,-370.102971
4055.747162,1110.308913,-8503.660028,-296.082377
4055.747486,370.102971,-8963.317327,0.000000
4055.747810,518.144159,-9269.755526,0.000000
4055.748135,-1110.308913,-9422.974625,0.000000
4055.748459,-1924.535449,-9193.145976,222.061783
4055.748783,-1850.514855,-8810.098227,-148.041188
4055.749107,-1110.308913,-9116.536426,444.123565
4055.749432,0.000000,-7890.783629,222.061783
4055.749756,962.267725,-8120.612279,0.000000
4055.750080,2368.659014,-7660.954980,-148.041188
4055.750405,3404.947333,-7890.783629,-296.082377
4055.750729,4441.235652,-8580.269578,-518.144159
4055.751053,4145.153275,-8656.879127,-518.144159
4055.751378,2960.823768,-9039.926876,-148.041188
4055.751702,1850.514855,-8810.098227,74.020594
4055.752026,740.205942,-9039.926876,-148.041188
4055.752350,-592.164754,-9806.022374,-444.123565
4055.752675,-1702.473667,-8810.098227,-444.123565
4055.752999,-2220.617826,-8886.707777,0.000000
4055.753323,-2516.700203,-8963.317327,-222.061783
4055.753648,-888.247130,-8580.269578,370.102971
4055.753972,-222.061783,-7354.516781,-444.123565
4055.754296,1406.391290,-8044.002729,0.000000
4055.754621,1924.535449,-7584.345430,-370.102971
4055.754945,2590.720797,-8733.488677,74.020594
4055.755269,1850.514855,-8273.831378,-1036.288319
4055.755593,1850.514855,-9499.584175,-296.082377
4055.755918,-444.123565,-8886.707777,-814.226536
4055.756242,-444.123565,-9729.412825,-370.102971
4055.756566,-1924.535449,-9346.365076,-740.205942
4055.756891,-2368.659014,-9193.145976,0.000000
4055.757215,-1628.453072,-8120.612279,-518.144159
4055.757539,-666.185348,-8503.660028,-296.082377
4055.757864,1258.350101,-7890.783629,-296.082377
4055.758188,2590.720797,-7814.174080,-518.144159
4055.758512,4145.153275,-7890.783629,-962.267725
4055.758836,4367.215058,-8197.221829,-444.123565
4055.759161,4811.338623,-8963.317327,-1110.308913
4055.759485,3478.967927,-9193.145976,-814.226536
4055.759809,2368.659014,-9116.536426,-592.164754
4055.760134,0.000000,-9576.193725,-518.144159
4055.760458,-888.247130,-9882.631924,-518.144159
4055.760782,-1924.535449,-9576.193725,-222.061783
4055.761107,-2738.761985,-9116.536426,-296.082377
4055.761431,-2146.597232,-8810.098227,-148.041188
4055.761755,-1480.411884,-8580.269578,0.000000
4055.762080,-518.144159,-7967.393179,-518.144159
4055.762404,222.061783,-8120.612279,-148.041188
4055.762728,666.185348,-8273.831378,-814.226536
4055.763052,1258.350101,-9039.926876,-74.020594
4055.763377,1036.288319,-7737.564530,-1110.308913
4055.763701,148.041188,-9729.412825,-74.020594
4055.764025,-592.164754,-8810.098227,-518.144159
4055.764350,-1332.370696,-9652.803275,-370.102971
4055.764674,-1554.432478,-9193.145976,-370.102971
4055.764998,-1406.391290,-8886.707777,0.000000
4055.765323,-962.267725,-8120.612279,-222.061783
4055.765647,370.102971,-8044.002729,444.123565
4055.765971,1554.432478,-7354.516781,-592.164754
4055.766295,3108.864956,-7890.783629,-222.061783
4055.766620,3701.029710,-7354.516781,-962.267725
4055.766944,3552.988522,-8427.050478,-518.144159
4055.767268,2886.803174,-8273.831378,-1332.370696
4055.767593,2442.679609,-9882.631924,74.020594
4055.767917,518.144159,-8810.098227,-962.267725
4055.768241,-666.185348,-10112.460574,0.000000
4055.768566,-2590.720797,-8733.488677,-370.102971
4055.768890,-2368.659014,-9422.974625,148.041188
4055.769214,-2368.659014,-8120.612279,-592.164754
4055.769538,-1480.411884,-8427.050478,148.041188
4055.769863,-666.185348,-7507.735880,-222.061783
4055.770187,370.102971,-7814.174080,296.082377
4055.770511,1776.494261,-7660.954980,-888.247130
4055.770836,1924.535449,-8197.221829,0.000000
4055.771160,2072.576638,-8120.612279,-518.144159
4055.771484,1850.514855,-9039.926876,0.000000
4055.771809,1480.411884,-8886.707777,-222.061783
4055.772133,-592.164754,-9039.926876,74.020594
4055.772457,-666.185348,-9346.365076,0.000000
4055.772781,-1628.453072,-8273.831378,-518.144159
4055.773106,74.020594,-9193.145976,-148.041188
4055.773430,-592.164754,-7507.735880,-444.123565
4055.773754,1480.411884,-8350.440928,0.000000
4055.774079,1628.453072,-7048.078582,-592.164754
4055.774403,3182.885551,-8273.831378,-740.205942
4055.774727,3256.906145,-7737.564530,-888.247130
4055.775052,3256.906145,-8656.879127,-518.144159
4055.775376,2886.803174,-8656.879127,-444.123565
4055.775700,1998.556043,-9116.536426,-370.102971
4055.776024,666.185348,-9116.536426,-444.123565
4055.776349,-370.102971,-9346.365076,-888.247130
4055.776673,-1184.329507,-9499.584175,-296.082377
4055.776997,-1998.556043,-8886.707777,-740.205942
4055.777322,-1924.535449,-8503.660028,-222.061783
4055.777646,-1702.473667,-8503.660028,-370.102971
4055.777970,-370.102971,-8120.612279,0.000000
4055.778295,444.123565,-7967.393179,-814.226536
4055.778619,1184.329507,-8656.879127,-370.102971
4055.778943,1776.494261,-8580.269578,-666.185348
4055.779268,1258.350101,-9039.926876,-370.102971
4055.779592,740.205942,-9269.755526,0.000000
4055.779916,-148.041188,-9346.365076,-962.267725
4055.780240,-1258.350101,-9039.926876,-148.041188
4055.780565,-2220.617826,-9652.803275,-518.144159
4055.780889,-2220.617826,-8350.440928,-296.082377
4055.781213,-962.267725,-8810.098227,-592.164754
4055.781538,-370.102971,-8197.221829,-518.144159
4055.781862,1332.370696,-8120.612279,-370.102971
4055.782186,2664.741391,-7584.345430,-740.205942
4055.782511,3775.050304,-8427.050478,-296.082377
4055.782835,4293.194464,-8120.612279,-666.185348
4055.783159,3478.967927,-8656.879127,-1258.350101
4055.783483,2812.782580,-9116.536426,-592.164754
4055.783808,1332.370696,-9346.365076,-222.061783
4055.784132,-222.061783,-9193.145976,-444.123565
4055.784456,-1258.350101,-8963.317327,148.041188
4055.784781,-2442.679609,-9039.926876,-370.102971
4055.785105,-2368.659014,-8810.098227,-296.082377
4055.785429,-2664.741391,-8427.050478,222.061783
4055.785754,-1258.350101,-8044.002729,222.061783
4055.786078,-74.020594,-7737.564530,0.000000
4055.786402,1258.350101,-7967.393179,222.061783
4055.786726,1776.494261,-7584.345430,-370.102971
4055.787051,2368.659014,-8503.660028,0.000000
4055.787375,2146.597232,-8810.098227,-296.082377
4055.787699,1110.308913,-8656.879127,370.102971
4055.788024,-222.061783,-8810.098227,-518.144159
4055.788348,-888.247130,-9269.755526,0.000000
4055.788672,-1628.453072,-8656.879127,-296.082377
4055.788997,-1554.432478,-9193.145976,222.061783
4055.789321,-740.205942,-7890.783629,-222.061783
4055.789645,74.020594,-7967.393179,74.020594
4055.789969,1776.494261,-7277.907231,0.000000
4055.790294,3330.926739,-7354.516781,-222.061783
4055.790618,4219.173869,-7967.393179,-518.144159
4055.790942,4441.235652,-7890.783629,-222.061783
4055.791267,3923.091493,-8733.488677,-370.102971
4055.791591,2960.823768,-9959.241474,-666.185348
4055.791915,1184.329507,-9576.193725,-370.102971
4055.792240,-370.102971,-9269.755526,-592.164754
4055.792564,-1850.514855,-9806.022374,-222.061783
4055.792888,-2442.679609,-8733.488677,-666.185348
4055.793213,-2590.720797,-8656.879127,0.000000
4055.793537,-2220.617826,-7890.783629,-444.123565
4055.793861,-1184.329507,-8120.612279,0.000000
4055.794185,-74.020594,-7507.735880,-740.205942
4055.794510,1184.329507,-7660.954980,148.041188
4055.794834,1776.494261,-8273.831378,-888.247130
4055.795158,2220.617826,-9193.145976,-444.123565
4055.795483,1332.370696,-8963.317327,-962.267725
4055.795807,666.185348,-9422.974625,-962.267725
4055.796131,-592.164754,-8963.317327,-666.185348
4055.796456,-1406.391290,-9422.974625,0.000000
4055.796780,-2072.576638,-8886.707777,-592.164754
4055.797104,-2072.576638,-8963.317327,-148.041188
4055.797428,-1036.288319,-8120.612279,-592.164754
4055.797753,666.185348,-7814.174080,-148.041188
4055.798077,2072.576638,-7737.564530,-740.205942
4055.798401,3552.988522,-7967.393179,-666.185348
4055.798726,4145.153275,-7737.564530,-1258.350101
4055.799050,4367.215058,-8656.879127,-814.226536
4055.799374,3256.906145,-8886.707777,-814.226536
4055.799699,1776.494261,-9422.974625,-592.164754
4055.800023,0.000000,-9039.926876,-666.185348
4055.800347,-1702.473667,-9346.365076,-666.185348
4055.800671,-2886.803174,-9576.193725,-592.164754
4055.800996,-3108.864956,-8886.707777,-518.144159
4055.801320,-2738.761985,-8503.660028,0.000000
4055.801644,-1998.556043,-7890.783629,0.000000
4055.801969,0.000000,-7814.174080,-296.082377
4055.802293,1776.494261,-7967.393179,222.061783
4055.802617,2590.720797,-7660.954980,-962.267725
4055.802942,3182.885551,-8350.440928,370.102971
4055.803266,2220.617826,-8273.831378,-444.123565
4055.803590,1554.432478,-9193.145976,148.041188
4055.803914,74.020594,-8733.488677,-666.185348
4055.804239,-1480.411884,-9116.536426,74.020594
4055.804563,-2294.638420,-8886.707777,-296.082377
4055.804887,-2886.803174,-8580.269578,592.164754
4055.805212,-1702.473667,-8273.831378,-666.185348
4055.805536,-370.102971,-7814.174080,74.020594
4055.805860,1258.350101,-7354.516781,-148.041188
4055.806185,2812.782580,-7737.564530,0.000000
4055.806509,4145.153275,-7584.345430,-814.226536
4055.806833,4663.297435,-8427.050478,-148.041188
4055.807157,4367.215058,-8197.221829,-814.226536
4055.807482,2886.803174,-9116.536426,-222.061783
4055.807806,1924.535449,-9039.926876,-296.082377
4055.808130,296.082377,-9652.803275,-148.041188
4055.808454,-1406.391290,-8580.269578,-296.082377
4055.808779,-2294.638420,-9269.755526,222.061783
4055.809103,-2516.700203,-8197.221829,-222.061783
4055.809427,-1998.556043,-8656.879127,148.041188
4055.809751,-962.267725,-7660.954980,0.000000
4055.810076,0.000000,-7890.783629,0.000000
4055.810400,666.185348,-8120.612279,0.000000
4055.810724,1184.329507,-8427.050478,148.041188
4055.811049,1258.350101,-8120.612279,-592.164754
4055.811373,1184.329507,-8963.317327,-370.102971
4055.811697,666.185348,-9039.926876,74.020594
4055.812021,-740.205942,-9346.365076,-222.061783
4055.812346,-1406.391290,-9422.974625,-518.144159
4055.812670,-1850.514855,-9039.926876,0.000000
4055.812994,-1554.432478,-8503.660028,-148.041188
4055.813318,-1110.308913,-8273.831378,-370.102971
4055.813643,518.144159,-8044.002729,0.000000
4055.813967,1924.535449,-7814.174080,-148.041188
4055.814291,3034.844362,-7584.345430,-370.102971
4055.814615,3701.029710,-8044.002729,-1036.288319
4055.814940,3923.091493,-8427.050478,-518.144159
4055.815264,3330.926739,-8810.098227,-814.226536
4055.815588,2072.576638,-9499.584175,-444.123565
4055.815912,666.185348,-9116.536426,-1184.329507
4055.816237,-592.164754,-9499.584175,-592.164754
4055.816561,-1776.494261,-9116.536426,-740.205942
4055.816885,-2516.700203,-9039.926876,-444.123565
4055.817209,-2368.659014,-8656.879127,-666.185348
4055.817534,-2072.576638,-8273.831378,0.000000
4055.817858,-1110.308913,-8197.221829,-148.041188
4055.818182,-296.082377,-7660.954980,-370.102971
4055.818506,1480.411884,-8350.440928,370.102971
4055.818831,2220.617826,-7584.345430,-592.164754
4055.819155,2590.720797,-9346.365076,-592.164754
4055.819479,1554.432478,-8350.440928,-592.164754
4055.819804,740.205942,-9882.631924,74.020594
4055.820128,-444.123565,-8886.707777,-666.185348
4055.820452,-1110.308913,-9499.584175,-518.144159
4055.820776,-1998.556043,-8427.050478,-296.082377
4055.821101,-1480.411884,-9039.926876,0.000000
4055.821425,-1184.329507,-8044.002729,-444.123565
4055.821749,888.247130,-8044.002729,-148.041188
4055.822073,2368.659014,-7201.297681,-148.041188
4055.822398,3627.009116,-7890.783629,-888.247130
4055.822722,5329.482782,-8580.269578,-222.061783
4055.823046,3923.091493,-7737.564530,-888.247130
4055.823370,4219.173869,-9422.974625,-740.205942
4055.823695,2590.720797,-8886.707777,-444.123565
4055.824019,1110.308913,-9882.631924,0.000000
4055.824343,-370.102971,-8810.098227,-888.247130
4055.824667,-2294.638420,-9806.022374,-444.123565
4055.824992,-3404.947333,-8810.098227,0.000000
4055.825316,-2738.761985,-8963.317327,74.020594
4055.825640,-2442.679609,-7737.564530,74.020594
4055.825964,-1036.288319,-8044.002729,0.000000
4055.826289,74.020594,-7431.126331,-296.082377
4055.826613,1110.308913,-8197.221829,-296.082377
4055.826937,2146.597232,-7814.174080,-222.061783
4055.827261,1924.535449,-8656.879127,-444.123565
4055.827586,1184.329507,-9193.145976,-148.041188
4055.827910,148.041188,-9269.755526,-592.164754
4055.828234,-1110.308913,-9576.193725,-296.082377
4055.828559,-1924.535449,-9269.755526,-592.164754
4055.828883,-2294.638420,-9039.926876,0.000000
4055.829207,-2294.638420,-8120.612279,-222.061783
4055.829531,-962.267725,-8273.831378,74.020594
4055.829856,814.226536,-8120.612279,-222.061783
4055.830180,2516.700203,-7967.393179,-296.082377
4055.830504,4293.194464,-7967.393179,-592.164754
4055.830828,3997.112087,-8120.612279,-814.226536
4055.831153,4589.276840,-9116.536426,-296.082377
4055.831477,2960.823768,-8656.879127,-814.226536
4055.831801,1406.391290,-9729.412825,-444.123565
4055.832125,-444.123565,-9652.803275,-444.123565
4055.832450,-1850.514855,-9729.412825,0.000000
4055.832774,-2960.823768,-9346.365076,-222.061783
4055.833098,-2812.782580,-9422.974625,148.041188
4055.833422,-2294.638420,-8273.831378,-444.123565
4055.833747,-1258.350101,-8273.831378,0.000000
4055.834071,148.041188,-8273.831378,148.041188
4055.834395,1258.350101,-8044.002729,74.020594
4055.834719,1924.535449,-7814.174080,-370.102971
4055.835044,2294.638420,-8503.660028,-222.061783
4055.835368,1850.514855,-8886.707777,-814.226536
4055.835692,1036.288319,-9499.584175,-444.123565
4055.836016,-296.082377,-9116.536426,0.000000
4055.836341,-1554.432478,-9576.193725,-222.061783
4055.836665,-2516.700203,-9039.926876,-518.144159
4055.836989,-1480.411884,-9193.145976,0.000000
4055.837314,-1406.391290,-7967.393179,-148.041188
4055.837638,-222.061783,-7890.783629,0.000000
4055.837962,1184.329507,-7354.516781,0.000000
4055.838286,3256.906145,-8350.440928,296.082377
4055.838611,3997.112087,-7431.126331,-592.164754
4055.838935,4811.338623,-8120.612279,-296.082377
4055.839259,4515.256246,-8273.831378,-222.061783
4055.839583,3478.967927,-9806.022374,0.000000
4055.839908,1998.556043,-9269.755526,-370.102971
4055.840232,148.041188,-9499.584175,-444.123565
4055.840556,-1110.308913,-9346.365076,-592.164754
4055.840880,-2146.597232,-9193.145976,-296.082377
4055.841205,-2516.700203,-8810.098227,-370.102971
4055.841529,-2368.659014,-8350.440928,0.000000
4055.841853,-1702.473667,-7890.783629,74.020594
4055.842177,-888.247130,-7660.954980,-370.102971
4055.842502,814.226536,-8350.440928,-296.082377
4055.842826,1554.432478,-7890.783629,-592.164754
4055.843150,1554.432478,-8656.879127,-370.102971
4055.843474,1332.370696,-8963.317327,-296.082377
4055.843799,592.164754,-9193.145976,-370.102971
4055.844123,0.000000,-9116.536426,-740.205942
4055.844447,-1332.370696,-9499.584175,-444.123565
4055.844771,-1702.473667,-9269.755526,-296.082377
4055.845096,-1628.453072,-8810.098227,-370.102971
4055.845420,-592.164754,-8273.831378,0.000000
4055.845744,0.000000,-7354.516781,-444.123565
4055.846069,1998.556043,-8197.221829,-148.041188
4055.846393,2812.782580,-7431.126331,-888.247130
4055.846717,3849.070898,-8580.269578,-444.123565
4055.847041,3552.988522,-8120.612279,-1332.370696
4055.847366,3256.906145,-9193.145976,-444.123565
4055.847690,2220.617826,-8886.707777,-888.247130
4055.848014,814.226536,-9806.022374,-444.123565
4055.848338,-740.205942,-9806.022374,-740.205942
4055.848663,-2146.597232,-9652.803275,-518.144159
4055.848987,-2442.679609,-9576.193725,0.000000
4055.849311,-2664.741391,-8810.098227,-370.102971
4055.849635,-1628.453072,-8810.098227,0.000000
4055.849960,-1036.288319,-7584.345430,222.061783
4055.850284,222.061783,-8197.221829,-296.082377
4055.850608,1184.329507,-7507.735880,-296.082377
4055.850932,2442.679609,-9116.536426,222.061783
4055.851257,2072.576638,-8197.221829,-370.102971
4055.851581,1998.556043,-9116.536426,-222.061783
4055.851905,814.226536,-9116.536426,0.000000
4055.852229,-296.082377,-9269.755526,-518.144159
4055.852554,-1628.453072,-9039.926876,-666.185348
4055.852878,-1776.494261,-9269.755526,-148.041188
4055.853202,-1776.494261,-8273.831378,-296.082377
4055.853526,-1184.329507,-8273.831378,148.041188
4055.853851,444.123565,-7354.516781,148.041188
4055.854175,1850.514855,-7354.516781,-296.082377
4055.854499,3701.029710,-7737.564530,-592.164754
4055.854824,4145.153275,-7660.954980,-888.247130
4055.855148,4441.235652,-8886.707777,-370.102971
4055.855472,2886.803174,-8580.269578,-296.082377
4055.855796,2294.638420,-9269.755526,-222.061783
4055.856121,444.123565,-9039.926876,-222.061783
4055.856445,-592.164754,-9346.365076,-444.123565
4055.856769,-1776.494261,-9422.974625,0.000000
4055.857093,-2664.741391,-9269.755526,-444.123565
4055.857418,-2368.659014,-8886.707777,0.000000
4055.857742,-1850.514855,-7967.393179,0.000000
4055.858066,-888.247130,-8427.050478,222.061783
4055.858390,0.000000,-7584.345430,0.000000
4055.858715,1184.329507,-7890.783629,-296.082377
4055.859039,1480.411884,-8427.050478,0.000000
4055.859363,2072.576638,-9039.926876,-592.164754
4055.859687,1184.329507,-9116.536426,-222.061783
4055.860012,666.185348,-9346.365076,-148.041188
4055.860336,-740.205942,-9116.536426,-74.020594
4055.860660,-1924.535449,-9193.145976,-296.082377
4055.860984,-2294.638420,-9193.145976,0.000000
4055.861309,-1776.494261,-8810.098227,0.000000
4055.861633,-592.164754,-8120.612279,-666.185348
4055.861957,740.205942,-7967.393179,0.000000
4055.862281,2294.638420,-7584.345430,-296.082377
4055.862606,3552.988522,-8120.612279,-370.102971
4055.862930,4219.173869,-7737.564530,-888.247130
4055.863254,3701.029710,-9039.926876,-740.205942
4055.863579,2738.761985,-8733.488677,-666.185348
4055.863903,1776.494261,-9576.193725,-444.123565
4055.864227,-148.041188,-9499.584175,-518.144159
4055.864551,-2146.597232,-9499.584175,-444.123565
4055.864876,-2590.720797,-9729.412825,-518.144159
4055.865200,-2590.720797,-8656.879127,-518.144159
4055.865524,-2738.761985,-8733.488677,-222.061783
4055.865848,-1702.473667,-7814.174080,0.000000
4055.866173,-296.082377,-7507.735880,74.020594
4055.866497,888.247130,-7890.783629,-518.144159
4055.866821,1924.535449,-8197.221829,-222.061783
4055.867145,2294.638420,-8197.221829,-518.144159
4055.867470,2220.617826,-9116.536426,-444.123565
4055.867794,1184.329507,-8886.707777,-666.185348
4055.868118,0.000000,-9499.584175,-592.164754
4055.868442,-592.164754,-9346.365076,-148.041188
4055.868767,-1924.535449,-9346.365076,-222.061783
4055.869091,-1924.535449,-9116.536426,0.000000
4055.869415,-1258.350101,-8733.488677,0.000000
4055.869739,0.000000,-8197.221829,0.000000
4055.870064,1702.473667,-6894.859482,-592.164754
4055.870388,4145.153275,-7814.174080,-148.041188
4055.870712,4663.297435,-7431.126331,-592.164754
4055.871036,4959.379811,-8427.050478,-370.102971
4055.871361,4737.318029,-8580.269578,-962.267725
4055.871685,3182.885551,-8963.317327,-518.144159
4055.872009,1776.494261,-9193.145976,-370.102971
4055.872334,-148.041188,-9806.022374,-296.082377
4055.872658,-1702.473667,-9576.193725,-370.102971
4055.872982,-2812.782580,-8810.098227,-296.082377
4055.873306,-3034.844362,-8656.879127,-222.061783
4055.873631,-2368.659014,-8197.221829,148.041188
4055.873955,-1332.370696,-7354.516781,222.061783
4055.874279,0.000000,-7814.174080,0.000000
4055.874603,666.185348,-7967.393179,-370.102971
4055.874928,1776.494261,-7737.564530,148.041188
4055.875252,1850.514855,-8044.002729,-592.164754
4055.875576,1924.535449,-9193.145976,-296.082377
4055.875900,296.082377,-8963.317327,-592.164754
4055.876225,-592.164754,-9729.412825,0.000000
4055.876549,-1850.514855,-8656.879127,-296.082377
4055.876873,-1998.556043,-9652.803275,-148.041188
4055.877197,-1924.535449,-8810.098227,0.000000
4055.877522,-592.164754,-8350.440928,74.020594
4055.877846,740.205942,-7201.297681,0.000000
4055.878170,2516.700203,-7737.564530,-444.123565
4055.878494,4145.153275,-7507.735880,-444.123565
4055.878819,4737.318029,-8197.221829,-740.205942
4055.879143,4071.132681,-8197.221829,-814.226536
4055.879467,3627.009116,-8963.317327,-296.082377
4055.879791,1554.432478,-9116.536426,-518.144159
4055.880116,148.041188,-9652.803275,-518.144159
4055.880440,-1924.535449,-9729.412825,-592.164754
4055.880764,-2664.741391,-9422.974625,-148.041188
4055.881089,-3330.926739,-8427.050478,-296.082377
4055.881413,-2294.638420,-9039.926876,-222.061783
4055.881737,-1924.535449,-7890.783629,74.020594
4055.882061,-296.082377,-8350.440928,222.061783
4055.882386,1036.288319,-7660.954980,-518.144159
4055.882710,2146.597232,-7967.393179,74.020594
4055.883034,2368.659014,-7967.393179,-296.082377
4055.883358,2220.617826,-8503.660028,74.020594
4055.883683,1702.473667,-9193.145976,-370.102971
4055.884007,296.082377,-9422.974625,-592.164754
4055.884331,-666.185348,-9269.755526,-222.061783
4055.884655,-1998.556043,-9116.536426,-518.144159
4055.884980,-1998.556043,-9116.536426,0.000000
4055.885304,-1850.514855,-8197.221829,-518.144159
4055.885628,-518.144159,-8273.831378,0.000000
4055.885952,962.267725,-7660.954980,-296.082377
4055.886277,2516.700203,-7660.954980,-296.082377
4055.886601,4071.132681,-7584.345430,-666.185348
4055.886925,4737.318029,-8197.221829,0.000000
4055.887249,4367.215058,-8503.660028,-888.247130
4055.887574,3330.926739,-9116.536426,-518.144159
4055.887898,2146.597232,-9269.755526,148.041188
4055.888222,0.000000,-9346.365076,-518.144159
4055.888546,-1184.329507,-9576.193725,-518.144159
4055.888871,-2368.659014,-9269.755526,-296.082377
4055.889195,-2960.823768,-8656.879127,222.061783
4055.889519,-2516.700203,-8044.002729,-148.041188
4055.889844,-1406.391290,-8273.831378,148.041188
4055.890168,-370.102971,-7584.345430,-148.041188
4055.890492,592.164754,-7584.345430,296.082377
4055.890816,1554.432478,-7737.564530,-370.102971
4055.891141,1850.514855,-8503.660028,-592.164754
4055.891465,1480.411884,-8656.879127,-148.041188
4055.891789,148.041188,-9039.926876,-444.123565
4055.892113,-592.164754,-9269.755526,0.000000
4055.892438,-2072.576638,-9116.536426,-592.164754
4055.892762,-1554.432478,-9729.412825,0.000000
4055.893086,-2516.700203,-8503.660028,0.000000
4055.893410,-518.144159,-8810.098227,666.185348
4055.893735,148.041188,-6971.469032,0.000000
4055.894059,2516.700203,-8120.612279,0.000000
4055.894383,3256.906145,-7354.516781,-962.267725
4055.894707,4515.256246,-8733.488677,592.164754
4055.895032,4515.256246,-7660.954980,-1702.473667
4055.895356,3775.050304,-9422.974625,148.041188
4055.895680,1850.514855,-8656.879127,-1480.411884
4055.896004,296.082377,-9806.022374,0.000000
4055.896329,-1258.350101,-9499.584175,-740.205942
4055.896653,-2812.782580,-9806.022374,0.000000
4055.896977,-2812.782580,-9116.536426,-592.164754
4055.897301,-2442.679609,-8503.660028,-592.164754
4055.897626,-1702.473667,-7660.954980,74.020594
4055.897950,-518.144159,-7584.345430,0.000000
4055.898274,592.164754,-7660.954980,0.000000
4055.898599,1406.391290,-7660.954980,0.000000
4055.898923,2368.659014,-8120.612279,-370.102971
4055.899247,2294.638420,-8120.612279,-370.102971
4055.899571,1480.411884,-9116.536426,-222.061783
4055.899896,0.000000,-9116.536426,-518.144159
4055.900220,-814.226536,-9729.412825,-592.164754
4055.900544,-1998.556043,-8733.488677,-518.144159
4055.900868,-2220.617826,-9422.974625,-370.102971
4055.901193,-2368.659014,-8350.440928,-370.102971
4055.901517,-962.267725,-8503.660028,-296.082377
4055.901841,888.247130,-7124.688131,148.041188
4055.902165,2368.659014,-7507.735880,-518.144159
4055.902490,4145.153275,-8044.002729,-592.164754
4055.902814,5033.400406,-7814.174080,-740.205942
4055.903138,4811.338623,-8503.660028,-444.123565
4055.903462,3997.112087,-8580.269578,-518.144159
4055.903787,2590.720797,-9346.365076,-370.102971
4055.904111,74.020594,-9422.974625,-518.144159
4055.904435,-962.267725,-10035.851024,-444.123565
4055.904759,-2368.659014,-9193.145976,-222.061783
4055.905084,-2664.741391,-9499.584175,0.000000
4055.905408,-1850.514855,-8427.050478,-592.164754
4055.905732,-1776.494261,-8503.660028,222.061783
4055.906056,-666.185348,-7354.516781,-370.102971
4055.906381,888.247130,-7890.783629,-148.041188
4055.906705,1850.514855,-8197.221829,-370.102971
4055.907029,1776.494261,-8427.050478,-592.164754
4055.907354,1554.432478,-9193.145976,-296.082377
4055.907678,666.185348,-8963.317327,-444.123565
4055.908002,0.000000,-9269.755526,-444.123565
4055.908327,-1776.494261,-9346.365076,-666.185348
4055.908651,-2072.576638,-9193.145976,0.000000
4055.908975,-2072.576638,-8350.440928,0.000000
4055.909300,-1184.329507,-8503.660028,0.000000
4055.909624,0.000000,-7660.954980,-444.123565
4055.909949,1702.473667,-8273.831378,0.000000
4055.910273,2960.823768,-7507.735880,-666.185348
4055.910597,4589.276840,-7890.783629,-370.102971
4055.910922,4737.318029,-8350.440928,-666.185348
4055.911246,4071.132681,-8963.317327,-296.082377
4055.911570,2516.700203,-8656.879127,-814.226536
4055.911895,1332.370696,-9652.803275,-814.226536
4055.912219,-1110.308913,-9039.926876,-296.082377
4055.912544,-2886.803174,-9499.584175,-296.082377
4055.912868,-2368.659014,-9116.536426,-370.102971
4055.913192,-3108.864956,-8120.612279,222.061783
4055.913517,-1850.514855,-8580.269578,-148.041188
4055.913841,-1776.494261,-7354.516781,74.020594
4055.914165,740.205942,-8044.002729,740.205942
4055.914490,1406.391290,-7431.126331,-666.185348
4055.914814,3034.844362,-8580.269578,296.082377
4055.915139,2738.761985,-8273.831378,-666.185348
4055.915463,2294.638420,-9039.926876,296.082377
4055.915787,814.226536,-8580.269578,-444.123565
4055.916112,-592.164754,-9422.974625,-592.164754
4055.916436,-1628.453072,-9269.755526,-666.185348
4055.916760,-2812.782580,-8810.098227,0.000000
4055.917085,-2294.638420,-8886.707777,-370.102971
4055.917409,-814.226536,-8350.440928,0.000000
4055.917733,740.205942,-8044.002729,-296.082377
4055.918058,1998.556043,-7507.735880,-370.102971
4055.918382,3552.988522,-7814.174080,-962.267725
4055.918707,4441.235652,-7967.393179,-592.164754
4055.919031,4515.256246,-8427.050478,-740.205942
4055.919355,3775.050304,-8656.879127,-592.164754
4055.919680,2516.700203,-9422.974625,-518.144159
4055.920004,814.226536,-9346.365076,-666.185348
4055.920328,-518.144159,-9039.926876,-1110.308913
4055.920653,-1702.473667,-9346.365076,-296.082377
4055.920977,-2960.823768,-8810.098227,-296.082377
4055.921302,-2960.823768,-8503.660028,-296.082377
4055.921626,-2072.576638,-8044.002729,0.000000
4055.921950,-1036.288319,-7890.783629,0.000000
4055.922275,518.144159,-7967.393179,-518.144159
4055.922599,1332.370696,-8350.440928,-148.041188
4055.922923,1924.535449,-8427.050478,-518.144159
4055.923248,1406.391290,-8810.098227,-592.164754
4055.923572,1036.288319,-9039.926876,-666.185348
4055.923896,0.000000,-9499.584175,-518.144159
4055.924221,-1258.350101,-9269.755526,-518.144159
4055.924545,-1776.494261,-9346.365076,-666.185348
4055.924870,-2368.659014,-8580.269578,-518.144159
4055.925194,-1406.391290,-8733.488677,-222.061783
4055.925518,0.000000,-8044.002729,-444.123565
4055.925843,1036.288319,-8197.221829,0.000000
4055.926167,2738.761985,-7737.564530,-444.123565
4055.926491,3775.050304,-7814.174080,-962.267725
4055.926816,4441.235652,-8197.221829,-666.185348
4055.927140,4071.132681,-8503.660028,-1184.329507
4055.927465,2516.700203,-9039.926876,0.000000
4055.927789,1110.308913,-9193.145976,-592.164754
4055.928113,0.000000,-9499.584175,-518.144159
4055.928438,-1628.453072,-9422.974625,-518.144159
4055.928762,-2590.720797,-9652.803275,0.000000
4055.929086,-2886.803174,-8656.879127,-370.102971
4055.929411,-2368.659014,-8197.221829,148.041188
4055.929735,-814.226536,-8273.831378,0.000000
4055.930060,-222.061783,-7507.735880,0.000000
4055.930384,1406.391290,-8273.831378,0.000000
4055.930708,2072.576638,-7431.126331,-666.185348
4055.931033,3182.885551,-9039.926876,0.000000
4055.931357,1776.494261,-8350.440928,-666.185348
4055.931681,1480.411884,-9729.412825,370.102971
4055.932006,0.000000,-8503.660028,-518.144159
4055.932330,-518.144159,-9806.022374,0.000000
4055.932654,-1702.473667,-8503.660028,-370.102971
4055.932979,-1110.308913,-9499.584175,370.102971
4055.933303,-1332.370696,-7967.393179,-444.123565
4055.933628,-148.041188,-8273.831378,0.000000
4055.933952,1628.453072,-7277.907231,-444.123565
4055.934276,3108.864956,-8044.002729,-148.041188
4055.934601,3849.070898,-7814.174080,-666.185348
4055.934925,4367.215058,-8120.612279,-296.082377
4055.935249,4071.132681,-8427.050478,-518.144159
4055.935574,2812.782580,-8963.317327,-444.123565
4055.935898,1776.494261,-9116.536426,0.000000
4055.936223,296.082377,-9346.365076,-592.164754
4055.936547,-1406.391290,-9346.365076,-444.123565
4055.936871,-2664.741391,-8963.317327,-518.144159
4055.937196,-2516.700203,-9193.145976,-222.061783
4055.937520,-2664.741391,-8120.612279,-518.144159
4055.937844,-1258.350101,-8197.221829,0.000000
4055.938169,-222.061783,-7737.564530,-148.041188
4055.938493,888.247130,-8197.221829,-222.061783
4055.938818,1332.370696,-8273.831378,-888.247130
4055.939142,1850.514855,-8580.269578,0.000000
4055.939466,1184.329507,-8580.269578,-518.144159
4055.939791,370.102971,-8810.098227,0.000000
4055.940115,74.020594,-8963.317327,-518.144159
4055.940439,-1628.453072,-9729.412825,-592.164754
4055.940764,-1924.535449,-9039.926876,-370.102971
4055.941088,-1850.514855,-8656.879127,-296.082377
4055.941412,-1184.329507,-8656.879127,0.000000
4055.941737,0.000000,-8120.612279,-592.164754
4055.942061,1554.432478,-7814.174080,-666.185348
4055.942386,2590.720797,-8044.002729,-962.267725
4055.942710,4071.132681,-8350.440928,-888.247130
4055.943034,4145.153275,-8273.831378,-1184.329507
4055.943359,3404.947333,-8580.269578,-814.226536
4055.943683,1702.473667,-9193.145976,-592.164754
4055.944007,518.144159,-9422.974625,-1110.308913
4055.944332,-888.247130,-9499.584175,-518.144159
4055.944656,-2516.700203,-8810.098227,-370.102971
4055.944981,-2664.741391,-9422.974625,-222.061783
4055.945305,-3108.864956,-8580.269578,-370.102971
4055.945629,-1554.432478,-8810.098227,222.061783
4055.945954,-740.205942,-7584.345430,-518.144159
4055.946278,1258.350101,-8733.488677,0.000000
4055.946602,1702.473667,-7507.735880,-592.164754
4055.946927,2590.720797,-8503.660028,148.041188
4055.947251,1702.473667,-7584.345430,-1110.308913
4055.947575,1998.556043,-9576.193725,222.061783
4055.947900,74.020594,-8427.050478,-592.164754
4055.948224,-518.144159,-9652.803275,148.041188
4055.948549,-1480.411884,-8810.098227,-518.144159
4055.948873,-1924.535449,-9039.926876,592.164754
4055.949197,-1332.370696,-8044.002729,-444.123565
4055.949522,-592.164754,-8120.612279,148.041188
4055.949846,1036.288319,-7814.174080,-296.082377
4055.950170,2590.720797,-7431.126331,148.041188
4055.950495,4367.215058,-7354.516781,-666.185348
4055.950819,4811.338623,-8503.660028,0.000000
4055.951144,4441.235652,-7814.174080,-444.123565
4055.951468,3627.009116,-9576.193725,0.000000
4055.951792,2146.597232,-8886.707777,-518.144159
4055.952117,444.123565,-9422.974625,-518.144159
4055.952441,-1036.288319,-9269.755526,-518.144159
4055.952765,-1998.556043,-9729.412825,-518.144159
4055.953090,-2590.720797,-8810.098227,-592.164754
4055.953414,-2294.638420,-8350.440928,-370.102971
4055.953739,-1628.453072,-7890.783629,-370.102971
4055.954063,-666.185348,-8427.050478,296.082377
4055.954387,296.082377,-8120.612279,-518.144159
4055.954712,1628.453072,-8656.879127,0.000000
4055.955036,1998.556043,-8503.660028,-370.102971
4055.955360,1776.494261,-9116.536426,-296.082377
4055.955685,1036.288319,-9422.974625,148.041188
4055.956009,74.020594,-9269.755526,0.000000
4055.956333,-1480.411884,-9422.974625,-518.144159
4055.956658,-2072.576638,-9346.365076,-592.164754
4055.956982,-1480.411884,-9576.193725,0.000000
4055.957307,-1480.411884,-8503.660028,-222.061783
4055.957631,0.000000,-8197.221829,-296.082377
4055.957955,1036.288319,-8044.002729,-444.123565
4055.958280,2664.741391,-8273.831378,-592.164754
4055.958604,3849.070898,-8580.269578,-962.267725
4055.958928,3775.050304,-8656.879127,-888.247130
4055.959253,3404.947333,-8656.879127,-740.205942
4055.959577,2442.679609,-9422.974625,-296.082377
4055.959902,148.041188,-9499.584175,-592.164754
4055.960226,-666.185348,-9806.022374,-296.082377
4055.960550,-2368.659014,-8580.269578,-740.205942
4055.960875,-2516.700203,-9652.803275,222.061783
4055.961199,-2516.700203,-8886.707777,-962.267725
4055.961523,-1480.411884,-8886.707777,222.061783
4055.961848,-1036.288319,-7814.174080,-740.205942
4055.962172,592.164754,-8044.002729,296.082377
4055.962496,1332.370696,-7890.783629,-444.123565
4055.962821,2368.659014,-8503.660028,148.041188
4055.963145,1924.535449,-7890.783629,-888.247130
4055.963470,1332.370696,-8886.707777,-222.061783
4055.963794,74.020594,-8886.707777,-444.123565
4055.964118,-1184.329507,-8427.050478,0.000000
4055.964443,-1776.494261,-9576.193725,-518.144159
4055.964767,-2738.761985,-8886.707777,-296.082377
4055.965091,-1332.370696,-8886.707777,0.000000
4055.965416,-1332.370696,-7737.564530,-148.041188
4055.965740,962.267725,-8197.221829,74.020594
4055.966065,2072.576638,-7660.954980,-222.061783
4055.966389,3775.050304,-8273.831378,-518.144159
4055.966713,4589.276840,-7660.954980,-222.061783
4055.967038,4811.338623,-8273.831378,0.000000
4055.967362,3849.070898,-8197.221829,-444.123565
4055.967686,2886.803174,-9269.755526,0.000000
4055.968011,1036.288319,-9039.926876,-592.164754
4055.968335,0.000000,-9806.022374,0.000000
4055.968660,-1258.350101,-8963.317327,-888.247130
4055.968984,-2146.597232,-9346.365076,0.000000
4055.969308,-2368.659014,-8350.440928,-444.123565
4055.969633,-1702.473667,-8886.707777,0.000000
4055.969957,-1184.329507,-7660.954980,-296.082377
4055.970281,0.000000,-7890.783629,148.041188
4055.970606,1258.350101,-8273.831378,-666.185348
4055.970930,1628.453072,-8197.221829,-74.020594
4055.971254,1332.370696,-8273.831378,74.020594
4055.971579,666.185348,-8733.488677,-296.082377
4055.971903,0.000000,-9346.365076,-296.082377
4055.972228,-740.205942,-9193.145976,-518.144159
4055.972552,-1554.432478,-9346.365076,-296.082377
4055.972876,-2072.576638,-8810.098227,-592.164754
4055.973201,-1332.370696,-8810.098227,-370.102971
4055.973525,-370.102971,-7431.126331,0.000000
4055.973849,1036.288319,-8427.050478,-296.082377
4055.974174,2664.741391,-7967.393179,-740.205942
4055.974498,3849.070898,-7967.393179,-666.185348
4055.974823,4663.297435,-8350.440928,-666.185348
4055.975147,3923.091493,-8886.707777,-1110.308913
4055.975471,3256.906145,-9499.584175,0.000000
4055.975796,1850.514855,-9193.145976,-814.226536
4055.976120,148.041188,-9422.974625,-888.247130
4055.976444,-1628.453072,-9193.145976,-444.123565
4055.976769,-2516.700203,-9269.755526,-444.123565
4055.977093,-2886.803174,-9346.365076,-592.164754
4055.977417,-2886.803174,-8350.440928,-370.102971
4055.977742,-962.267725,-8886.707777,0.000000
4055.978066,0.000000,-7277.907231,-222.061783
4055.978391,1332.370696,-8810.098227,74.020594
4055.978715,1924.535449,-7814.174080,-518.144159
4055.979039,2886.803174,-8886.707777,-148.041188
4055.979364,1998.556043,-8503.660028,-518.144159
4055.979688,1184.329507,-9806.022374,296.082377
4055.980012,-666.185348,-8733.488677,-370.102971
4055.980337,-1554.432478,-9576.193725,0.000000
4055.980661,-2516.700203,-8273.831378,-592.164754
4055.980986,-2368.659014,-9269.755526,0.000000
4055.981310,-1480.411884,-8044.002729,-444.123565
4055.981634,-222.061783,-8427.050478,296.082377
4055.981959,1480.411884,-7737.564530,-296.082377
4055.982283,3108.864956,-7814.174080,-592.164754
4055.982607,4515.256246,-8197.221829,-814.226536
4055.982932,4589.276840,-7967.393179,-518.144159
4055.983256,4737.318029,-8503.660028,-148.041188
4055.983581,3404.947333,-8886.707777,-296.082377
4055.983905,1776.494261,-9576.193725,222.061783
4055.984229,74.020594,-9346.365076,-592.164754
4055.984554,-1702.473667,-9576.193725,-666.185348
4055.984878,-2294.638420,-8886.707777,-370.102971
4055.985202,-2590.720797,-8733.488677,0.000000
4055.985527,-2368.659014,-8044.002729,-592.164754
4055.985851,-1036.288319,-8503.660028,0.000000
4055.986175,0.000000,-7814.174080,-444.123565
4055.986500,1036.288319,-8197.221829,0.000000
4055.986824,1480.411884,-7354.516781,-370.102971
4055.987149,1406.391290,-8963.317327,0.000000
4055.987473,814.226536,-8427.050478,-666.185348
4055.987797,-370.102971,-9729.412825,-296.082377
4055.988122,-1480.411884,-9499.584175,-370.102971
4055.988446,-2220.617826,-9422.974625,-222.061783
4055.988770,-2886.803174,-8963.317327,-222.061783
4055.989095,-1702.473667,-9039.926876,-296.082377
4055.989419,-962.267725,-8273.831378,-296.082377
4055.989744,296.082377,-8120.612279,0.000000
4055.990068,2072.576638,-7507.735880,-370.102971
4055.990392,3108.864956,-8197.221829,-296.082377
4055.990717,4071.132681,-8120.612279,-592.164754
4055.991041,3923.091493,-8963.317327,-370.102971
4055.991365,3256.906145,-8886.707777,-814.226536
4055.991690,2812.782580,-9193.145976,-370.102971
4055.992014,740.205942,-9193.145976,-1258.350101
4055.992339,-444.123565,-10725.336972,-148.041188
4055.992663,-2220.617826,-8810.098227,-888.247130
4055.992987,-2516.700203,-9499.584175,-444.123565
4055.993312,-2886.803174,-8580.269578,-296.082377
4055.993636,-1258.350101,-8886.707777,444.123565
4055.993960,-1110.308913,-7354.516781,-370.102971
4055.994285,888.247130,-8503.660028,370.102971
4055.994609,1702.473667,-7354.516781,-962.267725
4055.994933,2886.803174,-9193.145976,148.041188
4055.995258,1702.473667,-8273.831378,0.000000
4055.995582,1554.432478,-9729.412825,296.082377
4055.995907,-296.082377,-8810.098227,-888.247130
4055.996231,-1184.329507,-9422.974625,0.000000
4055.996555,-1850.514855,-8810.098227,-592.164754
4055.996880,-2368.659014,-9116.536426,0.000000
4055.997204,-2146.597232,-8273.831378,-296.082377
4055.997528,-444.123565,-8580.269578,0.000000
4055.997853,1036.288319,-7814.174080,-518.144159
4055.998177,3108.864956,-7507.735880,74.020594
4055.998502,4293.194464,-7890.783629,-888.247130
4055.998826,4811.338623,-8197.221829,-370.102971
4055.999150,4811.338623,-8273.831378,-814.226536
4055.999475,3849.070898,-9499.584175,222.061783
4055.999799,2368.659014,-9116.536426,-592.164754
4056.000123,74.020594,-9729.412825,-370.102971
4056.000448,-1406.391290,-9422.974625,-814.226536
4056.000772,-2368.659014,-9652.803275,-222.061783
4056.001096,-2368.659014,-8427.050478,-148.041188
4056.001421,-2146.597232,-8273.831378,0.000000
4056.001745,-1184.329507,-7967.393179,-518.144159
4056.002070,222.061783,-7890.783629,0.000000
4056.002394,1184.329507,-7814.174080,0.000000
4056.002718,1036.288319,-8503.660028,-518.144159
4056.003043,1628.453072,-8350.440928,-370.102971
4056.003367,1184.329507,-8580.269578,-592.164754
4056.003691,74.020594,-9193.145976,-148.041188
4056.004016,-1110.308913,-9652.803275,0.000000
4056.004340,-1924.535449,-9652.803275,-296.082377
4056.004665,-2368.659014,-9422.974625,-444.123565
4056.004989,-2072.576638,-8886.707777,-296.082377
4056.005313,-740.205942,-8656.879127,0.000000
4056.005638,666.185348,-7890.783629,296.082377
4056.005962,1998.556043,-7737.564530,-296.082377
4056.006286,3034.844362,-8273.831378,-518.144159
4056.006611,3775.050304,-7660.954980,-814.226536
4056.006935,3775.050304,-8580.269578,-592.164754
4056.007260,3182.885551,-8503.660028,-962.267725
4056.007584,2442.679609,-9422.974625,0.000000
4056.007908,444.123565,-9422.974625,-518.144159
4056.008233,-222.061783,-9806.022374,-370.102971
4056.008557,-2072.576638,-9039.926876,-666.185348
4056.008881,-2590.720797,-9346.365076,0.000000
4056.009206,-2294.638420,-8197.221829,0.000000
4056.009530,-740.205942,-8120.612279,0.000000
4056.009855,-370.102971,-8273.831378,-370.102971
4056.010179,1184.329507,-7354.516781,0.000000
4056.010504,1110.308913,-8350.440928,-444.123565
4056.010828,1850.514855,-7354.516781,296.082377
4056.011152,2146.597232,-8886.707777,-592.164754
4056.011477,888.247130,-8810.098227,-370.102971
4056.011801,74.020594,-9116.536426,0.000000
4056.012126,-1406.391290,-9116.536426,-370.102971
4056.012450,-1332.370696,-9729.412825,0.000000
4056.012774,-2294.638420,-7967.393179,-222.061783
4056.013099,-1332.370696,-9652.803275,0.000000
4056.013423,-1110.308913,-7354.516781,-592.164754
4056.013748,1110.308913,-8044.002729,740.205942
4056.014072,2072.576638,-6971.469032,-740.205942
4056.014396,3552.988522,-8427.050478,0.000000
4056.014721,4293.194464,-8120.612279,-962.267725
4056.015045,4145.153275,-9193.145976,-296.082377
4056.015370,3256.906145,-8273.831378,-592.164754
4056.015694,2220.617826,-9422.974625,-592.164754
4056.016018,962.267725,-9346.365076,-296.082377
4056.016343,-444.123565,-9039.926876,-518.144159
4056.016667,-1554.432478,-9193.145976,-740.205942
4056.016992,-2368.659014,-8810.098227,0.000000
4056.017316,-2368.659014,-8273.831378,-518.144159
4056.017640,-1998.556043,-8044.002729,-296.082377
4056.017965,222.061783,-8120.612279,74.020594
4056.018289,518.144159,-7431.126331,-222.061783
4056.018614,1184.329507,-8427.050478,-370.102971
4056.018938,1554.432478,-7890.783629,-1036.288319
4056.019262,1036.288319,-9422.974625,0.000000
4056.019587,444.123565,-8197.221829,-814.226536
4056.019911,-592.164754,-9499.584175,0.000000
4056.020236,-1924.535449,-9346.365076,-518.144159
4056.020560,-2146.597232,-9116.536426,-370.102971
4056.020884,-1702.473667,-8886.707777,-444.123565
4056.021209,-1184.329507,-9116.536426,-74.020594
4056.021533,-296.082377,-8273.831378,-370.102971
4056.021858,1036.288319,-8120.612279,0.000000
4056.022182,2368.659014,-8273.831378,-222.061783
4056.022506,4219.173869,-8350.440928,-962.267725
4056.022831,4145.153275,-8044.002729,-814.226536
4056.023155,4145.153275,-8810.098227,-592.164754
4056.023480,2886.803174,-9269.755526,0.000000
4056.023804,1480.411884,-9806.022374,-740.205942
4056.024128,370.102971,-9576.193725,-666.185348
4056.024453,-1036.288319,-9116.536426,-444.123565
4056.024777,-1924.535449,-9346.365076,-592.164754
4056.025102,-2368.659014,-9039.926876,0.000000
4056.025426,-2072.576638,-8273.831378,-296.082377
4056.025750,-888.247130,-8273.831378,0.000000
4056.026075,222.061783,-7354.516781,-148.041188
4056.026399,2220.617826,-8350.440928,-148.041188
4056.026724,1702.473667,-7660.954980,-666.185348
4056.027048,2220.617826,-8810.098227,-370.102971
4056.027372,1332.370696,-8120.612279,-592.164754
4056.027697,888.247130,-9499.584175,-222.061783
4056.028021,-740.205942,-8963.317327,-592.164754
4056.028346,-1332.370696,-9729.412825,0.000000
4056.028670,-2220.617826,-8656.879127,-370.102971
4056.028994,-1850.514855,-9116.536426,222.061783
4056.029319,-1110.308913,-7660.954980,-592.164754
4056.029643,1110.308913,-8427.050478,444.123565
4056.029968,2442.679609,-7354.516781,-296.082377
4056.030292,3701.029710,-8197.221829,-444.123565
4056.030617,4145.153275,-7431.126331,-592.164754
4056.030941,4367.215058,-8044.002729,-148.041188
4056.031265,3923.091493,-8120.612279,-962.267725
4056.031590,2590.720797,-9652.803275,148.041188
4056.031914,666.185348,-8886.707777,-518.144159
4056.032239,0.000000,-9346.365076,-148.041188
4056.032563,-1554.432478,-8503.660028,-962.267725
4056.032887,-518.144159,-9346.365076,148.041188
4056.033212,-2812.782580,-7967.393179,-814.226536
4056.033536,-592.164754,-8197.221829,74.020594
4056.033861,-1258.350101,-7660.954980,-518.144159
4056.034185,148.041188,-8273.831378,296.082377
4056.034509,1036.288319,-7814.174080,-370.102971
4056.034834,1110.308913,-8580.269578,-666.185348
4056.035158,962.267725,-8963.317327,0.000000
4056.035483,222.061783,-8656.879127,-518.144159
4056.035807,-444.123565,-9806.022374,148.041188
4056.036131,-1480.411884,-8580.269578,-518.144159
4056.036456,-1628.453072,-9652.803275,-296.082377
4056.036780,-2294.638420,-8656.879127,-444.123565
4056.037105,-1332.370696,-8580.269578,0.000000
4056.037429,-518.144159,-8427.050478,-370.102971
4056.037753,888.247130,-7967.393179,0.000000
4056.038078,1628.453072,-8350.440928,-370.102971
4056.038402,3330.926739,-8350.440928,-888.247130
4056.038727,3701.029710,-8273.831378,-296.082377
4056.039051,3552.988522,-8580.269578,-814.226536
4056.039375,2812.782580,-8580.269578,-222.061783
4056.039700,1332.370696,-9346.365076,-814.226536
4056.040024,444.123565,-9269.755526,-666.185348
4056.040349,-592.164754,-8810.098227,-518.144159
4056.040673,-2072.576638,-8810.098227,-592.164754
4056.040997,-2220.617826,-8886.707777,-370.102971
4056.041322,-2442.679609,-7967.393179,0.000000
4056.041646,-1036.288319,-8810.098227,-148.041188
4056.041971,-444.123565,-8120.612279,-518.144159
4056.042295,888.247130,-8427.050478,0.000000
4056.042619,1258.350101,-7431.126331,-518.144159
4056.042944,2072.576638,-8733.488677,0.000000
4056.043268,1702.473667,-8273.831378,-962.267725
4056.043593,1480.411884,-9269.755526,148.041188
4056.043917,-296.082377,-8197.221829,-592.164754
4056.044241,-666.185348,-9422.974625,-148.041188
4056.044566,-1332.370696,-8120.612279,-592.164754
4056.044890,-1924.535449,-9193.145976,296.082377
4056.045215,-1110.308913,-8350.440928,-518.144159
4056.045539,-370.102971,-8273.831378,296.082377
4056.045863,962.267725,-7584.345430,-296.082377
4056.046188,1924.535449,-7737.564530,-592.164754
4056.046512,4293.194464,-8044.002729,-962.267725
4056.046837,4663.297435,-8273.831378,-518.144159
4056.047161,4811.338623,-8273.831378,-444.123565
4056.047485,3775.050304,-8580.269578,-370.102971
4056.047810,2368.659014,-9269.755526,-740.205942
4056.048134,666.185348,-9269.755526,-666.185348
4056.048459,-592.164754,-9116.536426,-296.082377
4056.048783,-1998.556043,-9193.145976,-222.061783
4056.049107,-2146.597232,-8503.660028,-222.061783
4056.049432,-1776.494261,-8503.660028,-444.123565
4056.049756,-1110.308913,-8656.879127,-518.144159
4056.050081,-444.123565,-7814.174080,-518.144159
4056.050405,444.123565,-8044.002729,148.041188
4056.050730,1332.370696,-7814.174080,-592.164754
4056.051054,1702.473667,-8733.488677,0.000000
4056.051378,1406.391290,-8503.660028,-592.164754
4056.051703,814.226536,-9269.755526,-444.123565
4056.052027,-370.102971,-9422.974625,-740.205942
4056.052352,-1332.370696,-9729.412825,74.020594
4056.052676,-2516.700203,-8810.098227,-296.082377
4056.053000,-1776.494261,-9422.974625,74.020594
4056.053325,-1924.535449,-8273.831378,74.020594
4056.053649,-296.082377,-8580.269578,0.000000
4056.053974,1480.411884,-7967.393179,-444.123565
4056.054298,2590.720797,-7814.174080,-370.102971
4056.054622,3849.070898,-8350.440928,-814.226536
4056.054947,3849.070898,-8350.440928,-740.205942
4056.055271,3627.009116,-8733.488677,-518.144159
4056.055596,2664.741391,-9039.926876,-444.123565
4056.055920,1258.350101,-9499.584175,-518.144159
4056.056244,-148.041188,-9576.193725,0.000000
4056.056569,-1850.514855,-9116.536426,-666.185348
4056.056893,-2368.659014,-9116.536426,-222.061783
4056.057218,-2738.761985,-8733.488677,0.000000
4056.057542,-1554.432478,-8044.002729,518.144159
4056.057866,-1110.308913,-7660.954980,0.000000
4056.058191,148.041188,-7660.954980,74.020594
4056.058515,888.247130,-7660.954980,-370.102971
4056.058840,1998.556043,-8044.002729,-518.144159
4056.059164,1924.535449,-8503.660028,-592.164754
4056.059488,962.267725,-8733.488677,370.102971
4056.059813,296.082377,-9116.536426,-444.123565
4056.060137,-1110.308913,-9039.926876,-444.123565
4056.060462,-1554.432478,-9269.755526,-666.185348
4056.060786,-2220.617826,-8886.707777,-222.061783
4056.061110,-2146.597232,-8886.707777,74.020594
4056.061435,-1628.453072,-8350.440928,296.082377
4056.061759,592.164754,-8580.269578,-518.144159
4056.062084,1924.535449,-7354.516781,-148.041188
4056.062408,3404.947333,-7890.783629,-296.082377
4056.062732,4293.194464,-7277.907231,-370.102971
4056.063057,4737.318029,-8350.440928,-296.082377
4056.063381,4293.194464,-8427.050478,-666.185348
4056.063706,3034.844362,-9116.536426,-296.082377
4056.064030,1628.453072,-9193.145976,-814.226536
4056.064354,0.000000,-9269.755526,-370.102971
4056.064679,-962.267725,-9269.755526,-444.123565
4056.065003,-2590.720797,-8886.707777,-222.061783
4056.065328,-2738.761985,-8656.879127,0.000000
4056.065652,-2368.659014,-7967.393179,0.000000
4056.065976,-962.267725,-8580.269578,-370.102971
4056.066301,0.000000,-8120.612279,-296.082377
4056.066625,814.226536,-8197.221829,-592.164754
4056.066950,1406.391290,-7967.393179,-370.102971
4056.067274,1480.411884,-8656.879127,-444.123565
4056.067598,1110.308913,-9116.536426,-518.144159
4056.067923,740.205942,-9422.974625,-296.082377
4056.068247,-592.164754,-9116.536426,-518.144159
4056.068572,-1554.432478,-9729.412825,-888.247130
4056.068896,-1702.473667,-9269.755526,222.061783
4056.069220,-1480.411884,-8963.317327,0.000000
4056.069545,-814.226536,-8273.831378,-518.144159
4056.069869,666.185348,-8120.612279,0.000000
4056.070194,2072.576638,-8503.660028,-222.061783
4056.070518,2960.823768,-7814.174080,-518.144159
4056.070843,4219.173869,-8120.612279,-1406.391290
4056.071167,4441.235652,-8963.317327,-888.247130
4056.071491,3330.926739,-8350.440928,-740.205942
4056.071816,1850.514855,-9652.803275,-740.205942
4056.072140,370.102971,-9499.584175,-592.164754
4056.072465,-1332.370696,-9806.022374,-666.185348
4056.072789,-2368.659014,-9576.193725,-370.102971
4056.073113,-2812.782580,-9499.584175,444.123565
4056.073438,-2368.659014,-8503.660028,0.000000
4056.073762,-1480.411884,-8503.660028,-370.102971
4056.074087,-370.102971,-7507.735880,-148.041188
4056.074411,1036.288319,-8350.440928,0.000000
4056.074735,1258.350101,-7354.516781,-148.041188
4056.075060,2368.659014,-8656.879127,0.000000
4056.075384,1480.411884,-8427.050478,-296.082377
4056.075709,1406.391290,-9346.365076,-296.082377
4056.076033,-518.144159,-8580.269578,-518.144159
4056.076357,-888.247130,-9422.974625,0.000000
4056.076682,-2072.576638,-8963.317327,-370.102971
4056.077006,-2220.617826,-9346.365076,518.144159
4056.077331,-2146.597232,-8044.002729,222.061783
4056.077655,-592.164754,-8503.660028,148.041188
4056.077979,1480.411884,-7737.564530,-518.144159
4056.078304,2812.782580,-7737.564530,-222.061783
4056.078628,4219.173869,-7660.954980,-444.123565
4056.078953,4589.276840,-8580.269578,-148.041188
4056.079277,4737.318029,-8580.269578,-888.247130
4056.079601,3404.947333,-8886.707777,-592.164754
4056.079926,2294.638420,-9039.926876,-370.102971
4056.080250,370.102971,-9576.193725,-222.061783
4056.080575,-1184.329507,-8963.317327,-370.102971
4056.080899,-1998.556043,-9269.755526,0.000000
4056.081223,-3034.844362,-8350.440928,0.000000
4056.081548,-2590.720797,-9346.365076,0.000000
4056.081872,-1850.514855,-7967.393179,0.000000
4056.082197,-296.082377,-7890.783629,74.020594
4056.082521,222.061783,-8044.002729,-518.144159
4056.082845,1258.350101,-8044.002729,-222.061783
4056.083170,1554.432478,-8580.269578,-444.123565
4056.083494,888.247130,-8733.488677,-518.144159
4056.083819,296.082377,-9116.536426,-592.164754
4056.084143,-444.123565,-9422.974625,-148.041188
4056.084467,-1332.370696,-9576.193725,-222.061783
4056.084792,-2072.576638,-8963.317327,0.000000
4056.085116,-1406.391290,-8810.098227,0.000000
4056.085441,-1406.391290,-7660.954980,-148.041188
4056.085765,666.185348,-8733.488677,222.061783
4056.086089,1554.432478,-7967.393179,-740.205942
4056.086414,3330.926739,-8120.612279,-370.102971
4056.086738,4071.132681,-7814.174080,-962.267725
4056.087063,4293.194464,-8656.879127,-592.164754
4056.087387,3923.091493,-8656.879127,-740.205942
4056.087711,2368.659014,-9116.536426,-444.123565
4056.088036,666.185348,-8886.707777,-740.205942
4056.088360,-444.123565,-9652.803275,-592.164754
4056.088685,-1628.453072,-9116.536426,-518.144159
4056.089009,-1850.514855,-9346.365076,0.000000
4056.089333,-2516.700203,-8350.440928,-370.102971
4056.089658,-1480.411884,-8503.660028,0.000000
4056.089982,-592.164754,-8120.612279,-592.164754
4056.090307,666.185348,-8427.050478,222.061783
4056.090631,1110.308913,-7584.345430,-444.123565
4056.090956,2072.576638,-8427.050478,0.000000
4056.091280,1554.432478,-8197.221829,-962.267725
4056.091604,1184.329507,-9116.536426,0.000000
4056.091929,148.041188,-9499.584175,-1110.308913
4056.092253,-1110.308913,-9269.755526,0.000000
4056.092578,-1702.473667,-9039.926876,-592.164754
4056.092902,-1998.556043,-9576.193725,148.041188
4056.093226,-1702.473667,-8044.002729,-592.164754
4056.093551,-592.164754,-8120.612279,148.041188
4056.093875,1110.308913,-7814.174080,-814.226536
4056.094200,2590.720797,-8197.221829,0.000000
4056.094524,3627.009116,-7660.954980,-1184.329507
4056.094848,4589.276840,-8197.221829,-296.082377
4056.095173,4737.318029,-8503.660028,-1036.288319
4056.095497,3552.988522,-9422.974625,-518.144159
4056.095822,2960.823768,-8733.488677,-592.164754
4056.096146,592.164754,-9269.755526,-518.144159
4056.096470,-666.185348,-9499.584175,-814.226536
4056.096795,-1776.494261,-8810.098227,-222.061783
4056.097119,-2146.597232,-9499.584175,370.102971
4056.097444,-2590.720797,-8044.002729,-370.102971
4056.097768,-1332.370696,-8580.269578,222.061783
4056.098092,-888.247130,-7814.174080,-370.102971
4056.098417,444.123565,-8427.050478,-296.082377
4056.098741,962.267725,-7584.345430,-666.185348
4056.099066,2072.576638,-8810.098227,222.061783
4056.099390,1036.288319,-7890.783629,-592.164754
4056.099714,1184.329507,-9959.241474,0.000000
4056.100039,-444.123565,-8886.707777,-888.247130
4056.100363,-1850.514855,-9576.193725,-148.041188
4056.100688,-1924.535449,-8733.488677,-296.082377
4056.101012,-2146.597232,-8810.098227,148.041188
4056.101336,-1332.370696,-8963.317327,444.123565
4056.101661,-370.102971,-7967.393179,74.020594
4056.101985,1628.453072,-8120.612279,0.000000
4056.102310,2516.700203,-7890.783629,-518.144159
4056.102634,4441.235652,-8503.660028,0.000000
4056.102958,4293.194464,-8044.002729,-740.205942
4056.103283,3849.070898,-9193.145976,-592.164754
4056.103607,2368.659014,-8656.879127,-666.185348
4056.103932,1332.370696,-9576.193725,-444.123565
4056.104256,-444.123565,-9039.926876,-592.164754
4056.104580,-1850.514855,-9346.365076,-370.102971
4056.104905,-2368.659014,-9039.926876,-296.082377
4056.105229,-2886.803174,-8503.660028,148.041188
4056.105554,-1850.514855,-8503.660028,-518.144159
4056.105878,-962.267725,-7967.393179,-222.061783
4056.106202,148.041188,-7890.783629,0.000000
4056.106527,1406.391290,-7660.954980,74.020594
4056.106851,2368.659014,-8273.831378,-296.082377
4056.107176,1998.556043,-8273.831378,0.000000
4056.107500,1702.473667,-8580.269578,-592.164754
4056.107824,518.144159,-9576.193725,-296.082377
4056.108149,-592.164754,-9269.755526,-740.205942
4056.108473,-1332.370696,-9039.926876,74.020594
4056.108798,-2220.617826,-8580.269578,-666.185348
4056.109122,-2294.638420,-9116.536426,-222.061783
4056.109447,-1332.370696,-8120.612279,-296.082377
4056.109771,592.164754,-8427.050478,296.082377
4056.110096,1850.514855,-7201.297681,-666.185348
4056.110420,3701.029710,-8197.221829,-444.123565
4056.110745,4441.235652,-7584.345430,-740.205942
4056.111069,4589.276840,-8580.269578,-814.226536
4056.111394,3997.112087,-8044.002729,-814.226536
4056.111718,2812.782580,-9193.145976,-296.082377
4056.112042,1258.350101,-9039.926876,-592.164754
4056.112367,74.020594,-9346.365076,-592.164754
4056.112691,-1036.288319,-9422.974625,-370.102971
4056.113016,-2220.617826,-8503.660028,-222.061783
4056.113340,-2516.700203,-8350.440928,-518.144159
4056.113665,-2146.597232,-8427.050478,0.000000
4056.113989,-814.226536,-7737.564530,-370.102971
4056.114314,1036.288319,-7814.174080,-666.185348
4056.114638,1258.350101,-7890.783629,-592.164754
4056.114963,1184.329507,-8273.831378,0.000000
4056.115287,1110.308913,-8733.488677,-444.123565
4056.115612,1184.329507,-9422.974625,-518.144159
4056.115936,444.123565,-9039.926876,-888.247130
4056.116260,-740.205942,-9806.022374,-296.082377
4056.116585,-1184.329507,-9193.145976,-296.082377
4056.116909,-1776.494261,-9346.365076,-370.102971
4056.117234,-1554.432478,-8656.879127,0.000000
4056.117558,-962.267725,-8273.831378,0.000000
4056.117883,666.185348,-8044.002729,-148.041188
4056.118207,2294.638420,-8044.002729,-148.041188
4056.118532,2886.803174,-7660.954980,-370.102971
4056.118856,3849.070898,-8427.050478,-666.185348
4056.119181,3404.947333,-8120.612279,-518.144159
4056.119505,3552.988522,-9346.365076,-518.144159
4056.119830,1628.453072,-8656.879127,-518.144159
4056.120154,370.102971,-9499.584175,-370.102971
4056.120478,-1628.453072,-8580.269578,-296.082377
4056.120803,-1480.411884,-9499.584175,-518.144159
4056.121127,-3108.864956,-8273.831378,0.000000
4056.121452,-2516.700203,-8580.269578,74.020594
4056.121776,-1850.514855,-8044.002729,0.000000
4056.122101,-592.164754,-8427.050478,370.102971
4056.122425,740.205942,-7814.174080,-222.061783
4056.122750,1850.514855,-7737.564530,-296.082377
4056.123074,1776.494261,-8273.831378,-370.102971
4056.123399,1998.556043,-8733.488677,0.000000
4056.123723,962.267725,-8580.269578,-444.123565
4056.124048,296.082377,-9729.412825,-740.205942
4056.124372,-1036.288319,-8886.707777,-666.185348
4056.124697,-1480.411884,-9576.193725,-222.061783
4056.125021,-2072.576638,-9039.926876,-296.082377
4056.125345,-1406.391290,-8197.221829,296.082377
4056.125670,-222.061783,-7967.393179,0.000000
4056.125994,1110.308913,-7890.783629,0.000000
4056.126319,2812.782580,-7737.564530,-518.144159
4056.126643,4219.173869,-8197.221829,-888.247130
4056.126968,4737.318029,-7814.174080,-518.144159
4056.127292,4293.194464,-8427.050478,-518.144159
4056.127617,2960.823768,-9039.926876,-740.205942
4056.127941,1850.514855,-9269.755526,-296.082377
4056.128266,814.226536,-10265.679673,-888.247130
4056.128590,-1036.288319,-9652.803275,-370.102971
4056.128915,-1850.514855,-9193.145976,-296.082377
4056.129239,-2442.679609,-9039.926876,-148.041188
4056.129563,-2220.617826,-8273.831378,148.041188
4056.129888,-1628.453072,-7967.393179,-370.102971
4056.130212,74.020594,-8044.002729,-296.082377
4056.130537,222.061783,-7660.954980,0.000000
4056.130861,1480.411884,-8350.440928,-222.061783
4056.131186,666.185348,-8580.269578,-518.144159
4056.131510,740.205942,-9193.145976,-444.123565
4056.131835,740.205942,-9039.926876,-444.123565
4056.132159,-888.247130,-9652.803275,-666.185348
4056.132484,-1258.350101,-10112.460574,0.000000
4056.132808,-2590.720797,-9346.365076,0.000000
4056.133133,-1258.350101,-8733.488677,-740.205942
4056.133457,-666.185348,-8656.879127,222.061783
4056.133781,666.185348,-7737.564530,-518.144159
4056.134106,2294.638420,-8120.612279,296.082377
4056.134430,2738.761985,-7660.954980,-1110.308913
4056.134755,4145.153275,-8810.098227,-296.082377
4056.135079,4367.215058,-8044.002729,-1332.370696
4056.135404,2812.782580,-9806.022374,-444.123565
4056.135728,1924.535449,-8810.098227,-518.144159
4056.136053,444.123565,-9346.365076,0.000000
4056.136377,-888.247130,-9116.536426,-666.185348
4056.136702,-1628.453072,-9499.584175,-370.102971
4056.137026,-2516.700203,-8810.098227,-296.082377
4056.137351,-2442.679609,-8120.612279,148.041188
4056.137675,-1406.391290,-8273.831378,-370.102971
4056.137999,-666.185348,-8120.612279,-148.041188
4056.138324,518.144159,-7890.783629,0.000000
4056.138648,740.205942,-7354.516781,-296.082377
4056.138973,1554.432478,-8733.488677,296.082377
4056.139297,1184.329507,-8120.612279,-666.185348
4056.139622,888.247130,-8810.098227,-74.020594
4056.139946,-222.061783,-8503.660028,-592.164754
4056.140271,-296.082377,-9576.193725,-370.102971
4056.140595,-1184.329507,-8503.660028,-666.185348
4056.140920,-1258.350101,-9116.536426,296.082377
4056.141244,-1110.308913,-8120.612279,-518.144159
4056.141569,0.000000,-8503.660028,0.000000
4056.141893,1332.370696,-7584.345430,-370.102971
4056.142218,2664.741391,-7737.564530,0.000000
4056.142542,3701.029710,-7890.783629,-740.205942
4056.142866,3997.112087,-8273.831378,-444.123565
4056.143191,4219.173869,-8656.879127,-592.164754
4056.143515,2812.782580,-8656.879127,-592.164754
4056.143840,1924.535449,-8886.707777,-666.185348
4056.144164,666.185348,-9193.145976,-592.164754
4056.144489,-666.185348,-9422.974625,-148.041188
4056.144813,-1850.514855,-9269.755526,-222.061783
4056.145138,-1924.535449,-8427.050478,-148.041188
4056.145462,-1628.453072,-8580.269578,-370.102971
4056.145787,-1258.350101,-8044.002729,0.000000
4056.146111,-222.061783,-8044.002729,0.000000
4056.146436,444.123565,-8197.221829,0.000000
4056.146760,740.205942,-8427.050478,-518.144159
4056.147084,888.247130,-8656.879127,-518.144159
4056.147409,1036.288319,-9116.536426,-592.164754
4056.147733,296.082377,-9039.926876,-148.041188
4056.148058,-666.185348,-8886.707777,-1184.329507
4056.148382,-1554.432478,-9806.022374,-222.061783
4056.148707,-2072.576638,-8733.488677,-814.226536
4056.149031,-2368.659014,-9193.145976,-444.123565
4056.149356,-1184.329507,-8273.831378,-370.102971
4056.149680,74.020594,-8120.612279,0.000000
4056.150005,1480.411884,-7890.783629,-222.061783
4056.150329,3108.864956,-8044.002729,-296.082377
4056.150654,4071.132681,-8044.002729,-962.267725
4056.150978,4367.215058,-8273.831378,-1406.391290
4056.151302,3552.988522,-8580.269578,-444.123565
4056.151627,2294.638420,-8810.098227,-518.144159
4056.151951,666.185348,-9652.803275,-888.247130
4056.152276,-814.226536,-8963.317327,-370.102971
4056.152600,-1850.514855,-9193.145976,-370.102971
4056.152925,-2368.659014,-9039.926876,-296.082377
4056.153249,-2442.679609,-8733.488677,222.061783
4056.153574,-1776.494261,-8273.831378,0.000000
4056.153898,-1110.308913,-7814.174080,-370.102971
4056.154223,74.020594,-8120.612279,0.000000
4056.154547,1554.432478,-7814.174080,0.000000
4056.154872,1998.556043,-7967.393179,-148.041188
4056.155196,1776.494261,-9039.926876,-222.061783
4056.155520,2072.576638,-9116.536426,0.000000
4056.155845,-444.123565,-9269.755526,-592.164754
4056.156169,-518.144159,-9039.926876,-222.061783
4056.156494,-1998.556043,-9729.412825,296.082377
4056.156818,-2220.617826,-8350.440928,-222.061783
4056.157143,-1258.350101,-9116.536426,518.144159
4056.157467,-888.247130,-7584.345430,-370.102971
4056.157792,1036.288319,-8273.831378,370.102971
4056.158116,2294.638420,-7048.078582,-518.144159
4056.158441,3849.070898,-8580.269578,0.000000
4056.158765,4367.215058,-7737.564530,-740.205942
4056.159090,4293.194464,-8963.317327,-222.061783
4056.159414,3923.091493,-7584.345430,-814.226536
4056.159739,2294.638420,-9269.755526,-296.082377
4056.160063,1258.350101,-9039.926876,-370.102971
4056.160387,-370.102971,-9422.974625,-370.102971
4056.160712,-1184.329507,-9116.536426,-296.082377
4056.161036,-1924.535449,-8503.660028,-222.061783
4056.161361,-2072.576638,-8350.440928,-148.041188
4056.161685,-1184.329507,-7814.174080,-74.020594
4056.162010,-518.144159,-7967.393179,0.000000
4056.162334,74.020594,-8656.879127,-518.144159
4056.162659,1258.350101,-8120.612279,-592.164754
4056.162983,1258.350101,-8427.050478,-592.164754
4056.163308,592.164754,-8580.269578,-518.144159
4056.163632,666.185348,-9576.193725,-666.185348
4056.163957,-222.061783,-9422.974625,-370.102971
4056.164281,-1184.329507,-9422.974625,-592.164754
4056.164605,-1924.535449,-9422.974625,-444.123565
4056.164930,-1850.514855,-9039.926876,-148.041188
4056.165254,-962.267725,-8580.269578,-666.185348
4056.165579,-444.123565,-8350.440928,-370.102971
4056.165903,1036.288319,-8197.221829,-148.041188
4056.166228,2368.659014,-7814.174080,-740.205942
4056.166552,3775.050304,-8733.488677,-962.267725
4056.166877,3923.091493,-8273.831378,-666.185348
4056.167201,3182.885551,-9116.536426,-518.144159
4056.167526,2664.741391,-9116.536426,-814.226536
4056.167850,1554.432478,-10265.679673,-592.164754
4056.168175,444.123565,-9499.584175,-1184.329507
4056.168499,-666.185348,-9269.755526,-370.102971
4056.168823,-1850.514855,-9039.926876,-518.144159
4056.169148,-1998.556043,-9193.145976,-444.123565
4056.169472,-2072.576638,-8044.002729,-370.102971
4056.169797,-962.267725,-8580.269578,0.000000
4056.170121,-666.185348,-7354.516781,-518.144159
4056.170446,740.205942,-8350.440928,222.061783
4056.170770,1036.288319,-8120.612279,-592.164754
4056.171095,1850.514855,-8810.098227,0.000000
4056.171419,1258.350101,-8427.050478,-740.205942
4056.171744,740.205942,-9422.974625,-148.041188
4056.172068,0.000000,-9499.584175,-518.144159
4056.172393,-1332.370696,-9269.755526,0.000000
4056.172717,-1924.535449,-8733.488677,-518.144159
4056.173042,-1702.473667,-9116.536426,0.000000
4056.173366,-1258.350101,-8427.050478,-370.102971
4056.173690,0.000000,-8120.612279,444.123565
4056.174015,1184.329507,-7584.345430,-222.061783
4056.174339,2738.761985,-7890.783629,-148.041188
4056.174664,3701.029710,-7737.564530,-592.164754
4056.174988,3775.050304,-8580.269578,0.000000
4056.175313,4293.194464,-8427.050478,-296.082377
4056.175637,3552.988522,-8580.269578,-296.082377
4056.175962,2072.576638,-9499.584175,-296.082377
4056.176286,666.185348,-9193.145976,-666.185348
4056.176611,-888.247130,-9422.974625,-444.123565
4056.176935,-1850.514855,-9116.536426,0.000000
4056.177260,-2220.617826,-8580.269578,0.000000
4056.177584,-2294.638420,-8350.440928,0.000000
4056.177908,-1628.453072,-7890.783629,370.102971
4056.178233,-740.205942,-7584.345430,-222.061783
4056.178557,592.164754,-8120.612279,-444.123565
4056.178882,1406.391290,-7890.783629,0.000000
4056.179206,1628.453072,-9116.536426,74.020594
4056.179531,1184.329507,-8810.098227,-444.123565
4056.179855,296.082377,-9422.974625,-296.082377
4056.180180,-444.123565,-9193.145976,-444.123565
4056.180504,-1406.391290,-9346.365076,-370.102971
4056.180829,-1998.556043,-9269.755526,0.000000
4056.181153,-1702.473667,-8656.879127,0.000000
4056.181478,-740.205942,-8120.612279,-222.061783
4056.181802,592.164754,-7890.783629,-518.144159
4056.182126,1036.288319,-7584.345430,-370.102971
4056.182451,2664.741391,-7354.516781,0.000000
4056.182775,3923.091493,-8273.831378,-814.226536
4056.183100,4071.132681,-8733.488677,-962.267725
4056.183424,3775.050304,-8427.050478,-592.164754
4056.183749,2220.617826,-9116.536426,-1036.288319
4056.184073,1332.370696,-9652.803275,-814.226536
4056.184398,-740.205942,-9499.584175,0.000000
4056.184722,-1924.535449,-9422.974625,-444.123565
4056.185047,-2294.638420,-9116.536426,-518.144159
4056.185371,-2294.638420,-8273.831378,0.000000
4056.185696,-1554.432478,-8350.440928,-296.082377
4056.186020,-444.123565,-7431.126331,0.000000
4056.186344,518.144159,-8733.488677,222.061783
4056.186669,888.247130,-7354.516781,-518.144159
4056.186993,2072.576638,-8427.050478,-222.061783
4056.187318,1554.432478,-7967.393179,-592.164754
4056.187642,1406.391290,-10035.851024,222.061783
4056.187967,0.000000,-9039.926876,-666.185348
4056.188291,-592.164754,-9806.022374,0.000000
4056.188616,-1998.556043,-8810.098227,-592.164754
4056.188940,-1480.411884,-9806.022374,0.000000
4056.189265,-1406.391290,-8273.831378,0.000000
4056.189589,-444.123565,-8044.002729,222.061783
4056.189914,666.185348,-7584.345430,-518.144159
4056.190238,2220.617826,-7814.174080,-296.082377
4056.190563,3627.009116,-8120.612279,-1110.308913
4056.190887,4293.194464,-8427.050478,-518.144159
4056.191211,4589.276840,-8656.879127,-740.205942
4056.191536,3923.091493,-9116.536426,-592.164754
4056.191860,2368.659014,-9193.145976,-740.205942
4056.192185,1036.288319,-9499.584175,-222.061783
4056.192509,-444.123565,-9422.974625,-518.144159
4056.192834,-1480.411884,-9116.536426,0.000000
4056.193158,-2220.617826,-8963.317327,-518.144159
4056.193483,-2368.659014,-8963.317327,0.000000
4056.193807,-2146.597232,-7660.954980,-222.061783
4056.194132,-1184.329507,-7814.174080,-370.102971
4056.194456,0.000000,-7737.564530,-296.082377
4056.194781,740.205942,-8273.831378,444.123565
4056.195105,666.185348,-8273.831378,-518.144159
4056.195429,888.247130,-9039.926876,-222.061783
4056.195754,666.185348,-8886.707777,-962.267725
4056.196078,148.041188,-9652.803275,-74.020594
4056.196403,-666.185348,-9269.755526,-518.144159
4056.196727,-1184.329507,-9346.365076,222.061783
4056.197052,-1480.411884,-8733.488677,-370.102971
4056.197376,-1036.288319,-8580.269578,74.020594
4056.197701,370.102971,-8120.612279,0.000000
4056.198025,740.205942,-7967.393179,148.041188
4056.198350,2368.659014,-7737.564530,-592.164754
4056.198674,3404.947333,-8197.221829,-370.102971
4056.198999,3552.988522,-8197.221829,-814.226536
4056.199323,3627.009116,-8733.488677,-666.185348
4056.199647,2886.803174,-8810.098227,-814.226536
4056.199972,1776.494261,-8886.707777,-296.082377
4056.200296,222.061783,-9652.803275,-592.164754
4056.200621,-962.267725,-9576.193725,-296.082377
4056.200945,-1554.432478,-9193.145976,-370.102971
4056.201270,-2294.638420,-8503.660028,0.000000
4056.201594,-2294.638420,-8427.050478,0.000000
4056.201919,-1036.288319,-7814.174080,-148.041188
4056.202243,-222.061783,-7967.393179,0.000000
4056.202568,370.102971,-7890.783629,-370.102971
4056.202892,1332.370696,-8427.050478,-296.082377
4056.203217,1628.453072,-8733.488677,-444.123565
4056.203541,1554.432478,-9116.536426,-222.061783
4056.203865,592.164754,-9193.145976,-518.144159
4056.204190,222.061783,-9499.584175,-518.144159
4056.204514,-962.267725,-8886.707777,-518.144159
4056.204839,-1406.391290,-9346.365076,-222.061783
4056.205163,-1480.411884,-8810.098227,222.061783
4056.205488,-1036.288319,-8044.002729,-148.041188
4056.205812,74.020594,-8197.221829,-296.082377
4056.206137,1776.494261,-7660.954980,-518.144159
4056.206461,3478.967927,-7737.564530,-370.102971
4056.206786,4293.194464,-7507.735880,-370.102971
4056.207110,4367.215058,-8350.440928,-888.247130
4056.207435,4293.194464,-9499.584175,-814.226536
4056.207759,2812.782580,-8963.317327,-962.267725
4056.208084,1924.535449,-9729.412825,-592.164754
4056.208408,0.000000,-8733.488677,-740.205942
4056.208732,-1480.411884,-9882.631924,74.020594
4056.209057,-2664.741391,-8503.660028,-222.061783
4056.209381,-2516.700203,-9269.755526,370.102971
4056.209706,-2442.679609,-7660.954980,-592.164754
4056.210030,-1036.288319,-8350.440928,148.041188
4056.210355,0.000000,-7507.735880,-814.226536
4056.210679,666.185348,-8273.831378,-148.041188
4056.211004,1184.329507,-7814.174080,-740.205942
4056.211328,1184.329507,-9039.926876,0.000000
4056.211653,888.247130,-9039.926876,-814.226536
4056.211977,0.000000,-9576.193725,-666.185348
4056.212302,-592.164754,-9576.193725,-444.123565
4056.212626,-1406.391290,-9346.365076,0.000000
4056.212950,-1776.494261,-9499.584175,74.020594
4056.213275,-1406.391290,-8886.707777,0.000000
4056.213599,-592.164754,-7814.174080,0.000000
4056.213924,444.123565,-7814.174080,-518.144159
4056.214248,1554.432478,-8350.440928,-518.144159
4056.214573,3330.926739,-8273.831378,-814.226536
4056.214897,3404.947333,-8273.831378,-370.102971
4056.215222,3627.009116,-8656.879127,-888.247130
4056.215546,3256.906145,-9193.145976,-370.102971
4056.215870,2072.576638,-8963.317327,-740.205942
4056.216195,814.226536,-9422.974625,-666.185348
4056.216519,-888.247130,-8963.317327,-814.226536
4056.216844,-1480.411884,-9576.193725,0.000000
4056.217168,-2442.679609,-8197.221829,-296.082377
4056.217493,-2516.700203,-8427.050478,222.061783
4056.217817,-2072.576638,-7814.174080,-296.082377
4056.218142,-814.226536,-8273.831378,0.000000
4056.218466,74.020594,-7431.126331,-518.144159
4056.218790,1332.370696,-8350.440928,148.041188
4056.219115,2146.597232,-7890.783629,-518.144159
4056.219439,2072.576638,-9039.926876,-222.061783
4056.219764,1332.370696,-8810.098227,-370.102971
4056.220088,592.164754,-9576.193725,-74.020594
4056.220413,0.000000,-9193.145976,-444.123565
4056.220737,-1702.473667,-9039.926876,-148.041188
4056.221062,-1628.453072,-9116.536426,0.000000
4056.221386,-1702.473667,-8120.612279,0.000000
4056.221710,0.000000,-8656.879127,148.041188
4056.222035,814.226536,-7507.735880,-296.082377
4056.222359,2664.741391,-8044.002729,-370.102971
4056.222684,3552.988522,-7584.345430,-296.082377
4056.223008,4145.153275,-8273.831378,-148.041188
4056.223333,4663.297435,-7890.783629,-592.164754
4056.223657,3701.029710,-9116.536426,-296.082377
4056.223982,2664.741391,-9116.536426,-518.144159
4056.224306,1036.288319,-9499.584175,-592.164754
4056.224630,0.000000,-9499.584175,-592.164754
4056.224955,-1480.411884,-9039.926876,-296.082377
4056.225279,-2368.659014,-8810.098227,0.000000
4056.225604,-2368.659014,-8427.050478,-148.041188
4056.225928,-1480.411884,-8197.221829,222.061783
4056.226253,-962.267725,-7890.783629,-592.164754
4056.226577,-370.102971,-7890.783629,-444.123565
4056.226902,1110.308913,-7967.393179,-518.144159
4056.227226,1406.391290,-9039.926876,-444.123565
4056.227550,1554.432478,-8503.660028,0.000000
4056.227875,518.144159,-8810.098227,-296.082377
4056.228199,0.000000,-10035.851024,-592.164754
4056.228524,-1036.288319,-9422.974625,-444.123565
4056.228848,-1332.370696,-9269.755526,0.000000
4056.229173,-1998.556043,-8886.707777,-296.082377
4056.229497,-1480.411884,-8427.050478,296.082377
4056.229822,-444.123565,-8273.831378,-592.164754
4056.230146,1036.288319,-7584.345430,-222.061783
4056.230470,2442.679609,-7737.564530,-1184.329507
4056.230795,3256.906145,-8120.612279,-148.041188
4056.231119,3775.050304,-7814.174080,-1184.329507
4056.231444,3330.926739,-9193.145976,-666.185348
4056.231768,2368.659014,-8733.488677,-1184.329507
4056.232093,1110.308913,-9652.803275,-444.123565
4056.232417,0.000000,-9346.365076,-1036.288319
4056.232742,-1554.432478,-9499.584175,-740.205942
4056.233066,-2294.638420,-8810.098227,-518.144159
4056.233390,-2368.659014,-8350.440928,0.000000
4056.233715,-1850.514855,-8503.660028,74.020594
4056.234039,-1406.391290,-7507.735880,0.000000
4056.234364,370.102971,-7431.126331,592.164754
4056.234688,592.164754,-7354.516781,-592.164754
4056.235013,1924.535449,-8886.707777,0.000000
4056.235337,1628.453072,-7584.345430,-222.061783
4056.235662,1628.453072,-8886.707777,0.000000
4056.235986,592.164754,-8427.050478,-444.123565
4056.236310,0.000000,-9806.022374,0.000000
4056.236635,-1332.370696,-9039.926876,-666.185348
4056.236959,-1480.411884,-9652.803275,148.041188
4056.237284,-1332.370696,-7967.393179,74.020594
4056.237608,-518.144159,-8044.002729,148.041188
4056.237933,1036.288319,-7584.345430,74.020594
4056.238257,1850.514855,-7890.783629,0.000000
4056.238582,3701.029710,-7814.174080,-444.123565
4056.238906,3923.091493,-8044.002729,-370.102971
4056.239230,4367.215058,-8810.098227,-666.185348
4056.239555,3404.947333,-8580.269578,-518.144159
4056.239879,2516.700203,-9269.755526,-518.144159
4056.240204,814.226536,-8886.707777,-666.185348
4056.240528,-148.041188,-8963.317327,-592.164754
4056.240853,-1776.494261,-9499.584175,-222.061783
4056.241177,-2516.700203,-8733.488677,-296.082377
4056.241502,-2368.659014,-8273.831378,0.000000
4056.241826,-1924.535449,-7584.345430,0.000000
4056.242150,-518.144159,-8197.221829,74.020594
4056.242475,592.164754,-7737.564530,-222.061783
4056.242799,1258.350101,-7660.954980,-666.185348
4056.243124,1480.411884,-8273.831378,-222.061783
4056.243448,1406.391290,-8580.269578,-666.185348
4056.243773,666.185348,-9193.145976,-370.102971
4056.244097,-370.102971,-9422.974625,-370.102971
4056.244422,-962.267725,-9499.584175,-518.144159
4056.244746,-1776.494261,-9346.365076,-444.123565
4056.245070,-2146.597232,-8963.317327,0.000000
4056.245395,-888.247130,-8656.879127,-370.102971
4056.245719,74.020594,-7814.174080,0.000000
4056.246044,1184.329507,-7814.174080,0.000000
4056.246368,2442.679609,-8120.612279,-666.185348
4056.246693,3256.906145,-7967.393179,-962.267725
4056.247017,3256.906145,-8580.269578,-370.102971
4056.247342,3330.926739,-8044.002729,-1258.350101
4056.247666,2590.720797,-9499.584175,-444.123565
4056.247991,1036.288319,-9193.145976,-1406.391290
4056.248315,296.082377,-9729.412825,0.000000
4056.248639,-1036.288319,-8886.707777,-1110.308913
4056.248964,-1924.535449,-9806.022374,-222.061783
4056.249288,-2368.659014,-8273.831378,-370.102971
4056.249613,-1924.535449,-8197.221829,296.082377
4056.249937,-592.164754,-9039.926876,-296.082377
4056.250262,0.000000,-7890.783629,74.020594
4056.250586,814.226536,-8044.002729,-370.102971
4056.250911,962.267725,-7814.174080,0.000000
4056.251235,1628.453072,-8810.098227,-518.144159
4056.251559,1110.308913,-8580.269578,-444.123565
4056.251884,518.144159,-9269.755526,0.000000
4056.252208,-962.267725,-8733.488677,-296.082377
4056.252533,-1110.308913,-9882.631924,148.041188
4056.252857,-2146.597232,-8656.879127,148.041188
4056.253182,-888.247130,-9346.365076,296.082377
4056.253506,-666.185348,-7584.345430,0.000000
4056.253831,592.164754,-7967.393179,592.164754
4056.254155,3108.864956,-7507.735880,0.000000
4056.254479,3330.926739,-7967.393179,-666.185348
4056.254804,3923.091493,-7967.393179,-444.123565
4056.255128,4589.276840,-8427.050478,-296.082377
4056.255453,3256.906145,-8273.831378,-888.247130
4056.255777,2516.700203,-9269.755526,0.000000
4056.256102,1332.370696,-8427.050478,-592.164754
4056.256426,0.000000,-10112.460574,-592.164754
4056.256751,-1110.308913,-8580.269578,-518.144159
4056.257075,-1480.411884,-8503.660028,0.000000
4056.257399,-1998.556043,-8197.221829,-222.061783
4056.257724,-1924.535449,-7967.393179,0.000000
4056.258048,-962.267725,-7967.393179,0.000000
4056.258373,-222.061783,-8044.002729,-592.164754
4056.258697,518.144159,-8044.002729,-444.123565
4056.259022,1406.391290,-7967.393179,-296.082377
4056.259346,814.226536,-8886.707777,-518.144159
4056.259671,370.102971,-9346.365076,-518.144159
4056.259995,370.102971,-8810.098227,-592.164754
4056.260319,-666.185348,-9269.755526,-296.082377
4056.260644,-1480.411884,-9269.755526,0.000000
4056.260968,-1480.411884,-8810.098227,-148.041188
4056.261293,-592.164754,-9193.145976,-518.144159
4056.261617,-296.082377,-8197.221829,-370.102971
4056.261942,1110.308913,-8273.831378,0.000000
4056.262266,1850.514855,-7507.735880,-296.082377
4056.262591,3108.864956,-8197.221829,-888.247130
4056.262915,3849.070898,-8503.660028,-1110.308913
4056.263239,3478.967927,-8656.879127,-814.226536
4056.263564,2442.679609,-8810.098227,-814.226536
4056.263888,1776.494261,-9652.803275,-370.102971
4056.264213,888.247130,-9729.412825,-1036.288319
4056.264537,-444.123565,-9422.974625,-666.185348
4056.264862,-1924.535449,-9116.536426,-740.205942
4056.265186,-1850.514855,-8733.488677,-666.185348
4056.265511,-2220.617826,-8580.269578,-592.164754
4056.265835,-1184.329507,-8350.440928,0.000000
4056.266159,-1110.308913,-7354.516781,-592.164754
4056.266484,518.144159,-8503.660028,-148.041188
4056.266808,1258.350101,-7890.783629,-740.205942
4056.267133,1998.556043,-9116.536426,0.000000
4056.267457,1258.350101,-8427.050478,-888.247130
4056.267782,814.226536,-9422.974625,148.041188
4056.268106,-370.102971,-8886.707777,-888.247130
4056.268431,-962.267725,-9422.974625,148.041188
4056.268755,-1702.473667,-8580.269578,-592.164754
4056.269079,-1332.370696,-9346.365076,370.102971
4056.269404,-962.267725,-7967.393179,-666.185348
4056.269728,74.020594,-8963.317327,296.082377
4056.270053,1332.370696,-6971.469032,0.000000
4056.270377,2590.720797,-7890.783629,0.000000
4056.270702,3849.070898,-7584.345430,-666.185348
4056.271026,3627.009116,-8350.440928,0.000000
4056.271351,3478.967927,-8044.002729,-814.226536
4056.271675,3034.844362,-9422.974625,-148.041188
4056.271999,1258.350101,-8503.660028,-370.102971
4056.272324,666.185348,-9652.803275,-370.102971
4056.272648,-740.205942,-8580.269578,-740.205942
4056.272973,-1480.411884,-9422.974625,0.000000
4056.273297,-1924.535449,-7890.783629,-370.102971
4056.273622,-1554.432478,-8427.050478,148.041188
4056.273946,-1480.411884,-7584.345430,0.000000
4056.274271,-592.164754,-7890.783629,0.000000
4056.274595,0.000000,-8120.612279,0.000000
4056.274919,740.205942,-8810.098227,0.000000
4056.275244,1036.288319,-8656.879127,-370.102971
4056.275568,962.267725,-8886.707777,-592.164754
4056.275893,592.164754,-9193.145976,-444.123565
4056.276217,0.000000,-9116.536426,0.000000
4056.276542,-814.226536,-9346.365076,-296.082377
4056.276866,-1110.308913,-9039.926876,-296.082377
4056.277191,-1110.308913,-8350.440928,-148.041188
4056.277515,-296.082377,-8427.050478,-296.082377
4056.277839,370.102971,-7967.393179,-296.082377
4056.278164,1480.411884,-7890.783629,-148.041188
4056.278488,2812.782580,-8044.002729,-444.123565
4056.278813,2738.761985,-8197.221829,-592.164754
4056.279137,3108.864956,-8733.488677,-1036.288319
4056.279462,3034.844362,-9116.536426,-740.205942
4056.279786,2368.659014,-8963.317327,-888.247130
4056.280111,1406.391290,-9652.803275,-444.123565
4056.280435,74.020594,-9269.755526,-962.267725
4056.280759,-814.226536,-9499.584175,-888.247130
4056.281084,-1554.432478,-9346.365076,-962.267725
4056.281408,-2072.576638,-8656.879127,0.000000
4056.281733,-2072.576638,-8273.831378,-222.061783
4056.282057,-1258.350101,-7967.393179,0.000000
4056.282382,0.000000,-7967.393179,0.000000
4056.282706,666.185348,-8120.612279,-962.267725
4056.283031,1924.535449,-8503.660028,-222.061783
4056.283355,1776.494261,-8197.221829,-666.185348
4056.283679,1628.453072,-9806.022374,-666.185348
4056.284004,592.164754,-9269.755526,-222.061783
4056.284328,0.000000,-9269.755526,-592.164754
4056.284653,-740.205942,-8963.317327,-444.123565
4056.284977,-1036.288319,-9116.536426,0.000000
4056.285302,-1702.473667,-8580.269578,74.020594
4056.285626,-592.164754,-8427.050478,74.020594
4056.285951,370.102971,-8273.831378,-222.061783
4056.286275,1480.411884,-7890.783629,-148.041188
4056.286599,2960.823768,-7814.174080,-592.164754
4056.286924,3404.947333,-8427.050478,0.000000
4056.287248,3552.988522,-8503.660028,-592.164754
4056.287573,3404.947333,-8733.488677,-888.247130
4056.287897,2590.720797,-9116.536426,-592.164754
4056.288222,1332.370696,-9269.755526,222.061783
4056.288546,222.061783,-9269.755526,-666.185348
4056.288871,-740.205942,-9116.536426,-148.041188
4056.289195,-1628.453072,-8350.440928,-148.041188
4056.289520,-2072.576638,-8963.317327,-148.041188
4056.289844,-1776.494261,-8120.612279,148.041188
4056.290168,-1554.432478,-7737.564530,0.000000
4056.290493,-740.205942,-7967.393179,0.000000
4056.290817,296.082377,-8120.612279,-296.082377
4056.291142,296.082377,-8427.050478,-148.041188
4056.291466,1406.391290,-8733.488677,-814.226536
4056.291791,1184.329507,-9193.145976,-222.061783
4056.292115,0.000000,-9346.365076,-740.205942
4056.292440,-888.247130,-9652.803275,370.102971
4056.292764,-962.267725,-9116.536426,-296.082377
4056.293088,-1110.308913,-8886.707777,-148.041188
4056.293413,-1258.350101,-8273.831378,148.041188
4056.293737,-296.082377,-7431.126331,0.000000
4056.294062,666.185348,-8427.050478,-148.041188
