#time,accel_x,accel_y,accel_z
5710.030223,518.144159,-8886.707777,74.020594
5710.030548,666.185348,-8656.879127,0.000000
5710.030873,518.144159,-8733.488677,0.000000
5710.031197,962.267725,-8580.269578,-296.082377
5710.031522,666.185348,-8656.879127,74.020594
5710.031846,518.144159,-8810.098227,148.041188
5710.032171,296.082377,-8427.050478,-222.061783
5710.032495,518.144159,-8810.098227,0.000000
5710.032820,444.123565,-8656.879127,148.041188
5710.033144,148.041188,-8427.050478,370.102971
5710.033469,148.041188,-8656.879127,74.020594
5710.033794,444.123565,-8733.488677,74.020594
5710.034118,888.247130,-8733.488677,148.041188
5710.034443,592.164754,-8886.707777,0.000000
5710.034767,740.205942,-8273.831378,0.000000
5710.035092,222.061783,-8580.269578,0.000000
5710.035416,666.185348,-7967.393179,222.061783
5710.035741,74.020594,-8503.660028,-222.061783
5710.036066,148.041188,-8810.098227,-222.061783
5710.036390,222.061783,-8656.879127,0.000000
5710.036715,444.123565,-9116.536426,0.000000
5710.037039,148.041188,-8810.098227,0.000000
5710.037364,592.164754,-8580.269578,-222.061783
5710.037688,592.164754,-8656.879127,0.000000
5710.038013,370.102971,-8656.879127,0.000000
5710.038338,444.123565,-8810.098227,74.020594
5710.038662,370.102971,-8350.440928,-444.123565
5710.038987,222.061783,-8580.269578,-296.082377
5710.039311,74.020594,-8427.050478,-444.123565
5710.039636,592.164754,-8963.317327,-444.123565
5710.039960,370.102971,-8427.050478,-370.102971
5710.040285,222.061783,-8580.269578,-296.082377
5710.040610,0.000000,-8656.879127,-222.061783
5710.040934,518.144159,-8733.488677,-222.061783
5710.041259,518.144159,-8656.879127,-592.164754
5710.041583,518.144159,-8810.098227,-222.061783
5710.041908,444.123565,-8503.660028,-592.164754
5710.042232,444.123565,-8963.317327,-444.123565
5710.042557,444.123565,-8273.831378,-296.082377
5710.042882,518.144159,-8580.269578,-666.185348
5710.043206,370.102971,-8810.098227,-444.123565
5710.043531,0.000000,-8733.488677,-444.123565
5710.043855,148.041188,-8044.002729,-370.102971
5710.044180,148.041188,-8350.440928,-592.164754
5710.044504,518.144159,-8810.098227,-444.123565
5710.044829,370.102971,-8656.879127,-814.226536
5710.045154,444.123565,-8656.879127,-444.123565
5710.045478,296.082377,-8580.269578,-740.205942
5710.045803,444.123565,-8810.098227,-370.102971
5710.046127,518.144159,-8503.660028,-888.247130
5710.046452,444.123565,-8810.098227,-518.144159
5710.046776,592.164754,-8427.050478,-1036.288319
5710.047101,74.020594,-8656.879127,-518.144159
5710.047426,0.000000,-8580.269578,-592.164754
5710.047750,148.041188,-8810.098227,-370.102971
5710.048075,592.164754,-8273.831378,-222.061783
5710.048399,444.123565,-8810.098227,-740.205942
5710.048724,444.123565,-8503.660028,-444.123565
5710.049048,222.061783,-8580.269578,-296.082377
5710.049373,296.082377,-8427.050478,-148.041188
5710.049698,444.123565,-8810.098227,0.000000
5710.050022,592.164754,-8810.098227,-296.082377
5710.050347,666.185348,-8120.612279,0.000000
5710.050671,518.144159,-8580.269578,0.000000
5710.050996,888.247130,-8350.440928,0.000000
5710.051320,666.185348,-8273.831378,0.000000
5710.051645,444.123565,-8503.660028,0.000000
5710.051970,518.144159,-8503.660028,74.020594
5710.052294,74.020594,-8273.831378,0.000000
5710.052619,518.144159,-8580.269578,74.020594
5710.052943,518.144159,-8503.660028,74.020594
5710.053268,518.144159,-8733.488677,74.020594
5710.053592,740.205942,-8503.660028,148.041188
5710.053917,592.164754,-8503.660028,296.082377
5710.054241,444.123565,-8580.269578,0.000000
5710.054566,592.164754,-8733.488677,74.020594
5710.054891,592.164754,-8427.050478,296.082377
5710.055215,666.185348,-7890.783629,296.082377
5710.055540,222.061783,-8503.660028,222.061783
5710.055864,148.041188,-8273.831378,370.102971
5710.056189,222.061783,-8503.660028,518.144159
5710.056513,148.041188,-7967.393179,444.123565
5710.056838,296.082377,-8580.269578,222.061783
5710.057163,370.102971,-8197.221829,296.082377
5710.057487,296.082377,-8427.050478,444.123565
5710.057812,296.082377,-8810.098227,444.123565
5710.058136,814.226536,-8810.098227,370.102971
5710.058461,518.144159,-8580.269578,148.041188
5710.058785,444.123565,-8963.317327,444.123565
5710.059110,74.020594,-8656.879127,370.102971
5710.059435,148.041188,-9116.536426,296.082377
5710.059759,148.041188,-8733.488677,518.144159
5710.060084,74.020594,-8503.660028,222.061783
5710.060408,74.020594,-8503.660028,296.082377
5710.060733,74.020594,-8273.831378,370.102971
5710.061057,0.000000,-8656.879127,444.123565
5710.061382,296.082377,-8810.098227,222.061783
5710.061707,592.164754,-8580.269578,148.041188
5710.062031,592.164754,-8733.488677,74.020594
5710.062356,518.144159,-8350.440928,444.123565
5710.062680,296.082377,-8503.660028,370.102971
5710.063005,444.123565,-8963.317327,222.061783
5710.063329,148.041188,-8273.831378,296.082377
5710.063654,888.247130,-8656.879127,222.061783
5710.063979,296.082377,-8197.221829,74.020594
5710.064303,148.041188,-8044.002729,222.061783
5710.064628,0.000000,-8350.440928,222.061783
5710.064952,296.082377,-8197.221829,296.082377
5710.065277,296.082377,-8044.002729,370.102971
5710.065601,666.185348,-8427.050478,74.020594
5710.065926,444.123565,-8810.098227,518.144159
5710.066251,370.102971,-8580.269578,0.000000
5710.066575,370.102971,-8120.612279,222.061783
5710.066900,222.061783,-8350.440928,148.041188
5710.067224,370.102971,-8656.879127,0.000000
5710.067549,222.061783,-8273.831378,0.000000
5710.067873,148.041188,-8273.831378,518.144159
5710.068198,74.020594,-8427.050478,0.000000
5710.068523,0.000000,-7967.393179,74.020594
5710.068847,444.123565,-8350.440928,0.000000
5710.069172,740.205942,-8503.660028,-148.041188
5710.069496,666.185348,-8273.831378,0.000000
5710.069821,444.123565,-8656.879127,-148.041188
5710.070145,518.144159,-8503.660028,0.000000
5710.070470,666.185348,-8503.660028,-370.102971
5710.070795,888.247130,-8886.707777,-296.082377
5710.071119,0.000000,-8503.660028,0.000000
5710.071444,0.000000,-8197.221829,-518.144159
5710.071768,0.000000,-8580.269578,-370.102971
5710.072093,148.041188,-8656.879127,0.000000
5710.072417,74.020594,-8503.660028,-370.102971
5710.072742,518.144159,-8350.440928,-444.123565
5710.073067,370.102971,-8503.660028,0.000000
5710.073391,814.226536,-8503.660028,0.000000
5710.073716,518.144159,-8120.612279,0.000000
5710.074040,666.185348,-8350.440928,0.000000
5710.074365,518.144159,-8350.440928,-148.041188
5710.074689,518.144159,-7890.783629,0.000000
5710.075014,518.144159,-8886.707777,74.020594
5710.075338,0.000000,-8427.050478,0.000000
5710.075663,74.020594,-8580.269578,74.020594
5710.075988,148.041188,-8503.660028,0.000000
5710.076312,148.041188,-8273.831378,74.020594
5710.076637,222.061783,-8580.269578,0.000000
5710.076961,814.226536,-8273.831378,74.020594
5710.077286,592.164754,-8350.440928,0.000000
5710.077610,814.226536,-8886.707777,-296.082377
5710.077935,962.267725,-8580.269578,-370.102971
5710.078260,666.185348,-8427.050478,-370.102971
5710.078584,518.144159,-8503.660028,-518.144159
5710.078909,518.144159,-8427.050478,-296.082377
5710.079233,592.164754,-8120.612279,-370.102971
5710.079558,0.000000,-8427.050478,-296.082377
5710.079882,0.000000,-8580.269578,-444.123565
5710.080207,74.020594,-8656.879127,-222.061783
5710.080532,148.041188,-8733.488677,-148.041188
5710.080856,148.041188,-8503.660028,-370.102971
5710.081181,740.205942,-8810.098227,-666.185348
5710.081505,1036.288319,-8427.050478,-148.041188
5710.081830,1110.308913,-8886.707777,-666.185348
5710.082154,888.247130,-8963.317327,-370.102971
5710.082479,888.247130,-8810.098227,-666.185348
5710.082804,666.185348,-8963.317327,-666.185348
5710.083128,370.102971,-8733.488677,-814.226536
5710.083453,-222.061783,-8656.879127,-666.185348
5710.083777,-74.020594,-8656.879127,-1036.288319
5710.084102,74.020594,-8733.488677,-1184.329507
5710.084426,222.061783,-8886.707777,-1036.288319
5710.084751,296.082377,-8963.317327,-814.226536
5710.085076,740.205942,-9116.536426,-814.226536
5710.085400,888.247130,-9116.536426,-814.226536
5710.085725,814.226536,-8810.098227,-518.144159
5710.086049,1110.308913,-8963.317327,-518.144159
5710.086374,666.185348,-8350.440928,-814.226536
5710.086698,222.061783,-8656.879127,-740.205942
5710.087023,0.000000,-8427.050478,-888.247130
5710.087348,-296.082377,-8810.098227,-962.267725
5710.087672,0.000000,-8580.269578,-1554.432478
5710.087997,-444.123565,-8656.879127,-1258.350101
5710.088321,370.102971,-8503.660028,-1036.288319
5710.088646,148.041188,-8273.831378,-888.247130
5710.088970,962.267725,-8656.879127,-592.164754
5710.089295,1258.350101,-8503.660028,-370.102971
5710.089620,1258.350101,-8503.660028,-444.123565
5710.089944,1036.288319,-8427.050478,-592.164754
5710.090269,740.205942,-8350.440928,-518.144159
5710.090593,296.082377,-9039.926876,-592.164754
5710.090918,0.000000,-8427.050478,-1036.288319
5710.091242,0.000000,-8427.050478,-1184.329507
5710.091567,0.000000,-8580.269578,-962.267725
5710.091892,0.000000,-9269.755526,-518.144159
5710.092216,-222.061783,-8503.660028,0.000000
5710.092541,740.205942,-8810.098227,0.000000
5710.092865,1036.288319,-8427.050478,0.000000
5710.093190,1554.432478,-8810.098227,0.000000
5710.093514,1036.288319,-9193.145976,296.082377
5710.093839,1110.308913,-8886.707777,148.041188
5710.094164,666.185348,-8733.488677,0.000000
5710.094488,296.082377,-8733.488677,0.000000
5710.094813,-370.102971,-8503.660028,-370.102971
5710.095137,-148.041188,-8886.707777,-518.144159
5710.095462,-296.082377,-8427.050478,-148.041188
5710.095786,74.020594,-8580.269578,0.000000
5710.096111,370.102971,-8810.098227,222.061783
5710.096435,814.226536,-8733.488677,370.102971
5710.096760,962.267725,-9116.536426,296.082377
5710.097085,1406.391290,-8810.098227,222.061783
5710.097409,1258.350101,-8810.098227,0.000000
5710.097734,592.164754,-8963.317327,222.061783
5710.098058,444.123565,-8733.488677,-148.041188
5710.098383,148.041188,-8580.269578,-370.102971
5710.098707,0.000000,-8810.098227,-370.102971
5710.099032,-370.102971,-8503.660028,296.082377
5710.099357,-148.041188,-8656.879127,0.000000
5710.099681,296.082377,-8656.879127,0.000000
5710.100006,888.247130,-8580.269578,0.000000
5710.100330,666.185348,-8427.050478,148.041188
5710.100655,592.164754,-8733.488677,518.144159
5710.100979,740.205942,-8656.879127,74.020594
5710.101304,814.226536,-8886.707777,0.000000
5710.101629,666.185348,-8427.050478,-666.185348
5710.101953,296.082377,-8350.440928,-222.061783
5710.102278,444.123565,-8273.831378,-1036.288319
5710.102602,148.041188,-8656.879127,-814.226536
5710.102927,444.123565,-8810.098227,-740.205942
5710.103251,444.123565,-9116.536426,0.000000
5710.103576,740.205942,-8580.269578,-666.185348
5710.103901,592.164754,-8733.488677,-518.144159
5710.104225,666.185348,-8656.879127,0.000000
5710.104550,814.226536,-8810.098227,-148.041188
5710.104874,1110.308913,-8503.660028,-444.123565
5710.105199,1036.288319,-8733.488677,-592.164754
5710.105523,518.144159,-8810.098227,-1184.329507
5710.105848,296.082377,-8733.488677,-740.205942
5710.106173,740.205942,-8886.707777,-888.247130
5710.106497,370.102971,-8733.488677,-1036.288319
5710.106822,444.123565,-8503.660028,-1036.288319
5710.107146,444.123565,-8656.879127,-888.247130
5710.107471,444.123565,-8656.879127,-592.164754
5710.107795,222.061783,-8656.879127,-666.185348
5710.108120,370.102971,-8963.317327,-666.185348
5710.108445,370.102971,-8656.879127,-962.267725
5710.108769,518.144159,-9039.926876,-1110.308913
5710.109094,518.144159,-8656.879127,-962.267725
5710.109418,740.205942,-8350.440928,-888.247130
5710.109743,370.102971,-8963.317327,-1258.350101
5710.110067,296.082377,-8733.488677,-1332.370696
5710.110392,888.247130,-8733.488677,-1332.370696
5710.110717,444.123565,-8810.098227,-1554.432478
5710.111041,222.061783,-8350.440928,-1184.329507
5710.111366,222.061783,-8810.098227,-1036.288319
5710.111690,74.020594,-8810.098227,-1406.391290
5710.112015,222.061783,-8427.050478,-1184.329507
5710.112339,0.000000,-8503.660028,-962.267725
5710.112664,296.082377,-8656.879127,-1036.288319
5710.112989,518.144159,-8350.440928,-1036.288319
5710.113313,222.061783,-8580.269578,-1184.329507
5710.113638,444.123565,-8886.707777,-1332.370696
5710.113962,370.102971,-8503.660028,-1628.453072
5710.114287,222.061783,-8503.660028,-1554.432478
5710.114611,0.000000,-7890.783629,-888.247130
5710.114936,74.020594,-8503.660028,-1184.329507
5710.115261,74.020594,-8580.269578,-1110.308913
5710.115585,444.123565,-8197.221829,-1258.350101
5710.115910,74.020594,-8580.269578,-1184.329507
5710.116234,222.061783,-8273.831378,-962.267725
5710.116559,0.000000,-8427.050478,-1036.288319
5710.116883,518.144159,-8886.707777,-814.226536
5710.117208,666.185348,-8503.660028,-962.267725
5710.117532,888.247130,-8810.098227,-1332.370696
5710.117857,370.102971,-8733.488677,-888.247130
5710.118181,518.144159,-8503.660028,-814.226536
5710.118505,296.082377,-8656.879127,-592.164754
5710.118830,740.205942,-9116.536426,-740.205942
5710.119154,444.123565,-8350.440928,-740.205942
5710.119479,148.041188,-8503.660028,-592.164754
5710.119803,444.123565,-8197.221829,-296.082377
5710.120128,444.123565,-8580.269578,-370.102971
5710.120452,592.164754,-8733.488677,-222.061783
5710.120777,592.164754,-8427.050478,-148.041188
5710.121101,888.247130,-8656.879127,0.000000
5710.121425,814.226536,-8273.831378,74.020594
5710.121750,370.102971,-8580.269578,74.020594
5710.122074,740.205942,-8350.440928,-370.102971
5710.122399,518.144159,-7967.393179,-296.082377
5710.122723,518.144159,-8427.050478,-518.144159
5710.123048,148.041188,-8503.660028,-592.164754
5710.123372,296.082377,-8273.831378,0.000000
5710.123697,0.000000,-8503.660028,-148.041188
5710.124021,222.061783,-8580.269578,74.020594
5710.124345,444.123565,-8580.269578,0.000000
5710.124670,740.205942,-8886.707777,0.000000
5710.124994,444.123565,-8044.002729,222.061783
5710.125319,666.185348,-8503.660028,74.020594
5710.125643,370.102971,-7967.393179,-222.061783
5710.125968,222.061783,-8733.488677,-222.061783
5710.126292,222.061783,-8350.440928,-296.082377
5710.126617,148.041188,-8197.221829,-148.041188
5710.126941,444.123565,-8656.879127,0.000000
5710.127265,370.102971,-9193.145976,222.061783
5710.127590,222.061783,-8273.831378,148.041188
5710.127914,592.164754,-8580.269578,0.000000
5710.128239,370.102971,-8197.221829,148.041188
5710.128563,296.082377,-8427.050478,370.102971
5710.128888,74.020594,-8580.269578,148.041188
5710.129212,444.123565,-8350.440928,0.000000
5710.129536,370.102971,-8503.660028,-444.123565
5710.129861,370.102971,-8503.660028,-666.185348
5710.130185,74.020594,-8580.269578,-296.082377
5710.130510,-222.061783,-8580.269578,-296.082377
5710.130834,296.082377,-8733.488677,0.000000
5710.131159,222.061783,-8580.269578,74.020594
5710.131483,740.205942,-8886.707777,-370.102971
5710.131808,370.102971,-8656.879127,0.000000
5710.132132,592.164754,-8273.831378,0.000000
5710.132456,518.144159,-8350.440928,0.000000
5710.132781,296.082377,-8273.831378,-444.123565
5710.133105,666.185348,-8350.440928,-666.185348
5710.133430,370.102971,-8503.660028,-740.205942
5710.133754,444.123565,-8350.440928,-592.164754
5710.134079,222.061783,-8580.269578,-592.164754
5710.134403,518.144159,-9116.536426,-740.205942
5710.134728,814.226536,-8580.269578,-518.144159
5710.135052,444.123565,-8733.488677,-518.144159
5710.135376,444.123565,-8427.050478,0.000000
5710.135701,518.144159,-8197.221829,-370.102971
5710.136025,444.123565,-8273.831378,-222.061783
5710.136350,518.144159,-8350.440928,-740.205942
5710.136674,444.123565,-8580.269578,-888.247130
5710.136999,518.144159,-8350.440928,-962.267725
5710.137323,592.164754,-7660.954980,-888.247130
5710.137648,296.082377,-8580.269578,-740.205942
5710.137972,370.102971,-8656.879127,-518.144159
5710.138296,814.226536,-8503.660028,-888.247130
5710.138621,740.205942,-9116.536426,0.000000
5710.138945,888.247130,-8503.660028,-888.247130
5710.139270,666.185348,-8580.269578,-666.185348
5710.139594,518.144159,-8503.660028,-962.267725
5710.139919,444.123565,-8427.050478,-1036.288319
5710.140243,444.123565,-8886.707777,-888.247130
5710.140568,222.061783,-8350.440928,-740.205942
5710.140892,444.123565,-8810.098227,-1258.350101
5710.141216,518.144159,-8733.488677,-962.267725
5710.141541,592.164754,-8273.831378,-814.226536
5710.141865,518.144159,-8810.098227,-666.185348
5710.142190,592.164754,-8580.269578,-370.102971
5710.142514,518.144159,-8810.098227,-296.082377
5710.142839,666.185348,-8886.707777,-296.082377
5710.143163,296.082377,-8580.269578,-740.205942
5710.143488,222.061783,-9039.926876,-814.226536
5710.143812,296.082377,-8656.879127,-666.185348
5710.144136,148.041188,-8503.660028,-592.164754
5710.144461,444.123565,-9346.365076,-370.102971
5710.144785,518.144159,-8656.879127,-222.061783
5710.145110,1110.308913,-8886.707777,-222.061783
5710.145434,666.185348,-8656.879127,-370.102971
5710.145759,1258.350101,-8963.317327,0.000000
5710.146083,666.185348,-8580.269578,0.000000
5710.146408,444.123565,-8580.269578,0.000000
5710.146732,444.123565,-7967.393179,-592.164754
5710.147056,518.144159,-7890.783629,-370.102971
5710.147381,0.000000,-8427.050478,-444.123565
5710.147705,222.061783,-8503.660028,0.000000
5710.148030,74.020594,-8810.098227,-296.082377
5710.148354,666.185348,-8810.098227,-222.061783
5710.148679,814.226536,-8656.879127,-592.164754
5710.149003,888.247130,-8427.050478,0.000000
5710.149328,740.205942,-8503.660028,222.061783
5710.149652,740.205942,-8427.050478,-222.061783
5710.149976,666.185348,-8886.707777,0.000000
5710.150301,370.102971,-8656.879127,-444.123565
5710.150625,222.061783,-8810.098227,-370.102971
5710.150950,296.082377,-8273.831378,-148.041188
5710.151274,666.185348,-8733.488677,-370.102971
5710.151599,148.041188,-8350.440928,-296.082377
5710.151923,814.226536,-8810.098227,74.020594
5710.152248,962.267725,-8656.879127,-148.041188
5710.152572,814.226536,-8580.269578,0.000000
5710.152896,1036.288319,-8427.050478,0.000000
5710.153221,740.205942,-8656.879127,-74.020594
5710.153545,444.123565,-8503.660028,-666.185348
5710.153870,296.082377,-8810.098227,-592.164754
5710.154194,222.061783,-8350.440928,-370.102971
5710.154519,0.000000,-8580.269578,-296.082377
5710.154843,74.020594,-8963.317327,0.000000
5710.155167,148.041188,-8810.098227,0.000000
5710.155492,444.123565,-8656.879127,0.000000
5710.155816,740.205942,-8963.317327,-74.020594
5710.156141,592.164754,-8580.269578,74.020594
5710.156465,888.247130,-8656.879127,-74.020594
5710.156790,444.123565,-8886.707777,-74.020594
5710.157114,666.185348,-8810.098227,-222.061783
5710.157439,148.041188,-9039.926876,-740.205942
5710.157763,222.061783,-8427.050478,-592.164754
5710.158087,-74.020594,-8810.098227,-666.185348
5710.158412,-222.061783,-9882.631924,-814.226536
5710.158736,148.041188,-8810.098227,-370.102971
5710.159061,444.123565,-8886.707777,-296.082377
5710.159385,296.082377,-9039.926876,-370.102971
5710.159710,740.205942,-8656.879127,0.000000
5710.160034,518.144159,-8810.098227,-370.102971
5710.160359,814.226536,-8580.269578,-444.123565
5710.160683,518.144159,-8427.050478,-518.144159
5710.161007,222.061783,-8733.488677,-444.123565
5710.161332,0.000000,-8427.050478,74.020594
5710.161656,148.041188,-8503.660028,-444.123565
5710.161981,148.041188,-8886.707777,-518.144159
5710.162305,518.144159,-8350.440928,-222.061783
5710.162630,444.123565,-8427.050478,0.000000
5710.162954,592.164754,-8733.488677,0.000000
5710.163279,740.205942,-8503.660028,222.061783
5710.163603,592.164754,-8427.050478,0.000000
5710.163927,592.164754,-8350.440928,0.000000
5710.164252,370.102971,-8580.269578,148.041188
5710.164576,296.082377,-8733.488677,74.020594
5710.164901,222.061783,-8427.050478,296.082377
5710.165225,74.020594,-8733.488677,0.000000
5710.165550,222.061783,-8733.488677,0.000000
5710.165874,296.082377,-8580.269578,0.000000
5710.166199,296.082377,-9039.926876,74.020594
5710.166523,444.123565,-8580.269578,222.061783
5710.166847,518.144159,-8733.488677,592.164754
5710.167172,518.144159,-8503.660028,444.123565
5710.167496,296.082377,-8044.002729,74.020594
5710.167821,222.061783,-8427.050478,148.041188
5710.168145,296.082377,-8350.440928,222.061783
5710.168470,296.082377,-8886.707777,74.020594
5710.168794,222.061783,-8886.707777,0.000000
5710.169119,222.061783,-8733.488677,222.061783
5710.169443,370.102971,-8656.879127,296.082377
5710.169767,666.185348,-8120.612279,444.123565
5710.170092,370.102971,-8810.098227,444.123565
5710.170416,148.041188,-8503.660028,518.144159
5710.170741,296.082377,-8580.269578,148.041188
5710.171065,518.144159,-8580.269578,148.041188
5710.171390,296.082377,-8810.098227,0.000000
5710.171714,370.102971,-8427.050478,222.061783
5710.172039,-296.082377,-8503.660028,-222.061783
5710.172363,222.061783,-9116.536426,222.061783
5710.172687,74.020594,-8273.831378,296.082377
5710.173012,444.123565,-8810.098227,148.041188
5710.173336,296.082377,-8733.488677,222.061783
5710.173661,444.123565,-8580.269578,518.144159
5710.173985,814.226536,-9116.536426,148.041188
5710.174310,222.061783,-8427.050478,0.000000
5710.174634,444.123565,-8580.269578,-148.041188
5710.174959,296.082377,-8427.050478,-296.082377
5710.175283,74.020594,-8503.660028,0.000000
5710.175607,0.000000,-8427.050478,0.000000
5710.175932,222.061783,-8656.879127,0.000000
5710.176256,222.061783,-8503.660028,74.020594
5710.176581,370.102971,-8656.879127,0.000000
5710.176905,148.041188,-8350.440928,-222.061783
5710.177230,666.185348,-8427.050478,0.000000
5710.177554,518.144159,-8733.488677,-296.082377
5710.177879,148.041188,-8580.269578,0.000000
5710.178203,74.020594,-8273.831378,-444.123565
5710.178527,222.061783,-8656.879127,-444.123565
5710.178852,74.020594,-8503.660028,-370.102971
5710.179176,0.000000,-9039.926876,-370.102971
5710.179501,518.144159,-8886.707777,-222.061783
5710.179825,370.102971,-8733.488677,-296.082377
5710.180150,592.164754,-8886.707777,-222.061783
5710.180474,518.144159,-8350.440928,-296.082377
5710.180798,888.247130,-8656.879127,0.000000
5710.181123,962.267725,-9116.536426,-518.144159
5710.181447,148.041188,-8427.050478,-518.144159
5710.181772,148.041188,-8503.660028,-592.164754
5710.182096,74.020594,-8044.002729,-370.102971
5710.182421,222.061783,-8810.098227,-592.164754
5710.182745,148.041188,-8503.660028,-370.102971
5710.183070,592.164754,-8503.660028,-148.041188
5710.183394,370.102971,-8656.879127,-592.164754
5710.183718,518.144159,-8733.488677,-222.061783
5710.184043,74.020594,-8503.660028,74.020594
5710.184367,370.102971,-8503.660028,74.020594
5710.184692,74.020594,-8273.831378,-518.144159
5710.185016,148.041188,-8580.269578,-148.041188
5710.185341,0.000000,-7890.783629,-962.267725
5710.185665,74.020594,-8580.269578,-222.061783
5710.185990,0.000000,-8350.440928,-666.185348
5710.186314,296.082377,-8580.269578,-444.123565
5710.186638,0.000000,-8580.269578,-444.123565
5710.186963,444.123565,-8656.879127,-222.061783
5710.187287,370.102971,-8580.269578,-296.082377
5710.187612,444.123565,-8120.612279,-296.082377
5710.187936,296.082377,-8427.050478,-148.041188
5710.188261,296.082377,-8350.440928,0.000000
5710.188585,370.102971,-8350.440928,-814.226536
5710.188910,296.082377,-8273.831378,-740.205942
5710.189234,296.082377,-8427.050478,-666.185348
5710.189558,148.041188,-9269.755526,-814.226536
5710.189883,370.102971,-8810.098227,-740.205942
5710.190207,518.144159,-8503.660028,-444.123565
5710.190532,740.205942,-8733.488677,0.000000
5710.190856,518.144159,-8273.831378,0.000000
5710.191181,222.061783,-8656.879127,148.041188
5710.191505,222.061783,-8427.050478,148.041188
5710.191830,592.164754,-8427.050478,0.000000
5710.192154,370.102971,-8580.269578,0.000000
5710.192478,370.102971,-8197.221829,370.102971
5710.192803,518.144159,-8350.440928,74.020594
5710.193127,74.020594,-8503.660028,0.000000
5710.193452,296.082377,-8656.879127,0.000000
5710.193776,444.123565,-9116.536426,222.061783
5710.194101,592.164754,-8427.050478,74.020594
5710.194425,814.226536,-8886.707777,-222.061783
5710.194750,592.164754,-8656.879127,0.000000
5710.195074,296.082377,-8503.660028,0.000000
5710.195398,888.247130,-8427.050478,0.000000
5710.195723,370.102971,-8580.269578,-222.061783
5710.196047,296.082377,-8044.002729,0.000000
5710.196372,370.102971,-8580.269578,-222.061783
5710.196696,592.164754,-7814.174080,0.000000
5710.197021,666.185348,-8656.879127,0.000000
5710.197345,592.164754,-8427.050478,0.000000
5710.197670,740.205942,-8273.831378,296.082377
5710.197994,592.164754,-9039.926876,222.061783
5710.198318,962.267725,-8656.879127,148.041188
5710.198643,518.144159,-8044.002729,-148.041188
5710.198967,666.185348,-8656.879127,0.000000
5710.199292,814.226536,-8350.440928,-444.123565
5710.199616,518.144159,-8350.440928,0.000000
5710.199941,148.041188,-8427.050478,-370.102971
5710.200265,444.123565,-8733.488677,-370.102971
5710.200590,444.123565,-8503.660028,-296.082377
5710.200914,1036.288319,-8580.269578,-370.102971
5710.201238,666.185348,-8886.707777,0.000000
5710.201563,444.123565,-8503.660028,-148.041188
5710.201887,814.226536,-8197.221829,-222.061783
5710.202212,296.082377,-8503.660028,-444.123565
5710.202536,666.185348,-8503.660028,-666.185348
5710.202861,222.061783,-8656.879127,-518.144159
5710.203185,222.061783,-8580.269578,-370.102971
5710.203510,222.061783,-8810.098227,-592.164754
5710.203834,666.185348,-8580.269578,-740.205942
5710.204158,370.102971,-8810.098227,-444.123565
5710.204483,592.164754,-8810.098227,-148.041188
5710.204807,444.123565,-8580.269578,-74.020594
5710.205132,666.185348,-7967.393179,0.000000
5710.205456,444.123565,-8427.050478,-666.185348
5710.205781,370.102971,-8810.098227,-740.205942
5710.206105,370.102971,-8580.269578,-740.205942
5710.206429,296.082377,-8120.612279,-592.164754
5710.206754,444.123565,-8656.879127,-814.226536
5710.207078,444.123565,-8580.269578,-1036.288319
5710.207403,444.123565,-8810.098227,-814.226536
5710.207727,666.185348,-8810.098227,-814.226536
5710.208052,740.205942,-8810.098227,-518.144159
5710.208376,296.082377,-8427.050478,-518.144159
5710.208701,518.144159,-8733.488677,-296.082377
5710.209025,296.082377,-8350.440928,-592.164754
5710.209349,592.164754,-8656.879127,-370.102971
5710.209674,518.144159,-8350.440928,-888.247130
5710.209998,148.041188,-8044.002729,-814.226536
5710.210323,222.061783,-8503.660028,-962.267725
5710.210647,666.185348,-8273.831378,-962.267725
5710.210972,666.185348,-8503.660028,-592.164754
5710.211296,740.205942,-8580.269578,-814.226536
5710.211621,592.164754,-8656.879127,-222.061783
5710.211945,740.205942,-8427.050478,-148.041188
5710.212269,444.123565,-8350.440928,-740.205942
5710.212594,518.144159,-8273.831378,-888.247130
5710.212918,370.102971,-8580.269578,-666.185348
5710.213243,370.102971,-8273.831378,-814.226536
5710.213567,0.000000,-7967.393179,-592.164754
5710.213892,444.123565,-8503.660028,-814.226536
5710.214216,296.082377,-8580.269578,-518.144159
5710.214541,666.185348,-8810.098227,-814.226536
5710.214865,592.164754,-8810.098227,-370.102971
5710.215189,814.226536,-8733.488677,-296.082377
5710.215514,592.164754,-8656.879127,-296.082377
5710.215838,740.205942,-8350.440928,-370.102971
5710.216163,740.205942,-8197.221829,-518.144159
5710.216487,518.144159,-9039.926876,-888.247130
5710.216812,444.123565,-8503.660028,-592.164754
5710.217136,0.000000,-8810.098227,-592.164754
5710.217460,296.082377,-8963.317327,-592.164754
5710.217785,74.020594,-8886.707777,-740.205942
5710.218109,296.082377,-8886.707777,-296.082377
5710.218433,148.041188,-8656.879127,0.000000
5710.218758,296.082377,-8656.879127,-222.061783
5710.219082,444.123565,-8886.707777,-296.082377
5710.219406,444.123565,-8733.488677,-370.102971
5710.219731,444.123565,-9116.536426,-740.205942
5710.220055,444.123565,-8503.660028,-518.144159
5710.220379,518.144159,-8503.660028,-666.185348
5710.220704,-296.082377,-9269.755526,-444.123565
5710.221028,222.061783,-8810.098227,-518.144159
5710.221352,370.102971,-8733.488677,-444.123565
5710.221676,740.205942,-8963.317327,-370.102971
5710.222001,444.123565,-8810.098227,-222.061783
5710.222325,740.205942,-8733.488677,-296.082377
5710.222649,518.144159,-8810.098227,-444.123565
5710.222974,740.205942,-8503.660028,-370.102971
5710.223298,592.164754,-8810.098227,-666.185348
5710.223622,518.144159,-8197.221829,-814.226536
5710.223947,148.041188,-8580.269578,-1036.288319
5710.224271,148.041188,-9039.926876,-444.123565
5710.224595,296.082377,-8656.879127,-740.205942
5710.224920,518.144159,-9346.365076,-962.267725
5710.225244,592.164754,-8810.098227,-296.082377
5710.225568,222.061783,-8580.269578,-370.102971
5710.225893,518.144159,-8503.660028,-518.144159
5710.226217,222.061783,-8427.050478,-370.102971
5710.226541,444.123565,-8580.269578,-962.267725
5710.226865,74.020594,-8810.098227,-592.164754
5710.227190,296.082377,-8197.221829,-814.226536
5710.227514,0.000000,-8733.488677,-740.205942
5710.227838,370.102971,-8656.879127,-444.123565
5710.228163,370.102971,-8656.879127,-444.123565
5710.228487,370.102971,-8810.098227,-888.247130
5710.228811,370.102971,-8810.098227,-592.164754
5710.229136,518.144159,-8350.440928,-518.144159
5710.229460,814.226536,-8810.098227,-518.144159
5710.229784,370.102971,-8120.612279,-518.144159
5710.230109,592.164754,-8427.050478,-814.226536
5710.230433,148.041188,-8273.831378,-888.247130
5710.230757,222.061783,-8733.488677,-518.144159
5710.231082,0.000000,-8427.050478,-962.267725
5710.231406,222.061783,-8656.879127,-592.164754
5710.231730,296.082377,-8580.269578,-666.185348
5710.232054,444.123565,-8273.831378,-296.082377
5710.232379,666.185348,-8580.269578,-222.061783
5710.232703,444.123565,-8580.269578,-518.144159
5710.233027,666.185348,-8733.488677,-518.144159
5710.233352,444.123565,-8197.221829,-296.082377
5710.233676,148.041188,-8810.098227,-740.205942
5710.234000,222.061783,-8120.612279,-740.205942
5710.234325,222.061783,-8733.488677,-592.164754
5710.234649,148.041188,-8810.098227,-962.267725
5710.234973,444.123565,-8427.050478,-592.164754
5710.235298,444.123565,-8963.317327,-444.123565
5710.235622,666.185348,-8886.707777,-370.102971
5710.235946,444.123565,-8503.660028,-296.082377
5710.236271,888.247130,-8733.488677,-518.144159
5710.236595,740.205942,-8580.269578,-444.123565
5710.236919,444.123565,-8427.050478,-666.185348
5710.237243,444.123565,-8427.050478,-740.205942
5710.237568,370.102971,-8197.221829,-370.102971
5710.237892,296.082377,-8350.440928,-592.164754
5710.238216,518.144159,-8656.879127,-592.164754
5710.238541,518.144159,-8656.879127,-592.164754
5710.238865,444.123565,-8656.879127,-370.102971
5710.239189,370.102971,-8656.879127,-592.164754
5710.239514,592.164754,-8733.488677,0.000000
5710.239838,592.164754,-8503.660028,0.000000
5710.240162,444.123565,-8273.831378,-370.102971
5710.240487,370.102971,-8273.831378,-370.102971
5710.240811,592.164754,-8503.660028,-370.102971
5710.241135,444.123565,-8350.440928,-666.185348
5710.241460,222.061783,-8656.879127,-740.205942
5710.241784,444.123565,-8886.707777,-592.164754
5710.242108,444.123565,-8733.488677,-296.082377
5710.242432,518.144159,-8810.098227,-444.123565
5710.242757,592.164754,-8886.707777,0.000000
5710.243081,592.164754,-8427.050478,-296.082377
5710.243405,592.164754,-8963.317327,0.000000
5710.243730,444.123565,-8503.660028,-370.102971
5710.244054,814.226536,-8656.879127,-444.123565
5710.244378,740.205942,-8503.660028,-370.102971
5710.244703,814.226536,-9422.974625,-370.102971
5710.245027,296.082377,-8733.488677,-666.185348
5710.245351,444.123565,-8656.879127,-518.144159
5710.245676,444.123565,-9039.926876,-444.123565
5710.246000,444.123565,-8810.098227,-444.123565
5710.246324,666.185348,-8580.269578,74.020594
5710.246649,740.205942,-8656.879127,-370.102971
5710.246973,592.164754,-8810.098227,-444.123565
5710.247297,592.164754,-8273.831378,-666.185348
5710.247621,296.082377,-8503.660028,-814.226536
5710.247946,370.102971,-8350.440928,-666.185348
5710.248270,222.061783,-8733.488677,-962.267725
5710.248594,0.000000,-8656.879127,-962.267725
5710.248919,518.144159,-9039.926876,-1184.329507
5710.249243,518.144159,-8656.879127,-888.247130
5710.249567,518.144159,-8886.707777,-370.102971
5710.249892,666.185348,-8503.660028,-370.102971
5710.250216,518.144159,-8350.440928,-444.123565
5710.250540,296.082377,-8427.050478,-296.082377
5710.250865,518.144159,-8580.269578,-814.226536
5710.251189,518.144159,-8427.050478,-666.185348
5710.251513,222.061783,-8044.002729,-444.123565
5710.251838,74.020594,-8427.050478,-148.041188
5710.252162,296.082377,-8656.879127,-296.082377
5710.252486,518.144159,-8350.440928,-592.164754
5710.252810,518.144159,-8656.879127,-370.102971
5710.253135,518.144159,-8427.050478,0.000000
5710.253459,296.082377,-8503.660028,0.000000
5710.253783,740.205942,-8427.050478,0.000000
5710.254108,518.144159,-8350.440928,-296.082377
5710.254432,740.205942,-8427.050478,-518.144159
5710.254756,888.247130,-8427.050478,-592.164754
5710.255081,370.102971,-8273.831378,-296.082377
5710.255405,370.102971,-8503.660028,-518.144159
5710.255729,296.082377,-8580.269578,-370.102971
5710.256054,888.247130,-8886.707777,-444.123565
5710.256378,592.164754,-8427.050478,-370.102971
5710.256702,444.123565,-8503.660028,-296.082377
5710.257027,518.144159,-8350.440928,-518.144159
5710.257351,666.185348,-8810.098227,-370.102971
5710.257675,444.123565,-8044.002729,-296.082377
5710.257999,592.164754,-8273.831378,-518.144159
5710.258324,370.102971,-8350.440928,-370.102971
5710.258648,0.000000,-8580.269578,-444.123565
5710.258972,0.000000,-8810.098227,-148.041188
5710.259297,148.041188,-8503.660028,-518.144159
5710.259621,222.061783,-8886.707777,-222.061783
5710.259945,444.123565,-8427.050478,0.000000
5710.260270,74.020594,-8580.269578,518.144159
5710.260594,666.185348,-8580.269578,0.000000
5710.260918,518.144159,-8503.660028,0.000000
5710.261243,592.164754,-8656.879127,-296.082377
5710.261567,370.102971,-8427.050478,-296.082377
5710.261891,518.144159,-8427.050478,0.000000
5710.262216,222.061783,-8656.879127,-518.144159
5710.262540,148.041188,-8503.660028,-222.061783
5710.262864,518.144159,-8503.660028,-74.020594
5710.263188,148.041188,-8427.050478,0.000000
5710.263513,592.164754,-8656.879127,0.000000
5710.263837,592.164754,-8733.488677,0.000000
5710.264161,666.185348,-8427.050478,222.061783
5710.264486,666.185348,-7584.345430,-74.020594
5710.264810,740.205942,-8273.831378,-222.061783
5710.265134,444.123565,-8273.831378,-222.061783
5710.265459,296.082377,-8580.269578,-370.102971
5710.265783,-296.082377,-8656.879127,-370.102971
5710.266107,370.102971,-8656.879127,-666.185348
5710.266432,296.082377,-8810.098227,-296.082377
5710.266756,370.102971,-8810.098227,0.000000
5710.267080,296.082377,-8810.098227,0.000000
5710.267405,666.185348,-8350.440928,74.020594
5710.267729,740.205942,-8580.269578,222.061783
5710.268053,592.164754,-8427.050478,-222.061783
5710.268377,814.226536,-8733.488677,-370.102971
5710.268702,296.082377,-8427.050478,222.061783
5710.269026,0.000000,-8810.098227,-296.082377
5710.269350,0.000000,-8503.660028,-222.061783
5710.269675,74.020594,-8810.098227,0.000000
5710.269999,296.082377,-8580.269578,-148.041188
5710.270323,296.082377,-9116.536426,222.061783
5710.270648,296.082377,-8733.488677,296.082377
5710.270972,592.164754,-8656.879127,222.061783
5710.271296,592.164754,-8273.831378,370.102971
5710.271621,888.247130,-8886.707777,0.000000
5710.271945,370.102971,-8886.707777,0.000000
5710.272269,222.061783,-8197.221829,74.020594
5710.272594,0.000000,-8503.660028,0.000000
5710.272918,0.000000,-7967.393179,-148.041188
5710.273242,0.000000,-8427.050478,74.020594
5710.273566,444.123565,-8656.879127,0.000000
5710.273891,370.102971,-8427.050478,74.020594
5710.274215,370.102971,-8656.879127,74.020594
5710.274539,740.205942,-8656.879127,444.123565
5710.274864,592.164754,-8350.440928,0.000000
5710.275188,888.247130,-8656.879127,-444.123565
5710.275512,370.102971,-8044.002729,-370.102971
5710.275837,666.185348,-8963.317327,-444.123565
5710.276161,222.061783,-8580.269578,-518.144159
5710.276485,74.020594,-8350.440928,-444.123565
5710.276810,518.144159,-8656.879127,-370.102971
5710.277134,296.082377,-8810.098227,-296.082377
5710.277458,296.082377,-8427.050478,-148.041188
5710.277783,518.144159,-8350.440928,-148.041188
5710.278107,518.144159,-8503.660028,148.041188
5710.278431,444.123565,-8350.440928,-222.061783
5710.278755,0.000000,-8656.879127,-296.082377
5710.279080,74.020594,-8503.660028,0.000000
5710.279404,74.020594,-8427.050478,0.000000
5710.279728,0.000000,-8656.879127,-148.041188
5710.280053,74.020594,-8273.831378,-666.185348
5710.280377,370.102971,-8810.098227,-296.082377
5710.280701,0.000000,-8810.098227,0.000000
5710.281026,518.144159,-8656.879127,222.061783
5710.281350,74.020594,-8580.269578,0.000000
5710.281674,444.123565,-8580.269578,0.000000
5710.281999,222.061783,-8427.050478,-296.082377
5710.282323,148.041188,-8580.269578,-370.102971
5710.282647,518.144159,-8273.831378,-444.123565
5710.282972,444.123565,-8810.098227,-666.185348
5710.283296,0.000000,-8886.707777,-148.041188
5710.283620,296.082377,-8580.269578,-222.061783
5710.283944,444.123565,-9116.536426,-518.144159
5710.284269,444.123565,-9039.926876,74.020594
5710.284593,444.123565,-8580.269578,0.000000
5710.284917,222.061783,-8427.050478,0.000000
5710.285242,444.123565,-8656.879127,0.000000
5710.285566,444.123565,-8273.831378,-518.144159
5710.285890,740.205942,-8810.098227,-148.041188
5710.286215,0.000000,-8273.831378,0.000000
5710.286539,444.123565,-8810.098227,0.000000
5710.286863,370.102971,-8580.269578,-148.041188
5710.287188,592.164754,-8810.098227,0.000000
5710.287512,518.144159,-8810.098227,-222.061783
5710.287836,222.061783,-8810.098227,370.102971
5710.288161,444.123565,-8886.707777,148.041188
5710.288485,518.144159,-9039.926876,296.082377
5710.288809,518.144159,-8350.440928,74.020594
5710.289133,296.082377,-8810.098227,-222.061783
5710.289458,370.102971,-8273.831378,0.000000
5710.289782,74.020594,-8273.831378,0.000000
5710.290106,370.102971,-8886.707777,0.000000
5710.290431,370.102971,-8427.050478,-148.041188
5710.290755,592.164754,-8580.269578,-148.041188
5710.291079,444.123565,-8810.098227,0.000000
5710.291404,518.144159,-9269.755526,518.144159
5710.291728,592.164754,-8963.317327,0.000000
5710.292052,518.144159,-8427.050478,296.082377
5710.292377,666.185348,-8656.879127,-148.041188
5710.292701,222.061783,-8503.660028,-296.082377
5710.293025,370.102971,-8197.221829,-222.061783
5710.293350,0.000000,-8733.488677,-148.041188
5710.293674,0.000000,-8656.879127,-370.102971
5710.293998,0.000000,-8427.050478,-370.102971
5710.294322,666.185348,-8886.707777,-518.144159
5710.294647,296.082377,-8503.660028,-148.041188
5710.294971,370.102971,-8810.098227,-296.082377
5710.295295,592.164754,-8886.707777,-296.082377
5710.295620,740.205942,-8810.098227,74.020594
5710.295944,740.205942,-8886.707777,-518.144159
5710.296268,592.164754,-8503.660028,-592.164754
5710.296593,740.205942,-8350.440928,-296.082377
5710.296917,74.020594,-8963.317327,-888.247130
5710.297241,296.082377,-8656.879127,-666.185348
5710.297566,592.164754,-8886.707777,-592.164754
5710.297890,518.144159,-8886.707777,-592.164754
5710.298214,222.061783,-8810.098227,0.000000
5710.298539,888.247130,-8350.440928,0.000000
5710.298863,740.205942,-8733.488677,0.000000
5710.299187,740.205942,-8503.660028,-370.102971
5710.299511,666.185348,-9116.536426,-444.123565
5710.299836,666.185348,-8810.098227,0.000000
5710.300160,444.123565,-8580.269578,-592.164754
5710.300484,148.041188,-8810.098227,-740.205942
5710.300809,148.041188,-8580.269578,-666.185348
5710.301133,148.041188,-8656.879127,-740.205942
5710.301457,148.041188,-9039.926876,-222.061783
5710.301782,592.164754,-8733.488677,-296.082377
5710.302106,518.144159,-8503.660028,-222.061783
5710.302430,814.226536,-8427.050478,0.000000
5710.302755,814.226536,-8503.660028,-222.061783
5710.303079,1036.288319,-8810.098227,-666.185348
5710.303403,740.205942,-8503.660028,-444.123565
5710.303727,518.144159,-8427.050478,-888.247130
5710.304052,74.020594,-8656.879127,-148.041188
5710.304376,222.061783,-8350.440928,-444.123565
5710.304700,296.082377,-8810.098227,-518.144159
5710.305025,740.205942,-8273.831378,-518.144159
5710.305349,518.144159,-8733.488677,-296.082377
5710.305673,1110.308913,-8580.269578,0.000000
5710.305998,740.205942,-8350.440928,0.000000
5710.306322,888.247130,-8886.707777,-370.102971
5710.306646,888.247130,-8580.269578,-296.082377
5710.306971,740.205942,-8197.221829,-296.082377
5710.307295,518.144159,-8733.488677,-592.164754
5710.307619,222.061783,-8503.660028,-370.102971
5710.307944,592.164754,-8503.660028,-666.185348
5710.308268,296.082377,-8273.831378,-222.061783
5710.308592,222.061783,-8810.098227,0.000000
5710.308916,518.144159,-8656.879127,-296.082377
5710.309241,592.164754,-8427.050478,0.000000
5710.309565,222.061783,-8350.440928,-148.041188
5710.309889,814.226536,-8963.317327,-444.123565
5710.310214,518.144159,-8350.440928,-370.102971
5710.310538,148.041188,-8580.269578,-148.041188
5710.310862,222.061783,-8733.488677,-518.144159
5710.311187,296.082377,-8503.660028,-296.082377
5710.311511,74.020594,-8886.707777,-518.144159
5710.311835,370.102971,-8503.660028,-444.123565
5710.312160,296.082377,-8733.488677,-296.082377
5710.312484,296.082377,-9193.145976,-296.082377
5710.312808,740.205942,-8427.050478,-222.061783
5710.313133,296.082377,-8733.488677,-296.082377
5710.313457,518.144159,-8427.050478,-666.185348
5710.313781,222.061783,-8120.612279,-222.061783
5710.314105,370.102971,-8503.660028,-666.185348
5710.314430,222.061783,-8580.269578,-666.185348
5710.314753,444.123565,-8350.440928,-444.123565
5710.315077,296.082377,-8503.660028,-518.144159
5710.315402,1036.288319,-8886.707777,-296.082377
5710.315726,370.102971,-8503.660028,-370.102971
5710.316051,666.185348,-8580.269578,-444.123565
5710.316375,592.164754,-8273.831378,-370.102971
5710.316700,518.144159,-8656.879127,-370.102971
5710.317024,666.185348,-8733.488677,-444.123565
5710.317349,518.144159,-8120.612279,-296.082377
5710.317673,222.061783,-8886.707777,-814.226536
5710.317998,222.061783,-8656.879127,-666.185348
5710.318322,222.061783,-8580.269578,-444.123565
5710.318646,296.082377,-8810.098227,-592.164754
5710.318971,592.164754,-8733.488677,-518.144159
5710.319295,296.082377,-8350.440928,-296.082377
5710.319620,592.164754,-8580.269578,0.000000
5710.319944,518.144159,-8273.831378,-296.082377
5710.320269,666.185348,-8810.098227,-592.164754
5710.320593,444.123565,-8120.612279,-518.144159
5710.320918,370.102971,-8350.440928,-666.185348
5710.321242,222.061783,-8273.831378,-962.267725
5710.321567,296.082377,-8810.098227,-814.226536
5710.321891,74.020594,-8810.098227,-814.226536
5710.322216,148.041188,-8733.488677,-518.144159
5710.322540,592.164754,-8273.831378,-222.061783
5710.322865,296.082377,-8810.098227,-518.144159
5710.323189,518.144159,-8580.269578,-74.020594
5710.323514,666.185348,-8503.660028,-666.185348
5710.323838,444.123565,-8963.317327,-814.226536
5710.324163,444.123565,-8120.612279,-962.267725
5710.324487,148.041188,-8580.269578,-592.164754
5710.324812,148.041188,-8810.098227,-962.267725
5710.325136,296.082377,-8503.660028,-814.226536
5710.325461,740.205942,-8733.488677,-666.185348
5710.325785,222.061783,-8963.317327,0.000000
5710.326110,222.061783,-8580.269578,-370.102971
5710.326434,518.144159,-8580.269578,0.000000
5710.326759,666.185348,-9116.536426,-518.144159
5710.327083,888.247130,-8503.660028,-592.164754
5710.327408,666.185348,-8350.440928,-518.144159
5710.327732,592.164754,-8273.831378,-592.164754
5710.328056,222.061783,-8733.488677,-814.226536
5710.328381,148.041188,-8427.050478,-962.267725
5710.328705,592.164754,-8503.660028,-740.205942
5710.329030,222.061783,-8733.488677,-814.226536
5710.329354,222.061783,-8733.488677,0.000000
5710.329679,518.144159,-8733.488677,-296.082377
5710.330003,740.205942,-8503.660028,-222.061783
5710.330328,666.185348,-8120.612279,-518.144159
5710.330652,592.164754,-8656.879127,-666.185348
5710.330977,666.185348,-8886.707777,0.000000
5710.331301,444.123565,-8273.831378,-814.226536
5710.331626,370.102971,-8733.488677,-962.267725
5710.331950,222.061783,-8733.488677,-592.164754
5710.332275,444.123565,-8580.269578,-444.123565
5710.332599,296.082377,-8963.317327,-592.164754
5710.332924,296.082377,-8427.050478,0.000000
5710.333248,296.082377,-8656.879127,0.000000
5710.333573,518.144159,-8656.879127,0.000000
5710.333897,740.205942,-8656.879127,0.000000
5710.334222,370.102971,-8656.879127,-740.205942
5710.334546,592.164754,-8120.612279,-370.102971
5710.334871,74.020594,-8273.831378,-666.185348
5710.335195,0.000000,-9499.584175,-370.102971
5710.335520,0.000000,-8350.440928,-370.102971
5710.335844,148.041188,-8810.098227,-370.102971
5710.336169,222.061783,-8427.050478,-518.144159
5710.336493,222.061783,-8886.707777,-74.020594
5710.336817,518.144159,-8427.050478,-222.061783
5710.337142,740.205942,-8427.050478,0.000000
5710.337466,592.164754,-8503.660028,-370.102971
5710.337791,370.102971,-8427.050478,-444.123565
5710.338115,1036.288319,-8197.221829,-962.267725
5710.338440,0.000000,-8427.050478,-296.082377
5710.338764,296.082377,-8656.879127,-444.123565
5710.339089,222.061783,-8427.050478,-444.123565
5710.339413,370.102971,-8886.707777,-296.082377
5710.339738,518.144159,-8963.317327,0.000000
5710.340062,296.082377,-8656.879127,-148.041188
5710.340387,740.205942,-8580.269578,-148.041188
5710.340711,222.061783,-8580.269578,-148.041188
5710.341036,296.082377,-8733.488677,0.000000
5710.341360,666.185348,-8503.660028,-518.144159
5710.341685,296.082377,-8197.221829,-518.144159
5710.342009,148.041188,-8733.488677,-444.123565
5710.342334,0.000000,-8197.221829,-370.102971
5710.342658,444.123565,-8810.098227,-518.144159
5710.342983,962.267725,-8886.707777,-444.123565
5710.343307,370.102971,-8427.050478,0.000000
5710.343632,814.226536,-8503.660028,74.020594
5710.343956,444.123565,-8350.440928,-222.061783
5710.344281,888.247130,-8427.050478,-148.041188
5710.344605,666.185348,-8350.440928,-740.205942
5710.344930,666.185348,-8120.612279,-370.102971
5710.345254,518.144159,-8044.002729,-370.102971
5710.345579,444.123565,-8886.707777,-814.226536
5710.345903,222.061783,-8580.269578,-666.185348
5710.346227,222.061783,-8963.317327,-370.102971
5710.346552,444.123565,-8350.440928,-222.061783
5710.346876,222.061783,-8503.660028,-296.082377
5710.347201,444.123565,-8733.488677,-148.041188
5710.347525,518.144159,-8427.050478,-222.061783
5710.347850,740.205942,-8810.098227,-444.123565
5710.348174,444.123565,-8656.879127,-888.247130
5710.348499,444.123565,-8120.612279,-370.102971
5710.348823,296.082377,-8503.660028,-740.205942
5710.349148,148.041188,-8580.269578,-518.144159
5710.349472,592.164754,-8810.098227,-888.247130
5710.349797,444.123565,-8886.707777,-592.164754
5710.350121,444.123565,-8580.269578,-296.082377
5710.350446,518.144159,-8810.098227,-370.102971
5710.350770,962.267725,-8197.221829,0.000000
5710.351095,666.185348,-8427.050478,-370.102971
5710.351419,814.226536,-8656.879127,-592.164754
5710.351744,518.144159,-8580.269578,-814.226536
5710.352068,518.144159,-8197.221829,-666.185348
5710.352393,296.082377,-8733.488677,-1036.288319
5710.352717,222.061783,-8656.879127,-814.226536
5710.353042,148.041188,-8810.098227,-888.247130
5710.353366,296.082377,-9269.755526,-518.144159
5710.353691,740.205942,-8810.098227,0.000000
5710.354015,518.144159,-8733.488677,-444.123565
5710.354340,814.226536,-8503.660028,-370.102971
5710.354664,740.205942,-8427.050478,-296.082377
5710.354988,814.226536,-8273.831378,-518.144159
5710.355313,518.144159,-8120.612279,-518.144159
5710.355637,370.102971,-8427.050478,-592.164754
5710.355962,0.000000,-8503.660028,-666.185348
5710.356286,296.082377,-8580.269578,-444.123565
5710.356611,370.102971,-8580.269578,-666.185348
5710.356935,592.164754,-8503.660028,-296.082377
5710.357260,518.144159,-8810.098227,-296.082377
5710.357584,666.185348,-8733.488677,-222.061783
5710.357909,740.205942,-8656.879127,0.000000
5710.358233,740.205942,-8503.660028,-296.082377
5710.358558,666.185348,-8503.660028,-666.185348
5710.358882,444.123565,-8580.269578,-444.123565
5710.359207,148.041188,-8810.098227,-740.205942
5710.359531,222.061783,-8656.879127,-444.123565
5710.359856,0.000000,-8580.269578,-370.102971
5710.360180,370.102971,-8886.707777,-296.082377
5710.360505,444.123565,-8656.879127,-296.082377
5710.360829,740.205942,-8656.879127,-148.041188
5710.361154,518.144159,-8886.707777,-222.061783
5710.361478,666.185348,-8197.221829,74.020594
5710.361803,962.267725,-8656.879127,-444.123565
5710.362127,296.082377,-8886.707777,74.020594
5710.362452,518.144159,-8503.660028,-370.102971
5710.362776,148.041188,-8503.660028,-592.164754
5710.363101,444.123565,-8580.269578,-370.102971
5710.363425,222.061783,-8810.098227,-666.185348
5710.363750,518.144159,-8580.269578,-592.164754
5710.364074,148.041188,-8580.269578,-370.102971
5710.364398,740.205942,-8810.098227,0.000000
5710.364723,592.164754,-8733.488677,-444.123565
5710.365047,814.226536,-8273.831378,0.000000
5710.365372,296.082377,-8427.050478,-444.123565
5710.365696,518.144159,-8427.050478,-222.061783
5710.366021,148.041188,-8197.221829,-370.102971
5710.366345,0.000000,-8350.440928,-592.164754
5710.366670,148.041188,-8503.660028,-222.061783
5710.366994,148.041188,-8580.269578,-666.185348
5710.367319,592.164754,-9039.926876,0.000000
5710.367643,296.082377,-8503.660028,0.000000
5710.367968,1036.288319,-9039.926876,0.000000
5710.368292,888.247130,-8427.050478,0.000000
5710.368617,814.226536,-8580.269578,0.000000
5710.368941,444.123565,-8503.660028,-296.082377
5710.369266,592.164754,-8580.269578,74.020594
5710.369590,148.041188,-8273.831378,-518.144159
5710.369915,148.041188,-8656.879127,-370.102971
5710.370239,222.061783,-8580.269578,-518.144159
5710.370564,0.000000,-9039.926876,0.000000
5710.370888,74.020594,-8273.831378,-296.082377
5710.371213,148.041188,-8733.488677,0.000000
5710.371537,888.247130,-8733.488677,0.000000
5710.371862,518.144159,-8427.050478,0.000000
5710.372186,666.185348,-8580.269578,74.020594
5710.372511,444.123565,-8427.050478,-148.041188
5710.372835,740.205942,-8350.440928,0.000000
5710.373159,148.041188,-8350.440928,-370.102971
5710.373484,148.041188,-8656.879127,-222.061783
5710.373808,518.144159,-7967.393179,-296.082377
5710.374133,222.061783,-8733.488677,0.000000
5710.374457,222.061783,-8503.660028,-148.041188
5710.374782,518.144159,-8810.098227,0.000000
5710.375106,592.164754,-8656.879127,0.000000
5710.375431,592.164754,-8350.440928,0.000000
5710.375755,444.123565,-8503.660028,0.000000
5710.376080,518.144159,-8273.831378,-222.061783
5710.376404,370.102971,-8580.269578,-444.123565
5710.376729,148.041188,-8580.269578,-666.185348
5710.377053,296.082377,-8656.879127,-444.123565
5710.377378,74.020594,-8656.879127,-74.020594
5710.377702,888.247130,-9193.145976,-888.247130
5710.378027,222.061783,-8886.707777,-222.061783
5710.378351,222.061783,-8733.488677,-74.020594
5710.378676,518.144159,-8503.660028,0.000000
5710.379000,666.185348,-8427.050478,0.000000
5710.379325,740.205942,-8733.488677,-444.123565
5710.379649,518.144159,-8350.440928,-370.102971
5710.379974,666.185348,-8273.831378,-370.102971
5710.380298,0.000000,-8580.269578,-592.164754
5710.380623,296.082377,-8886.707777,-296.082377
5710.380947,222.061783,-8580.269578,-592.164754
5710.381272,518.144159,-8963.317327,-518.144159
5710.381596,0.000000,-8580.269578,-222.061783
5710.381920,740.205942,-8350.440928,148.041188
5710.382245,370.102971,-8503.660028,-296.082377
5710.382569,888.247130,-8580.269578,-370.102971
5710.382894,518.144159,-8350.440928,-296.082377
5710.383218,518.144159,-8350.440928,-222.061783
5710.383543,518.144159,-8273.831378,-296.082377
5710.383867,444.123565,-8503.660028,-444.123565
5710.384192,296.082377,-8810.098227,-296.082377
5710.384516,296.082377,-8733.488677,-296.082377
5710.384841,814.226536,-9116.536426,0.000000
5710.385165,74.020594,-8503.660028,0.000000
5710.385490,296.082377,-8656.879127,222.061783
5710.385814,370.102971,-8427.050478,0.000000
5710.386139,1110.308913,-7890.783629,296.082377
5710.386463,444.123565,-8503.660028,-222.061783
5710.386788,592.164754,-8197.221829,0.000000
5710.387112,148.041188,-8503.660028,-296.082377
5710.387437,296.082377,-8580.269578,0.000000
5710.387761,0.000000,-8503.660028,-296.082377
5710.388086,222.061783,-8963.317327,-148.041188
5710.388410,148.041188,-8963.317327,0.000000
5710.388735,444.123565,-8810.098227,0.000000
5710.389059,444.123565,-8503.660028,0.000000
5710.389384,592.164754,-8273.831378,0.000000
5710.389708,592.164754,-8656.879127,0.000000
5710.390033,370.102971,-8273.831378,148.041188
5710.390357,592.164754,-7890.783629,222.061783
5710.390682,222.061783,-8580.269578,-148.041188
5710.391006,296.082377,-8503.660028,0.000000
5710.391330,370.102971,-8580.269578,-148.041188
5710.391655,296.082377,-8580.269578,0.000000
5710.391979,370.102971,-9039.926876,148.041188
5710.392304,296.082377,-8733.488677,148.041188
5710.392628,296.082377,-8810.098227,0.000000
5710.392953,518.144159,-8427.050478,74.020594
5710.393277,888.247130,-8656.879127,0.000000
5710.393602,444.123565,-8427.050478,0.000000
5710.393926,222.061783,-8503.660028,-148.041188
5710.394251,148.041188,-8733.488677,0.000000
5710.394575,444.123565,-8733.488677,-370.102971
5710.394900,0.000000,-8810.098227,-370.102971
5710.395224,222.061783,-8733.488677,0.000000
5710.395549,0.000000,-8580.269578,-222.061783
5710.395873,444.123565,-8503.660028,0.000000
5710.396198,592.164754,-8120.612279,-296.082377
5710.396522,740.205942,-8273.831378,-222.061783
5710.396847,592.164754,-8350.440928,-370.102971
5710.397171,518.144159,-8120.612279,-518.144159
5710.397496,740.205942,-8580.269578,-814.226536
5710.397820,370.102971,-8273.831378,-888.247130
5710.398145,592.164754,-8580.269578,-444.123565
5710.398469,296.082377,-8350.440928,-962.267725
5710.398794,222.061783,-8886.707777,0.000000
5710.399118,296.082377,-8580.269578,-518.144159
5710.399443,296.082377,-8886.707777,-222.061783
5710.399767,518.144159,-8580.269578,-222.061783
5710.400091,296.082377,-8350.440928,-148.041188
5710.400416,1184.329507,-8963.317327,-222.061783
5710.400740,444.123565,-8427.050478,-518.144159
5710.401065,592.164754,-8503.660028,-370.102971
5710.401389,222.061783,-8733.488677,-148.041188
5710.401714,666.185348,-9193.145976,-740.205942
5710.402038,370.102971,-8733.488677,-518.144159
5710.402363,370.102971,-8963.317327,296.082377
5710.402687,296.082377,-8580.269578,0.000000
5710.403012,666.185348,-8580.269578,0.000000
5710.403336,444.123565,-8503.660028,-370.102971
5710.403661,666.185348,-8580.269578,0.000000
5710.403985,518.144159,-8120.612279,0.000000
5710.404310,444.123565,-8580.269578,-296.082377
5710.404634,222.061783,-8886.707777,-74.020594
5710.404959,222.061783,-8197.221829,-518.144159
5710.405283,370.102971,-8810.098227,-518.144159
5710.405608,74.020594,-8503.660028,-222.061783
5710.405932,370.102971,-9346.365076,-148.041188
5710.406257,148.041188,-8503.660028,0.000000
5710.406581,370.102971,-8273.831378,0.000000
5710.406906,296.082377,-8656.879127,-222.061783
5710.407230,740.205942,-8656.879127,-148.041188
5710.407555,370.102971,-8503.660028,-222.061783
5710.407879,148.041188,-8503.660028,-592.164754
5710.408204,222.061783,-8580.269578,-518.144159
5710.408528,370.102971,-8503.660028,-370.102971
5710.408853,592.164754,-9039.926876,0.000000
5710.409177,444.123565,-8580.269578,-370.102971
5710.409501,518.144159,-8963.317327,-222.061783
5710.409826,444.123565,-8656.879127,-148.041188
5710.410150,592.164754,-9116.536426,148.041188
5710.410475,666.185348,-8580.269578,-296.082377
5710.410799,592.164754,-8427.050478,-222.061783
5710.411124,222.061783,-8810.098227,-592.164754
5710.411448,74.020594,-8580.269578,-370.102971
5710.411773,444.123565,-8810.098227,-444.123565
5710.412097,370.102971,-8963.317327,-148.041188
5710.412422,370.102971,-8733.488677,-222.061783
5710.412746,296.082377,-8886.707777,-148.041188
5710.413071,296.082377,-9269.755526,222.061783
5710.413395,666.185348,-8580.269578,0.000000
5710.413720,592.164754,-8733.488677,0.000000
5710.414044,592.164754,-8427.050478,-296.082377
5710.414369,740.205942,-9193.145976,74.020594
5710.414693,296.082377,-8503.660028,-370.102971
5710.415018,222.061783,-8656.879127,-518.144159
5710.415342,222.061783,-8656.879127,-370.102971
5710.415667,518.144159,-8580.269578,-592.164754
5710.415991,518.144159,-8580.269578,-518.144159
5710.416316,666.185348,-8427.050478,-296.082377
5710.416640,444.123565,-8350.440928,-148.041188
5710.416964,740.205942,-8350.440928,-222.061783
5710.417289,1110.308913,-8656.879127,-444.123565
5710.417613,666.185348,-8810.098227,0.000000
5710.417938,592.164754,-8273.831378,-444.123565
5710.418262,222.061783,-8810.098227,-518.144159
5710.418587,518.144159,-9039.926876,-592.164754
5710.418911,222.061783,-8810.098227,-370.102971
5710.419236,666.185348,-8733.488677,-592.164754
5710.419560,592.164754,-8886.707777,-148.041188
5710.419885,444.123565,-8427.050478,0.000000
5710.420209,888.247130,-8350.440928,74.020594
5710.420534,444.123565,-8350.440928,-296.082377
5710.420858,740.205942,-8656.879127,0.000000
5710.421182,592.164754,-8656.879127,-296.082377
5710.421507,444.123565,-8886.707777,0.000000
5710.421831,74.020594,-8580.269578,-740.205942
5710.422156,370.102971,-8886.707777,-666.185348
5710.422480,74.020594,-8503.660028,-666.185348
5710.422805,296.082377,-8886.707777,-444.123565
5710.423129,148.041188,-8810.098227,-444.123565
5710.423454,370.102971,-8580.269578,-296.082377
5710.423778,370.102971,-8503.660028,-444.123565
5710.424103,518.144159,-8580.269578,-296.082377
5710.424427,444.123565,-8197.221829,-222.061783
5710.424752,222.061783,-8273.831378,0.000000
5710.425076,222.061783,-8810.098227,-444.123565
5710.425401,148.041188,-8656.879127,-370.102971
5710.425725,296.082377,-8350.440928,-370.102971
5710.426049,296.082377,-8427.050478,-592.164754
5710.426374,296.082377,-8580.269578,-370.102971
5710.426698,370.102971,-8503.660028,-296.082377
5710.427023,740.205942,-8656.879127,-370.102971
5710.427347,888.247130,-8350.440928,-518.144159
5710.427672,888.247130,-8886.707777,-296.082377
5710.427996,444.123565,-8273.831378,-592.164754
5710.428321,444.123565,-8427.050478,-444.123565
5710.428645,814.226536,-8580.269578,-666.185348
5710.428970,370.102971,-8733.488677,-666.185348
5710.429294,222.061783,-8580.269578,-962.267725
5710.429619,296.082377,-8503.660028,-962.267725
5710.429943,666.185348,-8656.879127,148.041188
5710.430267,592.164754,-8503.660028,-666.185348
5710.430592,740.205942,-8503.660028,-370.102971
5710.430916,444.123565,-8197.221829,-148.041188
5710.431241,592.164754,-8656.879127,-370.102971
5710.431565,666.185348,-8044.002729,-370.102971
5710.431890,296.082377,-8503.660028,-370.102971
5710.432214,222.061783,-8503.660028,-814.226536
5710.432539,296.082377,-8733.488677,-296.082377
5710.432863,296.082377,-9193.145976,-370.102971
5710.433188,370.102971,-8810.098227,-666.185348
5710.433512,444.123565,-8810.098227,-222.061783
5710.433837,814.226536,-8733.488677,-370.102971
5710.434161,666.185348,-8580.269578,-296.082377
5710.434486,296.082377,-8580.269578,-148.041188
5710.434810,592.164754,-8733.488677,-444.123565
5710.435134,296.082377,-8197.221829,-222.061783
5710.435459,518.144159,-8656.879127,-518.144159
5710.435783,0.000000,-8580.269578,-370.102971
5710.436108,148.041188,-8810.098227,-814.226536
5710.436432,222.061783,-8810.098227,-740.205942
5710.436757,296.082377,-8963.317327,-444.123565
5710.437081,-148.041188,-8503.660028,0.000000
5710.437406,370.102971,-8580.269578,0.000000
5710.437730,518.144159,-8580.269578,-296.082377
5710.438055,666.185348,-8580.269578,-370.102971
5710.438379,666.185348,-8503.660028,-296.082377
5710.438704,518.144159,-8503.660028,-740.205942
5710.439028,296.082377,-8503.660028,-518.144159
5710.439352,148.041188,-8656.879127,-592.164754
5710.439677,222.061783,-8733.488677,-740.205942
5710.440001,444.123565,-8886.707777,-518.144159
5710.440326,296.082377,-8656.879127,-666.185348
5710.440650,370.102971,-8733.488677,-518.144159
5710.440975,666.185348,-8733.488677,-222.061783
5710.441299,962.267725,-8044.002729,-444.123565
5710.441624,592.164754,-8810.098227,-518.144159
5710.441948,666.185348,-8503.660028,-666.185348
5710.442273,370.102971,-8273.831378,-592.164754
5710.442597,444.123565,-8580.269578,-740.205942
5710.442922,0.000000,-8427.050478,-962.267725
5710.443246,592.164754,-8580.269578,-740.205942
5710.443571,222.061783,-8656.879127,-666.185348
5710.443895,296.082377,-8810.098227,-444.123565
5710.444219,296.082377,-8350.440928,-592.164754
5710.444544,518.144159,-8273.831378,-148.041188
5710.444868,666.185348,-8580.269578,-370.102971
5710.445193,814.226536,-8656.879127,-592.164754
5710.445517,740.205942,-7814.174080,-296.082377
5710.445842,740.205942,-8197.221829,-666.185348
5710.446166,444.123565,-8810.098227,-814.226536
5710.446491,518.144159,-8580.269578,-962.267725
5710.446815,296.082377,-8886.707777,-740.205942
5710.447140,148.041188,-8350.440928,-888.247130
5710.447464,592.164754,-8656.879127,-518.144159
5710.447789,666.185348,-8886.707777,-518.144159
5710.448113,740.205942,-8503.660028,-148.041188
5710.448437,666.185348,-9499.584175,-814.226536
5710.448762,666.185348,-8810.098227,-370.102971
5710.449086,592.164754,-8273.831378,-222.061783
5710.449411,444.123565,-8733.488677,-444.123565
5710.449735,444.123565,-8580.269578,-592.164754
5710.450060,296.082377,-8810.098227,-444.123565
5710.450384,444.123565,-8503.660028,-518.144159
5710.450709,222.061783,-8656.879127,-222.061783
5710.451033,370.102971,-8503.660028,-222.061783
5710.451358,666.185348,-8503.660028,-222.061783
5710.451682,518.144159,-8427.050478,-222.061783
5710.452007,444.123565,-8273.831378,-222.061783
5710.452331,592.164754,-8273.831378,-296.082377
5710.452656,444.123565,-8503.660028,-222.061783
5710.452980,370.102971,-8580.269578,-666.185348
5710.453304,222.061783,-8503.660028,-740.205942
5710.453629,148.041188,-8886.707777,-444.123565
5710.453953,518.144159,-8733.488677,-592.164754
5710.454278,444.123565,-8656.879127,-222.061783
5710.454602,296.082377,-8503.660028,-592.164754
5710.454927,592.164754,-8580.269578,-222.061783
5710.455251,370.102971,-8197.221829,-740.205942
5710.455576,962.267725,-8886.707777,0.000000
5710.455900,444.123565,-8350.440928,-592.164754
5710.456225,296.082377,-8427.050478,-740.205942
5710.456549,74.020594,-8503.660028,-592.164754
5710.456874,592.164754,-8886.707777,-740.205942
5710.457198,370.102971,-8580.269578,-518.144159
5710.457522,444.123565,-8810.098227,-518.144159
5710.457847,518.144159,-9039.926876,-370.102971
5710.458171,444.123565,-8427.050478,-296.082377
5710.458496,444.123565,-8427.050478,-74.020594
5710.458820,740.205942,-8503.660028,0.000000
5710.459145,592.164754,-8580.269578,-296.082377
5710.459469,518.144159,-8044.002729,-370.102971
5710.459794,0.000000,-8656.879127,0.000000
5710.460118,74.020594,-8886.707777,-444.123565
5710.460443,444.123565,-8886.707777,-444.123565
5710.460767,222.061783,-8886.707777,-740.205942
5710.461092,370.102971,-8656.879127,-222.061783
5710.461416,296.082377,-8810.098227,-296.082377
5710.461741,592.164754,-8580.269578,-222.061783
5710.462065,518.144159,-8350.440928,-148.041188
5710.462389,814.226536,-8656.879127,-148.041188
5710.462714,592.164754,-8580.269578,0.000000
5710.463038,666.185348,-8197.221829,-370.102971
5710.463363,444.123565,-8197.221829,-740.205942
5710.463687,74.020594,-8427.050478,-444.123565
5710.464012,222.061783,-8120.612279,-222.061783
5710.464336,222.061783,-8273.831378,-518.144159
5710.464661,222.061783,-8656.879127,-148.041188
5710.464985,296.082377,-8733.488677,-592.164754
5710.465310,592.164754,-8503.660028,-370.102971
5710.465634,444.123565,-8580.269578,-444.123565
5710.465959,444.123565,-8503.660028,-148.041188
5710.466283,592.164754,-8427.050478,-370.102971
5710.466607,370.102971,-8197.221829,-592.164754
5710.466932,444.123565,-8656.879127,-740.205942
5710.467256,148.041188,-8810.098227,-592.164754
5710.467581,222.061783,-8580.269578,-592.164754
5710.467905,0.000000,-8733.488677,-370.102971
5710.468230,888.247130,-8656.879127,-222.061783
5710.468554,370.102971,-8733.488677,-296.082377
5710.468879,592.164754,-8963.317327,0.000000
5710.469203,592.164754,-8580.269578,-296.082377
5710.469528,666.185348,-8963.317327,-222.061783
5710.469852,814.226536,-8427.050478,-74.020594
5710.470177,518.144159,-8427.050478,-296.082377
5710.470501,148.041188,-8810.098227,-370.102971
5710.470826,0.000000,-8810.098227,-444.123565
5710.471150,74.020594,-8656.879127,-222.061783
5710.471474,0.000000,-8886.707777,-444.123565
5710.471799,74.020594,-8656.879127,-296.082377
5710.472123,222.061783,-8580.269578,-222.061783
5710.472448,518.144159,-8503.660028,0.000000
5710.472772,518.144159,-8733.488677,-370.102971
5710.473097,888.247130,-8580.269578,-222.061783
5710.473421,518.144159,-8350.440928,-296.082377
5710.473746,518.144159,-8580.269578,-296.082377
5710.474070,518.144159,-8503.660028,-518.144159
5710.474395,370.102971,-8427.050478,-518.144159
5710.474719,222.061783,-8810.098227,-888.247130
5710.475044,518.144159,-8810.098227,-296.082377
5710.475368,740.205942,-9193.145976,-740.205942
5710.475692,222.061783,-8580.269578,-148.041188
5710.476017,888.247130,-8427.050478,-444.123565
5710.476341,592.164754,-8503.660028,0.000000
5710.476666,1258.350101,-8580.269578,-148.041188
5710.476990,518.144159,-8427.050478,-370.102971
5710.477315,370.102971,-8580.269578,-444.123565
5710.477639,518.144159,-8656.879127,-370.102971
5710.477964,444.123565,-8580.269578,-592.164754
5710.478288,148.041188,-8656.879127,-296.082377
5710.478613,74.020594,-8810.098227,-222.061783
5710.478937,296.082377,-8886.707777,-296.082377
5710.479262,592.164754,-8503.660028,-370.102971
5710.479586,888.247130,-8273.831378,148.041188
5710.479910,592.164754,-8427.050478,-222.061783
5710.480235,740.205942,-8427.050478,0.000000
5710.480559,444.123565,-8350.440928,-296.082377
5710.480884,518.144159,-8044.002729,-518.144159
5710.481208,148.041188,-8503.660028,-518.144159
5710.481533,222.061783,-8580.269578,-444.123565
5710.481857,222.061783,-8580.269578,-370.102971
5710.482182,74.020594,-8656.879127,-370.102971
5710.482506,148.041188,-8580.269578,0.000000
5710.482831,518.144159,-8503.660028,0.000000
5710.483155,518.144159,-8503.660028,0.000000
5710.483480,740.205942,-8580.269578,0.000000
5710.483804,814.226536,-8886.707777,-444.123565
5710.484129,444.123565,-8503.660028,-444.123565
5710.484453,222.061783,-8656.879127,-148.041188
5710.484777,148.041188,-8580.269578,-296.082377
5710.485102,518.144159,-8810.098227,-370.102971
5710.485426,370.102971,-8810.098227,74.020594
5710.485751,222.061783,-8733.488677,0.000000
5710.486075,296.082377,-8427.050478,74.020594
5710.486400,370.102971,-8427.050478,0.000000
5710.486724,296.082377,-8580.269578,148.041188
5710.487049,444.123565,-8273.831378,0.000000
5710.487373,370.102971,-8273.831378,0.000000
5710.487698,222.061783,-8580.269578,0.000000
5710.488022,370.102971,-8886.707777,-370.102971
5710.488347,222.061783,-8503.660028,-370.102971
5710.488671,74.020594,-8580.269578,-592.164754
5710.488995,0.000000,-8656.879127,-222.061783
5710.489320,148.041188,-8656.879127,0.000000
5710.489644,296.082377,-8427.050478,-370.102971
5710.489969,444.123565,-8427.050478,-296.082377
5710.490293,962.267725,-8656.879127,-296.082377
5710.490618,814.226536,-8350.440928,-148.041188
5710.490942,370.102971,-8197.221829,-370.102971
5710.491267,370.102971,-8273.831378,-592.164754
5710.491591,148.041188,-8656.879127,-444.123565
5710.491916,148.041188,-8580.269578,-518.144159
5710.492240,296.082377,-8580.269578,-370.102971
5710.492565,296.082377,-8503.660028,0.000000
5710.492889,370.102971,-8810.098227,0.000000
5710.493214,296.082377,-8503.660028,0.000000
5710.493538,666.185348,-8580.269578,0.000000
5710.493862,444.123565,-8427.050478,0.000000
5710.494187,518.144159,-8350.440928,0.000000
5710.494511,370.102971,-8350.440928,-592.164754
5710.494836,444.123565,-8733.488677,0.000000
5710.495160,222.061783,-8963.317327,0.000000
5710.495485,370.102971,-8810.098227,-444.123565
5710.495809,148.041188,-8733.488677,-148.041188
5710.496134,296.082377,-8656.879127,0.000000
5710.496458,518.144159,-8503.660028,0.000000
5710.496783,592.164754,-8580.269578,-222.061783
5710.497107,444.123565,-8810.098227,-370.102971
5710.497432,592.164754,-8350.440928,-222.061783
5710.497756,518.144159,-8427.050478,-296.082377
5710.498080,370.102971,-8810.098227,-740.205942
5710.498405,518.144159,-8503.660028,-518.144159
5710.498729,518.144159,-8656.879127,-740.205942
5710.499054,518.144159,-8733.488677,-666.185348
5710.499378,148.041188,-8733.488677,-814.226536
5710.499703,666.185348,-8733.488677,-296.082377
5710.500027,592.164754,-8886.707777,-444.123565
5710.500352,518.144159,-8886.707777,-370.102971
5710.500676,666.185348,-8427.050478,-222.061783
5710.501001,814.226536,-8503.660028,-222.061783
5710.501325,518.144159,-8580.269578,-296.082377
5710.501650,518.144159,-8963.317327,-444.123565
5710.501974,444.123565,-8273.831378,-592.164754
5710.502299,518.144159,-8886.707777,-592.164754
5710.502623,296.082377,-8580.269578,-518.144159
5710.502947,74.020594,-8886.707777,0.000000
5710.503272,444.123565,-9039.926876,0.000000
5710.503596,666.185348,-9039.926876,222.061783
5710.503921,444.123565,-8733.488677,-222.061783
5710.504245,666.185348,-8503.660028,148.041188
5710.504570,296.082377,-8503.660028,-222.061783
5710.504894,296.082377,-8350.440928,-222.061783
5710.505219,148.041188,-8120.612279,-222.061783
5710.505543,148.041188,-8503.660028,-370.102971
5710.505868,444.123565,-8580.269578,-592.164754
5710.506192,148.041188,-8503.660028,-444.123565
5710.506517,1036.288319,-8427.050478,-518.144159
5710.506841,518.144159,-8580.269578,-666.185348
5710.507165,518.144159,-8503.660028,-444.123565
5710.507490,592.164754,-8503.660028,-518.144159
5710.507814,1110.308913,-8350.440928,222.061783
5710.508139,370.102971,-8044.002729,-148.041188
5710.508463,518.144159,-8580.269578,-518.144159
5710.508788,222.061783,-8503.660028,-666.185348
5710.509112,518.144159,-8580.269578,-592.164754
5710.509437,296.082377,-8427.050478,-666.185348
5710.509761,148.041188,-8886.707777,-296.082377
5710.510086,370.102971,-8810.098227,-222.061783
5710.510410,296.082377,-8350.440928,0.000000
5710.510735,814.226536,-8350.440928,-296.082377
5710.511059,666.185348,-8427.050478,148.041188
5710.511384,740.205942,-8427.050478,0.000000
5710.511708,148.041188,-8197.221829,-222.061783
5710.512032,592.164754,-8810.098227,-296.082377
5710.512357,74.020594,-8580.269578,-296.082377
5710.512681,370.102971,-8886.707777,-370.102971
5710.513006,0.000000,-8733.488677,-444.123565
5710.513330,148.041188,-8810.098227,0.000000
5710.513655,148.041188,-8580.269578,-222.061783
5710.513979,444.123565,-8656.879127,222.061783
5710.514304,444.123565,-8350.440928,-370.102971
5710.514628,592.164754,-8810.098227,0.000000
5710.514953,888.247130,-8656.879127,0.000000
5710.515277,296.082377,-8656.879127,-222.061783
5710.515602,296.082377,-8350.440928,-296.082377
5710.515926,222.061783,-8427.050478,-518.144159
5710.516250,370.102971,-9039.926876,-296.082377
5710.516575,0.000000,-8580.269578,-370.102971
5710.516899,370.102971,-8656.879127,-592.164754
5710.517224,444.123565,-8733.488677,0.000000
5710.517548,444.123565,-8580.269578,-518.144159
5710.517873,888.247130,-8656.879127,-370.102971
5710.518197,814.226536,-8427.050478,-222.061783
5710.518522,444.123565,-8044.002729,0.000000
5710.518846,296.082377,-8580.269578,-444.123565
5710.519171,592.164754,-8733.488677,-444.123565
5710.519495,444.123565,-8580.269578,-592.164754
5710.519820,370.102971,-8656.879127,-592.164754
5710.520144,370.102971,-8656.879127,-148.041188
5710.520469,148.041188,-7890.783629,-148.041188
5710.520793,444.123565,-8580.269578,74.020594
5710.521118,370.102971,-8427.050478,0.000000
5710.521442,666.185348,-8886.707777,0.000000
5710.521767,518.144159,-8350.440928,74.020594
5710.522091,148.041188,-8350.440928,0.000000
5710.522416,444.123565,-8580.269578,-222.061783
5710.522740,370.102971,-8580.269578,-296.082377
5710.523065,444.123565,-8656.879127,-592.164754
5710.523389,296.082377,-8427.050478,-296.082377
5710.523714,222.061783,-8656.879127,0.000000
5710.524038,444.123565,-8580.269578,0.000000
5710.524363,518.144159,-8503.660028,-296.082377
5710.524687,740.205942,-8580.269578,-296.082377
5710.525012,740.205942,-7967.393179,-370.102971
5710.525336,592.164754,-8273.831378,-222.061783
5710.525661,296.082377,-8503.660028,-592.164754
5710.525985,518.144159,-8810.098227,-444.123565
5710.526310,592.164754,-8503.660028,-814.226536
5710.526635,370.102971,-8886.707777,-592.164754
5710.526959,0.000000,-9116.536426,-518.144159
5710.527284,370.102971,-8810.098227,-370.102971
5710.527608,370.102971,-9422.974625,-148.041188
5710.527933,592.164754,-8733.488677,-148.041188
5710.528257,740.205942,-8810.098227,-518.144159
5710.528582,814.226536,-8580.269578,-370.102971
5710.528906,444.123565,-8197.221829,-296.082377
5710.529231,444.123565,-8427.050478,-444.123565
5710.529555,444.123565,-8580.269578,-444.123565
5710.529880,222.061783,-8350.440928,-666.185348
5710.530204,222.061783,-8656.879127,-370.102971
5710.530529,0.000000,-8427.050478,-666.185348
5710.530853,666.185348,-8886.707777,-370.102971
5710.531178,296.082377,-8503.660028,-222.061783
5710.531502,666.185348,-9116.536426,-370.102971
5710.531827,518.144159,-8503.660028,-1036.288319
5710.532151,592.164754,-8580.269578,0.000000
5710.532476,222.061783,-8580.269578,-518.144159
5710.532800,296.082377,-8886.707777,-444.123565
5710.533125,222.061783,-8580.269578,-518.144159
5710.533449,518.144159,-8886.707777,-592.164754
5710.533774,444.123565,-9039.926876,-740.205942
5710.534098,148.041188,-8656.879127,-222.061783
5710.534423,444.123565,-8886.707777,-444.123565
5710.534747,518.144159,-9269.755526,-296.082377
5710.535072,666.185348,-8580.269578,-518.144159
5710.535396,296.082377,-8580.269578,0.000000
5710.535721,592.164754,-8044.002729,-148.041188
5710.536045,518.144159,-9193.145976,-370.102971
5710.536370,444.123565,-8273.831378,-518.144159
5710.536694,444.123565,-8350.440928,-444.123565
5710.537019,518.144159,-8810.098227,-666.185348
5710.537343,296.082377,-8810.098227,-666.185348
5710.537668,0.000000,-8810.098227,0.000000
5710.537992,296.082377,-8580.269578,-222.061783
5710.538317,296.082377,-8580.269578,-222.061783
5710.538642,740.205942,-8580.269578,-222.061783
5710.538966,592.164754,-8427.050478,0.000000
5710.539291,592.164754,-8120.612279,-222.061783
5710.539615,592.164754,-8503.660028,-592.164754
5710.539940,370.102971,-8350.440928,-592.164754
5710.540264,518.144159,-8427.050478,-444.123565
5710.540589,148.041188,-8810.098227,-740.205942
5710.540913,370.102971,-8503.660028,-666.185348
5710.541238,444.123565,-8350.440928,-370.102971
5710.541562,592.164754,-8580.269578,-296.082377
5710.541887,666.185348,-8197.221829,-444.123565
5710.542211,592.164754,-8733.488677,-592.164754
5710.542536,592.164754,-8427.050478,-222.061783
5710.542860,518.144159,-8350.440928,-296.082377
5710.543185,444.123565,-9346.365076,-1036.288319
5710.543509,370.102971,-8580.269578,-888.247130
5710.543834,148.041188,-8963.317327,-592.164754
5710.544158,0.000000,-8886.707777,-814.226536
5710.544483,148.041188,-9039.926876,-444.123565
5710.544807,222.061783,-9116.536426,-296.082377
5710.545132,296.082377,-8733.488677,-444.123565
5710.545456,370.102971,-8350.440928,0.000000
5710.545781,370.102971,-8580.269578,0.000000
5710.546105,962.267725,-8273.831378,148.041188
5710.546430,444.123565,-8580.269578,-444.123565
5710.546754,222.061783,-8580.269578,-370.102971
5710.547079,296.082377,-8503.660028,-444.123565
5710.547403,592.164754,-9346.365076,-296.082377
5710.547728,222.061783,-8273.831378,-518.144159
5710.548052,148.041188,-8580.269578,-296.082377
5710.548377,296.082377,-8733.488677,-370.102971
5710.548701,296.082377,-8197.221829,-370.102971
5710.549026,666.185348,-8580.269578,-518.144159
5710.549350,888.247130,-8350.440928,-222.061783
5710.549675,666.185348,-8120.612279,-222.061783
5710.549999,444.123565,-8580.269578,-592.164754
5710.550324,1332.370696,-8886.707777,-592.164754
5710.550649,518.144159,-8427.050478,-592.164754
5710.550973,814.226536,-8656.879127,-814.226536
5710.551298,222.061783,-8733.488677,-518.144159
5710.551622,444.123565,-8656.879127,-370.102971
5710.551947,592.164754,-8656.879127,-444.123565
5710.552271,740.205942,-8273.831378,-222.061783
5710.552596,666.185348,-8963.317327,-444.123565
5710.552920,962.267725,-8197.221829,0.000000
5710.553245,592.164754,-7890.783629,-296.082377
5710.553569,444.123565,-8656.879127,-370.102971
5710.553894,592.164754,-8427.050478,-518.144159
5710.554218,518.144159,-8580.269578,-592.164754
5710.554543,370.102971,-8427.050478,-444.123565
5710.554867,370.102971,-8810.098227,-444.123565
5710.555192,222.061783,-8810.098227,-296.082377
5710.555516,222.061783,-8656.879127,-296.082377
5710.555841,370.102971,-8963.317327,0.000000
5710.556165,518.144159,-8580.269578,-370.102971
5710.556490,592.164754,-8503.660028,-222.061783
5710.556814,370.102971,-8350.440928,-148.041188
5710.557139,370.102971,-8656.879127,-222.061783
5710.557463,740.205942,-7737.564530,-592.164754
5710.557788,518.144159,-8963.317327,-518.144159
5710.558112,296.082377,-8886.707777,-666.185348
5710.558437,148.041188,-8733.488677,-296.082377
5710.558761,518.144159,-9116.536426,-666.185348
5710.559086,296.082377,-8503.660028,-370.102971
5710.559410,296.082377,-8580.269578,-592.164754
5710.559735,592.164754,-8503.660028,-592.164754
5710.560059,444.123565,-8044.002729,-148.041188
5710.560384,222.061783,-8503.660028,-444.123565
5710.560708,444.123565,-8810.098227,-518.144159
5710.561033,444.123565,-8503.660028,-592.164754
5710.561357,444.123565,-8886.707777,-814.226536
5710.561682,296.082377,-8580.269578,-740.205942
5710.562006,222.061783,-8656.879127,-370.102971
5710.562331,0.000000,-8810.098227,-296.082377
5710.562656,444.123565,-8580.269578,-222.061783
5710.562980,888.247130,-8273.831378,-444.123565
5710.563305,888.247130,-8273.831378,-148.041188
5710.563629,740.205942,-8503.660028,0.000000
5710.563954,518.144159,-8427.050478,-444.123565
5710.564278,592.164754,-7967.393179,-370.102971
5710.564603,518.144159,-8503.660028,-222.061783
5710.564927,592.164754,-8427.050478,-370.102971
5710.565252,296.082377,-8656.879127,-222.061783
5710.565576,370.102971,-8503.660028,-222.061783
5710.565901,592.164754,-9499.584175,-296.082377
5710.566225,444.123565,-8580.269578,-592.164754
5710.566550,444.123565,-8810.098227,74.020594
5710.566874,666.185348,-8350.440928,0.000000
5710.567199,444.123565,-8810.098227,-148.041188
5710.567523,592.164754,-8503.660028,-518.144159
5710.567848,518.144159,-8350.440928,-518.144159
5710.568172,296.082377,-8656.879127,-444.123565
5710.568497,222.061783,-8963.317327,-444.123565
5710.568821,-296.082377,-8580.269578,0.000000
5710.569146,148.041188,-9116.536426,0.000000
5710.569470,74.020594,-8733.488677,-222.061783
5710.569795,592.164754,-8656.879127,-296.082377
5710.570119,740.205942,-8197.221829,0.000000
5710.570444,666.185348,-8197.221829,-296.082377
5710.570768,370.102971,-8503.660028,-222.061783
5710.571093,518.144159,-8350.440928,-666.185348
5710.571417,814.226536,-8273.831378,-444.123565
5710.571742,370.102971,-8580.269578,-740.205942
5710.572066,222.061783,-8580.269578,-666.185348
5710.572391,74.020594,-8733.488677,-222.061783
5710.572715,222.061783,-8656.879127,-518.144159
5710.573040,222.061783,-8963.317327,0.000000
5710.573364,740.205942,-8810.098227,-444.123565
5710.573689,518.144159,-8427.050478,-444.123565
5710.574013,592.164754,-8197.221829,-370.102971
5710.574338,222.061783,-8580.269578,-444.123565
5710.574662,370.102971,-8427.050478,-666.185348
5710.574987,888.247130,-8197.221829,-444.123565
5710.575312,296.082377,-8810.098227,-740.205942
5710.575636,444.123565,-8580.269578,-444.123565
5710.575961,-148.041188,-8580.269578,-370.102971
5710.576285,444.123565,-8580.269578,-222.061783
5710.576610,370.102971,-8350.440928,-518.144159
5710.576934,296.082377,-8810.098227,-296.082377
5710.577259,0.000000,-8044.002729,-148.041188
5710.577583,148.041188,-8503.660028,-148.041188
5710.577908,296.082377,-8427.050478,-592.164754
5710.578232,370.102971,-8120.612279,-444.123565
5710.578557,444.123565,-8503.660028,-814.226536
5710.578881,296.082377,-8733.488677,-814.226536
5710.579206,74.020594,-8656.879127,-518.144159
5710.579530,222.061783,-8810.098227,-222.061783
5710.579855,444.123565,-8810.098227,74.020594
5710.580179,296.082377,-8963.317327,-222.061783
5710.580504,518.144159,-8963.317327,-148.041188
5710.580828,592.164754,-8197.221829,74.020594
5710.581153,444.123565,-8427.050478,-444.123565
5710.581477,740.205942,-8656.879127,148.041188
5710.581802,592.164754,-8273.831378,-370.102971
5710.582126,518.144159,-8580.269578,-518.144159
5710.582451,444.123565,-8503.660028,-444.123565
5710.582775,370.102971,-9039.926876,148.041188
5710.583100,296.082377,-8733.488677,-148.041188
5710.583424,222.061783,-8656.879127,-148.041188
5710.583749,444.123565,-8656.879127,-296.082377
5710.584073,666.185348,-8120.612279,0.000000
5710.584398,666.185348,-8350.440928,-222.061783
5710.584722,592.164754,-8580.269578,-444.123565
5710.585047,444.123565,-8503.660028,-444.123565
5710.585371,518.144159,-8503.660028,-592.164754
5710.585696,814.226536,-8197.221829,-592.164754
5710.586020,370.102971,-8656.879127,-592.164754
5710.586345,222.061783,-8886.707777,-370.102971
5710.586669,296.082377,-8810.098227,0.000000
5710.586994,296.082377,-8503.660028,0.000000
5710.587319,518.144159,-8656.879127,0.000000
5710.587643,814.226536,-8580.269578,0.000000
5710.587968,296.082377,-8427.050478,-370.102971
5710.588292,444.123565,-8886.707777,-370.102971
5710.588617,296.082377,-8273.831378,-370.102971
5710.588941,518.144159,-8810.098227,-370.102971
5710.589266,148.041188,-8733.488677,-444.123565
5710.589590,148.041188,-8963.317327,-148.041188
5710.589915,518.144159,-8580.269578,74.020594
5710.590239,296.082377,-8810.098227,-148.041188
5710.590564,518.144159,-8427.050478,-222.061783
5710.590888,444.123565,-8580.269578,148.041188
5710.591213,222.061783,-8350.440928,370.102971
5710.591537,148.041188,-8733.488677,-148.041188
5710.591862,222.061783,-8273.831378,-444.123565
5710.592186,222.061783,-8197.221829,0.000000
5710.592511,444.123565,-8427.050478,-592.164754
5710.592835,0.000000,-8273.831378,-296.082377
5710.593160,296.082377,-8580.269578,-370.102971
5710.593484,296.082377,-8733.488677,-148.041188
5710.593809,444.123565,-8656.879127,0.000000
5710.594133,962.267725,-8503.660028,0.000000
5710.594458,666.185348,-8350.440928,-222.061783
5710.594782,592.164754,-8427.050478,0.000000
5710.595107,666.185348,-8044.002729,-370.102971
5710.595431,370.102971,-8580.269578,-296.082377
5710.595756,740.205942,-8427.050478,-592.164754
5710.596080,370.102971,-8810.098227,-666.185348
5710.596405,444.123565,-8350.440928,-370.102971
5710.596729,370.102971,-8656.879127,-296.082377
5710.597054,518.144159,-8886.707777,-222.061783
5710.597378,518.144159,-8427.050478,-222.061783
5710.597703,518.144159,-8656.879127,-296.082377
5710.598027,666.185348,-8503.660028,0.000000
5710.598352,888.247130,-8197.221829,-370.102971
5710.598676,666.185348,-8656.879127,0.000000
5710.599001,444.123565,-8197.221829,-370.102971
5710.599326,296.082377,-8656.879127,-370.102971
5710.599650,296.082377,-8503.660028,-518.144159
5710.599975,518.144159,-8733.488677,0.000000
5710.600299,148.041188,-8810.098227,-444.123565
5710.600624,296.082377,-8580.269578,74.020594
5710.600948,296.082377,-8350.440928,0.000000
5710.601273,518.144159,-8197.221829,222.061783
5710.601597,666.185348,-8273.831378,0.000000
5710.601922,222.061783,-8503.660028,-296.082377
5710.602246,370.102971,-8427.050478,-296.082377
5710.602571,666.185348,-7814.174080,-666.185348
5710.602895,592.164754,-8733.488677,-592.164754
5710.603220,296.082377,-8580.269578,-296.082377
5710.603544,148.041188,-8503.660028,-222.061783
5710.603869,370.102971,-8427.050478,0.000000
5710.604193,814.226536,-8503.660028,-296.082377
5710.604518,592.164754,-8580.269578,-370.102971
5710.604842,740.205942,-8503.660028,-296.082377
5710.605167,592.164754,-8044.002729,-222.061783
5710.605491,666.185348,-9039.926876,0.000000
5710.605816,370.102971,-8427.050478,-518.144159
5710.606140,518.144159,-8580.269578,-444.123565
5710.606465,518.144159,-8503.660028,-814.226536
5710.606789,148.041188,-8886.707777,-222.061783
5710.607114,370.102971,-9039.926876,-370.102971
5710.607438,0.000000,-8810.098227,-148.041188
5710.607763,296.082377,-8733.488677,0.000000
5710.608087,518.144159,-8656.879127,-444.123565
5710.608412,148.041188,-8120.612279,-370.102971
5710.608736,370.102971,-8580.269578,0.000000
5710.609061,296.082377,-8656.879127,-518.144159
5710.609385,370.102971,-8580.269578,-592.164754
5710.609710,666.185348,-8044.002729,-740.205942
5710.610034,296.082377,-9193.145976,-666.185348
5710.610359,222.061783,-8580.269578,-444.123565
5710.610683,148.041188,-8733.488677,-296.082377
5710.611008,296.082377,-8580.269578,0.000000
5710.611333,592.164754,-8656.879127,-518.144159
5710.611657,518.144159,-8580.269578,-296.082377
5710.611982,666.185348,-8273.831378,222.061783
5710.612306,444.123565,-8656.879127,0.000000
5710.612631,888.247130,-8810.098227,-222.061783
5710.612955,592.164754,-8197.221829,0.000000
5710.613280,444.123565,-9116.536426,-296.082377
5710.613604,148.041188,-8503.660028,-444.123565
5710.613929,222.061783,-9652.803275,-296.082377
5710.614253,148.041188,-8810.098227,0.000000
5710.614578,592.164754,-8656.879127,0.000000
5710.614902,592.164754,-8580.269578,-148.041188
5710.615227,1036.288319,-8656.879127,0.000000
5710.615551,888.247130,-8350.440928,0.000000
5710.615876,518.144159,-8273.831378,-370.102971
5710.616200,518.144159,-8656.879127,-296.082377
5710.616525,814.226536,-8350.440928,-592.164754
5710.616849,148.041188,-9116.536426,-370.102971
5710.617174,444.123565,-8503.660028,-518.144159
5710.617498,296.082377,-8503.660028,-666.185348
5710.617823,296.082377,-8656.879127,-592.164754
5710.618147,222.061783,-9116.536426,-370.102971
5710.618472,666.185348,-8580.269578,-370.102971
5710.618796,666.185348,-8120.612279,-370.102971
5710.619121,444.123565,-8273.831378,-222.061783
5710.619445,370.102971,-8810.098227,-444.123565
5710.619770,444.123565,-8350.440928,-370.102971
5710.620094,222.061783,-8503.660028,-518.144159
5710.620419,74.020594,-8810.098227,-592.164754
5710.620743,148.041188,-8503.660028,-370.102971
5710.621068,74.020594,-8886.707777,0.000000
5710.621392,74.020594,-8656.879127,0.000000
5710.621717,222.061783,-8580.269578,-222.061783
5710.622041,296.082377,-8656.879127,-148.041188
5710.622366,296.082377,-8810.098227,74.020594
5710.622691,370.102971,-8656.879127,-296.082377
5710.623015,444.123565,-8656.879127,-296.082377
5710.623340,444.123565,-8427.050478,-444.123565
5710.623664,296.082377,-8656.879127,-518.144159
5710.623989,0.000000,-8273.831378,-518.144159
5710.624313,148.041188,-8733.488677,-666.185348
5710.624638,0.000000,-8733.488677,-296.082377
5710.624962,296.082377,-8733.488677,-296.082377
5710.625287,222.061783,-8810.098227,-518.144159
5710.625611,592.164754,-8580.269578,0.000000
5710.625936,666.185348,-8503.660028,0.000000
5710.626260,740.205942,-8273.831378,-444.123565
5710.626585,518.144159,-8503.660028,-222.061783
5710.626909,592.164754,-8273.831378,-592.164754
5710.627234,370.102971,-8580.269578,-444.123565
5710.627558,222.061783,-8810.098227,-370.102971
5710.627883,296.082377,-8733.488677,-296.082377
5710.628207,222.061783,-8656.879127,0.000000
5710.628532,518.144159,-8580.269578,-222.061783
5710.628856,592.164754,-8733.488677,-370.102971
5710.629181,962.267725,-8656.879127,-370.102971
5710.629505,370.102971,-8120.612279,0.000000
5710.629830,592.164754,-8580.269578,-518.144159
5710.630154,518.144159,-8197.221829,-888.247130
5710.630479,962.267725,-8427.050478,-518.144159
5710.630803,444.123565,-8273.831378,-592.164754
5710.631128,444.123565,-8886.707777,-444.123565
5710.631453,148.041188,-8580.269578,-296.082377
5710.631777,518.144159,-8656.879127,0.000000
5710.632102,444.123565,-8580.269578,-222.061783
5710.632426,1110.308913,-8427.050478,-222.061783
5710.632751,518.144159,-8120.612279,74.020594
5710.633075,370.102971,-8120.612279,0.000000
5710.633400,296.082377,-8810.098227,-148.041188
5710.633724,592.164754,-8197.221829,-296.082377
5710.634049,592.164754,-8886.707777,-296.082377
5710.634373,74.020594,-8886.707777,-518.144159
5710.634698,74.020594,-9039.926876,0.000000
5710.635022,0.000000,-8886.707777,-518.144159
5710.635347,370.102971,-8963.317327,-444.123565
5710.635671,74.020594,-8886.707777,-296.082377
5710.635996,592.164754,-8656.879127,-148.041188
5710.636320,444.123565,-8427.050478,-370.102971
5710.636645,888.247130,-8350.440928,0.000000
5710.636969,518.144159,-8580.269578,-444.123565
5710.637294,444.123565,-8427.050478,-370.102971
5710.637618,296.082377,-8810.098227,-666.185348
5710.637943,148.041188,-8963.317327,-222.061783
5710.638267,222.061783,-8810.098227,-518.144159
5710.638592,222.061783,-8963.317327,0.000000
5710.638916,518.144159,-8810.098227,-370.102971
5710.639241,518.144159,-8810.098227,-444.123565
5710.639565,1110.308913,-8810.098227,-518.144159
5710.639890,370.102971,-8503.660028,-370.102971
5710.640215,518.144159,-8886.707777,-222.061783
5710.640539,444.123565,-8427.050478,-370.102971
5710.640864,814.226536,-8580.269578,-518.144159
5710.641188,222.061783,-8733.488677,-740.205942
5710.641513,222.061783,-8810.098227,-518.144159
5710.641837,74.020594,-8886.707777,-444.123565
5710.642162,222.061783,-9039.926876,-666.185348
5710.642486,296.082377,-8810.098227,-370.102971
5710.642811,518.144159,-8656.879127,0.000000
5710.643135,592.164754,-8350.440928,-370.102971
5710.643460,592.164754,-8427.050478,-370.102971
5710.643784,962.267725,-8810.098227,-666.185348
5710.644109,740.205942,-8273.831378,-814.226536
5710.644433,518.144159,-8656.879127,-888.247130
5710.644758,222.061783,-8427.050478,-888.247130
5710.645082,888.247130,-9039.926876,-592.164754
5710.645407,296.082377,-8656.879127,-666.185348
5710.645731,592.164754,-8810.098227,-666.185348
5710.646056,666.185348,-8580.269578,-666.185348
5710.646380,888.247130,-8733.488677,-370.102971
5710.646705,518.144159,-7967.393179,-222.061783
5710.647029,444.123565,-8503.660028,-296.082377
5710.647354,666.185348,-8503.660028,-444.123565
5710.647678,592.164754,-8580.269578,-444.123565
5710.648003,296.082377,-8503.660028,-1036.288319
5710.648327,296.082377,-8503.660028,-592.164754
5710.648652,148.041188,-8733.488677,-592.164754
5710.648977,222.061783,-9039.926876,-370.102971
5710.649301,518.144159,-8120.612279,0.000000
5710.649626,444.123565,-8656.879127,-296.082377
5710.649950,444.123565,-8197.221829,-370.102971
5710.650275,592.164754,-8273.831378,-148.041188
5710.650599,666.185348,-8427.050478,-518.144159
5710.650924,518.144159,-8503.660028,-296.082377
5710.651248,518.144159,-8580.269578,-666.185348
5710.651573,592.164754,-8503.660028,-814.226536
5710.651897,444.123565,-8427.050478,-370.102971
5710.652222,0.000000,-8197.221829,-666.185348
5710.652546,222.061783,-8963.317327,-370.102971
5710.652871,222.061783,-8580.269578,-444.123565
5710.653195,370.102971,-9116.536426,-592.164754
5710.653520,296.082377,-8197.221829,-148.041188
5710.653844,222.061783,-8273.831378,-444.123565
5710.654169,148.041188,-9116.536426,0.000000
5710.654493,296.082377,-8120.612279,-370.102971
5710.654818,444.123565,-8503.660028,-370.102971
5710.655142,0.000000,-8580.269578,-518.144159
5710.655467,370.102971,-8810.098227,-296.082377
5710.655791,444.123565,-8656.879127,-592.164754
5710.656116,148.041188,-8810.098227,0.000000
5710.656440,592.164754,-8120.612279,-370.102971
5710.656765,444.123565,-8656.879127,0.000000
5710.657089,518.144159,-8197.221829,0.000000
5710.657414,444.123565,-8350.440928,0.000000
5710.657738,296.082377,-8044.002729,0.000000
5710.658063,518.144159,-8427.050478,-296.082377
5710.658388,592.164754,-8503.660028,-370.102971
5710.658712,444.123565,-8656.879127,-222.061783
5710.659037,222.061783,-8656.879127,-148.041188
5710.659361,296.082377,-8580.269578,-148.041188
5710.659686,74.020594,-8656.879127,0.000000
5710.660010,296.082377,-8810.098227,0.000000
5710.660335,518.144159,-8580.269578,370.102971
5710.660659,370.102971,-8044.002729,74.020594
5710.660984,518.144159,-8656.879127,0.000000
5710.661308,592.164754,-8197.221829,-296.082377
5710.661633,518.144159,-8656.879127,-148.041188
5710.661957,444.123565,-8810.098227,-592.164754
5710.662282,370.102971,-8733.488677,-148.041188
5710.662606,296.082377,-8886.707777,-370.102971
5710.662931,148.041188,-8733.488677,-222.061783
5710.663255,296.082377,-8350.440928,-148.041188
5710.663580,666.185348,-8886.707777,-518.144159
5710.663904,740.205942,-8503.660028,-296.082377
5710.664229,444.123565,-8350.440928,-222.061783
5710.664553,518.144159,-8656.879127,-592.164754
5710.664878,592.164754,-8733.488677,-888.247130
5710.665202,740.205942,-8810.098227,-962.267725
5710.665527,518.144159,-8886.707777,-814.226536
5710.665851,222.061783,-8733.488677,-666.185348
5710.666176,444.123565,-8810.098227,-962.267725
5710.666500,592.164754,-8810.098227,-740.205942
5710.666825,370.102971,-8810.098227,-518.144159
5710.667150,814.226536,-8886.707777,-370.102971
5710.667474,740.205942,-8350.440928,-592.164754
5710.667799,666.185348,-8503.660028,-370.102971
5710.668123,666.185348,-8580.269578,-444.123565
5710.668448,592.164754,-8197.221829,-740.205942
5710.668772,518.144159,-8580.269578,-740.205942
5710.669097,0.000000,-9116.536426,-814.226536
5710.669421,0.000000,-9039.926876,-296.082377
5710.669746,74.020594,-8503.660028,-592.164754
5710.670070,740.205942,-8810.098227,-148.041188
5710.670395,148.041188,-8656.879127,-296.082377
5710.670719,740.205942,-9116.536426,-518.144159
5710.671044,370.102971,-8503.660028,-222.061783
5710.671368,444.123565,-8273.831378,-222.061783
5710.671693,518.144159,-8656.879127,-518.144159
5710.672017,518.144159,-8427.050478,-222.061783
5710.672342,222.061783,-8503.660028,-740.205942
5710.672666,222.061783,-8733.488677,-1184.329507
5710.672991,0.000000,-8580.269578,-592.164754
5710.673315,444.123565,-9116.536426,-592.164754
5710.673640,296.082377,-8503.660028,-444.123565
5710.673964,518.144159,-8580.269578,-444.123565
5710.674289,592.164754,-8656.879127,-296.082377
5710.674613,888.247130,-8120.612279,-444.123565
5710.674938,814.226536,-8656.879127,-370.102971
5710.675262,518.144159,-8273.831378,-444.123565
5710.675587,740.205942,-8427.050478,-222.061783
5710.675912,222.061783,-8656.879127,-666.185348
5710.676236,814.226536,-9116.536426,-518.144159
5710.676561,148.041188,-8656.879127,-444.123565
5710.676885,296.082377,-8656.879127,-370.102971
5710.677210,296.082377,-8733.488677,0.000000
5710.677534,592.164754,-8350.440928,0.000000
5710.677859,1036.288319,-8503.660028,-222.061783
5710.678183,888.247130,-8120.612279,222.061783
5710.678508,666.185348,-8656.879127,0.000000
5710.678832,74.020594,-8273.831378,0.000000
5710.679157,814.226536,-8580.269578,-296.082377
5710.679481,222.061783,-8580.269578,-296.082377
5710.679806,370.102971,-8810.098227,0.000000
5710.680130,148.041188,-8580.269578,-444.123565
5710.680455,592.164754,-8350.440928,74.020594
5710.680779,518.144159,-8886.707777,-222.061783
5710.681104,592.164754,-8733.488677,0.000000
5710.681428,592.164754,-8197.221829,0.000000
5710.681753,444.123565,-8273.831378,0.000000
5710.682077,592.164754,-8503.660028,-222.061783
5710.682402,444.123565,-8197.221829,-370.102971
5710.682726,370.102971,-8580.269578,-370.102971
5710.683051,0.000000,-8733.488677,-222.061783
5710.683375,370.102971,-8656.879127,-518.144159
5710.683700,74.020594,-8810.098227,-222.061783
5710.684024,370.102971,-8733.488677,-296.082377
5710.684349,148.041188,-8810.098227,0.000000
5710.684674,1110.308913,-8273.831378,74.020594
5710.684998,444.123565,-8197.221829,0.000000
5710.685323,444.123565,-8427.050478,0.000000
5710.685647,444.123565,-8503.660028,-296.082377
5710.685972,592.164754,-8580.269578,-518.144159
5710.686296,370.102971,-8580.269578,-444.123565
5710.686621,0.000000,-8656.879127,-222.061783
5710.686945,370.102971,-8733.488677,-148.041188
5710.687270,148.041188,-8656.879127,-370.102971
5710.687594,370.102971,-8427.050478,-740.205942
5710.687919,222.061783,-8963.317327,-222.061783
5710.688243,444.123565,-8733.488677,0.000000
5710.688568,444.123565,-8503.660028,0.000000
5710.688892,666.185348,-8044.002729,74.020594
5710.689217,370.102971,-8350.440928,-296.082377
5710.689541,666.185348,-8733.488677,-444.123565
5710.689866,296.082377,-8656.879127,-518.144159
5710.690190,222.061783,-8656.879127,-444.123565
5710.690515,296.082377,-8580.269578,-222.061783
5710.690839,0.000000,-8733.488677,-296.082377
5710.691164,666.185348,-8656.879127,-444.123565
5710.691488,518.144159,-8580.269578,-518.144159
5710.691813,1036.288319,-8350.440928,0.000000
5710.692137,666.185348,-8580.269578,-518.144159
5710.692462,814.226536,-8580.269578,-592.164754
5710.692786,666.185348,-8580.269578,-666.185348
5710.693111,592.164754,-8656.879127,-888.247130
5710.693436,518.144159,-8580.269578,-592.164754
5710.693760,0.000000,-8580.269578,-592.164754
5710.694085,296.082377,-8810.098227,-666.185348
5710.694409,666.185348,-8503.660028,-592.164754
5710.694734,740.205942,-8810.098227,-592.164754
5710.695058,962.267725,-8580.269578,-592.164754
5710.695383,740.205942,-8273.831378,-444.123565
5710.695707,518.144159,-8580.269578,-222.061783
5710.696032,592.164754,-7967.393179,-888.247130
5710.696356,666.185348,-8503.660028,-518.144159
5710.696681,296.082377,-8656.879127,-666.185348
5710.697005,296.082377,-8656.879127,-296.082377
5710.697330,296.082377,-8810.098227,-444.123565
5710.697654,370.102971,-8733.488677,-592.164754
5710.697979,148.041188,-8350.440928,-370.102971
5710.698303,666.185348,-8733.488677,-518.144159
5710.698628,592.164754,-8350.440928,-370.102971
5710.698952,962.267725,-8733.488677,-370.102971
5710.699277,222.061783,-8580.269578,-518.144159
5710.699601,222.061783,-8656.879127,-370.102971
5710.699926,296.082377,-8427.050478,-888.247130
5710.700250,444.123565,-8963.317327,-1036.288319
5710.700575,370.102971,-8656.879127,-518.144159
5710.700899,0.000000,-8963.317327,-444.123565
5710.701224,222.061783,-8580.269578,-814.226536
5710.701548,222.061783,-8656.879127,-740.205942
5710.701873,592.164754,-8656.879127,-444.123565
5710.702198,592.164754,-8350.440928,-222.061783
5710.702522,370.102971,-8503.660028,-222.061783
5710.702847,592.164754,-8886.707777,-296.082377
5710.703171,370.102971,-9116.536426,0.000000
5710.703496,74.020594,-9116.536426,-296.082377
5710.703820,370.102971,-8580.269578,-370.102971
5710.704145,0.000000,-8810.098227,-74.020594
5710.704469,370.102971,-9652.803275,74.020594
5710.704794,148.041188,-8350.440928,0.000000
5710.705118,222.061783,-8733.488677,0.000000
5710.705443,592.164754,-8733.488677,0.000000
5710.705767,740.205942,-8350.440928,0.000000
5710.706092,592.164754,-8427.050478,0.000000
5710.706416,370.102971,-8427.050478,222.061783
5710.706741,444.123565,-8427.050478,-222.061783
5710.707065,518.144159,-8580.269578,-370.102971
5710.707390,518.144159,-9193.145976,0.000000
5710.707714,222.061783,-8350.440928,-296.082377
5710.708039,296.082377,-8656.879127,-148.041188
5710.708363,222.061783,-8427.050478,0.000000
5710.708688,666.185348,-9039.926876,74.020594
5710.709012,740.205942,-8580.269578,0.000000
5710.709337,518.144159,-8350.440928,0.000000
5710.709661,222.061783,-8273.831378,74.020594
5710.709986,592.164754,-8503.660028,0.000000
5710.710310,296.082377,-8580.269578,-296.082377
5710.710635,370.102971,-8350.440928,-148.041188
5710.710960,370.102971,-8427.050478,-148.041188
5710.711284,222.061783,-8810.098227,-148.041188
5710.711609,0.000000,-8656.879127,148.041188
5710.711933,444.123565,-8503.660028,0.000000
5710.712258,518.144159,-8503.660028,-148.041188
5710.712582,518.144159,-8503.660028,74.020594
5710.712907,592.164754,-9039.926876,74.020594
5710.713231,518.144159,-8197.221829,0.000000
5710.713556,518.144159,-8427.050478,-444.123565
5710.713880,444.123565,-8580.269578,-296.082377
5710.714205,592.164754,-8580.269578,-370.102971
5710.714529,296.082377,-8580.269578,0.000000
5710.714854,222.061783,-8656.879127,-148.041188
5710.715178,296.082377,-8733.488677,-296.082377
5710.715503,592.164754,-8503.660028,-444.123565
5710.715827,444.123565,-8197.221829,0.000000
5710.716152,666.185348,-8350.440928,0.000000
5710.716476,444.123565,-8580.269578,0.000000
5710.716801,370.102971,-8810.098227,0.000000
5710.717125,518.144159,-8656.879127,-296.082377
5710.717450,148.041188,-8733.488677,-370.102971
5710.717774,0.000000,-8580.269578,-296.082377
5710.718099,74.020594,-8963.317327,-666.185348
5710.718423,0.000000,-8810.098227,-740.205942
5710.718748,296.082377,-8044.002729,-444.123565
5710.719072,370.102971,-8580.269578,-740.205942
5710.719397,518.144159,-8427.050478,-592.164754
5710.719722,592.164754,-8503.660028,-518.144159
5710.720046,888.247130,-8427.050478,-296.082377
5710.720370,518.144159,-8503.660028,-666.185348
5710.720695,518.144159,-8886.707777,-518.144159
5710.721019,370.102971,-8427.050478,-592.164754
5710.721344,444.123565,-8733.488677,-740.205942
5710.721668,518.144159,-8656.879127,-592.164754
5710.721993,444.123565,-8580.269578,-518.144159
5710.722317,370.102971,-8350.440928,-518.144159
5710.722642,222.061783,-8733.488677,-592.164754
5710.722966,1036.288319,-8580.269578,-222.061783
5710.723290,518.144159,-8503.660028,-296.082377
5710.723615,444.123565,-8427.050478,-296.082377
5710.723939,518.144159,-8120.612279,-148.041188
5710.724264,666.185348,-8810.098227,-148.041188
5710.724588,444.123565,-8656.879127,-666.185348
5710.724913,222.061783,-8733.488677,-444.123565
5710.725237,222.061783,-8733.488677,-370.102971
5710.725561,296.082377,-8580.269578,-370.102971
5710.725886,222.061783,-8580.269578,-222.061783
5710.726210,444.123565,-8273.831378,-148.041188
5710.726535,296.082377,-8350.440928,-222.061783
5710.726859,592.164754,-7890.783629,-444.123565
5710.727184,518.144159,-8197.221829,0.000000
5710.727508,814.226536,-8656.879127,-518.144159
5710.727833,518.144159,-8580.269578,-740.205942
5710.728157,222.061783,-8580.269578,-444.123565
5710.728481,0.000000,-8733.488677,-222.061783
5710.728806,148.041188,-8886.707777,-444.123565
5710.729130,370.102971,-8810.098227,-296.082377
5710.729455,444.123565,-8580.269578,-296.082377
5710.729779,592.164754,-8427.050478,-148.041188
5710.730104,296.082377,-8197.221829,-148.041188
5710.730428,592.164754,-8427.050478,0.000000
5710.730753,518.144159,-8580.269578,-222.061783
5710.731077,518.144159,-8503.660028,-222.061783
5710.731401,444.123565,-8273.831378,-370.102971
5710.731726,370.102971,-8503.660028,0.000000
5710.732050,296.082377,-8810.098227,-296.082377
5710.732375,296.082377,-8656.879127,-222.061783
5710.732699,222.061783,-8810.098227,-370.102971
5710.733024,444.123565,-8656.879127,-296.082377
5710.733348,444.123565,-8427.050478,0.000000
5710.733672,148.041188,-8580.269578,-370.102971
5710.733997,592.164754,-8810.098227,-296.082377
5710.734321,444.123565,-8580.269578,-592.164754
5710.734646,592.164754,-8733.488677,-518.144159
5710.734970,148.041188,-8427.050478,-666.185348
5710.735295,444.123565,-8886.707777,-296.082377
5710.735619,518.144159,-9116.536426,-370.102971
5710.735944,148.041188,-8580.269578,-222.061783
5710.736268,222.061783,-8503.660028,-444.123565
5710.736592,592.164754,-8656.879127,-148.041188
5710.736917,740.205942,-8350.440928,0.000000
5710.737241,592.164754,-8350.440928,0.000000
5710.737566,814.226536,-8733.488677,0.000000
5710.737890,666.185348,-7890.783629,-296.082377
5710.738215,740.205942,-8656.879127,-370.102971
5710.738539,444.123565,-8886.707777,-592.164754
5710.738864,222.061783,-8656.879127,0.000000
5710.739188,148.041188,-9039.926876,-222.061783
5710.739512,518.144159,-8656.879127,-296.082377
5710.739837,666.185348,-9269.755526,0.000000
5710.740161,592.164754,-8350.440928,-74.020594
5710.740486,518.144159,-8503.660028,-222.061783
5710.740810,814.226536,-8427.050478,-296.082377
5710.741135,962.267725,-8427.050478,-148.041188
5710.741459,370.102971,-8273.831378,0.000000
5710.741783,444.123565,-8580.269578,-666.185348
5710.742108,296.082377,-8810.098227,-666.185348
5710.742432,370.102971,-8886.707777,0.000000
5710.742757,0.000000,-8427.050478,-740.205942
5710.743081,222.061783,-8810.098227,0.000000
5710.743406,148.041188,-8427.050478,-444.123565
5710.743730,444.123565,-8963.317327,0.000000
5710.744055,444.123565,-8503.660028,-740.205942
5710.744379,814.226536,-8656.879127,-222.061783
5710.744703,222.061783,-8656.879127,-592.164754
5710.745028,296.082377,-8580.269578,-666.185348
5710.745352,296.082377,-8733.488677,-592.164754
5710.745677,296.082377,-8810.098227,-740.205942
5710.746001,74.020594,-8886.707777,-740.205942
5710.746326,0.000000,-8580.269578,-444.123565
5710.746650,74.020594,-8733.488677,-444.123565
5710.746975,296.082377,-9269.755526,-222.061783
5710.747299,740.205942,-8427.050478,-222.061783
5710.747623,518.144159,-8580.269578,-222.061783
5710.747948,592.164754,-8503.660028,-370.102971
5710.748272,518.144159,-8810.098227,-518.144159
5710.748597,296.082377,-8580.269578,-666.185348
5710.748921,444.123565,-8503.660028,-666.185348
5710.749246,74.020594,-8733.488677,-666.185348
5710.749570,0.000000,-8580.269578,-592.164754
5710.749894,370.102971,-8503.660028,-592.164754
5710.750219,444.123565,-8810.098227,-444.123565
5710.750543,740.205942,-8427.050478,-518.144159
5710.750868,592.164754,-8120.612279,-222.061783
5710.751192,666.185348,-8656.879127,-444.123565
5710.751517,592.164754,-8273.831378,-444.123565
5710.751841,740.205942,-8580.269578,-592.164754
5710.752166,666.185348,-8427.050478,-962.267725
5710.752490,222.061783,-9039.926876,-518.144159
5710.752814,148.041188,-8656.879127,-444.123565
5710.753139,296.082377,-9039.926876,-370.102971
5710.753463,296.082377,-8503.660028,-592.164754
5710.753788,592.164754,-8886.707777,-370.102971
5710.754112,888.247130,-8656.879127,-296.082377
5710.754437,740.205942,-8350.440928,0.000000
5710.754761,666.185348,-8580.269578,-444.123565
5710.755086,814.226536,-8656.879127,-222.061783
5710.755410,888.247130,-8963.317327,-592.164754
5710.755734,518.144159,-8656.879127,-296.082377
5710.756059,148.041188,-8580.269578,-740.205942
5710.756383,444.123565,-8963.317327,-296.082377
5710.756708,296.082377,-8580.269578,-296.082377
5710.757032,518.144159,-9039.926876,0.000000
5710.757357,444.123565,-8503.660028,-296.082377
5710.757681,518.144159,-8427.050478,0.000000
5710.758005,370.102971,-8350.440928,0.000000
5710.758330,592.164754,-8503.660028,0.000000
5710.758654,518.144159,-8427.050478,-370.102971
5710.758979,666.185348,-8120.612279,-444.123565
5710.759303,222.061783,-8656.879127,-518.144159
5710.759628,296.082377,-8733.488677,222.061783
5710.759952,444.123565,-8810.098227,-370.102971
5710.760277,222.061783,-8580.269578,-148.041188
5710.760601,444.123565,-8810.098227,-370.102971
5710.760925,296.082377,-8427.050478,-296.082377
5710.761250,592.164754,-7967.393179,-148.041188
5710.761574,444.123565,-8503.660028,-370.102971
5710.761899,518.144159,-8733.488677,-370.102971
5710.762223,592.164754,-8503.660028,-296.082377
5710.762548,370.102971,-8427.050478,-370.102971
5710.762872,222.061783,-8656.879127,-296.082377
5710.763197,370.102971,-8963.317327,-370.102971
5710.763521,0.000000,-8810.098227,-296.082377
5710.763845,74.020594,-8656.879127,0.000000
5710.764170,296.082377,-8656.879127,-296.082377
5710.764494,518.144159,-8580.269578,0.000000
5710.764819,518.144159,-8427.050478,-148.041188
5710.765143,592.164754,-8656.879127,0.000000
5710.765468,444.123565,-8197.221829,74.020594
5710.765792,518.144159,-8656.879127,-296.082377
5710.766116,444.123565,-8503.660028,-592.164754
5710.766441,74.020594,-8503.660028,0.000000
5710.766765,370.102971,-9193.145976,-370.102971
5710.767090,148.041188,-8503.660028,0.000000
5710.767414,222.061783,-8503.660028,-222.061783
5710.767739,296.082377,-8580.269578,0.000000
5710.768063,666.185348,-8503.660028,-74.020594
5710.768388,518.144159,-8197.221829,-222.061783
5710.768712,592.164754,-8350.440928,-222.061783
5710.769036,518.144159,-8350.440928,-296.082377
5710.769361,222.061783,-8580.269578,-444.123565
5710.769685,296.082377,-8580.269578,-370.102971
5710.770010,296.082377,-8580.269578,-592.164754
5710.770334,370.102971,-8733.488677,-518.144159
5710.770659,518.144159,-8427.050478,-666.185348
5710.770983,370.102971,-8580.269578,-962.267725
5710.771308,666.185348,-8427.050478,-518.144159
5710.771632,518.144159,-8350.440928,-148.041188
5710.771956,666.185348,-8427.050478,-370.102971
5710.772281,814.226536,-8120.612279,-518.144159
5710.772605,740.205942,-8427.050478,-592.164754
5710.772930,666.185348,-8503.660028,-962.267725
5710.773254,296.082377,-8503.660028,-814.226536
5710.773579,222.061783,-8580.269578,-962.267725
5710.773903,370.102971,-9193.145976,-666.185348
5710.774227,74.020594,-8733.488677,-666.185348
5710.774552,444.123565,-8810.098227,-296.082377
5710.774876,592.164754,-8580.269578,-296.082377
5710.775201,592.164754,-9193.145976,-148.041188
5710.775525,814.226536,-8810.098227,-296.082377
5710.775850,740.205942,-8350.440928,-370.102971
5710.776174,740.205942,-8350.440928,-444.123565
5710.776499,296.082377,-8810.098227,-814.226536
5710.776823,222.061783,-8733.488677,-148.041188
5710.777147,148.041188,-8503.660028,-444.123565
5710.777472,296.082377,-8580.269578,-592.164754
5710.777796,296.082377,-9039.926876,-740.205942
5710.778121,296.082377,-9193.145976,-370.102971
5710.778445,518.144159,-8656.879127,-370.102971
5710.778770,444.123565,-8656.879127,-296.082377
5710.779094,518.144159,-8656.879127,-518.144159
5710.779419,814.226536,-8503.660028,-1110.308913
5710.779743,518.144159,-8733.488677,-518.144159
5710.780067,444.123565,-8580.269578,-666.185348
5710.780392,370.102971,-8810.098227,-444.123565
5710.780716,148.041188,-8656.879127,-666.185348
5710.781041,296.082377,-8656.879127,-444.123565
5710.781365,222.061783,-8580.269578,-518.144159
5710.781690,518.144159,-8580.269578,0.000000
5710.782014,518.144159,-8120.612279,0.000000
5710.782338,666.185348,-8733.488677,0.000000
5710.782663,592.164754,-8503.660028,0.000000
5710.782987,740.205942,-8350.440928,0.000000
5710.783312,370.102971,-8656.879127,-148.041188
5710.783636,222.061783,-8656.879127,0.000000
5710.783961,74.020594,-8503.660028,-444.123565
5710.784285,74.020594,-8886.707777,0.000000
5710.784610,0.000000,-8580.269578,-222.061783
5710.784934,444.123565,-8886.707777,-148.041188
5710.785258,296.082377,-8580.269578,148.041188
5710.785583,444.123565,-8350.440928,74.020594
5710.785907,592.164754,-8503.660028,0.000000
5710.786232,518.144159,-8503.660028,0.000000
5710.786556,222.061783,-8733.488677,518.144159
5710.786881,74.020594,-8580.269578,-296.082377
5710.787205,222.061783,-8810.098227,-296.082377
5710.787530,222.061783,-8886.707777,-296.082377
5710.787854,148.041188,-8886.707777,0.000000
5710.788178,0.000000,-8733.488677,0.000000
5710.788503,444.123565,-8886.707777,0.000000
5710.788827,296.082377,-8350.440928,0.000000
5710.789152,740.205942,-8427.050478,222.061783
5710.789476,814.226536,-8273.831378,0.000000
5710.789801,518.144159,-8733.488677,-222.061783
5710.790125,666.185348,-8656.879127,-592.164754
5710.790449,518.144159,-8656.879127,-518.144159
5710.790774,0.000000,-8656.879127,0.000000
5710.791098,222.061783,-8580.269578,-444.123565
5710.791423,370.102971,-8810.098227,-370.102971
5710.791747,222.061783,-8886.707777,-296.082377
5710.792072,592.164754,-8580.269578,-148.041188
5710.792396,740.205942,-8503.660028,0.000000
5710.792721,888.247130,-8273.831378,-222.061783
5710.793045,592.164754,-8580.269578,0.000000
5710.793369,962.267725,-8350.440928,-370.102971
5710.793694,518.144159,-8350.440928,-370.102971
5710.794018,518.144159,-8503.660028,-592.164754
5710.794343,74.020594,-8580.269578,-444.123565
5710.794667,296.082377,-8733.488677,-370.102971
5710.794992,296.082377,-8427.050478,-148.041188
5710.795316,74.020594,-8886.707777,-592.164754
5710.795641,444.123565,-8580.269578,-296.082377
5710.795965,222.061783,-8427.050478,-148.041188
5710.796289,518.144159,-8733.488677,-444.123565
5710.796614,518.144159,-8350.440928,-518.144159
5710.796938,740.205942,-8810.098227,-592.164754
5710.797263,444.123565,-8273.831378,-740.205942
5710.797587,370.102971,-8733.488677,-518.144159
5710.797912,518.144159,-9116.536426,-666.185348
5710.798236,296.082377,-8656.879127,-592.164754
5710.798560,296.082377,-8656.879127,-888.247130
5710.798885,444.123565,-8810.098227,-666.185348
5710.799209,518.144159,-8503.660028,-370.102971
5710.799534,222.061783,-8427.050478,-370.102971
5710.799858,592.164754,-8656.879127,-518.144159
5710.800183,666.185348,-8656.879127,-518.144159
5710.800507,370.102971,-8810.098227,-518.144159
5710.800832,296.082377,-8273.831378,-296.082377
5710.801156,444.123565,-8656.879127,-444.123565
5710.801480,296.082377,-8810.098227,-592.164754
5710.801805,444.123565,-8656.879127,-148.041188
5710.802129,0.000000,-8656.879127,-222.061783
5710.802454,444.123565,-8810.098227,-222.061783
5710.802778,74.020594,-7890.783629,0.000000
5710.803103,370.102971,-8503.660028,0.000000
5710.803427,222.061783,-8656.879127,-148.041188
5710.803751,740.205942,-8503.660028,0.000000
5710.804076,444.123565,-8350.440928,-222.061783
5710.804400,370.102971,-8427.050478,-370.102971
5710.804725,0.000000,-8503.660028,-296.082377
5710.805049,222.061783,-8656.879127,-222.061783
5710.805374,296.082377,-8350.440928,-370.102971
5710.805698,370.102971,-8733.488677,-222.061783
5710.806023,444.123565,-8273.831378,-148.041188
5710.806347,370.102971,-8580.269578,0.000000
5710.806671,740.205942,-8273.831378,-370.102971
5710.806996,518.144159,-8120.612279,-222.061783
5710.807320,592.164754,-8427.050478,0.000000
5710.807645,592.164754,-8580.269578,-518.144159
5710.807969,518.144159,-8810.098227,0.000000
5710.808294,296.082377,-8810.098227,-370.102971
5710.808618,222.061783,-8733.488677,-296.082377
5710.808943,370.102971,-8656.879127,-592.164754
5710.809267,666.185348,-8733.488677,-666.185348
5710.809591,518.144159,-8503.660028,-222.061783
5710.809916,592.164754,-8427.050478,-222.061783
5710.810240,592.164754,-8733.488677,148.041188
5710.810565,592.164754,-7890.783629,-296.082377
5710.810889,814.226536,-8580.269578,-222.061783
5710.811214,222.061783,-8580.269578,-370.102971
5710.811538,222.061783,-8886.707777,-222.061783
5710.811862,518.144159,-8963.317327,-370.102971
5710.812187,148.041188,-8810.098227,-296.082377
5710.812511,296.082377,-8810.098227,-518.144159
5710.812836,148.041188,-8810.098227,0.000000
5710.813160,222.061783,-8580.269578,0.000000
5710.813485,518.144159,-9193.145976,-592.164754
5710.813809,592.164754,-8810.098227,0.000000
5710.814134,444.123565,-8503.660028,0.000000
5710.814458,444.123565,-8273.831378,-444.123565
5710.814782,296.082377,-9193.145976,-370.102971
5710.815107,296.082377,-9039.926876,-296.082377
5710.815431,148.041188,-9039.926876,-592.164754
5710.815756,592.164754,-8427.050478,-518.144159
5710.816080,222.061783,-8810.098227,-296.082377
5710.816405,740.205942,-8733.488677,-518.144159
5710.816729,518.144159,-8350.440928,0.000000
5710.817054,370.102971,-8427.050478,-222.061783
5710.817378,740.205942,-8427.050478,-370.102971
5710.817702,592.164754,-8810.098227,-592.164754
5710.818027,740.205942,-8810.098227,-518.144159
5710.818351,296.082377,-8427.050478,-740.205942
5710.818676,222.061783,-8963.317327,-370.102971
5710.819000,74.020594,-9193.145976,-148.041188
5710.819325,222.061783,-8963.317327,-592.164754
5710.819649,222.061783,-8503.660028,-518.144159
5710.819973,814.226536,-8580.269578,0.000000
5710.820298,518.144159,-8044.002729,-296.082377
5710.820622,666.185348,-8810.098227,0.000000
5710.820947,740.205942,-8197.221829,-296.082377
5710.821271,370.102971,-8503.660028,-296.082377
5710.821596,296.082377,-8656.879127,-592.164754
5710.821920,-148.041188,-9269.755526,0.000000
5710.822245,0.000000,-8503.660028,-370.102971
5710.822569,0.000000,-8963.317327,-444.123565
5710.822894,296.082377,-8503.660028,-592.164754
5710.823218,296.082377,-8733.488677,-370.102971
5710.823543,666.185348,-8120.612279,0.000000
5710.823867,518.144159,-8197.221829,-296.082377
5710.824192,740.205942,-8197.221829,-444.123565
5710.824516,592.164754,-8273.831378,-444.123565
5710.824841,222.061783,-8503.660028,-740.205942
5710.825165,148.041188,-8503.660028,-592.164754
5710.825489,0.000000,-8273.831378,-444.123565
5710.825814,0.000000,-8963.317327,-444.123565
5710.826138,444.123565,-9039.926876,-518.144159
5710.826463,444.123565,-8810.098227,-148.041188
5710.826787,518.144159,-8503.660028,-222.061783
5710.827112,444.123565,-8273.831378,0.000000
5710.827436,370.102971,-8427.050478,-444.123565
5710.827761,666.185348,-8656.879127,-296.082377
5710.828085,444.123565,-8273.831378,-370.102971
5710.828410,518.144159,-8427.050478,-296.082377
5710.828734,74.020594,-8427.050478,-148.041188
5710.829059,74.020594,-8503.660028,-222.061783
5710.829383,0.000000,-8503.660028,-370.102971
5710.829708,222.061783,-8886.707777,-222.061783
5710.830032,518.144159,-8963.317327,-666.185348
5710.830357,592.164754,-8886.707777,370.102971
5710.830681,888.247130,-8273.831378,-222.061783
5710.831006,370.102971,-8733.488677,-370.102971
5710.831330,592.164754,-8273.831378,-296.082377
5710.831654,444.123565,-8350.440928,-444.123565
5710.831979,592.164754,-8656.879127,-888.247130
5710.832303,370.102971,-8580.269578,-592.164754
5710.832628,296.082377,-8886.707777,-370.102971
5710.832952,296.082377,-8656.879127,-444.123565
5710.833277,740.205942,-8886.707777,-518.144159
5710.833601,592.164754,-9116.536426,-370.102971
5710.833926,814.226536,-8197.221829,-148.041188
5710.834250,740.205942,-8503.660028,-296.082377
5710.834575,814.226536,-8503.660028,-296.082377
5710.834899,888.247130,-8503.660028,0.000000
5710.835224,592.164754,-8580.269578,-592.164754
5710.835548,296.082377,-8733.488677,-296.082377
5710.835873,74.020594,-8580.269578,-222.061783
5710.836197,518.144159,-9039.926876,0.000000
5710.836522,0.000000,-8656.879127,-74.020594
5710.836846,296.082377,-8963.317327,0.000000
5710.837170,222.061783,-8810.098227,0.000000
5710.837495,888.247130,-8273.831378,518.144159
5710.837819,518.144159,-8427.050478,-222.061783
5710.838144,666.185348,-8503.660028,0.000000
5710.838468,370.102971,-8427.050478,-222.061783
5710.838793,518.144159,-8656.879127,0.000000
5710.839117,0.000000,-8656.879127,-148.041188
5710.839442,0.000000,-8733.488677,0.000000
5710.839766,222.061783,-8810.098227,-296.082377
5710.840091,370.102971,-8656.879127,-518.144159
5710.840415,370.102971,-8886.707777,-444.123565
5710.840740,518.144159,-8273.831378,-296.082377
5710.841064,814.226536,-8427.050478,0.000000
5710.841389,518.144159,-8656.879127,-370.102971
5710.841713,1036.288319,-8350.440928,0.000000
5710.842038,592.164754,-8350.440928,-296.082377
5710.842362,666.185348,-8580.269578,-444.123565
5710.842687,296.082377,-8427.050478,-592.164754
5710.843011,148.041188,-8886.707777,-296.082377
5710.843335,296.082377,-8427.050478,-518.144159
5710.843660,592.164754,-8810.098227,-592.164754
5710.843984,370.102971,-8656.879127,-444.123565
5710.844309,666.185348,-8427.050478,-296.082377
5710.844633,740.205942,-8503.660028,-666.185348
5710.844958,592.164754,-8350.440928,-296.082377
5710.845282,814.226536,-8044.002729,0.000000
5710.845607,444.123565,-8503.660028,-222.061783
5710.845931,592.164754,-8120.612279,-518.144159
5710.846256,0.000000,-8503.660028,-444.123565
5710.846580,74.020594,-8810.098227,-592.164754
5710.846905,0.000000,-8656.879127,-592.164754
5710.847229,296.082377,-8810.098227,-444.123565
5710.847554,296.082377,-8580.269578,-296.082377
5710.847878,592.164754,-8503.660028,-222.061783
5710.848203,666.185348,-8503.660028,-370.102971
5710.848527,666.185348,-8503.660028,-296.082377
5710.848852,740.205942,-7890.783629,-888.247130
5710.849176,444.123565,-8503.660028,-814.226536
5710.849500,296.082377,-8580.269578,-518.144159
5710.849825,222.061783,-8656.879127,-666.185348
5710.850149,296.082377,-8273.831378,-740.205942
5710.850474,148.041188,-8273.831378,-814.226536
5710.850798,222.061783,-8886.707777,-518.144159
5710.851123,296.082377,-8810.098227,-518.144159
5710.851447,518.144159,-8427.050478,0.000000
5710.851772,740.205942,-8273.831378,-666.185348
5710.852096,814.226536,-8427.050478,-296.082377
5710.852421,1036.288319,-8273.831378,-666.185348
5710.852745,296.082377,-8427.050478,-592.164754
5710.853070,592.164754,-9039.926876,-740.205942
