#time,accel_x,accel_y,accel_z
5542.781191,518.144159,-7737.564530,-962.267725
5542.781515,0.000000,-8427.050478,-1036.288319
5542.781839,-370.102971,-8656.879127,-740.205942
5542.782163,-1628.453072,-8503.660028,-444.123565
5542.782487,-1110.308913,-9193.145976,-962.267725
5542.782811,-1998.556043,-9193.145976,-222.061783
5542.783136,-1110.308913,-9652.803275,-296.082377
5542.783460,-1036.288319,-8810.098227,-370.102971
5542.783784,-518.144159,-8350.440928,0.000000
5542.784108,592.164754,-8350.440928,-592.164754
5542.784432,814.226536,-7814.174080,-666.185348
5542.784756,1480.411884,-8044.002729,-814.226536
5542.785080,888.247130,-7277.907231,-888.247130
5542.785404,-148.041188,-8656.879127,-888.247130
5542.785728,-1184.329507,-8197.221829,-1480.411884
5542.786053,-2146.597232,-9269.755526,-592.164754
5542.786377,-2368.659014,-9039.926876,-518.144159
5542.786701,-2664.741391,-9729.412825,-888.247130
5542.787025,-2146.597232,-8963.317327,-740.205942
5542.787349,-1332.370696,-9039.926876,-222.061783
5542.787673,-592.164754,-9039.926876,-1110.308913
5542.787997,74.020594,-8656.879127,-962.267725
5542.788321,0.000000,-7967.393179,-814.226536
5542.788646,-370.102971,-8044.002729,-444.123565
5542.788970,-1480.411884,-8044.002729,-666.185348
5542.789294,-1554.432478,-9039.926876,-666.185348
5542.789618,-2738.761985,-8810.098227,-74.020594
5542.789942,-4441.235652,-9039.926876,-518.144159
5542.790266,-3923.091493,-9729.412825,-222.061783
5542.790590,-3775.050304,-9422.974625,370.102971
5542.790914,-3923.091493,-9806.022374,-296.082377
5542.791238,-2812.782580,-9193.145976,-148.041188
5542.791563,-1998.556043,-9269.755526,0.000000
5542.791887,-1850.514855,-8963.317327,0.000000
5542.792211,-1184.329507,-8656.879127,0.000000
5542.792535,-1924.535449,-8963.317327,296.082377
5542.792859,-2516.700203,-8656.879127,296.082377
5542.793183,-3034.844362,-8656.879127,222.061783
5542.793507,-3404.947333,-9422.974625,370.102971
5542.793831,-4071.132681,-8733.488677,370.102971
5542.794156,-4293.194464,-8656.879127,370.102971
5542.794480,-3404.947333,-8810.098227,0.000000
5542.794804,-3701.029710,-8733.488677,-518.144159
5542.795128,-3108.864956,-8503.660028,0.000000
5542.795452,-2146.597232,-8427.050478,-296.082377
5542.795776,-1924.535449,-8350.440928,-296.082377
5542.796100,-1998.556043,-8273.831378,0.000000
5542.796424,-1184.329507,-8656.879127,148.041188
5542.796748,-1184.329507,-8273.831378,370.102971
5542.797073,-1406.391290,-8656.879127,370.102971
5542.797397,-1924.535449,-8044.002729,0.000000
5542.797721,-1924.535449,-9116.536426,888.247130
5542.798045,-1998.556043,-7814.174080,-296.082377
5542.798369,-1406.391290,-8733.488677,666.185348
5542.798693,-1332.370696,-7507.735880,-518.144159
5542.799017,-222.061783,-9422.974625,222.061783
5542.799341,-222.061783,-7660.954980,-666.185348
5542.799666,-296.082377,-9193.145976,222.061783
5542.799990,962.267725,-7660.954980,-148.041188
5542.800314,666.185348,-8427.050478,-740.205942
5542.800638,74.020594,-8044.002729,-592.164754
5542.800962,0.000000,-7890.783629,-370.102971
5542.801286,74.020594,-8580.269578,0.000000
5542.801610,-814.226536,-8197.221829,-1036.288319
5542.801934,0.000000,-8656.879127,-962.267725
5542.802259,-1850.514855,-8503.660028,-1480.411884
5542.802583,-2146.597232,-8503.660028,-888.247130
5542.802907,-1628.453072,-8273.831378,-1258.350101
5542.803231,-1850.514855,-8656.879127,-888.247130
5542.803555,-962.267725,-8503.660028,-1184.329507
5542.803879,-740.205942,-8120.612279,-1480.411884
5542.804203,0.000000,-8810.098227,-1036.288319
5542.804527,148.041188,-7737.564530,-1184.329507
5542.804851,222.061783,-9346.365076,-1628.453072
5542.805176,-814.226536,-8273.831378,-1480.411884
5542.805500,-666.185348,-8810.098227,-1036.288319
5542.805824,-1036.288319,-8733.488677,-888.247130
5542.806148,-222.061783,-9269.755526,-1332.370696
5542.806472,0.000000,-9269.755526,-814.226536
5542.806796,74.020594,-9269.755526,-1406.391290
5542.807120,370.102971,-9346.365076,-962.267725
5542.807444,962.267725,-9576.193725,-1258.350101
5542.807769,888.247130,-9422.974625,-888.247130
5542.808093,-222.061783,-9116.536426,-888.247130
5542.808417,-1110.308913,-9346.365076,-1258.350101
5542.808741,-2146.597232,-9422.974625,-740.205942
5542.809065,-2812.782580,-8810.098227,-1036.288319
5542.809389,-3997.112087,-9193.145976,-296.082377
5542.809713,-4145.153275,-8427.050478,-1184.329507
5542.810037,-3701.029710,-9039.926876,0.000000
5542.810361,-3034.844362,-8427.050478,-740.205942
5542.810686,-2664.741391,-8963.317327,0.000000
5542.811010,-2294.638420,-8656.879127,-666.185348
5542.811334,-1702.473667,-8886.707777,148.041188
5542.811658,-1998.556043,-8963.317327,0.000000
5542.811982,-2960.823768,-8810.098227,-296.082377
5542.812306,-3256.906145,-8427.050478,222.061783
5542.812630,-3330.926739,-9193.145976,222.061783
5542.812954,-2960.823768,-8427.050478,0.000000
5542.813279,-2664.741391,-8656.879127,222.061783
5542.813603,-2072.576638,-8197.221829,-444.123565
5542.813927,-1850.514855,-8580.269578,74.020594
5542.814251,-1776.494261,-8120.612279,-444.123565
5542.814575,-2294.638420,-8350.440928,-222.061783
5542.814899,-2220.617826,-7890.783629,148.041188
5542.815223,-2960.823768,-8197.221829,296.082377
5542.815547,-3256.906145,-8350.440928,444.123565
5542.815871,-3256.906145,-7431.126331,666.185348
5542.816196,-2146.597232,-8427.050478,814.226536
5542.816520,-1110.308913,-7737.564530,666.185348
5542.816844,444.123565,-8197.221829,1184.329507
5542.817168,1184.329507,-7584.345430,888.247130
5542.817492,1332.370696,-8044.002729,0.000000
5542.817816,1332.370696,-8197.221829,148.041188
5542.818140,888.247130,-8886.707777,592.164754
5542.818464,-888.247130,-8733.488677,222.061783
5542.818789,-2812.782580,-9269.755526,0.000000
5542.819113,-4441.235652,-8886.707777,0.000000
5542.819437,-5625.565159,-8886.707777,-148.041188
5542.819761,-5699.585753,-8733.488677,0.000000
5542.820085,-4737.318029,-8733.488677,592.164754
5542.820409,-2664.741391,-8273.831378,-592.164754
5542.820733,-740.205942,-8350.440928,74.020594
5542.821057,2220.617826,-7660.954980,-518.144159
5542.821381,3404.947333,-8656.879127,222.061783
5542.821706,4737.318029,-8427.050478,-518.144159
5542.822030,4145.153275,-9193.145976,592.164754
5542.822354,2072.576638,-8503.660028,-518.144159
5542.822678,222.061783,-9729.412825,-444.123565
5542.823002,-2294.638420,-9193.145976,-1258.350101
5542.823326,-5181.441594,-9729.412825,-666.185348
5542.823650,-7698.141797,-8427.050478,-1998.556043
5542.823974,-6735.874072,-9652.803275,-2072.576638
5542.824299,-5107.421000,-7354.516781,-1924.535449
5542.824623,-3330.926739,-7737.564530,-1998.556043
5542.824947,296.082377,-7354.516781,-1702.473667
5542.825271,3923.091493,-7967.393179,-1406.391290
5542.825595,6735.874072,-7354.516781,-962.267725
5542.825919,7698.141797,-7660.954980,-1406.391290
5542.826243,5773.606348,-9806.022374,-888.247130
5542.826567,2738.761985,-10495.508323,-1406.391290
5542.826891,-2442.679609,-11338.213370,-888.247130
5542.827216,-7105.977043,-11108.384721,-888.247130
5542.827540,-9252.574275,-10265.679673,-1184.329507
5542.827864,-10362.883188,-9269.755526,-1036.288319
5542.828188,-9030.512492,-9116.536426,-1924.535449
5542.828512,-4367.215058,-7584.345430,-666.185348
5542.828836,518.144159,-6971.469032,-1036.288319
5542.829160,5255.462188,-6665.030833,-518.144159
5542.829484,8068.244768,-7354.516781,-370.102971
5542.829809,7698.141797,-9422.974625,-444.123565
5542.830133,5921.647536,-9576.193725,0.000000
5542.830457,1332.370696,-10725.336972,-1036.288319
5542.830781,-4811.338623,-10955.165621,222.061783
5542.831105,-8734.430116,-11414.822920,-814.226536
5542.831429,-12287.418637,-11874.480219,-148.041188
5542.831753,-12805.562797,-9269.755526,-222.061783
5542.832077,-10955.047942,-6894.859482,444.123565
5542.832401,-5255.462188,-6435.202183,-1036.288319
5542.832726,1850.514855,-5592.497135,-148.041188
5542.833050,6809.894666,-4290.134789,296.082377
5542.833374,9400.615463,-6052.154434,666.185348
5542.833698,11103.089130,-6205.373534,962.267725
5542.834022,8216.285956,-8273.831378,666.185348
5542.834346,4071.132681,-8810.098227,370.102971
5542.834670,-2664.741391,-11184.994271,814.226536
5542.834994,-6957.935855,-11721.261119,1258.350101
5542.835319,-9178.553681,-10801.946522,444.123565
5542.835643,-6735.874072,-10495.508323,1480.411884
5542.835967,-4959.379811,-8120.612279,-296.082377
5542.836291,-1036.288319,-7584.345430,-518.144159
5542.836615,3849.070898,-5822.325785,-592.164754
5542.836939,6809.894666,-7201.297681,-370.102971
5542.837263,7179.997637,-5439.278036,-518.144159
5542.837587,6587.832884,-6971.469032,2368.659014
5542.837911,4145.153275,-7431.126331,444.123565
5542.838236,592.164754,-8886.707777,1406.391290
5542.838560,-1480.411884,-10112.460574,518.144159
5542.838884,-3330.926739,-10495.508323,-222.061783
5542.839208,-2886.803174,-10189.070123,0.000000
5542.839532,-1776.494261,-10495.508323,-1184.329507
5542.839856,666.185348,-9729.412825,-518.144159
5542.840180,2738.761985,-7584.345430,-814.226536
5542.840504,3330.926739,-7737.564530,-814.226536
5542.840829,4293.194464,-6665.030833,-1258.350101
5542.841153,3108.864956,-6358.592633,-666.185348
5542.841477,2146.597232,-7277.907231,666.185348
5542.841801,2738.761985,-7048.078582,370.102971
5542.842125,2220.617826,-9422.974625,222.061783
5542.842449,2886.803174,-8810.098227,-1554.432478
5542.842773,3108.864956,-10495.508323,-2368.659014
5542.843097,2590.720797,-10955.165621,-2738.761985
5542.843421,2590.720797,-10572.117872,-1480.411884
5542.843746,296.082377,-9499.584175,-1776.494261
5542.844070,-814.226536,-9806.022374,-2072.576638
5542.844394,-1332.370696,-8044.002729,-1850.514855
5542.844718,-1850.514855,-8886.707777,370.102971
5542.845042,-1258.350101,-7201.297681,-370.102971
5542.845366,222.061783,-7354.516781,740.205942
5542.845690,2886.803174,-7354.516781,-222.061783
5542.846014,5477.523971,-7890.783629,-296.082377
5542.846339,5255.462188,-7967.393179,-1776.494261
5542.846663,4219.173869,-9806.022374,-2368.659014
5542.846987,2368.659014,-10418.898773,-2812.782580
5542.847311,-814.226536,-11414.822920,-2294.638420
5542.847635,-4663.297435,-11031.775171,-592.164754
5542.847959,-6217.729913,-11108.384721,148.041188
5542.848283,-6143.709319,-10878.556072,962.267725
5542.848607,-4441.235652,-8810.098227,518.144159
5542.848931,-666.185348,-8273.831378,962.267725
5542.849256,2812.782580,-7201.297681,592.164754
5542.849580,5181.441594,-6818.249932,-296.082377
5542.849904,6439.791695,-6511.811733,-370.102971
5542.850228,4293.194464,-7814.174080,-814.226536
5542.850552,2072.576638,-8044.002729,-1480.411884
5542.850876,-1628.453072,-9116.536426,-1184.329507
5542.851200,-4811.338623,-10725.336972,370.102971
5542.851524,-6661.853478,-10112.460574,148.041188
5542.851849,-7105.977043,-10112.460574,2220.617826
5542.852173,-5477.523971,-9346.365076,1850.514855
5542.852497,-1628.453072,-7814.174080,1110.308913
5542.852821,2220.617826,-6894.859482,814.226536
5542.853145,5995.668130,-6435.202183,-148.041188
5542.853469,6217.729913,-5822.325785,-1184.329507
5542.853793,4293.194464,-7124.688131,-740.205942
5542.854117,2516.700203,-6894.859482,-1258.350101
5542.854441,-1480.411884,-8963.317327,518.144159
5542.854766,-4219.173869,-8886.707777,-296.082377
5542.855090,-5995.668130,-10035.851024,740.205942
5542.855414,-5625.565159,-9806.022374,1110.308913
5542.855738,-3256.906145,-9806.022374,1184.329507
5542.856062,74.020594,-8733.488677,888.247130
5542.856386,3552.988522,-8044.002729,518.144159
5542.856710,4293.194464,-7201.297681,-296.082377
5542.857034,5033.400406,-7354.516781,-814.226536
5542.857359,4737.318029,-5975.544884,-1036.288319
5542.857683,2072.576638,-7201.297681,0.000000
5542.858007,-962.267725,-7201.297681,-296.082377
5542.858331,-2368.659014,-9269.755526,740.205942
5542.858655,-2738.761985,-8886.707777,518.144159
5542.858979,-1850.514855,-9806.022374,370.102971
5542.859303,-222.061783,-9422.974625,-296.082377
5542.859627,2294.638420,-11031.775171,0.000000
5542.859951,4145.153275,-8733.488677,-1702.473667
5542.860276,3108.864956,-9806.022374,-1554.432478
5542.860600,2960.823768,-7967.393179,-2072.576638
5542.860924,2590.720797,-8427.050478,-1480.411884
5542.861248,1406.391290,-8197.221829,-1184.329507
5542.861573,814.226536,-8120.612279,-1332.370696
5542.861897,-74.020594,-8120.612279,370.102971
5542.862221,814.226536,-8197.221829,-1554.432478
5542.862545,1998.556043,-9193.145976,74.020594
5542.862870,2442.679609,-8350.440928,-1184.329507
5542.863194,3330.926739,-10189.070123,-1480.411884
5542.863518,2738.761985,-9729.412825,-1850.514855
5542.863842,1110.308913,-9652.803275,-1998.556043
5542.864166,-148.041188,-10035.851024,-2072.576638
5542.864491,-3256.906145,-8810.098227,-1258.350101
5542.864815,-2886.803174,-9652.803275,-296.082377
5542.865139,-2146.597232,-8810.098227,-592.164754
5542.865463,-518.144159,-8273.831378,-592.164754
5542.865788,888.247130,-7507.735880,-740.205942
5542.866112,3552.988522,-8197.221829,-592.164754
5542.866436,4293.194464,-8580.269578,-1850.514855
5542.866760,2960.823768,-9039.926876,-1628.453072
5542.867084,1850.514855,-9806.022374,-1406.391290
5542.867409,-592.164754,-9576.193725,-1184.329507
5542.867733,-1998.556043,-10418.898773,-296.082377
5542.868057,-2886.803174,-9269.755526,-222.061783
5542.868381,-1702.473667,-9499.584175,962.267725
5542.868706,-444.123565,-8350.440928,444.123565
5542.869030,2516.700203,-8197.221829,740.205942
5542.869354,4737.318029,-6971.469032,222.061783
5542.869678,4737.318029,-7048.078582,0.000000
5542.870002,3478.967927,-7354.516781,-1110.308913
5542.870327,1110.308913,-7354.516781,-296.082377
5542.870651,-2664.741391,-7967.393179,-370.102971
5542.870975,-4959.379811,-9039.926876,222.061783
5542.871299,-5551.544565,-8963.317327,370.102971
5542.871624,-5329.482782,-9729.412825,1406.391290
5542.871948,-2886.803174,-8503.660028,592.164754
5542.872272,0.000000,-9269.755526,1258.350101
5542.872596,3627.009116,-7507.735880,518.144159
5542.872920,4959.379811,-7584.345430,0.000000
5542.873245,4885.359217,-7354.516781,222.061783
5542.873569,4515.256246,-6971.469032,-962.267725
5542.873893,1702.473667,-7890.783629,0.000000
5542.874217,-1998.556043,-9193.145976,0.000000
5542.874542,-4071.132681,-8656.879127,666.185348
5542.874866,-4959.379811,-9116.536426,962.267725
5542.875190,-3997.112087,-9039.926876,592.164754
5542.875514,-1628.453072,-8963.317327,1776.494261
5542.875838,888.247130,-8197.221829,592.164754
5542.876163,3478.967927,-9346.365076,222.061783
5542.876487,3849.070898,-7967.393179,-1628.453072
5542.876811,4441.235652,-9039.926876,-592.164754
5542.877135,1480.411884,-7584.345430,-666.185348
5542.877460,0.000000,-8580.269578,-592.164754
5542.877784,-2294.638420,-8503.660028,0.000000
5542.878108,-2738.761985,-8656.879127,0.000000
5542.878432,-3182.885551,-8503.660028,-296.082377
5542.878756,-592.164754,-8810.098227,-148.041188
5542.879081,1184.329507,-8427.050478,-592.164754
5542.879405,3478.967927,-8810.098227,-962.267725
5542.879729,4515.256246,-9959.241474,-2220.617826
5542.880053,3182.885551,-8810.098227,-2072.576638
5542.880378,2442.679609,-9499.584175,-2220.617826
5542.880702,666.185348,-9269.755526,-1998.556043
5542.881026,-1036.288319,-9193.145976,-888.247130
5542.881350,-1776.494261,-8810.098227,-370.102971
5542.881674,-592.164754,-8503.660028,-296.082377
5542.881999,-296.082377,-8810.098227,-518.144159
5542.882323,2664.741391,-8427.050478,-666.185348
5542.882647,1258.350101,-8580.269578,-1332.370696
5542.882971,2368.659014,-7584.345430,-2516.700203
5542.883296,1480.411884,-8350.440928,74.020594
5542.883620,2146.597232,-8580.269578,-2442.679609
5542.883944,-740.205942,-9806.022374,-592.164754
5542.884268,-2146.597232,-9039.926876,-962.267725
5542.884593,-2664.741391,-10189.070123,148.041188
5542.884917,-740.205942,-7890.783629,-814.226536
5542.885241,1110.308913,-9729.412825,740.205942
5542.885565,3108.864956,-7584.345430,0.000000
5542.885889,4515.256246,-7967.393179,-888.247130
5542.886214,5477.523971,-9193.145976,-962.267725
5542.886538,4515.256246,-8120.612279,-1406.391290
5542.886862,2368.659014,-9346.365076,-1110.308913
5542.887186,-518.144159,-8963.317327,-1998.556043
5542.887511,-2146.597232,-9576.193725,370.102971
5542.887835,-3775.050304,-9499.584175,-148.041188
5542.888159,-4293.194464,-10725.336972,222.061783
5542.888483,-2220.617826,-9039.926876,444.123565
5542.888807,518.144159,-8427.050478,296.082377
5542.889132,3552.988522,-8427.050478,592.164754
5542.889456,4145.153275,-5975.544884,0.000000
5542.889780,5403.503377,-8120.612279,-148.041188
5542.890104,2146.597232,-7201.297681,-1110.308913
5542.890429,444.123565,-8580.269578,-518.144159
5542.890753,-2220.617826,-7584.345430,296.082377
5542.891077,-4737.318029,-7967.393179,1184.329507
5542.891401,-3849.070898,-9652.803275,666.185348
5542.891725,-2220.617826,-8273.831378,592.164754
5542.892050,-962.267725,-8656.879127,1110.308913
5542.892374,1554.432478,-8273.831378,0.000000
5542.892698,3404.947333,-7967.393179,0.000000
5542.893022,3849.070898,-7814.174080,-518.144159
5542.893347,4367.215058,-8350.440928,-444.123565
5542.893671,2220.617826,-7737.564530,-1554.432478
5542.893995,-1998.556043,-8886.707777,-296.082377
5542.894319,-3034.844362,-8273.831378,148.041188
5542.894643,-3775.050304,-9652.803275,888.247130
5542.894968,-3923.091493,-8656.879127,444.123565
5542.895292,-1258.350101,-8503.660028,296.082377
5542.895616,1110.308913,-8273.831378,-296.082377
5542.895940,2960.823768,-8963.317327,296.082377
5542.896265,3849.070898,-8580.269578,-962.267725
5542.896589,3182.885551,-9422.974625,-740.205942
5542.896913,1258.350101,-8044.002729,-1332.370696
5542.897237,-518.144159,-8427.050478,-222.061783
5542.897561,-2664.741391,-8656.879127,-370.102971
5542.897886,-3256.906145,-8963.317327,370.102971
5542.898210,-2146.597232,-9116.536426,-370.102971
5542.898534,-1110.308913,-9269.755526,148.041188
5542.898858,1628.453072,-8580.269578,-1110.308913
5542.899183,2812.782580,-9422.974625,-814.226536
5542.899507,3775.050304,-9729.412825,-592.164754
5542.899831,3923.091493,-8963.317327,-2146.597232
5542.900155,2146.597232,-9652.803275,-1850.514855
5542.900479,370.102971,-9346.365076,-1554.432478
5542.900804,-1998.556043,-9422.974625,-962.267725
5542.901128,-2738.761985,-9959.241474,-148.041188
5542.901452,-2072.576638,-8197.221829,370.102971
5542.901776,-1480.411884,-8886.707777,444.123565
5542.902101,1184.329507,-8350.440928,-740.205942
5542.902425,4219.173869,-8427.050478,0.000000
5542.902749,4811.338623,-8044.002729,-962.267725
5542.903073,3997.112087,-8503.660028,-1554.432478
5542.903397,2442.679609,-8580.269578,-1110.308913
5542.903722,-370.102971,-8350.440928,-1406.391290
5542.904046,-2368.659014,-9193.145976,148.041188
5542.904370,-2516.700203,-8810.098227,-740.205942
5542.904694,-2812.782580,-9729.412825,814.226536
5542.905019,-1554.432478,-7814.174080,296.082377
5542.905343,1258.350101,-8810.098227,444.123565
5542.905667,3034.844362,-8197.221829,-444.123565
5542.905991,4737.318029,-8580.269578,-1332.370696
5542.906315,4811.338623,-7814.174080,-1406.391290
5542.906640,2442.679609,-7967.393179,-814.226536
5542.906964,1332.370696,-8733.488677,-148.041188
5542.907288,-1036.288319,-8656.879127,-444.123565
5542.907612,-2590.720797,-8580.269578,0.000000
5542.907937,-2812.782580,-9422.974625,1406.391290
5542.908261,-1184.329507,-8503.660028,814.226536
5542.908585,222.061783,-9039.926876,740.205942
5542.908909,2738.761985,-8273.831378,444.123565
5542.909234,4293.194464,-7967.393179,0.000000
5542.909558,4293.194464,-7354.516781,-370.102971
5542.909882,2812.782580,-7890.783629,-666.185348
5542.910206,74.020594,-7584.345430,-1406.391290
5542.910530,-2294.638420,-8733.488677,222.061783
5542.910855,-3256.906145,-8197.221829,0.000000
5542.911179,-4293.194464,-8733.488677,592.164754
5542.911503,-2442.679609,-9039.926876,740.205942
5542.911827,740.205942,-8044.002729,666.185348
5542.912152,1480.411884,-8810.098227,148.041188
5542.912476,4145.153275,-8120.612279,-962.267725
5542.912800,4515.256246,-8810.098227,-592.164754
5542.913124,3182.885551,-8580.269578,-1480.411884
5542.913448,1036.288319,-8963.317327,-814.226536
5542.913773,-1406.391290,-8580.269578,-518.144159
5542.914097,-2960.823768,-9499.584175,0.000000
5542.914421,-4737.318029,-8427.050478,-370.102971
5542.914745,-3108.864956,-9576.193725,444.123565
5542.915070,-1554.432478,-8273.831378,518.144159
5542.915394,666.185348,-8810.098227,518.144159
5542.915718,3627.009116,-8733.488677,-518.144159
5542.916042,4071.132681,-8656.879127,-1332.370696
5542.916366,4071.132681,-8810.098227,-962.267725
5542.916691,1258.350101,-7967.393179,-1332.370696
5542.917015,-1258.350101,-9269.755526,-962.267725
5542.917339,-3108.864956,-8656.879127,-518.144159
5542.917663,-5033.400406,-9729.412825,740.205942
5542.917988,-3997.112087,-8197.221829,222.061783
5542.918312,-1480.411884,-9499.584175,74.020594
5542.918636,814.226536,-7814.174080,-1110.308913
5542.918960,3108.864956,-9422.974625,0.000000
5542.919284,4071.132681,-8656.879127,-1332.370696
5542.919609,3478.967927,-9039.926876,-592.164754
5542.919933,2294.638420,-7967.393179,-1776.494261
5542.920257,-518.144159,-8886.707777,-370.102971
5542.920581,-666.185348,-9269.755526,-444.123565
5542.920906,-3034.844362,-9499.584175,-666.185348
5542.921230,-2590.720797,-9269.755526,592.164754
5542.921554,-2146.597232,-8273.831378,-518.144159
5542.921878,814.226536,-9806.022374,666.185348
5542.922202,3182.885551,-8580.269578,-370.102971
5542.922527,4145.153275,-8197.221829,74.020594
5542.922851,3108.864956,-7814.174080,-740.205942
5542.923175,2368.659014,-7737.564530,-1184.329507
5542.923499,-296.082377,-8656.879127,-370.102971
5542.923824,-1776.494261,-8197.221829,-518.144159
5542.924148,-2812.782580,-9729.412825,370.102971
5542.924472,-2738.761985,-8580.269578,0.000000
5542.924796,-592.164754,-8733.488677,1036.288319
5542.925120,1776.494261,-7431.126331,296.082377
5542.925445,3997.112087,-8733.488677,-592.164754
5542.925769,4663.297435,-8273.831378,-666.185348
5542.926093,4367.215058,-7814.174080,-1110.308913
5542.926417,3627.009116,-7814.174080,0.000000
5542.926742,518.144159,-8044.002729,-1332.370696
5542.927066,-814.226536,-9039.926876,296.082377
5542.927390,-2294.638420,-8580.269578,148.041188
5542.927714,-2442.679609,-9422.974625,296.082377
5542.928038,-1924.535449,-8580.269578,74.020594
5542.928363,666.185348,-8733.488677,592.164754
5542.928687,2738.761985,-7660.954980,222.061783
5542.929011,4663.297435,-8120.612279,-666.185348
5542.929335,4293.194464,-8197.221829,-370.102971
5542.929660,1924.535449,-7660.954980,-592.164754
5542.929984,888.247130,-8197.221829,-1036.288319
5542.930308,-1480.411884,-8733.488677,-592.164754
5542.930632,-3923.091493,-9116.536426,296.082377
5542.930957,-4145.153275,-9193.145976,1184.329507
5542.931281,-2590.720797,-8197.221829,0.000000
5542.931605,666.185348,-9039.926876,1184.329507
5542.931929,2368.659014,-7660.954980,-888.247130
5542.932253,3923.091493,-9193.145976,-666.185348
5542.932578,4515.256246,-7967.393179,-1258.350101
5542.932902,3330.926739,-9193.145976,-1480.411884
5542.933226,1036.288319,-9269.755526,-1776.494261
5542.933550,-1258.350101,-8963.317327,-1184.329507
5542.933875,-3552.988522,-9652.803275,-74.020594
5542.934199,-4737.318029,-9193.145976,0.000000
5542.934523,-2812.782580,-9882.631924,518.144159
5542.934847,-740.205942,-8963.317327,0.000000
5542.935171,1258.350101,-8503.660028,296.082377
5542.935496,3108.864956,-8580.269578,-1184.329507
5542.935820,4367.215058,-8044.002729,-1036.288319
5542.936144,2664.741391,-7354.516781,-1110.308913
5542.936468,1924.535449,-8427.050478,-1406.391290
5542.936793,-2146.597232,-8503.660028,148.041188
5542.937117,-3404.947333,-8810.098227,0.000000
5542.937441,-4737.318029,-9499.584175,-222.061783
5542.937765,-4071.132681,-9806.022374,444.123565
5542.938089,-1850.514855,-8656.879127,148.041188
5542.938414,1184.329507,-9039.926876,-296.082377
5542.938738,3108.864956,-8503.660028,-962.267725
5542.939062,4737.318029,-9039.926876,0.000000
5542.939386,3775.050304,-8044.002729,-1702.473667
5542.939711,1554.432478,-8427.050478,-1258.350101
5542.940035,-592.164754,-8810.098227,-1036.288319
5542.940359,-2368.659014,-8733.488677,-444.123565
5542.940683,-3552.988522,-9499.584175,-666.185348
5542.941007,-2812.782580,-9193.145976,592.164754
5542.941332,-1998.556043,-8503.660028,888.247130
5542.941656,740.205942,-8810.098227,444.123565
5542.941980,3552.988522,-8503.660028,666.185348
5542.942304,4145.153275,-7890.783629,-1184.329507
5542.942629,4219.173869,-8580.269578,-888.247130
5542.942953,3256.906145,-7354.516781,-1036.288319
5542.943277,222.061783,-8273.831378,222.061783
5542.943601,-2072.576638,-8120.612279,-740.205942
5542.943925,-2516.700203,-8810.098227,888.247130
5542.944250,-1702.473667,-8350.440928,296.082377
5542.944574,-1776.494261,-8427.050478,592.164754
5542.944898,1480.411884,-8197.221829,-296.082377
5542.945222,2368.659014,-8273.831378,-370.102971
5542.945547,4367.215058,-8044.002729,-1332.370696
5542.945871,5033.400406,-7890.783629,-1480.411884
5542.946195,3404.947333,-9039.926876,-1110.308913
5542.946519,1776.494261,-8044.002729,-1554.432478
5542.946843,-1036.288319,-9116.536426,-222.061783
5542.947168,-2590.720797,-9116.536426,0.000000
5542.947492,-2072.576638,-8733.488677,518.144159
5542.947816,-740.205942,-9269.755526,222.061783
5542.948140,1480.411884,-8197.221829,222.061783
5542.948465,2590.720797,-7814.174080,74.020594
5542.948789,4663.297435,-8427.050478,-370.102971
5542.949113,4737.318029,-7507.735880,-888.247130
5542.949437,3034.844362,-7660.954980,-1036.288319
5542.949761,1184.329507,-7354.516781,-740.205942
5542.950086,-1036.288319,-9806.022374,296.082377
5542.950410,-2738.761985,-8503.660028,-592.164754
5542.950734,-3923.091493,-9039.926876,962.267725
5542.951058,-1628.453072,-7354.516781,222.061783
5542.951383,1110.308913,-8120.612279,370.102971
5542.951707,3923.091493,-9806.022374,666.185348
5542.952031,5551.544565,-7967.393179,-2220.617826
5542.952355,4663.297435,-9422.974625,-518.144159
5542.952679,2664.741391,-8503.660028,-2220.617826
5542.953004,1406.391290,-9039.926876,-1184.329507
5542.953328,-370.102971,-9422.974625,-1184.329507
5542.953652,-3849.070898,-9806.022374,-148.041188
5542.953976,-4737.318029,-8963.317327,-74.020594
5542.954301,-2664.741391,-9806.022374,814.226536
5542.954625,-1036.288319,-8580.269578,370.102971
5542.954949,1776.494261,-7890.783629,0.000000
5542.955273,3478.967927,-8197.221829,222.061783
5542.955598,4219.173869,-7967.393179,-888.247130
5542.955922,3923.091493,-8350.440928,-666.185348
5542.956246,1628.453072,-7737.564530,-1850.514855
5542.956570,-888.247130,-9729.412825,74.020594
5542.956894,-3034.844362,-8350.440928,-222.061783
5542.957219,-4441.235652,-9806.022374,370.102971
5542.957543,-4367.215058,-8886.707777,1036.288319
5542.957867,-2664.741391,-8656.879127,296.082377
5542.958191,370.102971,-9269.755526,296.082377
5542.958516,3034.844362,-7814.174080,-962.267725
5542.958840,4293.194464,-8350.440928,0.000000
5542.959164,2738.761985,-7124.688131,-1036.288319
5542.959488,3775.050304,-8580.269578,-592.164754
5542.959812,740.205942,-8197.221829,-1332.370696
5542.960137,-1480.411884,-9116.536426,-74.020594
5542.960461,-3404.947333,-9116.536426,0.000000
5542.960785,-3034.844362,-9346.365076,666.185348
5542.961109,-1702.473667,-8427.050478,296.082377
5542.961434,888.247130,-9193.145976,666.185348
5542.961758,2294.638420,-7967.393179,740.205942
5542.962082,3182.885551,-7660.954980,74.020594
5542.962406,2590.720797,-8120.612279,-1184.329507
5542.962731,2368.659014,-7277.907231,-1480.411884
5542.963055,0.000000,-7814.174080,-518.144159
5542.963379,-3182.885551,-7354.516781,148.041188
5542.963704,-1702.473667,-8273.831378,814.226536
5542.964028,-2886.803174,-8656.879127,74.020594
5542.964352,-1554.432478,-8656.879127,0.000000
5542.964676,1110.308913,-8350.440928,-518.144159
5542.965001,3182.885551,-8427.050478,74.020594
5542.965325,4071.132681,-8503.660028,-962.267725
5542.965649,4885.359217,-8503.660028,-1702.473667
5542.965973,3627.009116,-10035.851024,-1110.308913
5542.966298,1998.556043,-9193.145976,-1628.453072
5542.966622,-888.247130,-9039.926876,-1110.308913
5542.966946,-3182.885551,-8427.050478,-592.164754
5542.967270,-1998.556043,-9499.584175,518.144159
5542.967595,-1480.411884,-8120.612279,666.185348
5542.967919,0.000000,-8963.317327,222.061783
5542.968243,2664.741391,-7814.174080,-740.205942
5542.968567,2886.803174,-8427.050478,-592.164754
5542.968892,3256.906145,-8350.440928,-1850.514855
5542.969216,2590.720797,-8656.879127,-1258.350101
5542.969540,-222.061783,-8120.612279,-1554.432478
5542.969865,-1702.473667,-9346.365076,-592.164754
5542.970189,-2812.782580,-8963.317327,-296.082377
5542.970513,-3849.070898,-9576.193725,222.061783
5542.970837,-2738.761985,-8273.831378,370.102971
5542.971162,222.061783,-8580.269578,-296.082377
5542.971486,2368.659014,-8044.002729,-888.247130
5542.971810,4589.276840,-8580.269578,-518.144159
5542.972134,5107.421000,-8580.269578,-1258.350101
5542.972459,3552.988522,-9116.536426,-1776.494261
5542.972783,1776.494261,-9039.926876,-1628.453072
5542.973107,-296.082377,-8273.831378,-740.205942
5542.973431,-2516.700203,-9269.755526,-370.102971
5542.973756,-2738.761985,-9269.755526,74.020594
5542.974080,-1628.453072,-9422.974625,592.164754
5542.974404,-1258.350101,-8044.002729,1110.308913
5542.974729,592.164754,-7890.783629,74.020594
5542.975053,3552.988522,-7890.783629,0.000000
5542.975377,4219.173869,-7660.954980,-370.102971
5542.975701,3701.029710,-8120.612279,-592.164754
5542.976026,1702.473667,-7507.735880,-740.205942
5542.976350,-1628.453072,-9039.926876,-1036.288319
5542.976674,-2886.803174,-9499.584175,148.041188
5542.976998,-3849.070898,-8810.098227,962.267725
5542.977323,-3775.050304,-8656.879127,814.226536
5542.977647,-962.267725,-8427.050478,1332.370696
5542.977971,814.226536,-8197.221829,0.000000
5542.978295,3256.906145,-8733.488677,0.000000
5542.978620,4071.132681,-7890.783629,-962.267725
5542.978944,4219.173869,-8273.831378,-740.205942
5542.979268,2516.700203,-8120.612279,-1258.350101
5542.979593,888.247130,-8886.707777,0.000000
5542.979917,-1702.473667,-8503.660028,-888.247130
5542.980241,-3256.906145,-9422.974625,1258.350101
5542.980565,-2590.720797,-8810.098227,-148.041188
5542.980890,-1924.535449,-8503.660028,592.164754
5542.981214,148.041188,-8503.660028,888.247130
5542.981538,2294.638420,-8197.221829,592.164754
5542.981862,2220.617826,-7737.564530,-296.082377
5542.982187,3182.885551,-8580.269578,-518.144159
5542.982511,3034.844362,-7967.393179,-1554.432478
5542.982835,-222.061783,-8810.098227,-1702.473667
5542.983159,-1258.350101,-8350.440928,-444.123565
5542.983484,-3701.029710,-7737.564530,74.020594
5542.983808,-3330.926739,-8810.098227,962.267725
5542.984132,-1184.329507,-8350.440928,444.123565
5542.984456,1628.453072,-8810.098227,888.247130
5542.984781,2220.617826,-7890.783629,-1184.329507
5542.985105,4293.194464,-9193.145976,-666.185348
5542.985429,3775.050304,-8273.831378,-1702.473667
5542.985754,3627.009116,-8963.317327,-2146.597232
5542.986078,1480.411884,-8963.317327,-962.267725
5542.986402,-1258.350101,-9269.755526,-740.205942
5542.986726,-2516.700203,-9039.926876,-370.102971
5542.987051,-3034.844362,-8886.707777,-296.082377
5542.987375,-1850.514855,-9269.755526,222.061783
5542.987699,0.000000,-8197.221829,0.000000
5542.988023,2516.700203,-7967.393179,0.000000
5542.988348,3182.885551,-8120.612279,-740.205942
5542.988672,3478.967927,-8044.002729,-1628.453072
5542.988996,2220.617826,-8503.660028,-1406.391290
5542.989320,666.185348,-8656.879127,-1554.432478
5542.989645,-1332.370696,-9039.926876,-518.144159
5542.989969,-2886.803174,-8427.050478,-740.205942
5542.990293,-3182.885551,-9346.365076,518.144159
5542.990618,-2664.741391,-8120.612279,370.102971
5542.990942,222.061783,-8733.488677,0.000000
5542.991266,2368.659014,-8197.221829,-296.082377
5542.991590,4367.215058,-8197.221829,-962.267725
5542.991915,4737.318029,-8886.707777,-1628.453072
5542.992239,3923.091493,-8350.440928,-1554.432478
5542.992563,1924.535449,-9039.926876,-1110.308913
5542.992887,-666.185348,-9039.926876,-962.267725
5542.993212,-2220.617826,-9422.974625,-370.102971
5542.993536,-2738.761985,-9422.974625,222.061783
5542.993860,-2368.659014,-8656.879127,666.185348
5542.994184,-1702.473667,-8580.269578,444.123565
5542.994509,1998.556043,-8197.221829,-222.061783
5542.994833,3034.844362,-8656.879127,0.000000
5542.995157,3701.029710,-7660.954980,-888.247130
5542.995481,3034.844362,-7814.174080,-592.164754
5542.995806,1850.514855,-7967.393179,-962.267725
5542.996130,444.123565,-8350.440928,-1110.308913
5542.996454,-2442.679609,-8580.269578,0.000000
5542.996779,-3256.906145,-8810.098227,296.082377
5542.997103,-2812.782580,-8656.879127,740.205942
5542.997427,-1184.329507,-8427.050478,962.267725
5542.997751,1998.556043,-8273.831378,-814.226536
5542.998076,3330.926739,-8273.831378,-518.144159
5542.998400,4071.132681,-9576.193725,-592.164754
5542.998724,2812.782580,-7354.516781,-1332.370696
5542.999048,1480.411884,-9346.365076,-888.247130
5542.999373,-222.061783,-8273.831378,-1036.288319
5542.999697,-1702.473667,-9269.755526,-370.102971
5543.000021,-3034.844362,-9116.536426,0.000000
5543.000345,-3478.967927,-9039.926876,740.205942
5543.000670,-1924.535449,-8120.612279,518.144159
5543.000994,0.000000,-9269.755526,370.102971
5543.001318,2220.617826,-8273.831378,74.020594
5543.001643,4219.173869,-8810.098227,-370.102971
5543.001967,2960.823768,-8273.831378,-962.267725
5543.002291,1850.514855,-7660.954980,-740.205942
5543.002615,1258.350101,-8580.269578,-888.247130
5543.002940,-1998.556043,-8733.488677,-148.041188
5543.003264,-3108.864956,-8886.707777,518.144159
5543.003588,-2812.782580,-8503.660028,1258.350101
5543.003912,-1554.432478,-8963.317327,444.123565
5543.004237,962.267725,-8350.440928,444.123565
5543.004561,2590.720797,-9039.926876,-444.123565
5543.004885,4145.153275,-8963.317327,-444.123565
5543.005209,3627.009116,-8350.440928,-1924.535449
5543.005534,2664.741391,-8963.317327,-1036.288319
5543.005858,592.164754,-8886.707777,-1036.288319
5543.006182,-2072.576638,-9346.365076,-444.123565
5543.006506,-2590.720797,-9116.536426,0.000000
5543.006831,-2812.782580,-9499.584175,0.000000
5543.007155,-2146.597232,-8656.879127,666.185348
5543.007479,222.061783,-8197.221829,666.185348
5543.007804,2146.597232,-8044.002729,592.164754
5543.008128,3034.844362,-8197.221829,-148.041188
5543.008452,4589.276840,-8350.440928,-1406.391290
5543.008776,3701.029710,-8120.612279,-962.267725
5543.009101,296.082377,-8120.612279,-1110.308913
5543.009425,-1332.370696,-8963.317327,-814.226536
5543.009749,-3034.844362,-9193.145976,444.123565
5543.010073,-2960.823768,-9499.584175,444.123565
5543.010398,-2960.823768,-8656.879127,74.020594
5543.010722,-962.267725,-8503.660028,888.247130
5543.011046,1332.370696,-8273.831378,-592.164754
5543.011370,3923.091493,-8656.879127,-444.123565
5543.011695,6069.688724,-8273.831378,-962.267725
5543.012019,4293.194464,-8503.660028,-1702.473667
5543.012343,2738.761985,-8656.879127,-962.267725
5543.012668,74.020594,-7814.174080,-592.164754
5543.012992,-1406.391290,-9039.926876,444.123565
5543.013316,-3182.885551,-8656.879127,0.000000
5543.013640,-2368.659014,-9346.365076,666.185348
5543.013965,-1628.453072,-8350.440928,444.123565
5543.014289,888.247130,-7967.393179,222.061783
5543.014613,2812.782580,-8886.707777,-296.082377
5543.014937,3997.112087,-8120.612279,-962.267725
5543.015262,3182.885551,-8197.221829,-962.267725
5543.015586,2590.720797,-7354.516781,-1702.473667
5543.015910,0.000000,-8580.269578,-962.267725
5543.016234,-1924.535449,-8503.660028,-666.185348
5543.016559,-3478.967927,-9269.755526,296.082377
5543.016883,-3256.906145,-8427.050478,0.000000
5543.017207,-1702.473667,-9193.145976,222.061783
5543.017532,148.041188,-7967.393179,0.000000
5543.017856,1554.432478,-9116.536426,-296.082377
5543.018180,2960.823768,-8733.488677,-1332.370696
5543.018504,2738.761985,-8503.660028,-2146.597232
5543.018829,1924.535449,-8810.098227,-1554.432478
5543.019153,666.185348,-8427.050478,-1184.329507
5543.019477,-666.185348,-9269.755526,0.000000
5543.019801,-1702.473667,-8656.879127,0.000000
5543.020126,-1924.535449,-8580.269578,666.185348
5543.020450,-1332.370696,-8810.098227,148.041188
5543.020774,0.000000,-8197.221829,-148.041188
5543.021098,1998.556043,-8197.221829,296.082377
5543.021423,2664.741391,-8044.002729,-1480.411884
5543.021747,2146.597232,-8350.440928,-370.102971
5543.022071,1628.453072,-8273.831378,-1554.432478
5543.022395,148.041188,-9499.584175,-1036.288319
5543.022720,-1998.556043,-8503.660028,-1036.288319
5543.023044,-3182.885551,-8886.707777,0.000000
5543.023368,-3108.864956,-9039.926876,0.000000
5543.023693,-2146.597232,-8273.831378,962.267725
5543.024017,1110.308913,-8197.221829,296.082377
5543.024341,2886.803174,-7737.564530,-222.061783
5543.024665,4515.256246,-8503.660028,-444.123565
5543.024990,4441.235652,-8580.269578,-740.205942
5543.025314,3997.112087,-8044.002729,-1110.308913
5543.025638,518.144159,-8733.488677,-1332.370696
5543.025962,-888.247130,-9116.536426,0.000000
5543.026287,-3627.009116,-9039.926876,0.000000
5543.026611,-3256.906145,-9576.193725,370.102971
5543.026935,-1628.453072,-8580.269578,666.185348
5543.027259,74.020594,-8197.221829,296.082377
5543.027584,1480.411884,-8427.050478,148.041188
5543.027908,2590.720797,-7890.783629,0.000000
5543.028232,4515.256246,-8580.269578,0.000000
5543.028557,2516.700203,-7507.735880,-1702.473667
5543.028881,1702.473667,-8427.050478,-1036.288319
5543.029205,-1554.432478,-8427.050478,-444.123565
5543.029529,-2072.576638,-8963.317327,148.041188
5543.029854,-3478.967927,-9039.926876,518.144159
5543.030178,-1554.432478,-9116.536426,962.267725
5543.030502,-444.123565,-7814.174080,444.123565
5543.030826,2146.597232,-7660.954980,-444.123565
5543.031151,4293.194464,-8963.317327,-740.205942
5543.031475,5625.565159,-8273.831378,-740.205942
5543.031799,3997.112087,-8273.831378,-1480.411884
5543.032123,1480.411884,-8810.098227,-1110.308913
5543.032448,444.123565,-8963.317327,-666.185348
5543.032772,-1702.473667,-9806.022374,-296.082377
5543.033096,-3182.885551,-8733.488677,-296.082377
5543.033420,-2368.659014,-9193.145976,1184.329507
5543.033745,-1332.370696,-8427.050478,222.061783
5543.034069,1554.432478,-8656.879127,222.061783
5543.034393,2812.782580,-8963.317327,-444.123565
5543.034718,3997.112087,-8580.269578,-592.164754
5543.035042,3182.885551,-8580.269578,-444.123565
5543.035366,2146.597232,-8273.831378,-1406.391290
5543.035690,-666.185348,-8120.612279,-370.102971
5543.036015,-2368.659014,-8427.050478,-740.205942
5543.036339,-3478.967927,-9116.536426,592.164754
5543.036663,-2516.700203,-8886.707777,814.226536
5543.036987,-1110.308913,-8580.269578,0.000000
5543.037312,0.000000,-8503.660028,-888.247130
5543.037636,3034.844362,-8427.050478,-296.082377
5543.037960,4071.132681,-8273.831378,-1110.308913
5543.038284,4145.153275,-8427.050478,-1406.391290
5543.038609,2738.761985,-9039.926876,-1258.350101
5543.038933,0.000000,-9116.536426,-1258.350101
5543.039257,-1480.411884,-9576.193725,-962.267725
5543.039582,-2442.679609,-8733.488677,74.020594
5543.039906,-2738.761985,-8886.707777,740.205942
5543.040230,-1924.535449,-8350.440928,296.082377
5543.040554,0.000000,-8350.440928,-296.082377
5543.040879,2368.659014,-8503.660028,0.000000
5543.041203,3256.906145,-8120.612279,-370.102971
5543.041527,3256.906145,-7890.783629,-814.226536
5543.041851,2368.659014,-7890.783629,-666.185348
5543.042176,740.205942,-8810.098227,-518.144159
5543.042500,-1406.391290,-8120.612279,-370.102971
5543.042824,-3330.926739,-8810.098227,0.000000
5543.043148,-3552.988522,-9499.584175,962.267725
5543.043473,-1924.535449,-8273.831378,-222.061783
5543.043797,740.205942,-8580.269578,148.041188
5543.044121,1776.494261,-7967.393179,-592.164754
5543.044446,3701.029710,-8273.831378,-296.082377
5543.044770,3108.864956,-7890.783629,-1184.329507
5543.045094,2442.679609,-9499.584175,-1998.556043
5543.045418,666.185348,-9269.755526,-1110.308913
5543.045743,-2146.597232,-9039.926876,-888.247130
5543.046067,-3330.926739,-9193.145976,74.020594
5543.046391,-4071.132681,-8273.831378,0.000000
5543.046715,-2220.617826,-9499.584175,740.205942
5543.047040,148.041188,-8044.002729,0.000000
5543.047364,3182.885551,-8197.221829,-666.185348
5543.047688,4145.153275,-7890.783629,296.082377
5543.048012,3849.070898,-8197.221829,-1702.473667
5543.048337,3034.844362,-8350.440928,-444.123565
5543.048661,1406.391290,-8120.612279,-814.226536
5543.048985,-1332.370696,-8350.440928,-1036.288319
5543.049309,-2738.761985,-8963.317327,296.082377
5543.049634,-2960.823768,-9269.755526,0.000000
5543.049958,-1628.453072,-9499.584175,666.185348
5543.050282,0.000000,-8120.612279,0.000000
5543.050607,2072.576638,-8656.879127,-148.041188
5543.050931,3627.009116,-8197.221829,-1036.288319
5543.051255,4811.338623,-8886.707777,-1184.329507
5543.051579,3182.885551,-8810.098227,-1998.556043
5543.051904,1850.514855,-9499.584175,-1702.473667
5543.052228,-740.205942,-9422.974625,-888.247130
5543.052552,-2590.720797,-9422.974625,0.000000
5543.052876,-2442.679609,-9039.926876,592.164754
5543.053201,-2738.761985,-8427.050478,296.082377
5543.053525,-962.267725,-9039.926876,370.102971
5543.053849,1110.308913,-8044.002729,0.000000
5543.054173,2960.823768,-7967.393179,-296.082377
5543.054498,4145.153275,-8656.879127,-592.164754
5543.054822,3997.112087,-7967.393179,-962.267725
5543.055146,2960.823768,-8350.440928,-1258.350101
5543.055471,0.000000,-8350.440928,-814.226536
5543.055795,-2072.576638,-8580.269578,0.000000
5543.056119,-2738.761985,-8886.707777,1036.288319
5543.056443,-3256.906145,-8044.002729,592.164754
5543.056768,-1110.308913,-8350.440928,370.102971
5543.057092,1628.453072,-8197.221829,592.164754
5543.057416,2146.597232,-8580.269578,-888.247130
5543.057740,3775.050304,-8656.879127,-2368.659014
5543.058065,3478.967927,-10265.679673,-1554.432478
5543.058389,1480.411884,-8503.660028,-1554.432478
5543.058713,1184.329507,-8656.879127,-888.247130
5543.059037,-3775.050304,-9806.022374,444.123565
5543.059362,-3849.070898,-8350.440928,666.185348
5543.059686,-3108.864956,-9116.536426,962.267725
5543.060010,-2442.679609,-8580.269578,0.000000
5543.060334,0.000000,-8044.002729,370.102971
5543.060659,1998.556043,-8044.002729,-222.061783
5543.060983,3256.906145,-8580.269578,-1036.288319
5543.061305,3923.091493,-8273.831378,-666.185348
5543.061630,1998.556043,-7660.954980,-518.144159
5543.061954,296.082377,-8427.050478,-1110.308913
5543.062279,-1628.453072,-8963.317327,74.020594
5543.062603,-3182.885551,-8350.440928,592.164754
5543.062928,-4441.235652,-9039.926876,666.185348
5543.063252,-1628.453072,-8656.879127,1406.391290
5543.063576,740.205942,-9193.145976,-666.185348
5543.063901,2442.679609,-8503.660028,-740.205942
5543.064225,3552.988522,-7890.783629,-666.185348
5543.064550,3182.885551,-7890.783629,-1184.329507
5543.064874,2220.617826,-9959.241474,-1406.391290
5543.065198,1332.370696,-8120.612279,-1628.453072
5543.065523,-1924.535449,-9729.412825,-296.082377
5543.065847,-3627.009116,-8580.269578,-592.164754
5543.066172,-2590.720797,-9116.536426,814.226536
5543.066496,-2738.761985,-8810.098227,518.144159
5543.066821,-148.041188,-7660.954980,592.164754
5543.067145,1998.556043,-8427.050478,-1184.329507
5543.067469,2368.659014,-8733.488677,74.020594
5543.067794,3849.070898,-7890.783629,-1554.432478
5543.068118,2886.803174,-8886.707777,-1184.329507
5543.068443,-888.247130,-8044.002729,-1480.411884
5543.068767,-1110.308913,-8733.488677,-444.123565
5543.069091,-4219.173869,-9193.145976,-296.082377
5543.069416,-2738.761985,-9806.022374,814.226536
5543.069740,-1702.473667,-8044.002729,296.082377
5543.070065,148.041188,-8273.831378,444.123565
5543.070389,2960.823768,-8044.002729,-814.226536
5543.070714,4737.318029,-8733.488677,-1554.432478
5543.071038,4885.359217,-8810.098227,-814.226536
5543.071362,2886.803174,-8427.050478,-2072.576638
5543.071687,1332.370696,-9193.145976,-1184.329507
5543.072011,-1480.411884,-8963.317327,-1406.391290
5543.072336,-3034.844362,-9729.412825,-296.082377
5543.072660,-3404.947333,-8503.660028,-296.082377
5543.072984,-2516.700203,-8886.707777,444.123565
5543.073309,-1480.411884,-8350.440928,518.144159
5543.073633,1554.432478,-8197.221829,222.061783
5543.073958,3997.112087,-8503.660028,-370.102971
5543.074282,4811.338623,-7737.564530,-370.102971
5543.074607,4737.318029,-7967.393179,-666.185348
5543.074931,1998.556043,-7814.174080,-1184.329507
5543.075255,148.041188,-8733.488677,0.000000
5543.075580,-1850.514855,-8886.707777,-444.123565
5543.075904,-3701.029710,-8886.707777,0.000000
5543.076229,-2516.700203,-8810.098227,1702.473667
5543.076553,-2220.617826,-8273.831378,74.020594
5543.076877,1332.370696,-8580.269578,666.185348
5543.077202,3775.050304,-7431.126331,-1332.370696
5543.077526,4071.132681,-9346.365076,-518.144159
5543.077851,4441.235652,-7431.126331,-1628.453072
5543.078175,2664.741391,-9269.755526,-962.267725
5543.078500,74.020594,-8580.269578,-1110.308913
5543.078824,-1036.288319,-9116.536426,296.082377
5543.079148,-2146.597232,-8810.098227,-370.102971
5543.079473,-3034.844362,-9116.536426,666.185348
5543.079797,-1480.411884,-8427.050478,444.123565
5543.080122,-222.061783,-8273.831378,666.185348
5543.080446,2072.576638,-8427.050478,0.000000
5543.080770,2886.803174,-8503.660028,-370.102971
5543.081095,3182.885551,-8350.440928,-370.102971
5543.081419,2368.659014,-8427.050478,-814.226536
5543.081744,814.226536,-8810.098227,-1184.329507
5543.082068,-1258.350101,-8197.221829,-222.061783
5543.082393,-2442.679609,-8503.660028,444.123565
5543.082717,-3108.864956,-9116.536426,74.020594
5543.083041,-1850.514855,-9116.536426,814.226536
5543.083366,518.144159,-8427.050478,444.123565
5543.083690,2220.617826,-8273.831378,-370.102971
5543.084015,3034.844362,-8886.707777,-1258.350101
5543.084339,4515.256246,-8580.269578,-1258.350101
5543.084663,2590.720797,-9039.926876,-962.267725
5543.084988,1406.391290,-8886.707777,-1036.288319
5543.085312,-1628.453072,-9116.536426,-592.164754
5543.085637,-3108.864956,-9116.536426,148.041188
5543.085961,-3034.844362,-9116.536426,148.041188
5543.086286,-1702.473667,-8503.660028,370.102971
5543.086610,-1258.350101,-8427.050478,518.144159
5543.086934,1406.391290,-8273.831378,0.000000
5543.087259,3034.844362,-8503.660028,0.000000
5543.087583,2812.782580,-7890.783629,-666.185348
5543.087908,3478.967927,-9269.755526,-1184.329507
5543.088232,518.144159,-8350.440928,-1406.391290
5543.088556,-1332.370696,-8963.317327,-222.061783
5543.088881,-2738.761985,-8810.098227,-148.041188
5543.089205,-2812.782580,-9193.145976,296.082377
5543.089530,-2590.720797,-8886.707777,518.144159
5543.089854,74.020594,-8044.002729,296.082377
5543.090179,1998.556043,-8427.050478,74.020594
5543.090503,3182.885551,-7890.783629,-518.144159
5543.090827,4663.297435,-8503.660028,-814.226536
5543.091152,3997.112087,-8197.221829,-1850.514855
5543.091476,1776.494261,-9346.365076,-1628.453072
5543.091801,-444.123565,-9039.926876,-666.185348
5543.092125,-2738.761985,-9806.022374,0.000000
5543.092449,-2590.720797,-9039.926876,0.000000
5543.092774,-1628.453072,-8656.879127,518.144159
5543.093098,-518.144159,-7890.783629,296.082377
5543.093423,74.020594,-8427.050478,296.082377
5543.093747,2664.741391,-7890.783629,-592.164754
5543.094072,3627.009116,-8273.831378,-740.205942
5543.094396,3849.070898,-8810.098227,-962.267725
5543.094720,1850.514855,-7660.954980,-1332.370696
5543.095045,1036.288319,-8656.879127,-518.144159
5543.095369,-1406.391290,-8197.221829,-148.041188
5543.095694,-2960.823768,-8580.269578,0.000000
5543.096018,-2516.700203,-8886.707777,1184.329507
5543.096342,-1406.391290,-7660.954980,444.123565
5543.096667,1184.329507,-7814.174080,148.041188
5543.096991,3552.988522,-8350.440928,-296.082377
5543.097316,3552.988522,-8503.660028,-1332.370696
5543.097640,3478.967927,-8503.660028,-1406.391290
5543.097965,2294.638420,-8656.879127,-962.267725
5543.098289,1184.329507,-9116.536426,-518.144159
5543.098613,-1480.411884,-8810.098227,-222.061783
5543.098938,-2442.679609,-9422.974625,-814.226536
5543.099262,-2960.823768,-9346.365076,148.041188
5543.099587,-2146.597232,-7737.564530,592.164754
5543.099911,370.102971,-8503.660028,0.000000
5543.100235,1702.473667,-8503.660028,148.041188
5543.100560,2812.782580,-8503.660028,148.041188
5543.100884,3997.112087,-8350.440928,-1628.453072
5543.101209,2220.617826,-9039.926876,-1258.350101
5543.101533,148.041188,-8580.269578,-1036.288319
5543.101858,-1406.391290,-9193.145976,-962.267725
5543.102182,-2812.782580,-8350.440928,0.000000
5543.102506,-4589.276840,-8810.098227,74.020594
5543.102831,-2072.576638,-9193.145976,518.144159
5543.103155,-814.226536,-8197.221829,0.000000
5543.103480,2072.576638,-8733.488677,-370.102971
5543.103804,3478.967927,-8044.002729,-1258.350101
5543.104128,4737.318029,-9039.926876,-666.185348
5543.104453,3108.864956,-8656.879127,-1924.535449
5543.104777,1628.453072,-8503.660028,-518.144159
5543.105102,74.020594,-8963.317327,-740.205942
5543.105426,-1776.494261,-9193.145976,-370.102971
5543.105751,-3552.988522,-8886.707777,296.082377
5543.106075,-2664.741391,-9193.145976,518.144159
5543.106399,-2368.659014,-8810.098227,518.144159
5543.106724,518.144159,-8044.002729,0.000000
5543.107048,2294.638420,-9269.755526,-518.144159
5543.107373,2368.659014,-8044.002729,-1110.308913
5543.107697,2368.659014,-9269.755526,-296.082377
5543.108021,518.144159,-7814.174080,-888.247130
5543.108346,-1406.391290,-9116.536426,-296.082377
5543.108670,-3034.844362,-7890.783629,222.061783
5543.108995,-3034.844362,-8427.050478,1332.370696
5543.109319,-1702.473667,-7814.174080,592.164754
5543.109644,-222.061783,-8656.879127,296.082377
5543.109968,2072.576638,-8503.660028,0.000000
5543.110292,3775.050304,-8503.660028,0.000000
5543.110617,4145.153275,-9116.536426,-814.226536
5543.110941,4219.173869,-8580.269578,-296.082377
5543.111266,2072.576638,-8580.269578,-1184.329507
5543.111590,444.123565,-9729.412825,-740.205942
5543.111914,-2146.597232,-8580.269578,0.000000
5543.112239,-2146.597232,-9346.365076,444.123565
5543.112563,-2516.700203,-8810.098227,888.247130
5543.112888,-1924.535449,-7890.783629,592.164754
5543.113212,0.000000,-8044.002729,74.020594
5543.113537,2220.617826,-8120.612279,-222.061783
5543.113861,2960.823768,-8886.707777,-1036.288319
5543.114185,3330.926739,-9039.926876,-740.205942
5543.114510,2220.617826,-8120.612279,-962.267725
5543.114834,592.164754,-8886.707777,-1110.308913
5543.115159,-666.185348,-8810.098227,0.000000
5543.115483,-1480.411884,-8197.221829,0.000000
5543.115808,-1850.514855,-8044.002729,592.164754
5543.116132,-740.205942,-7890.783629,370.102971
5543.116456,1628.453072,-8350.440928,-370.102971
5543.116781,2886.803174,-7967.393179,-1110.308913
5543.117105,3701.029710,-8427.050478,-740.205942
5543.117430,3478.967927,-8503.660028,-1850.514855
5543.117754,2442.679609,-8656.879127,-1702.473667
5543.118078,1036.288319,-9193.145976,-1406.391290
5543.118403,-1480.411884,-9193.145976,-814.226536
5543.118727,-2368.659014,-8197.221829,-370.102971
5543.119052,-2664.741391,-9193.145976,-148.041188
5543.119376,-1924.535449,-8350.440928,148.041188
5543.119701,74.020594,-8503.660028,222.061783
5543.120025,1258.350101,-7814.174080,-1036.288319
5543.120349,2146.597232,-8886.707777,0.000000
5543.120674,2960.823768,-8273.831378,-1924.535449
5543.120998,2368.659014,-9499.584175,-1036.288319
5543.121323,296.082377,-8044.002729,-1480.411884
5543.121647,-1628.453072,-8963.317327,-222.061783
5543.121971,-2664.741391,-8427.050478,592.164754
5543.122296,-2072.576638,-8656.879127,370.102971
5543.122620,-1480.411884,-8580.269578,0.000000
5543.122945,1184.329507,-7890.783629,-222.061783
5543.123269,2368.659014,-7584.345430,-296.082377
5543.123594,3108.864956,-9039.926876,-444.123565
5543.123918,3627.009116,-8580.269578,-1184.329507
5543.124242,3182.885551,-9116.536426,-888.247130
5543.124567,1702.473667,-8733.488677,-1628.453072
5543.124891,-1850.514855,-9193.145976,-1184.329507
5543.125216,-3552.988522,-8580.269578,-296.082377
5543.125540,-4145.153275,-9346.365076,592.164754
5543.125864,-3775.050304,-8044.002729,0.000000
5543.126189,-1850.514855,-9346.365076,518.144159
5543.126513,222.061783,-7814.174080,-666.185348
5543.126838,1776.494261,-8886.707777,148.041188
5543.127162,2516.700203,-7967.393179,-814.226536
5543.127487,1776.494261,-8810.098227,-444.123565
5543.127811,666.185348,-8044.002729,-666.185348
5543.128135,444.123565,-8733.488677,0.000000
5543.128460,-1924.535449,-8427.050478,148.041188
5543.128784,-2368.659014,-8273.831378,1184.329507
5543.129109,-2146.597232,-8733.488677,1036.288319
5543.129433,-666.185348,-8120.612279,888.247130
5543.129757,1184.329507,-7814.174080,148.041188
5543.130082,2738.761985,-7967.393179,-370.102971
5543.130406,3849.070898,-8120.612279,-740.205942
5543.130731,2812.782580,-8503.660028,-1258.350101
5543.131055,2368.659014,-8963.317327,-1110.308913
5543.131380,666.185348,-9652.803275,-666.185348
5543.131704,-1850.514855,-9346.365076,-296.082377
5543.132028,-3034.844362,-8886.707777,370.102971
5543.132353,-2960.823768,-7890.783629,962.267725
5543.132677,-1998.556043,-8427.050478,296.082377
5543.133002,814.226536,-8273.831378,0.000000
5543.133326,2368.659014,-8503.660028,-518.144159
5543.133650,3627.009116,-8656.879127,-962.267725
5543.133975,2960.823768,-8427.050478,-814.226536
5543.134299,1258.350101,-8580.269578,-444.123565
5543.134624,0.000000,-8580.269578,-296.082377
5543.134948,-222.061783,-8427.050478,0.000000
5543.135273,-1998.556043,-8580.269578,888.247130
5543.135597,-1850.514855,-8044.002729,370.102971
5543.135921,148.041188,-8427.050478,888.247130
5543.136246,1702.473667,-7967.393179,-444.123565
5543.136570,4071.132681,-9116.536426,-888.247130
5543.136895,4515.256246,-8273.831378,-1184.329507
5543.137219,3923.091493,-8886.707777,-1184.329507
5543.137543,2368.659014,-9193.145976,-1702.473667
5543.137868,592.164754,-9193.145976,-888.247130
5543.138192,-1480.411884,-9116.536426,-740.205942
5543.138517,-2738.761985,-9039.926876,-518.144159
5543.138841,-2812.782580,-9039.926876,296.082377
5543.139166,-2516.700203,-8580.269578,148.041188
5543.139490,-296.082377,-8197.221829,-518.144159
5543.139814,1850.514855,-8273.831378,-370.102971
5543.140139,3034.844362,-8503.660028,-370.102971
5543.140463,3701.029710,-8350.440928,-1406.391290
5543.140788,2664.741391,-9116.536426,-1036.288319
5543.141112,370.102971,-8273.831378,-1480.411884
5543.141436,-592.164754,-8580.269578,0.000000
5543.141761,-2516.700203,-8656.879127,0.000000
5543.142085,-2738.761985,-9039.926876,666.185348
5543.142410,-1184.329507,-7967.393179,74.020594
5543.142734,74.020594,-8427.050478,222.061783
5543.143059,2368.659014,-7890.783629,-962.267725
5543.143383,4071.132681,-8427.050478,-814.226536
5543.143707,2664.741391,-8963.317327,-1110.308913
5543.144032,3034.844362,-8580.269578,-1480.411884
5543.144356,1406.391290,-9116.536426,-962.267725
5543.144681,-1036.288319,-9116.536426,-814.226536
5543.145005,-2886.803174,-9116.536426,-518.144159
5543.145329,-5107.421000,-8963.317327,222.061783
5543.145654,-3849.070898,-8963.317327,740.205942
5543.145978,-1702.473667,-7967.393179,-222.061783
5543.146303,1036.288319,-8810.098227,518.144159
5543.146627,3478.967927,-7584.345430,74.020594
5543.146952,3627.009116,-7584.345430,-814.226536
5543.147276,3034.844362,-8963.317327,-1110.308913
5543.147600,1850.514855,-8580.269578,-74.020594
5543.147925,0.000000,-7814.174080,-1258.350101
5543.148249,-1554.432478,-9269.755526,814.226536
5543.148574,-2960.823768,-8120.612279,666.185348
5543.148898,-1850.514855,-8733.488677,814.226536
5543.149222,-1184.329507,-8273.831378,740.205942
5543.149547,1184.329507,-7890.783629,74.020594
5543.149871,2072.576638,-8733.488677,0.000000
5543.150196,3182.885551,-8427.050478,-1702.473667
5543.150520,2886.803174,-9116.536426,-1332.370696
5543.150845,2442.679609,-8350.440928,-2072.576638
5543.151169,-814.226536,-9269.755526,0.000000
5543.151493,-1110.308913,-8886.707777,-444.123565
5543.151818,-3256.906145,-8886.707777,592.164754
5543.152142,-2368.659014,-8733.488677,0.000000
5543.152467,-1628.453072,-9116.536426,370.102971
5543.152791,666.185348,-8197.221829,-296.082377
5543.153115,2516.700203,-8886.707777,0.000000
5543.153440,3404.947333,-7890.783629,-1332.370696
5543.153764,3404.947333,-8580.269578,-740.205942
5543.154089,3256.906145,-7431.126331,-666.185348
5543.154413,814.226536,-8886.707777,-666.185348
5543.154738,-222.061783,-9116.536426,0.000000
5543.155062,-2442.679609,-8273.831378,592.164754
5543.155386,-1702.473667,-8656.879127,1036.288319
5543.155711,-1628.453072,-7967.393179,814.226536
5543.156035,1554.432478,-8350.440928,-222.061783
5543.156360,3034.844362,-8733.488677,-740.205942
5543.156684,4293.194464,-9499.584175,-1184.329507
5543.157008,3627.009116,-8503.660028,-1850.514855
5543.157333,2664.741391,-8503.660028,-1776.494261
5543.157657,370.102971,-9039.926876,-1184.329507
5543.157982,-592.164754,-9269.755526,-814.226536
5543.158306,-2738.761985,-8350.440928,0.000000
5543.158631,-3108.864956,-9422.974625,0.000000
5543.158955,-2664.741391,-8197.221829,-666.185348
5543.159279,74.020594,-8733.488677,222.061783
5543.159604,2368.659014,-8580.269578,-1110.308913
5543.159928,4145.153275,-8733.488677,-666.185348
5543.160253,4441.235652,-8580.269578,-1184.329507
5543.160577,2590.720797,-9116.536426,-1776.494261
5543.160901,1184.329507,-8197.221829,-1628.453072
5543.161226,-888.247130,-8656.879127,148.041188
5543.161550,-2812.782580,-8427.050478,0.000000
5543.161875,-2442.679609,-8503.660028,370.102971
5543.162199,-2146.597232,-8886.707777,1036.288319
5543.162524,0.000000,-7584.345430,-444.123565
5543.162848,2220.617826,-8427.050478,148.041188
5543.163172,3552.988522,-8580.269578,-1036.288319
5543.163497,4959.379811,-8963.317327,-962.267725
5543.163821,4071.132681,-8656.879127,-1776.494261
5543.164146,2516.700203,-9806.022374,-1110.308913
5543.164470,0.000000,-8656.879127,-1184.329507
5543.164795,-2516.700203,-9269.755526,-74.020594
5543.165119,-4737.318029,-9193.145976,296.082377
5543.165443,-3256.906145,-9116.536426,148.041188
5543.165768,-2368.659014,-8810.098227,518.144159
5543.166092,-962.267725,-8350.440928,0.000000
5543.166417,1850.514855,-8580.269578,-444.123565
5543.166741,2146.597232,-8273.831378,-370.102971
5543.167065,2738.761985,-8580.269578,-740.205942
5543.167390,1480.411884,-7967.393179,-814.226536
5543.167714,0.000000,-8273.831378,-444.123565
5543.168039,-2146.597232,-8503.660028,370.102971
5543.168363,-1998.556043,-8350.440928,1110.308913
5543.168688,-2442.679609,-8733.488677,814.226536
5543.169012,-888.247130,-8197.221829,592.164754
5543.169336,814.226536,-7660.954980,518.144159
5543.169661,2590.720797,-8503.660028,296.082377
5543.169985,3404.947333,-8427.050478,-222.061783
5543.170310,3034.844362,-8656.879127,-1036.288319
5543.170634,2146.597232,-8886.707777,-1332.370696
5543.170959,370.102971,-8273.831378,-814.226536
5543.171283,-2220.617826,-9422.974625,370.102971
5543.171607,-2664.741391,-8427.050478,222.061783
5543.171932,-2294.638420,-8580.269578,518.144159
5543.172256,-1850.514855,-8733.488677,0.000000
5543.172581,-222.061783,-7967.393179,0.000000
5543.172905,2294.638420,-7890.783629,0.000000
5543.173230,3108.864956,-7890.783629,0.000000
5543.173554,4145.153275,-8044.002729,-592.164754
5543.173878,2294.638420,-8197.221829,-962.267725
5543.174203,1258.350101,-8963.317327,-1258.350101
5543.174527,-1554.432478,-8350.440928,-148.041188
5543.174852,-2072.576638,-9039.926876,518.144159
5543.175176,-962.267725,-8350.440928,518.144159
5543.175500,0.000000,-8427.050478,1110.308913
5543.175825,666.185348,-8197.221829,148.041188
5543.176149,3108.864956,-8044.002729,-444.123565
5543.176474,3775.050304,-8120.612279,-962.267725
5543.176798,4441.235652,-8886.707777,-1406.391290
5543.177123,2590.720797,-8810.098227,-1850.514855
5543.177447,1406.391290,-9959.241474,-1332.370696
5543.177771,-888.247130,-8810.098227,-962.267725
5543.178096,-1702.473667,-9576.193725,-222.061783
5543.178420,-3108.864956,-8963.317327,-148.041188
5543.178745,-1776.494261,-8963.317327,148.041188
5543.179069,-592.164754,-8197.221829,0.000000
5543.179394,2516.700203,-8503.660028,-592.164754
5543.179718,3775.050304,-8273.831378,-740.205942
5543.180042,3923.091493,-8503.660028,-888.247130
5543.180367,3849.070898,-8580.269578,-1776.494261
5543.180691,592.164754,-8656.879127,-1258.350101
5543.181016,-1110.308913,-9039.926876,-370.102971
5543.181340,-2886.803174,-9193.145976,296.082377
5543.181664,-2590.720797,-9039.926876,222.061783
5543.181989,-1776.494261,-8886.707777,518.144159
5543.182313,962.267725,-7737.564530,0.000000
5543.182638,2886.803174,-7814.174080,-1258.350101
5543.182962,3034.844362,-8503.660028,-666.185348
5543.183287,4145.153275,-8350.440928,-962.267725
5543.183611,3182.885551,-8427.050478,-962.267725
5543.183935,1406.391290,-9116.536426,-962.267725
5543.184260,-1036.288319,-8963.317327,-740.205942
5543.184584,-1850.514855,-9806.022374,-888.247130
5543.184909,-3775.050304,-9269.755526,-296.082377
5543.185233,-3404.947333,-8733.488677,-370.102971
5543.185558,-2516.700203,-8350.440928,592.164754
5543.185882,148.041188,-8350.440928,740.205942
5543.186206,2886.803174,-7431.126331,-592.164754
5543.186531,2886.803174,-8197.221829,-592.164754
5543.186855,4737.318029,-7967.393179,-592.164754
5543.187180,2220.617826,-8197.221829,-1332.370696
5543.187504,888.247130,-9346.365076,-518.144159
5543.187829,-2516.700203,-8810.098227,592.164754
5543.188153,-3108.864956,-9346.365076,1332.370696
5543.188477,-3923.091493,-8810.098227,444.123565
5543.188802,-1702.473667,-8733.488677,962.267725
5543.189126,-666.185348,-7431.126331,222.061783
5543.189451,1628.453072,-8810.098227,-148.041188
5543.189775,2368.659014,-7814.174080,0.000000
5543.190099,3182.885551,-7507.735880,-888.247130
5543.190424,3182.885551,-8350.440928,-518.144159
5543.190748,1702.473667,-8580.269578,-740.205942
5543.191073,0.000000,-9422.974625,0.000000
5543.191397,-1258.350101,-9422.974625,444.123565
5543.191722,-2220.617826,-9193.145976,666.185348
5543.192046,-1850.514855,-9269.755526,444.123565
5543.192370,444.123565,-8197.221829,1110.308913
5543.192695,1036.288319,-8580.269578,222.061783
5543.193019,1702.473667,-8656.879127,-666.185348
5543.193344,2664.741391,-7814.174080,-296.082377
5543.193668,814.226536,-9269.755526,-740.205942
5543.193993,222.061783,-8580.269578,-888.247130
5543.194317,-1554.432478,-8273.831378,-148.041188
5543.194641,-2516.700203,-8580.269578,370.102971
5543.194966,-2368.659014,-8273.831378,444.123565
5543.195290,-518.144159,-8350.440928,148.041188
5543.195615,2072.576638,-8810.098227,0.000000
5543.195939,3330.926739,-7354.516781,-1036.288319
5543.196264,4071.132681,-8656.879127,370.102971
5543.196588,3182.885551,-8580.269578,-1110.308913
5543.196912,2516.700203,-9116.536426,-1258.350101
5543.197237,666.185348,-8656.879127,-1110.308913
5543.197561,0.000000,-9193.145976,-1110.308913
5543.197886,-2072.576638,-9193.145976,-1628.453072
5543.198210,-2368.659014,-9193.145976,-296.082377
5543.198534,-1554.432478,-9116.536426,0.000000
5543.198859,74.020594,-7967.393179,-666.185348
5543.199183,3256.906145,-9806.022374,0.000000
5543.199508,4589.276840,-8580.269578,-1702.473667
5543.199832,4219.173869,-9269.755526,-1924.535449
5543.200157,3330.926739,-8886.707777,-1554.432478
5543.200481,1184.329507,-8503.660028,-1036.288319
5543.200805,-888.247130,-9346.365076,0.000000
5543.201130,-2960.823768,-9882.631924,0.000000
5543.201454,-3182.885551,-9422.974625,-222.061783
5543.201779,-3034.844362,-8810.098227,222.061783
5543.202103,-814.226536,-8810.098227,-518.144159
5543.202428,2516.700203,-8427.050478,-1110.308913
5543.202752,3627.009116,-7660.954980,-814.226536
5543.203076,4737.318029,-8503.660028,-444.123565
5543.203401,4071.132681,-8733.488677,-1110.308913
5543.203725,1628.453072,-8886.707777,-1258.350101
5543.204050,518.144159,-9729.412825,-1036.288319
5543.204374,-1628.453072,-9346.365076,-592.164754
5543.204698,-3552.988522,-9499.584175,0.000000
5543.205023,-2960.823768,-8580.269578,444.123565
5543.205347,-2294.638420,-8886.707777,0.000000
5543.205672,-1110.308913,-8350.440928,-148.041188
5543.205996,1480.411884,-8427.050478,222.061783
5543.206321,2146.597232,-7507.735880,-814.226536
5543.206645,1776.494261,-8427.050478,-222.061783
5543.206969,1036.288319,-7507.735880,-148.041188
5543.207294,-222.061783,-8733.488677,-592.164754
5543.207618,-1110.308913,-8656.879127,0.000000
5543.207943,-3108.864956,-8580.269578,814.226536
5543.208267,-3034.844362,-8503.660028,370.102971
5543.208592,-1406.391290,-8503.660028,1110.308913
5543.208916,74.020594,-7967.393179,666.185348
5543.209240,2886.803174,-8273.831378,74.020594
5543.209565,3627.009116,-7431.126331,0.000000
5543.209889,3627.009116,-8273.831378,-370.102971
5543.210214,2516.700203,-8197.221829,-888.247130
5543.210538,518.144159,-8733.488677,370.102971
5543.210863,-1036.288319,-8733.488677,148.041188
5543.211187,-2072.576638,-9422.974625,518.144159
5543.211511,-2664.741391,-8503.660028,370.102971
5543.211836,-2886.803174,-8810.098227,296.082377
5543.212160,0.000000,-8503.660028,740.205942
5543.212485,518.144159,-7814.174080,148.041188
5543.212809,3182.885551,-8580.269578,-370.102971
5543.213133,3108.864956,-7967.393179,-666.185348
5543.213458,2664.741391,-8656.879127,222.061783
5543.213782,814.226536,-8503.660028,0.000000
5543.214107,-592.164754,-8810.098227,148.041188
5543.214431,-2368.659014,-8963.317327,888.247130
5543.214756,-1406.391290,-8886.707777,296.082377
5543.215080,-962.267725,-8273.831378,0.000000
5543.215404,962.267725,-8733.488677,518.144159
5543.215729,1998.556043,-7507.735880,-296.082377
5543.216053,4071.132681,-9039.926876,-740.205942
5543.216378,3034.844362,-7584.345430,-592.164754
5543.216702,2664.741391,-8810.098227,-370.102971
5543.217027,962.267725,-8503.660028,-1184.329507
5543.217351,0.000000,-9652.803275,-592.164754
5543.217675,-1628.453072,-9652.803275,-962.267725
5543.218000,-1258.350101,-9652.803275,-444.123565
5543.218324,-1480.411884,-8350.440928,-518.144159
5543.218649,0.000000,-8733.488677,370.102971
5543.218973,1628.453072,-7814.174080,-296.082377
5543.219298,2886.803174,-8580.269578,-592.164754
5543.219622,3108.864956,-8810.098227,-1702.473667
5543.219946,3108.864956,-8197.221829,-1258.350101
5543.220271,1628.453072,-8503.660028,-1184.329507
5543.220595,-666.185348,-8580.269578,-740.205942
5543.220920,-1628.453072,-9346.365076,0.000000
5543.221244,-2886.803174,-8427.050478,-444.123565
5543.221568,-1776.494261,-9729.412825,222.061783
5543.221893,-444.123565,-7890.783629,0.000000
5543.222217,2146.597232,-8273.831378,-222.061783
5543.222542,3404.947333,-7890.783629,-962.267725
5543.222866,4663.297435,-8886.707777,-740.205942
5543.223191,3256.906145,-8044.002729,-1702.473667
5543.223515,2886.803174,-9269.755526,-1258.350101
5543.223839,-148.041188,-9269.755526,-1184.329507
5543.224164,-2294.638420,-9422.974625,-1184.329507
5543.224488,-3701.029710,-9116.536426,74.020594
5543.224813,-3108.864956,-8810.098227,0.000000
5543.225137,-1702.473667,-8963.317327,592.164754
5543.225462,1332.370696,-7967.393179,0.000000
5543.225786,1998.556043,-9346.365076,-296.082377
5543.226110,2590.720797,-8350.440928,-740.205942
5543.226435,2368.659014,-8503.660028,-1110.308913
5543.226759,1628.453072,-8656.879127,-444.123565
5543.227084,296.082377,-8044.002729,0.000000
5543.227408,-2072.576638,-8886.707777,222.061783
5543.227733,-3552.988522,-8197.221829,1184.329507
5543.228057,-3923.091493,-8120.612279,148.041188
5543.228381,-2072.576638,-8580.269578,296.082377
5543.228706,592.164754,-7584.345430,0.000000
5543.229030,2220.617826,-7737.564530,592.164754
5543.229355,3775.050304,-8273.831378,-592.164754
5543.229679,3478.967927,-8197.221829,518.144159
5543.230003,2368.659014,-8273.831378,-1036.288319
5543.230328,814.226536,-8656.879127,0.000000
5543.230652,-666.185348,-9193.145976,-370.102971
5543.230977,-1480.411884,-9039.926876,74.020594
5543.231301,-3182.885551,-8810.098227,-444.123565
5543.231626,-1924.535449,-8427.050478,-666.185348
5543.231950,0.000000,-8044.002729,666.185348
5543.232274,-444.123565,-7814.174080,222.061783
5543.232599,2516.700203,-8503.660028,74.020594
5543.232923,2368.659014,-7660.954980,-148.041188
5543.233248,3108.864956,-8810.098227,74.020594
5543.233572,888.247130,-7431.126331,-1554.432478
5543.233897,-296.082377,-9269.755526,740.205942
5543.234221,-2146.597232,-7890.783629,0.000000
5543.234545,-1998.556043,-9422.974625,888.247130
5543.234870,-814.226536,-7814.174080,0.000000
5543.235194,518.144159,-8580.269578,592.164754
5543.235519,2590.720797,-8350.440928,-888.247130
5543.235843,3552.988522,-8810.098227,-222.061783
5543.236167,3404.947333,-8044.002729,-1036.288319
5543.236492,2294.638420,-8350.440928,-962.267725
5543.236816,1332.370696,-9346.365076,-518.144159
5543.237141,-740.205942,-8810.098227,-962.267725
5543.237465,-666.185348,-8963.317327,-148.041188
5543.237790,-1776.494261,-8963.317327,-370.102971
5543.238114,-1036.288319,-9116.536426,-888.247130
5543.238438,1258.350101,-7890.783629,0.000000
5543.238763,2590.720797,-8503.660028,0.000000
5543.239087,3108.864956,-8273.831378,-148.041188
5543.239412,3627.009116,-8427.050478,-1036.288319
5543.239736,1998.556043,-9422.974625,-888.247130
5543.240061,0.000000,-8350.440928,-1406.391290
5543.240385,-1406.391290,-8580.269578,0.000000
5543.240709,-2960.823768,-8810.098227,0.000000
5543.241034,-1702.473667,-8733.488677,592.164754
5543.241358,-2072.576638,-8044.002729,-518.144159
5543.241683,888.247130,-8733.488677,148.041188
5543.242007,1850.514855,-7584.345430,-1258.350101
5543.242332,4293.194464,-9499.584175,0.000000
5543.242656,3775.050304,-7890.783629,-1332.370696
5543.242980,3552.988522,-8810.098227,-1480.411884
5543.243305,1924.535449,-9039.926876,-666.185348
5543.243629,-296.082377,-9269.755526,-962.267725
5543.243954,-2442.679609,-10112.460574,-518.144159
5543.244278,-3552.988522,-8886.707777,-1184.329507
5543.244602,-2886.803174,-9806.022374,148.041188
5543.244927,-2220.617826,-8197.221829,-444.123565
5543.245251,1110.308913,-8273.831378,74.020594
5543.245576,2516.700203,-7584.345430,-222.061783
5543.245900,3552.988522,-8273.831378,-444.123565
5543.246225,3182.885551,-7890.783629,-518.144159
5543.246549,2072.576638,-8350.440928,-1110.308913
5543.246873,518.144159,-9039.926876,148.041188
5543.247198,-2294.638420,-8427.050478,-444.123565
5543.247522,-3256.906145,-9882.631924,-148.041188
5543.247847,-4589.276840,-9959.241474,148.041188
5543.248171,-4441.235652,-7584.345430,740.205942
5543.248496,-740.205942,-7890.783629,-740.205942
5543.248820,0.000000,-8503.660028,0.000000
5543.249144,2590.720797,-7431.126331,-444.123565
5543.249469,2294.638420,-8580.269578,0.000000
5543.249793,2368.659014,-8810.098227,-888.247130
5543.250118,888.247130,-7660.954980,0.000000
5543.250442,-1258.350101,-8810.098227,-148.041188
5543.250767,-1036.288319,-9959.241474,-444.123565
5543.251091,-1998.556043,-9346.365076,148.041188
5543.251415,-1184.329507,-8963.317327,222.061783
5543.251740,-592.164754,-8963.317327,-148.041188
5543.252064,814.226536,-7584.345430,74.020594
5543.252389,2368.659014,-7814.174080,148.041188
5543.252713,2886.803174,-8427.050478,-518.144159
5543.253037,1776.494261,-7431.126331,-592.164754
5543.253362,592.164754,-8044.002729,-740.205942
5543.253686,-1332.370696,-8273.831378,222.061783
5543.254011,-1850.514855,-8350.440928,0.000000
5543.254335,-2886.803174,-9499.584175,148.041188
5543.254660,-1776.494261,-9039.926876,592.164754
5543.254984,814.226536,-8197.221829,0.000000
5543.255308,2072.576638,-8273.831378,-1332.370696
5543.255633,3330.926739,-8580.269578,74.020594
5543.255957,3775.050304,-8120.612279,-962.267725
5543.256282,3330.926739,-9422.974625,-444.123565
5543.256606,1924.535449,-8273.831378,-1036.288319
5543.256931,0.000000,-9193.145976,-666.185348
5543.257255,-1258.350101,-9269.755526,-962.267725
5543.257579,-1702.473667,-9499.584175,-888.247130
5543.257904,-1554.432478,-8886.707777,-296.082377
5543.258228,296.082377,-8350.440928,-518.144159
5543.258553,1702.473667,-7890.783629,-444.123565
5543.258877,2146.597232,-8503.660028,370.102971
5543.259201,2960.823768,-8273.831378,-962.267725
5543.259526,1702.473667,-8580.269578,-1702.473667
5543.259850,962.267725,-9116.536426,-1406.391290
5543.260175,-1110.308913,-8427.050478,-962.267725
5543.260499,-1776.494261,-9193.145976,0.000000
5543.260824,-1998.556043,-9116.536426,444.123565
5543.261148,-1998.556043,-8886.707777,0.000000
5543.261472,-222.061783,-8273.831378,148.041188
5543.261797,2294.638420,-8120.612279,-592.164754
5543.262121,3627.009116,-8120.612279,-444.123565
5543.262446,4811.338623,-8656.879127,-740.205942
5543.262770,4145.153275,-8350.440928,-1332.370696
5543.263095,2664.741391,-8810.098227,-1036.288319
5543.263419,666.185348,-8886.707777,-666.185348
5543.263744,-2220.617826,-9422.974625,-740.205942
5543.264068,-1924.535449,-8886.707777,-444.123565
5543.264392,-2294.638420,-9039.926876,0.000000
5543.264717,-1554.432478,-9116.536426,-370.102971
5543.265041,666.185348,-8580.269578,0.000000
5543.265366,1850.514855,-7890.783629,-666.185348
5543.265690,2220.617826,-8503.660028,-666.185348
5543.266015,2738.761985,-8503.660028,-1036.288319
5543.266339,518.144159,-8197.221829,-370.102971
5543.266663,-592.164754,-8886.707777,-148.041188
5543.266988,-2294.638420,-8810.098227,444.123565
5543.267312,-3404.947333,-10112.460574,-296.082377
5543.267637,-2664.741391,-8963.317327,-296.082377
5543.267961,-2368.659014,-8120.612279,370.102971
5543.268286,222.061783,-7967.393179,222.061783
5543.268610,2516.700203,-8273.831378,222.061783
5543.268935,3552.988522,-8120.612279,148.041188
5543.269259,3182.885551,-8197.221829,-518.144159
5543.269583,2812.782580,-8350.440928,-962.267725
5543.269908,888.247130,-8350.440928,-592.164754
5543.270232,-296.082377,-9193.145976,-444.123565
5543.270557,-2368.659014,-8810.098227,-444.123565
5543.270881,-3997.112087,-9346.365076,666.185348
5543.271206,-3478.967927,-8044.002729,222.061783
5543.271530,-666.185348,-8810.098227,1036.288319
5543.271855,666.185348,-8044.002729,-518.144159
5543.272179,3330.926739,-8120.612279,518.144159
5543.272503,3552.988522,-7737.564530,-740.205942
5543.272828,2368.659014,-8810.098227,-592.164754
5543.273152,1036.288319,-7507.735880,-1406.391290
5543.273477,-740.205942,-9193.145976,666.185348
5543.273801,-3034.844362,-8273.831378,0.000000
5543.274126,-2368.659014,-9422.974625,1110.308913
5543.274450,-1332.370696,-8886.707777,518.144159
5543.274775,222.061783,-8733.488677,222.061783
5543.275099,2294.638420,-7967.393179,-666.185348
5543.275423,2960.823768,-8733.488677,-444.123565
5543.275748,3627.009116,-8810.098227,74.020594
5543.276072,2220.617826,-7814.174080,-1332.370696
5543.276397,1628.453072,-8963.317327,-148.041188
5543.276721,74.020594,-8044.002729,-1332.370696
5543.277046,-1110.308913,-9193.145976,-370.102971
5543.277370,-3108.864956,-8350.440928,-1258.350101
5543.277694,-740.205942,-9422.974625,222.061783
5543.278019,0.000000,-8273.831378,-518.144159
5543.278343,1184.329507,-9193.145976,666.185348
5543.278668,3775.050304,-7584.345430,-962.267725
5543.278992,3849.070898,-8886.707777,0.000000
5543.279317,3849.070898,-8350.440928,-1628.453072
5543.279641,2146.597232,-8350.440928,-962.267725
5543.279966,-296.082377,-8886.707777,-1850.514855
5543.280290,-1850.514855,-9576.193725,518.144159
5543.280614,-1480.411884,-8733.488677,-518.144159
5543.280939,-814.226536,-9346.365076,222.061783
5543.281263,-222.061783,-8350.440928,-296.082377
5543.281588,1554.432478,-8120.612279,-1036.288319
5543.281912,3330.926739,-8273.831378,-814.226536
5543.282237,4071.132681,-8656.879127,-1110.308913
5543.282561,3478.967927,-8503.660028,-1406.391290
5543.282886,1332.370696,-9346.365076,-1406.391290
5543.283210,0.000000,-9346.365076,-962.267725
5543.283534,-2146.597232,-9652.803275,-1406.391290
5543.283859,-2590.720797,-9499.584175,-592.164754
5543.284183,-1850.514855,-9499.584175,-370.102971
5543.284508,-1110.308913,-8273.831378,-592.164754
5543.284832,296.082377,-9193.145976,444.123565
5543.285157,2368.659014,-7660.954980,-592.164754
5543.285481,4071.132681,-9039.926876,0.000000
5543.285806,2886.803174,-8427.050478,-1406.391290
5543.286130,2368.659014,-8656.879127,-740.205942
5543.286454,-888.247130,-8427.050478,-740.205942
5543.286779,-2294.638420,-9576.193725,0.000000
5543.287103,-3923.091493,-8656.879127,-222.061783
5543.287428,-2812.782580,-9269.755526,814.226536
5543.287752,-1776.494261,-8120.612279,0.000000
5543.288077,1036.288319,-8503.660028,74.020594
5543.288401,2812.782580,-7814.174080,-222.061783
5543.288725,3478.967927,-8273.831378,-370.102971
5543.289050,2812.782580,-8350.440928,-1258.350101
5543.289374,1554.432478,-8350.440928,-370.102971
5543.289699,518.144159,-8810.098227,-222.061783
5543.290023,-1554.432478,-9116.536426,-518.144159
5543.290348,-2368.659014,-9116.536426,-222.061783
5543.290672,-2664.741391,-8886.707777,0.000000
5543.290997,-2664.741391,-8273.831378,74.020594
5543.291321,-962.267725,-8273.831378,0.000000
5543.291645,2294.638420,-7737.564530,1036.288319
5543.291970,1776.494261,-8503.660028,518.144159
5543.292294,3256.906145,-8273.831378,-592.164754
5543.292619,2368.659014,-8273.831378,0.000000
5543.292943,666.185348,-8273.831378,0.000000
5543.293268,-1850.514855,-8273.831378,-148.041188
5543.293592,-3330.926739,-9193.145976,444.123565
5543.293917,-3256.906145,-9116.536426,592.164754
5543.294241,-2812.782580,-7737.564530,0.000000
5543.294565,296.082377,-8350.440928,592.164754
5543.294890,1924.535449,-7354.516781,148.041188
5543.295214,3627.009116,-8656.879127,148.041188
5543.295539,3552.988522,-7967.393179,-740.205942
5543.295863,3775.050304,-8503.660028,-518.144159
5543.296188,2294.638420,-8733.488677,-814.226536
5543.296512,592.164754,-9116.536426,-370.102971
5543.296837,-1184.329507,-9193.145976,-592.164754
5543.297161,-2664.741391,-9193.145976,0.000000
5543.297485,-2294.638420,-9193.145976,148.041188
5543.297810,-1628.453072,-8427.050478,-518.144159
5543.298134,1258.350101,-8580.269578,222.061783
5543.298459,1628.453072,-7507.735880,148.041188
5543.298783,3404.947333,-8350.440928,-666.185348
5543.299108,3182.885551,-8120.612279,-888.247130
5543.299432,2442.679609,-8580.269578,-1702.473667
5543.299756,74.020594,-8963.317327,-1258.350101
5543.300081,-1406.391290,-9193.145976,148.041188
5543.300405,-2294.638420,-8656.879127,-296.082377
5543.300730,-1480.411884,-9193.145976,-444.123565
5543.301054,-296.082377,-9039.926876,-370.102971
5543.301379,1998.556043,-8044.002729,-740.205942
5543.301703,3330.926739,-8503.660028,-888.247130
5543.302028,3627.009116,-8350.440928,-814.226536
5543.302352,2960.823768,-8886.707777,-1332.370696
5543.302676,2146.597232,-8273.831378,-1406.391290
5543.303001,444.123565,-8810.098227,-962.267725
5543.303325,-740.205942,-8733.488677,-888.247130
5543.303650,-2294.638420,-9499.584175,-1110.308913
5543.303974,-1924.535449,-9576.193725,0.000000
5543.304299,-888.247130,-9116.536426,-296.082377
5543.304623,1406.391290,-8044.002729,-666.185348
5543.304948,2516.700203,-9039.926876,0.000000
5543.305272,2220.617826,-7890.783629,-370.102971
5543.305596,3034.844362,-8273.831378,-592.164754
5543.305921,1480.411884,-8427.050478,-1406.391290
5543.306245,-666.185348,-9269.755526,-1184.329507
5543.306570,-1110.308913,-8963.317327,0.000000
5543.306894,-2294.638420,-7890.783629,666.185348
5543.307219,-2590.720797,-8886.707777,74.020594
5543.307543,-1554.432478,-8656.879127,0.000000
5543.307868,888.247130,-8580.269578,-296.082377
5543.308192,2590.720797,-8197.221829,-296.082377
5543.308516,3627.009116,-8656.879127,-296.082377
5543.308841,3182.885551,-8197.221829,-1554.432478
5543.309165,2072.576638,-10342.289223,-444.123565
5543.309490,-1554.432478,-8197.221829,222.061783
5543.309814,-1480.411884,-8273.831378,-1332.370696
5543.310139,-3923.091493,-10342.289223,0.000000
5543.310463,-2738.761985,-8656.879127,-148.041188
5543.310787,-2072.576638,-8503.660028,518.144159
5543.311112,-962.267725,-8120.612279,-148.041188
5543.311436,1998.556043,-7890.783629,148.041188
5543.311761,2590.720797,-7431.126331,74.020594
5543.312085,2664.741391,-8503.660028,0.000000
5543.312410,2146.597232,-8120.612279,222.061783
5543.312734,-518.144159,-7814.174080,0.000000
5543.313059,-1628.453072,-9116.536426,0.000000
5543.313383,-2220.617826,-8810.098227,-148.041188
5543.313707,-2072.576638,-9039.926876,74.020594
5543.314032,-1998.556043,-7660.954980,370.102971
5543.314356,-814.226536,-8810.098227,370.102971
5543.314681,444.123565,-7890.783629,148.041188
5543.315005,1998.556043,-7890.783629,666.185348
5543.315330,3108.864956,-7890.783629,-222.061783
5543.315654,2960.823768,-8503.660028,-962.267725
5543.315979,1554.432478,-9039.926876,-888.247130
5543.316303,-814.226536,-8503.660028,-1184.329507
5543.316627,-2516.700203,-9346.365076,-740.205942
5543.316952,-2368.659014,-8427.050478,74.020594
5543.317276,-1924.535449,-9193.145976,296.082377
5543.317601,-148.041188,-8503.660028,222.061783
5543.317925,962.267725,-8427.050478,0.000000
5543.318250,4737.318029,-7814.174080,-592.164754
5543.318574,3552.988522,-8733.488677,-888.247130
5543.318899,2664.741391,-8197.221829,-888.247130
5543.319223,1406.391290,-7660.954980,-222.061783
5543.319547,-666.185348,-8963.317327,0.000000
5543.319872,-1702.473667,-9652.803275,-222.061783
5543.320196,-1184.329507,-8656.879127,0.000000
5543.320521,-1702.473667,-8963.317327,-370.102971
5543.320845,888.247130,-8273.831378,-296.082377
5543.321170,1628.453072,-7890.783629,-1184.329507
5543.321494,2886.803174,-8810.098227,222.061783
5543.321818,3701.029710,-7660.954980,-814.226536
5543.322143,3552.988522,-8733.488677,-444.123565
5543.322467,1924.535449,-9193.145976,-888.247130
5543.322792,1924.535449,-9193.145976,-1406.391290
5543.323116,-592.164754,-9039.926876,-1776.494261
5543.323441,-2294.638420,-9729.412825,-592.164754
5543.323765,-1702.473667,-9116.536426,-888.247130
5543.324090,-888.247130,-8503.660028,0.000000
5543.324414,1258.350101,-8120.612279,666.185348
5543.324738,2590.720797,-8350.440928,-592.164754
5543.325063,3182.885551,-7814.174080,-888.247130
5543.325387,2664.741391,-8580.269578,-296.082377
5543.325712,2590.720797,-8733.488677,-1554.432478
5543.326036,370.102971,-9729.412825,-666.185348
5543.326361,-2072.576638,-8273.831378,-740.205942
5543.326685,-2738.761985,-9422.974625,74.020594
5543.327010,-2960.823768,-8350.440928,-814.226536
5543.327334,-1924.535449,-9269.755526,222.061783
5543.327658,1554.432478,-7584.345430,-740.205942
5543.327983,2368.659014,-8580.269578,-444.123565
5543.328307,2590.720797,-8273.831378,-444.123565
5543.328632,3034.844362,-8273.831378,-370.102971
5543.328956,1628.453072,-8273.831378,-962.267725
5543.329281,0.000000,-9269.755526,-444.123565
5543.329605,-1110.308913,-8503.660028,-592.164754
5543.329930,-2072.576638,-9806.022374,-518.144159
5543.330254,-3552.988522,-8580.269578,-666.185348
5543.330578,-2368.659014,-9193.145976,296.082377
5543.330903,-296.082377,-7814.174080,666.185348
5543.331227,666.185348,-7890.783629,740.205942
5543.331552,3108.864956,-8120.612279,-518.144159
5543.331876,3330.926739,-8733.488677,-296.082377
5543.332201,1924.535449,-7967.393179,-1036.288319
5543.332525,962.267725,-8350.440928,0.000000
5543.332849,-1258.350101,-8427.050478,222.061783
5543.333174,-2664.741391,-8963.317327,148.041188
5543.333498,-3478.967927,-8886.707777,888.247130
5543.333823,-2886.803174,-8197.221829,0.000000
5543.334147,-740.205942,-8810.098227,222.061783
5543.334472,1480.411884,-7967.393179,0.000000
5543.334796,3108.864956,-8273.831378,370.102971
5543.335121,2738.761985,-8273.831378,-666.185348
5543.335445,2146.597232,-8350.440928,-444.123565
5543.335769,2812.782580,-9193.145976,-592.164754
5543.336094,-518.144159,-8197.221829,-1332.370696
5543.336418,-1036.288319,-10035.851024,888.247130
5543.336743,-3627.009116,-8044.002729,-888.247130
5543.337067,-2516.700203,-9806.022374,444.123565
5543.337392,-1110.308913,-7737.564530,-444.123565
5543.337716,444.123565,-8580.269578,1036.288319
5543.338041,3182.885551,-7431.126331,-814.226536
5543.338365,4219.173869,-7890.783629,-222.061783
5543.338689,3478.967927,-8120.612279,-296.082377
5543.339014,1998.556043,-8197.221829,-1258.350101
5543.339338,370.102971,-8886.707777,0.000000
5543.339663,-1924.535449,-7890.783629,-518.144159
5543.339987,-1554.432478,-9806.022374,296.082377
5543.340312,-1924.535449,-8503.660028,-666.185348
5543.340636,518.144159,-9193.145976,370.102971
5543.340961,2146.597232,-7431.126331,-888.247130
5543.341285,3478.967927,-9576.193725,296.082377
5543.341609,3552.988522,-7354.516781,-1628.453072
5543.341934,3108.864956,-9116.536426,-222.061783
5543.342258,2220.617826,-8963.317327,-666.185348
5543.342583,1258.350101,-8810.098227,-814.226536
5543.342907,-1480.411884,-9499.584175,-1332.370696
5543.343232,-2294.638420,-9039.926876,-666.185348
5543.343556,-2294.638420,-8120.612279,-666.185348
5543.343880,-148.041188,-9422.974625,-148.041188
5543.344205,1406.391290,-8273.831378,-518.144159
5543.344529,3330.926739,-8733.488677,0.000000
5543.344854,3404.947333,-8120.612279,-1110.308913
5543.345178,3034.844362,-9039.926876,-1184.329507
5543.345503,2516.700203,-8810.098227,-1036.288319
5543.345827,0.000000,-8963.317327,-1110.308913
5543.346152,-1406.391290,-9422.974625,-222.061783
5543.346476,-3034.844362,-9039.926876,-518.144159
5543.346800,-2664.741391,-8886.707777,222.061783
5543.347125,-666.185348,-8427.050478,-592.164754
5543.347449,1258.350101,-8350.440928,0.000000
5543.347774,2738.761985,-7814.174080,-1036.288319
5543.348098,3182.885551,-8503.660028,0.000000
5543.348423,3849.070898,-8427.050478,-1036.288319
5543.348747,2220.617826,-8273.831378,-1036.288319
5543.349072,1480.411884,-9729.412825,-1184.329507
5543.349396,-2220.617826,-9269.755526,-962.267725
5543.349720,-3108.864956,-10418.898773,74.020594
5543.350045,-4663.297435,-7967.393179,-222.061783
5543.350369,-1480.411884,-9116.536426,-296.082377
5543.350694,-962.267725,-8963.317327,-370.102971
5543.351018,2072.576638,-8350.440928,592.164754
5543.351343,2664.741391,-7201.297681,-592.164754
5543.351667,3330.926739,-9269.755526,74.020594
5543.351992,2146.597232,-7737.564530,-148.041188
5543.352316,666.185348,-8197.221829,0.000000
5543.352640,-1480.411884,-9652.803275,-296.082377
5543.352965,-3701.029710,-8733.488677,222.061783
5543.353289,-3775.050304,-8963.317327,0.000000
5543.353614,-3330.926739,-9193.145976,518.144159
5543.353938,-962.267725,-8886.707777,518.144159
5543.354263,666.185348,-7354.516781,0.000000
5543.354587,1480.411884,-8197.221829,740.205942
5543.354911,2516.700203,-8273.831378,-666.185348
5543.355236,3108.864956,-8733.488677,-888.247130
5543.355560,2516.700203,-8044.002729,-222.061783
5543.355885,0.000000,-8656.879127,-148.041188
5543.356209,-1036.288319,-9116.536426,-222.061783
5543.356534,-2442.679609,-8580.269578,74.020594
5543.356858,-1776.494261,-8886.707777,518.144159
5543.357183,-1554.432478,-7814.174080,0.000000
5543.357507,1036.288319,-8427.050478,888.247130
5543.357831,2368.659014,-8197.221829,444.123565
5543.358156,2886.803174,-8580.269578,0.000000
5543.358480,2368.659014,-7967.393179,-1406.391290
5543.358805,2368.659014,-8810.098227,-222.061783
5543.359129,222.061783,-8044.002729,0.000000
5543.359454,-2072.576638,-8810.098227,148.041188
5543.359778,-1924.535449,-8656.879127,0.000000
5543.360103,-2146.597232,-9116.536426,-444.123565
5543.360427,-1036.288319,-9039.926876,0.000000
5543.360751,1184.329507,-8810.098227,-518.144159
5543.361076,1924.535449,-8503.660028,0.000000
5543.361400,2220.617826,-8273.831378,-370.102971
5543.361725,3923.091493,-8733.488677,-814.226536
5543.362049,2738.761985,-9039.926876,-1036.288319
5543.362374,1332.370696,-8503.660028,-296.082377
5543.362698,296.082377,-8580.269578,-888.247130
5543.363022,-740.205942,-9806.022374,-666.185348
5543.363347,-1184.329507,-8197.221829,-1332.370696
5543.363671,-518.144159,-9422.974625,-666.185348
5543.363996,1110.308913,-7890.783629,-296.082377
5543.364320,2368.659014,-8580.269578,-296.082377
5543.364644,2886.803174,-8350.440928,-518.144159
5543.364969,2220.617826,-7814.174080,-1184.329507
5543.365293,2146.597232,-9039.926876,-814.226536
5543.365618,-148.041188,-9422.974625,-1480.411884
5543.365942,-1850.514855,-9039.926876,0.000000
5543.366266,-1776.494261,-8733.488677,-888.247130
5543.366591,-2220.617826,-9269.755526,0.000000
5543.366915,-296.082377,-8656.879127,-740.205942
5543.367240,1184.329507,-8810.098227,-518.144159
5543.367564,2220.617826,-8120.612279,-518.144159
5543.367888,3627.009116,-8656.879127,222.061783
5543.368213,3627.009116,-8044.002729,-1480.411884
5543.368537,2664.741391,-9116.536426,-1110.308913
5543.368862,1110.308913,-8656.879127,-1184.329507
5543.369186,-962.267725,-9193.145976,-296.082377
5543.369510,-3182.885551,-9116.536426,-888.247130
5543.369835,-2664.741391,-9499.584175,0.000000
5543.370159,-1480.411884,-8503.660028,-592.164754
5543.370484,0.000000,-8427.050478,296.082377
5543.370808,1702.473667,-7890.783629,-444.123565
5543.371132,2368.659014,-7507.735880,296.082377
5543.371457,3108.864956,-8427.050478,-444.123565
5543.371781,2590.720797,-8044.002729,-222.061783
5543.372106,370.102971,-8120.612279,-666.185348
5543.372430,-888.247130,-9652.803275,148.041188
5543.372754,-3552.988522,-8273.831378,-444.123565
5543.373079,-3627.009116,-9193.145976,666.185348
5543.373403,-3404.947333,-7890.783629,-666.185348
5543.373727,-814.226536,-8810.098227,814.226536
5543.374052,962.267725,-7584.345430,0.000000
5543.374376,2072.576638,-8503.660028,518.144159
5543.374701,2738.761985,-7584.345430,74.020594
5543.375025,2886.803174,-8733.488677,592.164754
5543.375349,1924.535449,-7890.783629,-1036.288319
5543.375674,-148.041188,-9039.926876,-148.041188
5543.375998,-1998.556043,-8810.098227,-222.061783
5543.376323,-2146.597232,-9116.536426,518.144159
5543.376647,-2812.782580,-8197.221829,-222.061783
5543.376971,-814.226536,-8656.879127,814.226536
5543.377296,518.144159,-7354.516781,222.061783
5543.377620,2368.659014,-9193.145976,592.164754
5543.377945,3478.967927,-8044.002729,-592.164754
5543.378269,2442.679609,-8503.660028,-148.041188
5543.378593,1554.432478,-8273.831378,-962.267725
5543.378918,-592.164754,-8810.098227,-148.041188
5543.379242,-2220.617826,-9422.974625,-666.185348
5543.379567,-2960.823768,-8886.707777,0.000000
5543.379891,-1924.535449,-8886.707777,-296.082377
5543.380215,-888.247130,-9116.536426,-518.144159
5543.380540,1332.370696,-8963.317327,0.000000
5543.380864,2368.659014,-8350.440928,74.020594
5543.381189,4219.173869,-8733.488677,-74.020594
5543.381513,3923.091493,-7660.954980,-1258.350101
5543.381837,3034.844362,-9806.022374,-1406.391290
5543.382162,740.205942,-8810.098227,-1480.411884
5543.382486,-1110.308913,-9806.022374,-888.247130
5543.382811,-2294.638420,-9193.145976,-1332.370696
5543.383135,-2146.597232,-9346.365076,-148.041188
5543.383459,-666.185348,-8963.317327,-888.247130
5543.383784,518.144159,-8810.098227,-296.082377
5543.384108,2516.700203,-7967.393179,-666.185348
5543.384432,3256.906145,-8273.831378,0.000000
5543.384757,3330.926739,-9269.755526,-1184.329507
5543.385081,2220.617826,-9193.145976,-962.267725
5543.385406,2072.576638,-8810.098227,-962.267725
5543.385730,-814.226536,-8963.317327,-518.144159
5543.386054,-1998.556043,-9652.803275,-592.164754
5543.386379,-2220.617826,-9499.584175,-222.061783
5543.386703,-296.082377,-8580.269578,-148.041188
5543.387028,592.164754,-8656.879127,-592.164754
5543.387352,2294.638420,-8273.831378,-222.061783
5543.387676,3034.844362,-8044.002729,-370.102971
5543.388001,2738.761985,-7660.954980,-1184.329507
5543.388325,3182.885551,-9269.755526,-962.267725
5543.388650,518.144159,-8044.002729,-1258.350101
5543.388974,-592.164754,-9039.926876,-666.185348
5543.389298,-2294.638420,-8273.831378,-1110.308913
5543.389623,-1850.514855,-9729.412825,-444.123565
5543.389947,-666.185348,-8503.660028,518.144159
5543.390272,814.226536,-8120.612279,-296.082377
5543.390596,1258.350101,-8197.221829,-148.041188
5543.390920,4219.173869,-8273.831378,222.061783
5543.391245,3256.906145,-8656.879127,-444.123565
5543.391569,2516.700203,-8427.050478,-518.144159
5543.391894,-814.226536,-8427.050478,518.144159
5543.392218,-1776.494261,-8120.612279,-888.247130
5543.392542,-2442.679609,-8580.269578,888.247130
5543.392867,-2960.823768,-8503.660028,0.000000
5543.393191,-1184.329507,-8503.660028,592.164754
5543.393516,-592.164754,-7431.126331,-592.164754
5543.393840,2368.659014,-8656.879127,1036.288319
5543.394164,3256.906145,-7124.688131,-370.102971
5543.394489,3256.906145,-9116.536426,0.000000
5543.394813,2294.638420,-7737.564530,-740.205942
5543.395138,888.247130,-8427.050478,-518.144159
5543.395462,-1406.391290,-9422.974625,-370.102971
5543.395786,-2442.679609,-9039.926876,-370.102971
5543.396111,-4071.132681,-8580.269578,0.000000
5543.396435,-3627.009116,-8886.707777,74.020594
5543.396759,-1924.535449,-8044.002729,0.000000
5543.397084,1850.514855,-8427.050478,444.123565
5543.397408,3627.009116,-7814.174080,222.061783
5543.397733,2886.803174,-8044.002729,0.000000
5543.398057,3701.029710,-8427.050478,0.000000
5543.398381,1480.411884,-8580.269578,-592.164754
5543.398706,222.061783,-8810.098227,-1036.288319
5543.399030,-2368.659014,-8963.317327,370.102971
5543.399355,-2664.741391,-9116.536426,-296.082377
5543.399679,-3034.844362,-8733.488677,0.000000
5543.400003,-1184.329507,-8580.269578,518.144159
5543.400328,814.226536,-8427.050478,296.082377
5543.400652,2960.823768,-8427.050478,-296.082377
5543.400977,3775.050304,-8273.831378,-444.123565
5543.401301,2960.823768,-8044.002729,-222.061783
5543.401625,2738.761985,-8963.317327,-1480.411884
5543.401950,1776.494261,-9039.926876,-666.185348
5543.402274,0.000000,-8733.488677,-1110.308913
5543.402599,-1776.494261,-9422.974625,-444.123565
5543.402923,-2886.803174,-8273.831378,-740.205942
5543.403247,-1702.473667,-9346.365076,74.020594
5543.403572,1258.350101,-8963.317327,-296.082377
5543.403896,2812.782580,-8273.831378,-148.041188
5543.404221,2886.803174,-7967.393179,-740.205942
5543.404545,3849.070898,-8120.612279,-1184.329507
5543.404869,2146.597232,-9116.536426,-1332.370696
5543.405194,0.000000,-9116.536426,-1036.288319
5543.405518,-666.185348,-8963.317327,-148.041188
5543.405843,-2294.638420,-8886.707777,-444.123565
5543.406167,-2146.597232,-10035.851024,-370.102971
5543.406491,-222.061783,-8120.612279,-592.164754
5543.406816,1036.288319,-9193.145976,-518.144159
5543.407140,3034.844362,-8120.612279,-962.267725
5543.407465,4441.235652,-8886.707777,148.041188
5543.407789,3701.029710,-7660.954980,-1258.350101
5543.408113,2442.679609,-9039.926876,-296.082377
5543.408438,1406.391290,-8810.098227,-1332.370696
5543.408762,-370.102971,-9806.022374,0.000000
5543.409086,-1480.411884,-8963.317327,-1554.432478
5543.409411,-2960.823768,-9269.755526,0.000000
5543.409735,-1554.432478,-8886.707777,-370.102971
5543.410060,148.041188,-8120.612279,-222.061783
5543.410384,1924.535449,-9116.536426,-222.061783
5543.410708,2886.803174,-7584.345430,0.000000
5543.411033,3849.070898,-8197.221829,-888.247130
5543.411357,1258.350101,-8733.488677,-888.247130
5543.411682,1110.308913,-8810.098227,-296.082377
5543.412006,-1628.453072,-8197.221829,-296.082377
5543.412330,-2960.823768,-9576.193725,592.164754
5543.412655,-2960.823768,-8120.612279,-222.061783
5543.412979,-1554.432478,-9269.755526,518.144159
5543.413304,-370.102971,-8044.002729,-222.061783
5543.413628,888.247130,-7737.564530,-518.144159
5543.413952,2294.638420,-8580.269578,222.061783
5543.414277,2516.700203,-7890.783629,-222.061783
5543.414601,1702.473667,-7890.783629,-1110.308913
5543.414926,0.000000,-9039.926876,-148.041188
5543.415250,-962.267725,-8580.269578,-370.102971
5543.415574,-2146.597232,-9193.145976,-888.247130
5543.415899,-3034.844362,-7737.564530,-444.123565
5543.416223,-1850.514855,-8733.488677,666.185348
5543.416548,-1184.329507,-7431.126331,-592.164754
5543.416872,1998.556043,-8656.879127,1036.288319
5543.417196,2886.803174,-7201.297681,518.144159
5543.417521,3108.864956,-8580.269578,-222.061783
5543.417845,3034.844362,-7967.393179,-370.102971
5543.418170,1332.370696,-8427.050478,74.020594
5543.418494,-888.247130,-8427.050478,-592.164754
5543.418818,-2590.720797,-9039.926876,-296.082377
5543.419143,-3256.906145,-9116.536426,222.061783
5543.419467,-2812.782580,-9039.926876,222.061783
5543.419791,-1258.350101,-8350.440928,222.061783
5543.420116,888.247130,-8197.221829,518.144159
5543.420440,2442.679609,-8120.612279,74.020594
5543.420765,4071.132681,-8273.831378,0.000000
5543.421089,3775.050304,-7737.564530,-962.267725
5543.421413,3108.864956,-8733.488677,0.000000
5543.421738,666.185348,-8656.879127,-444.123565
5543.422062,0.000000,-9346.365076,-888.247130
5543.422387,-1554.432478,-9269.755526,-370.102971
5543.422711,-2368.659014,-9652.803275,-518.144159
5543.423035,-1036.288319,-9346.365076,0.000000
5543.423360,444.123565,-8427.050478,0.000000
5543.423684,1998.556043,-8044.002729,-222.061783
5543.424009,3404.947333,-7814.174080,-148.041188
5543.424333,2886.803174,-8273.831378,-666.185348
5543.424657,2886.803174,-8350.440928,-222.061783
5543.424982,1554.432478,-8120.612279,-1110.308913
5543.425306,-592.164754,-9652.803275,-814.226536
5543.425631,-1628.453072,-8963.317327,-1406.391290
5543.425955,-1110.308913,-9116.536426,-148.041188
5543.426279,-1036.288319,-8503.660028,-592.164754
5543.426604,814.226536,-8810.098227,74.020594
5543.426928,1776.494261,-8120.612279,-370.102971
5543.427253,3478.967927,-9116.536426,-814.226536
5543.427577,3108.864956,-8273.831378,-1258.350101
5543.427901,2442.679609,-8886.707777,-1776.494261
5543.428226,1110.308913,-8427.050478,-1258.350101
5543.428550,370.102971,-9193.145976,-1554.432478
5543.428875,-1184.329507,-9193.145976,-518.144159
5543.429199,-1110.308913,-9116.536426,-1184.329507
5543.429523,814.226536,-9039.926876,-444.123565
5543.429848,-1036.288319,-8733.488677,-814.226536
5543.430172,2590.720797,-9193.145976,0.000000
5543.430497,2368.659014,-7737.564530,-1258.350101
5543.430821,3478.967927,-9806.022374,-296.082377
5543.431145,2368.659014,-8503.660028,-1406.391290
5543.431470,592.164754,-9576.193725,-444.123565
5543.431794,-2368.659014,-8427.050478,-666.185348
5543.432118,-3923.091493,-9346.365076,-296.082377
5543.432443,-3034.844362,-9039.926876,-296.082377
5543.432767,-1776.494261,-9269.755526,222.061783
5543.433092,444.123565,-8580.269578,74.020594
5543.433416,1480.411884,-8503.660028,0.000000
5543.433740,2590.720797,-8044.002729,-370.102971
5543.434065,3849.070898,-9039.926876,0.000000
5543.434389,2294.638420,-8120.612279,-1332.370696
5543.434714,1406.391290,-9269.755526,-222.061783
5543.435038,-1258.350101,-8733.488677,-740.205942
5543.435362,-2590.720797,-9806.022374,370.102971
5543.435687,-3627.009116,-8733.488677,-444.123565
5543.436011,-3404.947333,-9116.536426,444.123565
5543.436336,-2072.576638,-7584.345430,74.020594
5543.436660,0.000000,-7507.735880,740.205942
5543.436984,1184.329507,-7814.174080,0.000000
5543.437309,3627.009116,-8886.707777,-666.185348
5543.437633,3108.864956,-8886.707777,0.000000
5543.437958,0.000000,-6588.421283,-222.061783
5543.438282,1110.308913,-8580.269578,-814.226536
5543.438606,-1406.391290,-9882.631924,370.102971
5543.438931,-3034.844362,-8273.831378,444.123565
5543.439255,-2590.720797,-8580.269578,296.082377
5543.439580,-2664.741391,-8197.221829,444.123565
5543.439904,518.144159,-7737.564530,888.247130
5543.440228,1776.494261,-7048.078582,-296.082377
5543.440553,3182.885551,-9269.755526,296.082377
5543.440877,1924.535449,-7507.735880,-444.123565
5543.441202,2368.659014,-8273.831378,-814.226536
5543.441526,1702.473667,-8733.488677,-740.205942
5543.441850,-1184.329507,-9039.926876,-814.226536
5543.442175,-1924.535449,-9039.926876,-740.205942
5543.442499,-1480.411884,-8733.488677,296.082377
5543.442824,-1554.432478,-8427.050478,370.102971
5543.443148,518.144159,-8886.707777,0.000000
5543.443472,1998.556043,-7354.516781,-814.226536
5543.443797,2960.823768,-9269.755526,370.102971
5543.444121,3108.864956,-7890.783629,-1332.370696
5543.444445,4367.215058,-9039.926876,148.041188
5543.444770,296.082377,-8044.002729,-1110.308913
5543.445094,-222.061783,-9039.926876,-740.205942
5543.445419,-2664.741391,-9652.803275,148.041188
5543.445743,-1924.535449,-8580.269578,-740.205942
5543.446067,518.144159,-9346.365076,222.061783
5543.446392,444.123565,-8427.050478,-962.267725
5543.446716,2886.803174,-9116.536426,74.020594
5543.447041,3997.112087,-6818.249932,-1184.329507
5543.447365,3997.112087,-9729.412825,-444.123565
5543.447689,3182.885551,-8044.002729,-2368.659014
5543.448014,2072.576638,-9346.365076,-1628.453072
5543.448338,-1036.288319,-9346.365076,-444.123565
5543.448663,-1554.432478,-9806.022374,-1036.288319
5543.448987,-1480.411884,-9422.974625,-370.102971
5543.449311,-1628.453072,-8886.707777,-444.123565
5543.449636,-148.041188,-8197.221829,-1110.308913
5543.449960,2294.638420,-8886.707777,-148.041188
5543.450285,3034.844362,-8886.707777,-1110.308913
5543.450609,4367.215058,-9193.145976,-296.082377
5543.450933,3256.906145,-8810.098227,-1036.288319
5543.451258,962.267725,-8810.098227,0.000000
5543.451582,-370.102971,-8886.707777,-1036.288319
5543.451907,-3404.947333,-9882.631924,-444.123565
5543.452231,-3108.864956,-9269.755526,-740.205942
5543.452555,-3034.844362,-8810.098227,518.144159
5543.452880,-1406.391290,-8503.660028,148.041188
5543.453204,814.226536,-8197.221829,0.000000
5543.453529,2294.638420,-7507.735880,-592.164754
5543.453853,3256.906145,-9116.536426,-296.082377
5543.454177,2664.741391,-6894.859482,-1850.514855
5543.454502,1850.514855,-9576.193725,0.000000
5543.454826,-666.185348,-7890.783629,-1036.288319
5543.455150,-1332.370696,-9806.022374,-370.102971
5543.455475,-3330.926739,-7967.393179,0.000000
5543.455799,-1702.473667,-9499.584175,1480.411884
5543.456124,-1110.308913,-6818.249932,-370.102971
5543.456448,740.205942,-9039.926876,1036.288319
5543.456772,1702.473667,-7431.126331,-148.041188
5543.457097,2812.782580,-8044.002729,148.041188
5543.457421,1628.453072,-7814.174080,-592.164754
5543.457746,1258.350101,-8427.050478,296.082377
5543.458070,0.000000,-8273.831378,222.061783
5543.458394,-2294.638420,-8273.831378,222.061783
5543.458719,-3330.926739,-9422.974625,0.000000
5543.459043,-3330.926739,-8427.050478,666.185348
5543.459368,-1628.453072,-8886.707777,518.144159
5543.459692,518.144159,-8503.660028,1036.288319
5543.460016,1554.432478,-7584.345430,592.164754
5543.460341,2368.659014,-7967.393179,0.000000
5543.460665,2664.741391,-7737.564530,-222.061783
5543.460990,2072.576638,-8044.002729,-962.267725
5543.461314,1554.432478,-8733.488677,370.102971
5543.461638,-518.144159,-8580.269578,-148.041188
5543.461963,-1628.453072,-9269.755526,0.000000
5543.462287,-1036.288319,-8733.488677,0.000000
5543.462612,0.000000,-8427.050478,444.123565
5543.462936,962.267725,-8427.050478,0.000000
5543.463260,2664.741391,-8197.221829,0.000000
5543.463585,2960.823768,-8273.831378,-592.164754
5543.463909,2590.720797,-7737.564530,-814.226536
5543.464233,1998.556043,-8733.488677,-1110.308913
5543.464557,296.082377,-8810.098227,-666.185348
5543.464882,-1850.514855,-8733.488677,-888.247130
5543.465206,-2960.823768,-9193.145976,-888.247130
5543.465530,-2664.741391,-8886.707777,-444.123565
5543.465854,-1406.391290,-8733.488677,148.041188
5543.466179,2146.597232,-8580.269578,-222.061783
5543.466503,2220.617826,-7814.174080,-518.144159
5543.466827,3256.906145,-8120.612279,0.000000
5543.467152,4071.132681,-8733.488677,-1628.453072
5543.467476,3552.988522,-8580.269578,-1924.535449
5543.467800,2516.700203,-8886.707777,-1998.556043
5543.468124,518.144159,-8503.660028,-1184.329507
5543.468449,-1850.514855,-9422.974625,-962.267725
5543.468773,-2220.617826,-8810.098227,-518.144159
5543.469097,-1406.391290,-9576.193725,74.020594
5543.469421,-740.205942,-8044.002729,-962.267725
5543.469746,1554.432478,-9269.755526,296.082377
5543.470070,2960.823768,-7431.126331,-962.267725
5543.470394,3997.112087,-9346.365076,-1184.329507
5543.470718,3108.864956,-8350.440928,-1554.432478
5543.471043,1554.432478,-8580.269578,-814.226536
5543.471367,0.000000,-9193.145976,-814.226536
5543.471691,-1850.514855,-9422.974625,-592.164754
5543.472015,-2516.700203,-9193.145976,-592.164754
5543.472340,-2072.576638,-9806.022374,0.000000
5543.472664,-1480.411884,-8197.221829,222.061783
5543.472988,1258.350101,-8656.879127,296.082377
5543.473313,2220.617826,-7354.516781,0.000000
5543.473637,3701.029710,-8656.879127,0.000000
5543.473961,1776.494261,-7660.954980,-1036.288319
5543.474285,2368.659014,-9193.145976,-296.082377
5543.474610,-592.164754,-8733.488677,-1480.411884
5543.474934,-1036.288319,-9576.193725,-814.226536
5543.475258,-2146.597232,-8580.269578,0.000000
5543.475582,-2368.659014,-8503.660028,370.102971
5543.475907,-1332.370696,-8810.098227,962.267725
5543.476231,0.000000,-7431.126331,444.123565
5543.476555,2072.576638,-8886.707777,1184.329507
5543.476879,2294.638420,-7354.516781,-666.185348
5543.477204,2146.597232,-9193.145976,222.061783
5543.477528,148.041188,-7890.783629,-814.226536
5543.477852,-1332.370696,-8656.879127,-518.144159
5543.478176,-1924.535449,-7890.783629,-444.123565
5543.478501,-3997.112087,-8580.269578,444.123565
5543.478825,-3775.050304,-8273.831378,0.000000
5543.479149,-1332.370696,-8197.221829,814.226536
5543.479474,592.164754,-8733.488677,518.144159
5543.479798,2368.659014,-7584.345430,740.205942
5543.480122,2590.720797,-7507.735880,740.205942
5543.480446,2590.720797,-7354.516781,-518.144159
5543.480771,962.267725,-8197.221829,-370.102971
5543.481095,962.267725,-9116.536426,-1332.370696
5543.481419,-1184.329507,-8580.269578,0.000000
5543.481743,-1998.556043,-8810.098227,-962.267725
5543.482068,-2072.576638,-9806.022374,444.123565
5543.482392,-1036.288319,-8197.221829,0.000000
5543.482716,222.061783,-8503.660028,148.041188
5543.483040,2590.720797,-8656.879127,888.247130
5543.483365,1998.556043,-7814.174080,-296.082377
5543.483689,4367.215058,-9729.412825,518.144159
5543.484013,2590.720797,-7354.516781,-1258.350101
5543.484337,740.205942,-9499.584175,0.000000
5543.484662,0.000000,-8273.831378,-962.267725
5543.484986,-1628.453072,-9346.365076,0.000000
5543.485310,-2220.617826,-9039.926876,-592.164754
5543.485635,-1554.432478,-8733.488677,222.061783
5543.485959,222.061783,-8580.269578,0.000000
5543.486283,1924.535449,-8044.002729,0.000000
5543.486607,3627.009116,-8503.660028,-444.123565
5543.486932,4515.256246,-8580.269578,-888.247130
5543.487256,3775.050304,-8120.612279,-1924.535449
5543.487580,2960.823768,-8963.317327,-814.226536
5543.487904,148.041188,-8733.488677,-962.267725
5543.488229,0.000000,-9499.584175,-1258.350101
5543.488553,-1702.473667,-9039.926876,-1258.350101
5543.488877,0.000000,-9269.755526,-888.247130
5543.489201,222.061783,-8350.440928,-444.123565
5543.489526,2072.576638,-8427.050478,0.000000
5543.489850,2812.782580,-8044.002729,-592.164754
5543.490174,3182.885551,-9116.536426,-148.041188
5543.490499,2442.679609,-8503.660028,-1406.391290
5543.490823,2220.617826,-9193.145976,-814.226536
5543.491147,370.102971,-8810.098227,-1480.411884
5543.491471,-2368.659014,-8503.660028,-592.164754
5543.491796,-1924.535449,-9193.145976,0.000000
5543.492120,-2664.741391,-8733.488677,0.000000
5543.492444,-1554.432478,-9116.536426,0.000000
5543.492768,1628.453072,-7737.564530,-592.164754
5543.493093,3478.967927,-8656.879127,-296.082377
5543.493417,2886.803174,-7277.907231,-1110.308913
5543.493741,4145.153275,-8120.612279,-740.205942
5543.494065,2368.659014,-7660.954980,-1924.535449
5543.494390,296.082377,-9806.022374,888.247130
5543.494714,-962.267725,-8197.221829,-740.205942
5543.495038,-2664.741391,-9806.022374,-370.102971
5543.495362,-2146.597232,-8656.879127,-592.164754
5543.495687,-1332.370696,-8810.098227,0.000000
5543.496011,-370.102971,-8120.612279,296.082377
5543.496335,666.185348,-7967.393179,666.185348
5543.496660,1184.329507,-8656.879127,74.020594
5543.496984,962.267725,-8810.098227,-222.061783
5543.497308,888.247130,-8810.098227,-666.185348
5543.497632,148.041188,-8427.050478,-592.164754
5543.497957,0.000000,-8886.707777,444.123565
5543.498281,-3108.864956,-7967.393179,-592.164754
5543.498605,-2516.700203,-9576.193725,1110.308913
5543.498929,-2146.597232,-7201.297681,0.000000
5543.499254,222.061783,-9116.536426,2442.679609
5543.499578,1036.288319,-6818.249932,74.020594
5543.499902,3552.988522,-8886.707777,1036.288319
5543.500226,2812.782580,-7048.078582,-1184.329507
5543.500551,2442.679609,-9269.755526,-962.267725
5543.500875,1184.329507,-8273.831378,-370.102971
5543.501199,-1850.514855,-8656.879127,0.000000
5543.501523,-2812.782580,-9193.145976,0.000000
5543.501848,-2886.803174,-9039.926876,296.082377
5543.502172,-1258.350101,-9193.145976,148.041188
5543.502496,-1110.308913,-8580.269578,0.000000
5543.502821,2220.617826,-8120.612279,148.041188
5543.503145,1924.535449,-7660.954980,-222.061783
5543.503469,2294.638420,-8733.488677,-592.164754
5543.503793,2368.659014,-8273.831378,-962.267725
5543.504118,1036.288319,-9039.926876,-518.144159
5543.504442,-370.102971,-8886.707777,-592.164754
5543.504766,-2146.597232,-8810.098227,-370.102971
5543.505090,-2368.659014,-8733.488677,148.041188
5543.505415,-1628.453072,-8503.660028,0.000000
5543.505739,1036.288319,-8350.440928,518.144159
5543.506063,2294.638420,-7507.735880,-222.061783
5543.506387,3775.050304,-8427.050478,370.102971
5543.506712,3478.967927,-8580.269578,-814.226536
5543.507036,2442.679609,-8810.098227,-1258.350101
5543.507360,1924.535449,-8810.098227,-1184.329507
5543.507684,222.061783,-8886.707777,-740.205942
5543.508009,-962.267725,-9269.755526,-666.185348
5543.508333,-1998.556043,-9193.145976,-1110.308913
5543.508657,-962.267725,-9652.803275,-370.102971
5543.508982,1332.370696,-8427.050478,-518.144159
5543.509306,2368.659014,-8810.098227,740.205942
5543.509630,2960.823768,-7967.393179,-444.123565
5543.509954,4367.215058,-9422.974625,0.000000
5543.510279,2516.700203,-7967.393179,-2220.617826
5543.510603,1628.453072,-10112.460574,-962.267725
5543.510927,222.061783,-7814.174080,-1036.288319
5543.511251,-1628.453072,-9806.022374,-296.082377
5543.511576,-1702.473667,-8503.660028,-888.247130
5543.511900,-1184.329507,-9116.536426,1036.288319
5543.512224,-1110.308913,-8503.660028,-518.144159
5543.512548,1776.494261,-8580.269578,0.000000
5543.512873,3923.091493,-7814.174080,-1110.308913
5543.513197,4589.276840,-8886.707777,-1110.308913
5543.513521,3701.029710,-8427.050478,-1776.494261
5543.513845,1554.432478,-8886.707777,-888.247130
5543.514170,-814.226536,-8963.317327,-1110.308913
5543.514494,-2368.659014,-9499.584175,-296.082377
5543.514818,-3256.906145,-9499.584175,-1258.350101
5543.515143,-2960.823768,-9039.926876,0.000000
5543.515467,-2368.659014,-8273.831378,-740.205942
5543.515791,148.041188,-9116.536426,0.000000
5543.516115,1850.514855,-7584.345430,-370.102971
5543.516440,2738.761985,-9269.755526,666.185348
5543.516764,2886.803174,-8273.831378,-1110.308913
5543.517088,1924.535449,-8733.488677,0.000000
5543.517412,0.000000,-8810.098227,-592.164754
5543.517737,-2220.617826,-8963.317327,-370.102971
5543.518061,-3849.070898,-8580.269578,222.061783
5543.518385,-4219.173869,-8886.707777,666.185348
5543.518709,-3256.906145,-8044.002729,0.000000
5543.519034,0.000000,-8044.002729,666.185348
5543.519358,740.205942,-7354.516781,592.164754
5543.519682,3034.844362,-7507.735880,222.061783
5543.520006,3775.050304,-7507.735880,-592.164754
5543.520331,3404.947333,-8656.879127,-296.082377
5543.520655,814.226536,-8197.221829,-740.205942
5543.520979,-1036.288319,-8810.098227,444.123565
5543.521304,-1776.494261,-8810.098227,148.041188
5543.521628,-2294.638420,-9039.926876,0.000000
5543.521952,-888.247130,-9422.974625,444.123565
5543.522276,-740.205942,-7584.345430,518.144159
5543.522601,962.267725,-8656.879127,444.123565
5543.522925,1628.453072,-7507.735880,-148.041188
5543.523249,2294.638420,-8580.269578,444.123565
5543.523573,2516.700203,-7201.297681,-592.164754
5543.523898,1628.453072,-8656.879127,0.000000
5543.524222,148.041188,-8350.440928,-370.102971
5543.524546,-740.205942,-9193.145976,74.020594
5543.524870,-2294.638420,-7814.174080,-296.082377
5543.525195,-1480.411884,-8963.317327,222.061783
5543.525519,370.102971,-7890.783629,518.144159
5543.525843,1924.535449,-8197.221829,444.123565
5543.526167,3182.885551,-7814.174080,-296.082377
5543.526492,3256.906145,-8350.440928,-370.102971
5543.526816,2442.679609,-8503.660028,-962.267725
5543.527140,1628.453072,-8350.440928,-1184.329507
5543.527465,222.061783,-9039.926876,-296.082377
5543.527789,-740.205942,-9193.145976,-962.267725
5543.528113,-1406.391290,-9269.755526,-592.164754
5543.528437,-962.267725,-8503.660028,-962.267725
5543.528762,592.164754,-8656.879127,-222.061783
5543.529086,3404.947333,-8427.050478,-666.185348
5543.529410,3775.050304,-8810.098227,-814.226536
5543.529734,3923.091493,-8656.879127,-1332.370696
5543.530059,3034.844362,-8503.660028,-814.226536
5543.530383,1036.288319,-9346.365076,-1850.514855
5543.530707,0.000000,-9499.584175,-1110.308913
5543.531031,-1554.432478,-9193.145976,-296.082377
5543.531356,-3182.885551,-8733.488677,-592.164754
5543.531680,-1850.514855,-9193.145976,-370.102971
5543.532004,-444.123565,-8044.002729,-222.061783
5543.532329,1332.370696,-8810.098227,-222.061783
5543.532653,2516.700203,-7507.735880,-1480.411884
5543.532977,4441.235652,-9806.022374,-148.041188
5543.533301,3108.864956,-7737.564530,-2146.597232
5543.533626,3256.906145,-10035.851024,-888.247130
5543.533950,518.144159,-8273.831378,-2220.617826
5543.534274,-740.205942,-10801.946522,444.123565
5543.534598,-2368.659014,-8350.440928,-1628.453072
5543.534923,-2072.576638,-9806.022374,666.185348
5543.535247,-1702.473667,-7660.954980,-1332.370696
5543.535571,444.123565,-9422.974625,518.144159
5543.535895,2220.617826,-7431.126331,-518.144159
5543.536220,3182.885551,-7890.783629,592.164754
5543.536544,2886.803174,-8273.831378,-1554.432478
5543.536868,1554.432478,-8810.098227,-444.123565
5543.537192,666.185348,-8963.317327,-592.164754
5543.537517,-1776.494261,-8503.660028,222.061783
5543.537841,-4515.256246,-8886.707777,666.185348
5543.538165,-3775.050304,-8580.269578,0.000000
5543.538490,-3108.864956,-8197.221829,592.164754
5543.538814,-1406.391290,-8044.002729,592.164754
5543.539138,1184.329507,-7201.297681,444.123565
5543.539462,2960.823768,-7584.345430,222.061783
5543.539787,2738.761985,-7660.954980,-814.226536
5543.540111,2368.659014,-8273.831378,222.061783
5543.540435,592.164754,-7354.516781,-592.164754
5543.540759,-962.267725,-8886.707777,444.123565
5543.541084,-2146.597232,-8963.317327,-296.082377
5543.541408,-2294.638420,-9193.145976,0.000000
5543.541732,-1924.535449,-8044.002729,1332.370696
5543.542056,-888.247130,-7660.954980,444.123565
5543.542381,1850.514855,-8044.002729,1480.411884
5543.542705,2072.576638,-7814.174080,74.020594
5543.543029,3108.864956,-8273.831378,-148.041188
5543.543353,1628.453072,-8427.050478,0.000000
5543.543678,148.041188,-7890.783629,-222.061783
5543.544002,-1924.535449,-8044.002729,-740.205942
5543.544326,-3034.844362,-9039.926876,0.000000
5543.544651,-2072.576638,-8656.879127,444.123565
5543.544975,-370.102971,-8503.660028,0.000000
5543.545299,0.000000,-8350.440928,148.041188
5543.545623,2960.823768,-7890.783629,814.226536
5543.545948,3256.906145,-8044.002729,-444.123565
5543.546272,4367.215058,-9269.755526,-444.123565
5543.546596,3552.988522,-8427.050478,-888.247130
5543.546920,2516.700203,-8273.831378,-1184.329507
5543.547245,-222.061783,-8886.707777,-814.226536
5543.547569,296.082377,-9806.022374,-1480.411884
5543.547893,-1776.494261,-8656.879127,-592.164754
5543.548217,-3478.967927,-9039.926876,-666.185348
5543.548542,148.041188,-9422.974625,-74.020594
5543.548866,1480.411884,-9116.536426,-592.164754
5543.549190,4663.297435,-10035.851024,0.000000
5543.549514,4071.132681,-7584.345430,-2516.700203
5543.549839,3552.988522,-9729.412825,-814.226536
5543.550163,2072.576638,-8197.221829,-2294.638420
5543.550487,740.205942,-9422.974625,-666.185348
5543.550812,-1184.329507,-9039.926876,-1184.329507
5543.551136,-2368.659014,-9346.365076,-444.123565
5543.551460,-2146.597232,-8580.269578,-740.205942
5543.551784,-370.102971,-8886.707777,74.020594
5543.552109,1554.432478,-8427.050478,-370.102971
5543.552433,2738.761985,-7890.783629,-1258.350101
5543.552757,3330.926739,-8886.707777,-888.247130
5543.553081,3478.967927,-8120.612279,-2072.576638
5543.553406,2072.576638,-8503.660028,-1924.535449
5543.553730,1998.556043,-9806.022374,-1110.308913
5543.554054,-592.164754,-9193.145976,-666.185348
5543.554378,-1480.411884,-9806.022374,-1480.411884
5543.554703,-2590.720797,-8733.488677,-814.226536
5543.555027,-444.123565,-8963.317327,0.000000
5543.555351,592.164754,-8656.879127,-222.061783
5543.555675,2368.659014,-8273.831378,0.000000
5543.556000,2590.720797,-8120.612279,-296.082377
5543.556324,3182.885551,-8733.488677,-1332.370696
5543.556648,1776.494261,-8427.050478,0.000000
5543.556973,444.123565,-8273.831378,-518.144159
5543.557297,-1924.535449,-8733.488677,0.000000
5543.557621,-1998.556043,-7814.174080,0.000000
5543.557945,-2812.782580,-9346.365076,296.082377
5543.558270,-1776.494261,-8580.269578,296.082377
5543.558594,-666.185348,-8503.660028,1036.288319
5543.558918,296.082377,-7584.345430,370.102971
5543.559242,2368.659014,-7967.393179,444.123565
5543.559567,2368.659014,-7814.174080,0.000000
5543.559891,1554.432478,-8350.440928,-888.247130
5543.560215,740.205942,-7660.954980,-370.102971
5543.560539,-1184.329507,-7890.783629,0.000000
5543.560864,-2368.659014,-8273.831378,444.123565
5543.561188,-2220.617826,-8733.488677,592.164754
5543.561512,-1628.453072,-8580.269578,592.164754
5543.561836,296.082377,-8120.612279,296.082377
5543.562161,2294.638420,-8197.221829,814.226536
5543.562485,2368.659014,-7967.393179,0.000000
5543.562809,2886.803174,-7431.126331,74.020594
5543.563134,2072.576638,-7967.393179,-222.061783
5543.563458,444.123565,-8580.269578,-666.185348
5543.563782,-1406.391290,-8810.098227,296.082377
5543.564106,-3775.050304,-8427.050478,0.000000
5543.564431,-3256.906145,-9499.584175,0.000000
5543.564755,-2960.823768,-8197.221829,-148.041188
5543.565079,-370.102971,-8886.707777,740.205942
5543.565404,814.226536,-7354.516781,74.020594
5543.565728,2812.782580,-8044.002729,-296.082377
5543.566052,3997.112087,-7967.393179,-370.102971
5543.566376,2368.659014,-8044.002729,-1110.308913
5543.566701,1628.453072,-9269.755526,-888.247130
5543.567025,148.041188,-9039.926876,-1406.391290
5543.567349,-888.247130,-9116.536426,-592.164754
5543.567674,-2368.659014,-8886.707777,-888.247130
5543.567998,-2368.659014,-9269.755526,0.000000
5543.568322,-518.144159,-8120.612279,-1036.288319
5543.568646,1850.514855,-8886.707777,148.041188
5543.568971,3849.070898,-8273.831378,-518.144159
5543.569295,3627.009116,-8733.488677,-518.144159
5543.569619,3701.029710,-8273.831378,-1406.391290
5543.569944,2368.659014,-9422.974625,-814.226536
5543.570268,-444.123565,-8656.879127,-2072.576638
5543.570592,-2146.597232,-9499.584175,-592.164754
5543.570916,-2294.638420,-8197.221829,-444.123565
5543.571241,-1850.514855,-9499.584175,148.041188
5543.571565,-444.123565,-8120.612279,-518.144159
5543.571889,1258.350101,-8810.098227,-370.102971
5543.572214,3256.906145,-8044.002729,-666.185348
5543.572538,3997.112087,-8273.831378,-592.164754
5543.572862,3701.029710,-8044.002729,-1184.329507
5543.573186,3034.844362,-8733.488677,-1702.473667
5543.573511,1110.308913,-8810.098227,-888.247130
5543.573835,0.000000,-9806.022374,-518.144159
5543.574159,-2146.597232,-8733.488677,-666.185348
5543.574484,-2072.576638,-9729.412825,-222.061783
5543.574808,-1628.453072,-8503.660028,-518.144159
5543.575132,222.061783,-8963.317327,-296.082377
5543.575456,2368.659014,-7660.954980,-592.164754
5543.575781,4367.215058,-8503.660028,0.000000
5543.576105,3923.091493,-8273.831378,-370.102971
5543.576429,2886.803174,-8810.098227,-666.185348
5543.576754,148.041188,-8656.879127,-222.061783
5543.577078,-1554.432478,-9269.755526,74.020594
5543.577402,-2294.638420,-8886.707777,0.000000
5543.577726,-3182.885551,-8963.317327,0.000000
5543.578051,-3182.885551,-8656.879127,296.082377
5543.578375,-1258.350101,-7890.783629,0.000000
5543.578699,1184.329507,-8120.612279,148.041188
