#time,accel_x,accel_y,accel_z
4402.196871,222.061783,-8886.707777,-444.123565
4402.197196,222.061783,-7737.564530,-370.102971
4402.197520,1036.288319,-8656.879127,-518.144159
4402.197844,518.144159,-8580.269578,-296.082377
4402.198169,518.144159,-8503.660028,296.082377
4402.198493,592.164754,-8656.879127,0.000000
4402.198818,592.164754,-8656.879127,222.061783
4402.199142,592.164754,-8580.269578,296.082377
4402.199467,518.144159,-8580.269578,148.041188
4402.199791,296.082377,-8503.660028,370.102971
4402.200116,74.020594,-8427.050478,-148.041188
4402.200440,518.144159,-8733.488677,444.123565
4402.200765,296.082377,-8427.050478,518.144159
4402.201089,444.123565,-8427.050478,444.123565
4402.201414,370.102971,-8427.050478,1036.288319
4402.201738,592.164754,-8350.440928,666.185348
4402.202063,370.102971,-8656.879127,592.164754
4402.202387,444.123565,-8197.221829,666.185348
4402.202712,444.123565,-8503.660028,740.205942
4402.203036,666.185348,-8580.269578,592.164754
4402.203361,370.102971,-8580.269578,962.267725
4402.203685,666.185348,-8580.269578,962.267725
4402.204010,370.102971,-8273.831378,518.144159
4402.204334,666.185348,-8427.050478,222.061783
4402.204659,296.082377,-8733.488677,592.164754
4402.204983,148.041188,-8503.660028,740.205942
4402.205307,370.102971,-8580.269578,814.226536
4402.205632,222.061783,-8503.660028,666.185348
4402.205956,444.123565,-8350.440928,444.123565
4402.206281,518.144159,-8810.098227,444.123565
4402.206605,592.164754,-8580.269578,370.102971
4402.206930,370.102971,-8733.488677,666.185348
4402.207254,592.164754,-8273.831378,148.041188
4402.207578,222.061783,-8580.269578,222.061783
4402.207903,444.123565,-8810.098227,0.000000
4402.208227,370.102971,-8656.879127,74.020594
4402.208552,370.102971,-8044.002729,370.102971
4402.208876,518.144159,-8503.660028,74.020594
4402.209201,370.102971,-8656.879127,0.000000
4402.209525,666.185348,-8580.269578,-370.102971
4402.209849,370.102971,-8733.488677,0.000000
4402.210174,518.144159,-8656.879127,-296.082377
4402.210498,222.061783,-8427.050478,-148.041188
4402.210823,592.164754,-8580.269578,0.000000
4402.211147,296.082377,-8350.440928,-296.082377
4402.211471,814.226536,-8810.098227,-518.144159
4402.211796,296.082377,-8503.660028,-518.144159
4402.212120,222.061783,-8273.831378,-518.144159
4402.212445,222.061783,-8503.660028,-888.247130
4402.212769,370.102971,-8733.488677,-814.226536
4402.213094,518.144159,-8503.660028,-740.205942
4402.213418,444.123565,-8503.660028,-814.226536
4402.213742,444.123565,-8273.831378,-592.164754
4402.214067,518.144159,-8503.660028,-814.226536
4402.214391,592.164754,-8580.269578,-1258.350101
4402.214716,444.123565,-8503.660028,-740.205942
4402.215040,0.000000,-8656.879127,-1036.288319
4402.215365,444.123565,-8733.488677,-1332.370696
4402.215689,888.247130,-9193.145976,-814.226536
4402.216013,370.102971,-8273.831378,-1332.370696
4402.216338,444.123565,-8886.707777,-962.267725
4402.216662,518.144159,-8503.660028,-1110.308913
4402.216987,814.226536,-8963.317327,-888.247130
4402.217311,1110.308913,-8656.879127,-1184.329507
4402.217635,814.226536,-8810.098227,-592.164754
4402.217960,370.102971,-8580.269578,-888.247130
4402.218284,370.102971,-8810.098227,-888.247130
4402.218609,814.226536,-9039.926876,-1184.329507
4402.218933,222.061783,-8656.879127,-888.247130
4402.219258,370.102971,-8427.050478,-962.267725
4402.219582,518.144159,-8963.317327,-962.267725
4402.219906,740.205942,-9499.584175,-1184.329507
4402.220231,370.102971,-8503.660028,-888.247130
4402.220555,370.102971,-9039.926876,-592.164754
4402.220880,518.144159,-8810.098227,-518.144159
4402.221204,518.144159,-9422.974625,-296.082377
4402.221529,296.082377,-8733.488677,-740.205942
4402.221853,370.102971,-8886.707777,-296.082377
4402.222177,518.144159,-9039.926876,-592.164754
4402.222502,296.082377,-8656.879127,-370.102971
4402.222826,0.000000,-8886.707777,-592.164754
4402.223151,296.082377,-8810.098227,-296.082377
4402.223475,222.061783,-8580.269578,-370.102971
4402.223800,444.123565,-8580.269578,-370.102971
4402.224124,148.041188,-9039.926876,-740.205942
4402.224448,370.102971,-8963.317327,-222.061783
4402.224773,0.000000,-8503.660028,74.020594
4402.225097,222.061783,-8810.098227,0.000000
4402.225422,518.144159,-8963.317327,-370.102971
4402.225746,296.082377,-8733.488677,-222.061783
4402.226070,444.123565,-8580.269578,-296.082377
4402.226395,222.061783,-8810.098227,-296.082377
4402.226719,444.123565,-8886.707777,-296.082377
4402.227044,74.020594,-8656.879127,-148.041188
4402.227368,296.082377,-8273.831378,0.000000
4402.227693,592.164754,-8656.879127,222.061783
4402.228017,814.226536,-8580.269578,74.020594
4402.228341,888.247130,-8427.050478,-296.082377
4402.228666,814.226536,-8656.879127,148.041188
4402.228990,888.247130,-8733.488677,370.102971
4402.229315,888.247130,-8427.050478,370.102971
4402.229639,666.185348,-8733.488677,296.082377
4402.229964,222.061783,-8427.050478,296.082377
4402.230288,296.082377,-8656.879127,518.144159
4402.230612,666.185348,-8733.488677,444.123565
4402.230937,740.205942,-8273.831378,444.123565
4402.231261,592.164754,-8810.098227,592.164754
4402.231586,666.185348,-8503.660028,444.123565
4402.231910,814.226536,-8580.269578,814.226536
4402.232234,962.267725,-8656.879127,518.144159
4402.232559,962.267725,-9193.145976,888.247130
4402.232883,592.164754,-8197.221829,814.226536
4402.233208,592.164754,-8810.098227,518.144159
4402.233532,444.123565,-8273.831378,518.144159
4402.233857,518.144159,-8427.050478,814.226536
4402.234181,370.102971,-8656.879127,444.123565
4402.234505,444.123565,-8273.831378,666.185348
4402.234830,370.102971,-8503.660028,518.144159
4402.235154,592.164754,-8197.221829,666.185348
4402.235479,666.185348,-8656.879127,1110.308913
4402.235803,592.164754,-8427.050478,222.061783
4402.236128,740.205942,-8503.660028,592.164754
4402.236452,666.185348,-8427.050478,518.144159
4402.236776,518.144159,-8350.440928,518.144159
4402.237101,222.061783,-8350.440928,370.102971
4402.237425,370.102971,-8120.612279,148.041188
4402.237750,148.041188,-8273.831378,296.082377
4402.238074,222.061783,-8044.002729,370.102971
4402.238398,370.102971,-8733.488677,666.185348
4402.238723,222.061783,-8273.831378,222.061783
4402.239047,222.061783,-8120.612279,0.000000
4402.239372,370.102971,-8427.050478,0.000000
4402.239696,444.123565,-8963.317327,222.061783
4402.240021,148.041188,-8273.831378,148.041188
4402.240345,296.082377,-8580.269578,0.000000
4402.240669,74.020594,-8350.440928,0.000000
4402.240994,0.000000,-8886.707777,0.000000
4402.241318,74.020594,-8427.050478,-222.061783
4402.241643,74.020594,-8580.269578,0.000000
4402.241967,148.041188,-8503.660028,-148.041188
4402.242292,370.102971,-8503.660028,-148.041188
4402.242616,222.061783,-8733.488677,0.000000
4402.242940,592.164754,-8810.098227,-296.082377
4402.243265,444.123565,-8197.221829,-444.123565
4402.243589,222.061783,-8810.098227,-444.123565
4402.243914,148.041188,-9422.974625,-222.061783
4402.244238,222.061783,-8656.879127,-444.123565
4402.244563,148.041188,-8656.879127,-740.205942
4402.244887,148.041188,-8810.098227,-444.123565
4402.245211,0.000000,-8886.707777,-370.102971
4402.245536,222.061783,-8656.879127,-592.164754
4402.245860,148.041188,-8350.440928,-518.144159
4402.246185,296.082377,-8656.879127,-518.144159
4402.246509,296.082377,-8733.488677,-592.164754
4402.246833,1110.308913,-8273.831378,-962.267725
4402.247158,222.061783,-8503.660028,-666.185348
4402.247482,518.144159,-8580.269578,-592.164754
4402.247807,370.102971,-8350.440928,-740.205942
4402.248131,444.123565,-9422.974625,-444.123565
4402.248456,444.123565,-8580.269578,-518.144159
4402.248780,518.144159,-8886.707777,-518.144159
4402.249104,444.123565,-8580.269578,-518.144159
4402.249429,296.082377,-8580.269578,-370.102971
4402.249753,592.164754,-8656.879127,-814.226536
4402.250078,518.144159,-8427.050478,-296.082377
4402.250402,518.144159,-8503.660028,-814.226536
4402.250727,148.041188,-8580.269578,-444.123565
4402.251051,666.185348,-8810.098227,-296.082377
4402.251375,666.185348,-8810.098227,-370.102971
4402.251700,444.123565,-8350.440928,-444.123565
4402.252024,592.164754,-8733.488677,-222.061783
4402.252349,370.102971,-8886.707777,-444.123565
4402.252673,444.123565,-8810.098227,-370.102971
4402.252997,518.144159,-8427.050478,-666.185348
4402.253322,444.123565,-9039.926876,-296.082377
4402.253646,444.123565,-8503.660028,0.000000
4402.253971,222.061783,-8963.317327,222.061783
4402.254295,222.061783,-8656.879127,-148.041188
4402.254620,518.144159,-8810.098227,0.000000
4402.254944,444.123565,-8580.269578,0.000000
4402.255268,370.102971,-9193.145976,444.123565
4402.255593,444.123565,-8656.879127,0.000000
4402.255917,444.123565,-8580.269578,0.000000
4402.256242,370.102971,-8427.050478,0.000000
4402.256566,222.061783,-8350.440928,0.000000
4402.256891,370.102971,-8733.488677,0.000000
4402.257215,296.082377,-8503.660028,222.061783
4402.257539,74.020594,-8503.660028,74.020594
4402.257864,222.061783,-8810.098227,222.061783
4402.258188,148.041188,-7737.564530,148.041188
4402.258513,370.102971,-8810.098227,0.000000
4402.258837,444.123565,-8427.050478,0.000000
4402.259162,444.123565,-8427.050478,0.000000
4402.259486,296.082377,-8273.831378,444.123565
4402.259810,222.061783,-8273.831378,0.000000
4402.260135,444.123565,-8580.269578,-296.082377
4402.260459,296.082377,-8656.879127,-74.020594
4402.260784,296.082377,-8503.660028,-222.061783
4402.261108,296.082377,-8656.879127,-444.123565
4402.261432,222.061783,-8427.050478,-370.102971
4402.261757,518.144159,-8197.221829,-296.082377
4402.262081,370.102971,-8273.831378,-370.102971
4402.262406,592.164754,-7660.954980,74.020594
4402.262730,444.123565,-8350.440928,-296.082377
4402.263055,444.123565,-8350.440928,-444.123565
4402.263379,370.102971,-8350.440928,-370.102971
4402.263703,222.061783,-8427.050478,-370.102971
4402.264028,592.164754,-7967.393179,-518.144159
4402.264352,296.082377,-8427.050478,-592.164754
4402.264677,222.061783,-8350.440928,-518.144159
4402.265001,444.123565,-8273.831378,-518.144159
4402.265326,444.123565,-8580.269578,-814.226536
4402.265650,444.123565,-8427.050478,-592.164754
4402.265974,296.082377,-8503.660028,-370.102971
4402.266299,296.082377,-8580.269578,-592.164754
4402.266623,592.164754,-8580.269578,-592.164754
4402.266948,296.082377,-8580.269578,-666.185348
4402.267272,0.000000,-8580.269578,-592.164754
4402.267596,296.082377,-8503.660028,-444.123565
4402.267921,222.061783,-8580.269578,-740.205942
4402.268245,222.061783,-8350.440928,-666.185348
4402.268570,370.102971,-8580.269578,-814.226536
4402.268894,444.123565,-8580.269578,-666.185348
4402.269219,370.102971,-8656.879127,-518.144159
4402.269543,148.041188,-8350.440928,-666.185348
4402.269867,148.041188,-8503.660028,-740.205942
4402.270192,296.082377,-8273.831378,-666.185348
4402.270516,296.082377,-8503.660028,-888.247130
4402.270841,888.247130,-8733.488677,-814.226536
4402.271165,370.102971,-8427.050478,-592.164754
4402.271490,222.061783,-8656.879127,-814.226536
4402.271814,148.041188,-8273.831378,-666.185348
4402.272138,222.061783,-8427.050478,-666.185348
4402.272463,296.082377,-8427.050478,-666.185348
4402.272787,370.102971,-8503.660028,-666.185348
4402.273112,148.041188,-8580.269578,-518.144159
4402.273436,296.082377,-8350.440928,-592.164754
4402.273760,296.082377,-7967.393179,-814.226536
4402.274085,296.082377,-8580.269578,-592.164754
4402.274409,296.082377,-8733.488677,-370.102971
4402.274734,370.102971,-8580.269578,-518.144159
4402.275058,370.102971,-8810.098227,-444.123565
4402.275383,444.123565,-8656.879127,-592.164754
4402.275707,518.144159,-8886.707777,-592.164754
4402.276031,296.082377,-8733.488677,-740.205942
4402.276356,296.082377,-8810.098227,-444.123565
4402.276680,518.144159,-8503.660028,-814.226536
4402.277005,592.164754,-8733.488677,-518.144159
4402.277329,518.144159,-8580.269578,-888.247130
4402.277654,370.102971,-9116.536426,-592.164754
4402.277978,888.247130,-8503.660028,-444.123565
4402.278302,592.164754,-8733.488677,-592.164754
4402.278627,370.102971,-8733.488677,-740.205942
4402.278951,666.185348,-9039.926876,-888.247130
4402.279276,592.164754,-9039.926876,-666.185348
4402.279600,370.102971,-8886.707777,-740.205942
4402.279925,444.123565,-8733.488677,-888.247130
4402.280249,592.164754,-9039.926876,-666.185348
4402.280573,518.144159,-8656.879127,-962.267725
4402.280898,1036.288319,-8810.098227,-888.247130
4402.281222,740.205942,-8733.488677,-1036.288319
4402.281547,740.205942,-8886.707777,-666.185348
4402.281871,888.247130,-8810.098227,-1110.308913
4402.282195,1332.370696,-8656.879127,-592.164754
4402.282520,888.247130,-8963.317327,-1110.308913
4402.282844,518.144159,-8810.098227,-962.267725
4402.283169,296.082377,-8810.098227,-962.267725
4402.283493,518.144159,-8963.317327,-296.082377
4402.283818,740.205942,-8580.269578,-962.267725
4402.284142,592.164754,-8733.488677,-1110.308913
4402.284466,888.247130,-8886.707777,-1184.329507
4402.284791,814.226536,-8656.879127,-1110.308913
4402.285115,1110.308913,-8273.831378,-962.267725
4402.285440,740.205942,-8580.269578,-1184.329507
4402.285764,740.205942,-8503.660028,-1332.370696
4402.286089,740.205942,-8656.879127,-1184.329507
4402.286413,962.267725,-8044.002729,-962.267725
4402.286737,370.102971,-8810.098227,-962.267725
4402.287062,592.164754,-8810.098227,-1036.288319
4402.287386,518.144159,-8810.098227,-962.267725
4402.287711,666.185348,-8656.879127,-1332.370696
4402.288035,740.205942,-8733.488677,-962.267725
4402.288359,666.185348,-8503.660028,-1036.288319
4402.288684,666.185348,-8733.488677,-1110.308913
4402.289008,666.185348,-8656.879127,-1110.308913
4402.289333,962.267725,-8656.879127,-1110.308913
4402.289657,666.185348,-8963.317327,-1184.329507
4402.289982,518.144159,-8810.098227,-962.267725
4402.290306,296.082377,-8733.488677,-666.185348
4402.290630,222.061783,-7967.393179,-814.226536
4402.290955,444.123565,-8656.879127,-962.267725
4402.291279,444.123565,-8886.707777,-740.205942
4402.291604,444.123565,-8810.098227,-814.226536
4402.291928,518.144159,-8350.440928,-370.102971
4402.292253,444.123565,-8580.269578,-740.205942
4402.292577,518.144159,-8733.488677,-666.185348
4402.292901,370.102971,-8503.660028,-592.164754
4402.293226,592.164754,-8886.707777,-666.185348
4402.293550,666.185348,-8044.002729,-370.102971
4402.293875,370.102971,-8810.098227,-222.061783
4402.294199,148.041188,-8197.221829,-370.102971
4402.294523,148.041188,-8503.660028,-222.061783
4402.294848,518.144159,-8580.269578,0.000000
4402.295172,444.123565,-8273.831378,0.000000
4402.295497,370.102971,-8197.221829,-370.102971
4402.295821,148.041188,-8350.440928,-444.123565
4402.296146,518.144159,-8427.050478,-592.164754
4402.296470,518.144159,-8350.440928,-148.041188
4402.296794,518.144159,-8427.050478,-444.123565
4402.297119,148.041188,-8427.050478,0.000000
4402.297443,222.061783,-8503.660028,-148.041188
4402.297768,518.144159,-8656.879127,-592.164754
4402.298092,222.061783,-8273.831378,0.000000
4402.298417,592.164754,-8120.612279,-222.061783
4402.298741,518.144159,-8503.660028,0.000000
4402.299065,518.144159,-8044.002729,-444.123565
4402.299390,148.041188,-8810.098227,0.000000
4402.299714,148.041188,-8197.221829,-148.041188
4402.300039,444.123565,-8503.660028,0.000000
4402.300363,222.061783,-8503.660028,0.000000
4402.300688,222.061783,-8580.269578,0.000000
4402.301012,444.123565,-8427.050478,74.020594
4402.301336,370.102971,-8580.269578,74.020594
4402.301661,370.102971,-8580.269578,0.000000
4402.301985,148.041188,-8350.440928,222.061783
4402.302310,296.082377,-8120.612279,0.000000
4402.302634,370.102971,-8733.488677,296.082377
4402.302958,148.041188,-8580.269578,0.000000
4402.303283,592.164754,-8733.488677,0.000000
4402.303607,666.185348,-8580.269578,0.000000
4402.303932,666.185348,-8733.488677,74.020594
4402.304256,444.123565,-8656.879127,0.000000
4402.304581,592.164754,-8810.098227,296.082377
4402.304905,444.123565,-8044.002729,0.000000
4402.305229,296.082377,-8656.879127,0.000000
4402.305554,370.102971,-8656.879127,0.000000
4402.305878,296.082377,-8197.221829,222.061783
4402.306203,518.144159,-8427.050478,0.000000
4402.306527,296.082377,-8656.879127,0.000000
4402.306852,740.205942,-8503.660028,0.000000
4402.307176,518.144159,-8427.050478,-148.041188
4402.307501,444.123565,-8656.879127,0.000000
4402.307825,444.123565,-8427.050478,0.000000
4402.308150,296.082377,-8580.269578,0.000000
4402.308474,296.082377,-8503.660028,-148.041188
4402.308798,666.185348,-8580.269578,-296.082377
4402.309123,814.226536,-9039.926876,222.061783
4402.309447,444.123565,-8427.050478,0.000000
4402.309772,444.123565,-8656.879127,-222.061783
4402.310096,518.144159,-8503.660028,-444.123565
4402.310421,592.164754,-9116.536426,0.000000
4402.310745,592.164754,-8656.879127,-370.102971
4402.311070,296.082377,-8810.098227,-148.041188
4402.311394,444.123565,-8503.660028,-444.123565
4402.311719,296.082377,-8580.269578,-370.102971
4402.312043,148.041188,-8273.831378,-666.185348
4402.312367,296.082377,-8963.317327,-666.185348
4402.312692,518.144159,-8656.879127,-370.102971
4402.313016,444.123565,-8350.440928,-666.185348
4402.313341,518.144159,-8810.098227,-740.205942
4402.313665,592.164754,-8503.660028,-592.164754
4402.313990,592.164754,-8656.879127,-518.144159
4402.314314,370.102971,-8656.879127,-666.185348
4402.314639,444.123565,-8733.488677,-518.144159
4402.314963,222.061783,-8503.660028,-518.144159
4402.315288,370.102971,-8733.488677,-444.123565
4402.315612,296.082377,-8427.050478,-592.164754
4402.315937,444.123565,-8963.317327,-592.164754
4402.316261,370.102971,-8044.002729,-592.164754
4402.316585,296.082377,-8427.050478,-814.226536
4402.316910,518.144159,-8810.098227,-444.123565
4402.317234,592.164754,-8427.050478,-592.164754
4402.317559,444.123565,-8044.002729,-888.247130
4402.317883,222.061783,-8350.440928,-296.082377
4402.318208,370.102971,-8427.050478,-444.123565
4402.318532,222.061783,-8580.269578,-444.123565
4402.318857,370.102971,-8350.440928,-518.144159
4402.319181,444.123565,-8580.269578,-592.164754
4402.319506,814.226536,-8580.269578,-740.205942
4402.319830,444.123565,-8120.612279,-370.102971
4402.320154,444.123565,-8197.221829,-518.144159
4402.320479,740.205942,-8350.440928,-592.164754
4402.320803,296.082377,-8427.050478,-518.144159
4402.321128,370.102971,-8503.660028,-370.102971
4402.321452,222.061783,-8350.440928,-296.082377
4402.321777,370.102971,-8503.660028,-814.226536
4402.322101,592.164754,-8580.269578,-296.082377
4402.322426,296.082377,-8503.660028,-148.041188
4402.322750,370.102971,-8427.050478,-296.082377
4402.323075,666.185348,-8733.488677,0.000000
4402.323399,296.082377,-8197.221829,0.000000
4402.323723,592.164754,-8810.098227,-296.082377
4402.324048,444.123565,-8273.831378,-148.041188
4402.324372,444.123565,-8656.879127,0.000000
4402.324697,370.102971,-8044.002729,0.000000
4402.325021,296.082377,-8503.660028,222.061783
4402.325346,222.061783,-8656.879127,0.000000
4402.325670,74.020594,-8503.660028,74.020594
4402.325995,74.020594,-8733.488677,148.041188
4402.326319,296.082377,-8580.269578,0.000000
4402.326644,370.102971,-8503.660028,296.082377
4402.326968,296.082377,-8580.269578,222.061783
4402.327293,296.082377,-8963.317327,0.000000
4402.327617,222.061783,-8503.660028,296.082377
4402.327941,296.082377,-8733.488677,148.041188
4402.328266,444.123565,-8580.269578,0.000000
4402.328590,370.102971,-8580.269578,74.020594
4402.328915,0.000000,-8733.488677,666.185348
4402.329239,74.020594,-8580.269578,222.061783
4402.329564,444.123565,-8656.879127,74.020594
4402.329888,666.185348,-8427.050478,0.000000
4402.330213,518.144159,-8963.317327,296.082377
4402.330537,444.123565,-8273.831378,0.000000
4402.330862,296.082377,-8733.488677,74.020594
4402.331186,592.164754,-8580.269578,-222.061783
4402.331510,370.102971,-8810.098227,0.000000
4402.331835,296.082377,-8656.879127,0.000000
4402.332159,296.082377,-8656.879127,0.000000
4402.332484,222.061783,-8656.879127,0.000000
4402.332808,370.102971,-8427.050478,0.000000
4402.333133,740.205942,-9116.536426,0.000000
4402.333457,592.164754,-8197.221829,0.000000
4402.333782,666.185348,-8580.269578,0.000000
4402.334106,518.144159,-8427.050478,0.000000
4402.334431,370.102971,-9499.584175,0.000000
4402.334755,814.226536,-8656.879127,0.000000
4402.335079,740.205942,-8733.488677,-148.041188
4402.335404,592.164754,-8810.098227,-148.041188
4402.335728,592.164754,-8503.660028,-222.061783
4402.336053,518.144159,-8656.879127,0.000000
4402.336377,814.226536,-8580.269578,-296.082377
4402.336702,518.144159,-8810.098227,-148.041188
4402.337026,814.226536,-8886.707777,-148.041188
4402.337351,370.102971,-8963.317327,518.144159
4402.337675,888.247130,-8733.488677,-518.144159
4402.338000,518.144159,-8886.707777,-370.102971
4402.338324,518.144159,-8733.488677,-370.102971
4402.338648,518.144159,-9039.926876,0.000000
4402.338973,296.082377,-8810.098227,-296.082377
4402.339297,592.164754,-8733.488677,-222.061783
4402.339622,592.164754,-8656.879127,-444.123565
4402.339946,592.164754,-8733.488677,-296.082377
4402.340271,814.226536,-9116.536426,0.000000
4402.340595,740.205942,-8733.488677,-296.082377
4402.340920,740.205942,-8656.879127,-518.144159
4402.341244,370.102971,-8733.488677,-370.102971
4402.341569,0.000000,-9422.974625,0.000000
4402.341893,370.102971,-8886.707777,-296.082377
4402.342218,296.082377,-9039.926876,0.000000
4402.342542,222.061783,-8733.488677,-148.041188
4402.342866,296.082377,-8580.269578,0.000000
4402.343191,222.061783,-8197.221829,-222.061783
4402.343515,518.144159,-8963.317327,-296.082377
4402.343840,592.164754,-8656.879127,-370.102971
4402.344164,592.164754,-8580.269578,0.000000
4402.344489,666.185348,-8427.050478,-592.164754
4402.344813,222.061783,-8580.269578,0.000000
4402.345138,148.041188,-8810.098227,-148.041188
4402.345462,148.041188,-8810.098227,0.000000
4402.345787,74.020594,-8810.098227,222.061783
4402.346111,444.123565,-8733.488677,0.000000
4402.346435,370.102971,-8580.269578,222.061783
4402.346760,148.041188,-8503.660028,0.000000
4402.347084,222.061783,-8810.098227,-148.041188
4402.347409,666.185348,-8427.050478,0.000000
4402.347733,74.020594,-8503.660028,0.000000
4402.348058,444.123565,-8656.879127,0.000000
4402.348382,296.082377,-8810.098227,0.000000
4402.348707,962.267725,-8963.317327,-370.102971
4402.349031,296.082377,-8503.660028,-222.061783
4402.349356,296.082377,-8580.269578,0.000000
4402.349680,296.082377,-8886.707777,0.000000
4402.350004,296.082377,-8733.488677,0.000000
4402.350329,222.061783,-8733.488677,-148.041188
4402.350653,370.102971,-8810.098227,-148.041188
4402.350978,370.102971,-8273.831378,-222.061783
4402.351302,296.082377,-8656.879127,-222.061783
4402.351627,370.102971,-8963.317327,-148.041188
4402.351951,74.020594,-8733.488677,-74.020594
4402.352276,296.082377,-8810.098227,-444.123565
4402.352600,296.082377,-8656.879127,-296.082377
4402.352925,444.123565,-8733.488677,0.000000
4402.353249,370.102971,-8656.879127,-148.041188
4402.353574,518.144159,-8656.879127,-370.102971
4402.353898,222.061783,-8810.098227,-370.102971
4402.354222,518.144159,-8886.707777,-444.123565
4402.354547,148.041188,-7890.783629,-222.061783
4402.354871,518.144159,-8656.879127,-518.144159
4402.355196,296.082377,-8580.269578,-444.123565
4402.355520,370.102971,-8656.879127,-444.123565
4402.355845,518.144159,-8810.098227,-666.185348
4402.356169,296.082377,-8580.269578,-518.144159
4402.356494,296.082377,-8503.660028,-148.041188
4402.356818,296.082377,-8350.440928,-592.164754
4402.357143,814.226536,-8273.831378,-592.164754
4402.357467,148.041188,-8810.098227,-592.164754
4402.357791,296.082377,-8656.879127,-296.082377
4402.358116,148.041188,-8503.660028,-444.123565
4402.358440,74.020594,-8580.269578,-370.102971
4402.358765,592.164754,-8733.488677,-592.164754
4402.359089,370.102971,-8503.660028,-592.164754
4402.359414,296.082377,-8503.660028,-518.144159
4402.359738,370.102971,-8503.660028,-370.102971
4402.360063,962.267725,-8656.879127,-370.102971
4402.360387,518.144159,-8733.488677,-296.082377
4402.360712,296.082377,-8197.221829,-518.144159
4402.361036,148.041188,-8810.098227,0.000000
4402.361360,296.082377,-8503.660028,0.000000
4402.361685,222.061783,-8350.440928,0.000000
4402.362009,444.123565,-8733.488677,-296.082377
4402.362334,148.041188,-8197.221829,0.000000
4402.362658,370.102971,-8503.660028,-370.102971
4402.362983,518.144159,-8580.269578,-222.061783
4402.363307,148.041188,-8503.660028,0.000000
4402.363632,296.082377,-8656.879127,0.000000
4402.363956,444.123565,-8580.269578,0.000000
4402.364281,518.144159,-8580.269578,0.000000
4402.364605,222.061783,-8350.440928,0.000000
4402.364929,296.082377,-8580.269578,-222.061783
4402.365254,370.102971,-8427.050478,-222.061783
4402.365578,148.041188,-7737.564530,0.000000
4402.365903,518.144159,-8120.612279,-296.082377
4402.366227,222.061783,-8656.879127,-370.102971
4402.366552,296.082377,-8197.221829,-148.041188
4402.366876,148.041188,-8810.098227,-222.061783
4402.367201,666.185348,-8656.879127,-222.061783
4402.367525,518.144159,-8580.269578,0.000000
4402.367850,444.123565,-8656.879127,-296.082377
4402.368174,444.123565,-8656.879127,0.000000
4402.368499,296.082377,-8197.221829,0.000000
4402.368823,444.123565,-8503.660028,-296.082377
4402.369147,370.102971,-8503.660028,0.000000
4402.369472,592.164754,-8580.269578,-148.041188
4402.369796,370.102971,-8810.098227,-518.144159
4402.370121,296.082377,-8503.660028,-222.061783
4402.370445,148.041188,-8580.269578,-296.082377
4402.370770,148.041188,-8580.269578,-74.020594
4402.371094,444.123565,-8733.488677,-296.082377
4402.371419,444.123565,-8580.269578,-666.185348
4402.371743,592.164754,-8656.879127,-370.102971
4402.372068,370.102971,-8273.831378,-444.123565
4402.372392,222.061783,-8580.269578,-370.102971
4402.372716,148.041188,-8197.221829,0.000000
4402.373041,148.041188,-8580.269578,-222.061783
4402.373365,296.082377,-8273.831378,-666.185348
4402.373690,222.061783,-8580.269578,-296.082377
4402.374014,296.082377,-8580.269578,-592.164754
4402.374339,296.082377,-8656.879127,-518.144159
4402.374663,296.082377,-8427.050478,-592.164754
4402.374988,296.082377,-8580.269578,-370.102971
4402.375312,592.164754,-8503.660028,-592.164754
4402.375637,740.205942,-8810.098227,-888.247130
4402.375961,370.102971,-8503.660028,-444.123565
4402.376285,444.123565,-8350.440928,-518.144159
4402.376610,444.123565,-8580.269578,-666.185348
4402.376934,518.144159,-8733.488677,-740.205942
4402.377259,296.082377,-8656.879127,-666.185348
4402.377583,518.144159,-8656.879127,-592.164754
4402.377908,592.164754,-8503.660028,-444.123565
4402.378232,518.144159,-8656.879127,-518.144159
4402.378557,666.185348,-8656.879127,-592.164754
4402.378881,592.164754,-8427.050478,-296.082377
4402.379206,444.123565,-8733.488677,-444.123565
4402.379530,518.144159,-8350.440928,-592.164754
4402.379855,518.144159,-8350.440928,-370.102971
4402.380179,518.144159,-8427.050478,-592.164754
4402.380503,518.144159,-8580.269578,-296.082377
4402.380828,518.144159,-8503.660028,-444.123565
4402.381152,666.185348,-8427.050478,-370.102971
4402.381477,666.185348,-8350.440928,-296.082377
4402.381801,592.164754,-8580.269578,-518.144159
4402.382126,962.267725,-8503.660028,-444.123565
4402.382450,592.164754,-8273.831378,-444.123565
4402.382775,666.185348,-8580.269578,-444.123565
4402.383099,370.102971,-8197.221829,-666.185348
4402.383424,518.144159,-8503.660028,-370.102971
4402.383748,740.205942,-8427.050478,-740.205942
4402.384072,666.185348,-8427.050478,-518.144159
4402.384397,592.164754,-8503.660028,-666.185348
4402.384721,666.185348,-8273.831378,-444.123565
4402.385046,518.144159,-8427.050478,-814.226536
4402.385370,740.205942,-8656.879127,-666.185348
4402.385695,814.226536,-8580.269578,-444.123565
4402.386019,518.144159,-8580.269578,-518.144159
4402.386344,592.164754,-8733.488677,-888.247130
4402.386668,518.144159,-8350.440928,-518.144159
4402.386993,666.185348,-8427.050478,-444.123565
4402.387317,666.185348,-8503.660028,-740.205942
4402.387641,370.102971,-8580.269578,-518.144159
4402.387966,518.144159,-8580.269578,-592.164754
4402.388290,592.164754,-9039.926876,-296.082377
4402.388615,666.185348,-8427.050478,-814.226536
4402.388939,666.185348,-8580.269578,-666.185348
4402.389264,740.205942,-8503.660028,-666.185348
4402.389588,592.164754,-8656.879127,-814.226536
4402.389913,370.102971,-8580.269578,-1110.308913
4402.390237,740.205942,-8733.488677,-888.247130
4402.390562,814.226536,-8503.660028,-814.226536
4402.390886,370.102971,-8733.488677,-592.164754
4402.391210,444.123565,-8503.660028,-666.185348
4402.391535,592.164754,-8427.050478,-740.205942
4402.391859,444.123565,-8503.660028,-740.205942
4402.392184,518.144159,-8580.269578,-814.226536
4402.392508,814.226536,-8503.660028,-666.185348
4402.392833,518.144159,-8350.440928,-444.123565
4402.393157,740.205942,-8810.098227,-666.185348
4402.393482,296.082377,-8580.269578,-740.205942
4402.393806,518.144159,-8810.098227,-370.102971
4402.394131,518.144159,-8580.269578,-740.205942
4402.394455,592.164754,-8733.488677,-370.102971
4402.394780,592.164754,-8580.269578,-518.144159
4402.395104,296.082377,-8656.879127,-296.082377
4402.395428,0.000000,-8350.440928,-592.164754
4402.395753,444.123565,-8503.660028,-444.123565
4402.396077,666.185348,-8580.269578,-370.102971
4402.396402,592.164754,-8580.269578,-518.144159
4402.396726,666.185348,-8886.707777,-962.267725
4402.397051,444.123565,-8810.098227,-370.102971
4402.397375,592.164754,-8656.879127,-222.061783
4402.397700,592.164754,-8733.488677,-444.123565
4402.398024,518.144159,-8656.879127,-296.082377
4402.398349,666.185348,-8733.488677,-518.144159
4402.398673,296.082377,-8580.269578,-592.164754
4402.398997,148.041188,-8350.440928,-444.123565
4402.399322,444.123565,-8963.317327,-592.164754
4402.399646,222.061783,-8580.269578,-296.082377
4402.399971,222.061783,-8733.488677,-370.102971
4402.400295,444.123565,-8810.098227,-296.082377
4402.400620,444.123565,-8580.269578,-296.082377
4402.400944,444.123565,-8733.488677,0.000000
4402.401269,518.144159,-8580.269578,-296.082377
4402.401593,370.102971,-8963.317327,-148.041188
4402.401918,518.144159,-8427.050478,-370.102971
4402.402242,370.102971,-8503.660028,-148.041188
4402.402566,444.123565,-9039.926876,-370.102971
4402.402891,222.061783,-8427.050478,-222.061783
4402.403215,296.082377,-8427.050478,-296.082377
4402.403540,296.082377,-8886.707777,-222.061783
4402.403864,222.061783,-8810.098227,0.000000
4402.404189,666.185348,-8503.660028,-518.144159
4402.404513,592.164754,-8503.660028,-296.082377
4402.404838,444.123565,-8656.879127,-222.061783
4402.405162,444.123565,-8656.879127,-222.061783
4402.405487,370.102971,-8963.317327,-370.102971
4402.405811,518.144159,-8580.269578,-518.144159
4402.406135,518.144159,-8580.269578,-592.164754
4402.406460,592.164754,-8963.317327,-148.041188
4402.406784,444.123565,-8580.269578,-518.144159
4402.407108,444.123565,-8656.879127,-370.102971
4402.407433,444.123565,-8580.269578,-518.144159
4402.407757,666.185348,-8580.269578,-370.102971
4402.408082,592.164754,-9039.926876,-740.205942
4402.408406,518.144159,-8580.269578,-370.102971
4402.408730,592.164754,-8733.488677,-518.144159
4402.409055,518.144159,-8503.660028,-370.102971
4402.409379,666.185348,-8350.440928,-518.144159
4402.409703,370.102971,-8656.879127,-370.102971
4402.410028,370.102971,-8656.879127,-370.102971
4402.410352,444.123565,-8503.660028,-296.082377
4402.410677,518.144159,-8733.488677,-888.247130
4402.411001,222.061783,-8273.831378,0.000000
4402.411325,666.185348,-8580.269578,-370.102971
4402.411650,296.082377,-8427.050478,-592.164754
4402.411974,666.185348,-8810.098227,-370.102971
4402.412298,518.144159,-8733.488677,-666.185348
4402.412623,370.102971,-8580.269578,-814.226536
4402.412947,592.164754,-8350.440928,-740.205942
4402.413272,518.144159,-8580.269578,-666.185348
4402.413596,518.144159,-8427.050478,-666.185348
4402.413920,222.061783,-8503.660028,-370.102971
4402.414245,148.041188,-8580.269578,-444.123565
4402.414569,518.144159,-8656.879127,-592.164754
4402.414893,222.061783,-8350.440928,-888.247130
4402.415218,444.123565,-8580.269578,-888.247130
4402.415542,370.102971,-8273.831378,-592.164754
4402.415867,518.144159,-8656.879127,-148.041188
4402.416191,222.061783,-8350.440928,-592.164754
4402.416515,148.041188,-8656.879127,-444.123565
4402.416840,148.041188,-8656.879127,-814.226536
4402.417164,296.082377,-8580.269578,-296.082377
4402.417488,518.144159,-8503.660028,-518.144159
4402.417813,222.061783,-8580.269578,-444.123565
4402.418137,222.061783,-8580.269578,-666.185348
4402.418462,370.102971,-8350.440928,-296.082377
4402.418786,222.061783,-8580.269578,0.000000
4402.419110,148.041188,-8886.707777,-370.102971
4402.419435,0.000000,-8503.660028,-592.164754
4402.419759,148.041188,-8427.050478,-444.123565
4402.420083,518.144159,-8886.707777,-296.082377
4402.420408,444.123565,-8580.269578,-518.144159
4402.420732,222.061783,-8427.050478,-222.061783
4402.421057,296.082377,-8656.879127,-370.102971
4402.421381,370.102971,-8503.660028,-370.102971
4402.421705,518.144159,-8580.269578,-222.061783
4402.422030,370.102971,-8810.098227,-444.123565
4402.422354,296.082377,-9116.536426,0.000000
4402.422678,222.061783,-8656.879127,-444.123565
4402.423003,222.061783,-9039.926876,-148.041188
4402.423327,222.061783,-8580.269578,-444.123565
4402.423652,-296.082377,-9116.536426,296.082377
4402.423976,222.061783,-8580.269578,0.000000
4402.424300,370.102971,-8427.050478,-444.123565
4402.424625,444.123565,-9193.145976,-370.102971
4402.424949,592.164754,-8580.269578,-370.102971
4402.425273,444.123565,-8963.317327,-222.061783
4402.425598,222.061783,-8580.269578,-444.123565
4402.425922,444.123565,-8656.879127,-222.061783
4402.426247,370.102971,-8350.440928,-222.061783
4402.426571,0.000000,-8886.707777,370.102971
4402.426895,444.123565,-8656.879127,-518.144159
4402.427220,518.144159,-8580.269578,-222.061783
4402.427544,592.164754,-8197.221829,-222.061783
4402.427868,740.205942,-9193.145976,74.020594
4402.428193,518.144159,-8427.050478,-296.082377
4402.428517,518.144159,-8503.660028,-148.041188
4402.428842,666.185348,-8427.050478,-592.164754
4402.429166,296.082377,-8656.879127,-148.041188
4402.429490,222.061783,-8810.098227,0.000000
4402.429815,444.123565,-8656.879127,0.000000
4402.430139,370.102971,-8503.660028,-222.061783
4402.430463,518.144159,-8810.098227,-296.082377
4402.430788,666.185348,-8120.612279,0.000000
4402.431112,592.164754,-8273.831378,-148.041188
4402.431437,222.061783,-8656.879127,-296.082377
4402.431761,518.144159,-8733.488677,-444.123565
4402.432085,444.123565,-8580.269578,-444.123565
4402.432410,592.164754,-8427.050478,-222.061783
4402.432734,444.123565,-8580.269578,0.000000
4402.433058,444.123565,-8503.660028,-148.041188
4402.433383,518.144159,-8503.660028,-222.061783
4402.433707,592.164754,-8197.221829,-222.061783
4402.434032,518.144159,-8656.879127,-222.061783
4402.434356,370.102971,-8197.221829,-370.102971
4402.434680,222.061783,-8580.269578,0.000000
4402.435005,814.226536,-8197.221829,0.000000
4402.435329,444.123565,-8503.660028,-222.061783
4402.435653,518.144159,-8580.269578,-444.123565
4402.435978,444.123565,-8810.098227,0.000000
4402.436302,370.102971,-8273.831378,148.041188
4402.436627,592.164754,-8810.098227,0.000000
4402.436951,296.082377,-8273.831378,0.000000
4402.437275,518.144159,-8427.050478,-222.061783
4402.437600,296.082377,-8503.660028,-296.082377
4402.437924,296.082377,-8197.221829,0.000000
4402.438248,0.000000,-8427.050478,-370.102971
4402.438573,222.061783,-8503.660028,-370.102971
4402.438897,296.082377,-8197.221829,-370.102971
4402.439222,592.164754,-8427.050478,0.000000
4402.439546,444.123565,-8503.660028,-296.082377
4402.439870,296.082377,-8350.440928,-148.041188
4402.440195,370.102971,-8273.831378,-296.082377
4402.440519,370.102971,-8503.660028,-296.082377
4402.440843,666.185348,-8810.098227,-222.061783
4402.441168,518.144159,-8350.440928,-222.061783
4402.441492,592.164754,-8273.831378,-296.082377
4402.441817,444.123565,-8427.050478,-444.123565
4402.442141,222.061783,-8427.050478,0.000000
4402.442465,444.123565,-8427.050478,-444.123565
4402.442790,444.123565,-8350.440928,-370.102971
4402.443114,222.061783,-8273.831378,0.000000
4402.443438,222.061783,-8197.221829,148.041188
4402.443763,444.123565,-8886.707777,74.020594
4402.444087,370.102971,-8427.050478,0.000000
4402.444412,444.123565,-9039.926876,-222.061783
4402.444736,592.164754,-8427.050478,-222.061783
4402.445060,518.144159,-8886.707777,0.000000
4402.445385,148.041188,-8656.879127,0.000000
4402.445709,222.061783,-8427.050478,0.000000
4402.446033,0.000000,-8503.660028,-222.061783
4402.446358,592.164754,-8656.879127,0.000000
4402.446682,296.082377,-8580.269578,0.000000
4402.447007,370.102971,-8810.098227,0.000000
4402.447331,222.061783,-8503.660028,0.000000
4402.447655,1110.308913,-8810.098227,-296.082377
4402.447980,444.123565,-8886.707777,-296.082377
4402.448304,592.164754,-8503.660028,0.000000
4402.448628,296.082377,-8656.879127,-296.082377
4402.448953,222.061783,-8656.879127,0.000000
4402.449277,814.226536,-8810.098227,-148.041188
4402.449602,518.144159,-8810.098227,-148.041188
4402.449926,296.082377,-8503.660028,-148.041188
4402.450250,222.061783,-8656.879127,0.000000
4402.450575,666.185348,-9039.926876,0.000000
4402.450899,222.061783,-8273.831378,0.000000
4402.451223,370.102971,-8656.879127,0.000000
4402.451548,370.102971,-9116.536426,0.000000
4402.451872,222.061783,-8120.612279,0.000000
4402.452197,444.123565,-8580.269578,-148.041188
4402.452521,370.102971,-8350.440928,0.000000
4402.452845,518.144159,-8580.269578,74.020594
4402.453170,444.123565,-8350.440928,-222.061783
4402.453494,592.164754,-8886.707777,-148.041188
4402.453818,370.102971,-8886.707777,-222.061783
4402.454143,222.061783,-8810.098227,-148.041188
4402.454467,296.082377,-8350.440928,0.000000
4402.454792,962.267725,-8963.317327,0.000000
4402.455116,518.144159,-8273.831378,-296.082377
4402.455440,222.061783,-8733.488677,0.000000
4402.455765,296.082377,-8503.660028,-518.144159
4402.456089,518.144159,-8810.098227,0.000000
4402.456414,518.144159,-8273.831378,-296.082377
4402.456738,518.144159,-8886.707777,-148.041188
4402.457062,444.123565,-8427.050478,-370.102971
4402.457387,518.144159,-8886.707777,-370.102971
4402.457711,370.102971,-8350.440928,0.000000
4402.458035,370.102971,-8350.440928,-296.082377
4402.458360,222.061783,-8886.707777,-370.102971
4402.458684,222.061783,-8580.269578,-296.082377
4402.459009,222.061783,-7737.564530,0.000000
4402.459333,148.041188,-8733.488677,-296.082377
4402.459657,296.082377,-8273.831378,-592.164754
4402.459982,370.102971,-8580.269578,0.000000
4402.460306,296.082377,-8197.221829,-444.123565
4402.460630,370.102971,-8427.050478,0.000000
4402.460955,296.082377,-8656.879127,-296.082377
4402.461279,296.082377,-8886.707777,-370.102971
4402.461604,222.061783,-8427.050478,-444.123565
4402.461928,74.020594,-8427.050478,0.000000
4402.462252,444.123565,-8350.440928,-148.041188
4402.462577,444.123565,-8503.660028,0.000000
4402.462901,296.082377,-8580.269578,-296.082377
4402.463225,592.164754,-8273.831378,-296.082377
4402.463550,222.061783,-8350.440928,-296.082377
4402.463874,518.144159,-8427.050478,0.000000
4402.464199,444.123565,-8427.050478,-370.102971
4402.464523,518.144159,-8733.488677,-444.123565
4402.464847,296.082377,-8350.440928,-444.123565
4402.465172,370.102971,-8886.707777,-370.102971
4402.465496,592.164754,-8503.660028,-370.102971
4402.465820,666.185348,-8197.221829,-148.041188
4402.466145,740.205942,-9116.536426,-444.123565
4402.466469,518.144159,-8810.098227,-296.082377
4402.466794,444.123565,-8427.050478,0.000000
4402.467118,666.185348,-8810.098227,-296.082377
4402.467442,444.123565,-8886.707777,-370.102971
4402.467767,518.144159,-8733.488677,0.000000
4402.468091,296.082377,-8656.879127,0.000000
4402.468415,296.082377,-8580.269578,0.000000
4402.468740,222.061783,-8886.707777,-222.061783
4402.469064,370.102971,-8810.098227,0.000000
4402.469389,370.102971,-8350.440928,-222.061783
4402.469713,444.123565,-8580.269578,0.000000
4402.470037,444.123565,-8733.488677,-148.041188
4402.470362,814.226536,-9729.412825,0.000000
4402.470686,296.082377,-8810.098227,-148.041188
4402.471010,296.082377,-8656.879127,0.000000
4402.471335,444.123565,-8963.317327,-222.061783
4402.471659,296.082377,-9039.926876,0.000000
4402.471984,444.123565,-8656.879127,-296.082377
4402.472308,296.082377,-8810.098227,0.000000
4402.472632,370.102971,-8733.488677,0.000000
4402.472957,444.123565,-8503.660028,0.000000
4402.473281,74.020594,-8580.269578,0.000000
4402.473605,518.144159,-8580.269578,0.000000
4402.473930,518.144159,-8810.098227,-370.102971
4402.474254,370.102971,-8656.879127,-370.102971
4402.474579,222.061783,-8580.269578,-740.205942
4402.474903,296.082377,-8656.879127,-296.082377
4402.475227,518.144159,-8656.879127,-296.082377
4402.475552,148.041188,-8733.488677,-296.082377
4402.475876,444.123565,-8273.831378,-296.082377
4402.476200,444.123565,-8273.831378,-518.144159
4402.476525,444.123565,-8503.660028,-370.102971
4402.476849,444.123565,-8580.269578,-370.102971
4402.477174,370.102971,-8503.660028,-296.082377
4402.477498,740.205942,-8580.269578,-518.144159
4402.477822,592.164754,-8503.660028,-444.123565
4402.478147,518.144159,-8810.098227,0.000000
4402.478471,296.082377,-8580.269578,-222.061783
4402.478795,222.061783,-8273.831378,0.000000
4402.479120,518.144159,-8656.879127,-370.102971
4402.479444,518.144159,-8580.269578,-148.041188
4402.479769,370.102971,-8350.440928,-370.102971
4402.480093,518.144159,-8580.269578,-444.123565
4402.480417,370.102971,-8810.098227,-370.102971
4402.480742,740.205942,-8580.269578,-518.144159
4402.481066,444.123565,-8810.098227,-222.061783
4402.481390,296.082377,-8580.269578,-444.123565
4402.481715,888.247130,-8733.488677,-444.123565
4402.482039,296.082377,-8503.660028,-592.164754
4402.482364,444.123565,-8580.269578,-370.102971
4402.482688,74.020594,-8350.440928,-666.185348
4402.483012,666.185348,-8427.050478,-370.102971
4402.483337,518.144159,-8427.050478,-666.185348
4402.483661,666.185348,-8580.269578,-592.164754
4402.483985,518.144159,-8503.660028,-962.267725
4402.484310,518.144159,-8656.879127,-666.185348
4402.484634,962.267725,-8503.660028,-740.205942
4402.484959,518.144159,-8656.879127,-444.123565
4402.485283,518.144159,-8656.879127,-814.226536
4402.485607,518.144159,-8656.879127,-814.226536
4402.485932,370.102971,-8656.879127,-888.247130
4402.486256,592.164754,-8886.707777,-1036.288319
4402.486580,444.123565,-8273.831378,-666.185348
4402.486905,444.123565,-8810.098227,-740.205942
4402.487229,296.082377,-8810.098227,-888.247130
4402.487554,518.144159,-8273.831378,-740.205942
4402.487878,518.144159,-8810.098227,-1036.288319
4402.488202,370.102971,-8656.879127,-814.226536
4402.488527,148.041188,-8503.660028,-592.164754
4402.488851,148.041188,-8810.098227,-666.185348
4402.489175,222.061783,-8580.269578,-814.226536
4402.489500,296.082377,-8580.269578,-592.164754
4402.489824,444.123565,-8733.488677,-592.164754
4402.490149,592.164754,-8580.269578,-962.267725
4402.490473,444.123565,-8963.317327,-592.164754
4402.490797,444.123565,-8350.440928,-592.164754
4402.491122,518.144159,-8350.440928,-518.144159
4402.491446,518.144159,-8810.098227,-740.205942
4402.491770,296.082377,-8580.269578,-666.185348
4402.492095,370.102971,-8580.269578,-518.144159
4402.492419,518.144159,-8503.660028,-592.164754
4402.492744,370.102971,-8580.269578,-370.102971
4402.493068,888.247130,-8580.269578,-518.144159
4402.493392,518.144159,-8886.707777,-444.123565
4402.493717,518.144159,-8427.050478,-444.123565
4402.494041,296.082377,-8810.098227,-370.102971
4402.494365,444.123565,-8656.879127,-592.164754
4402.494690,592.164754,-8656.879127,-370.102971
4402.495014,666.185348,-8580.269578,-592.164754
4402.495339,444.123565,-8810.098227,0.000000
4402.495663,444.123565,-8350.440928,-296.082377
4402.495987,814.226536,-8810.098227,-370.102971
4402.496312,296.082377,-8580.269578,-296.082377
4402.496636,518.144159,-8963.317327,-296.082377
4402.496960,518.144159,-8350.440928,-148.041188
4402.497285,740.205942,-8580.269578,0.000000
4402.497609,444.123565,-8733.488677,-296.082377
4402.497934,444.123565,-8503.660028,-148.041188
4402.498258,666.185348,-8580.269578,-148.041188
4402.498582,444.123565,-8886.707777,-518.144159
4402.498907,518.144159,-8733.488677,0.000000
4402.499231,444.123565,-8580.269578,-222.061783
4402.499555,370.102971,-8580.269578,0.000000
4402.499880,296.082377,-8810.098227,0.000000
4402.500204,222.061783,-8273.831378,-222.061783
4402.500529,444.123565,-8120.612279,-296.082377
4402.500853,296.082377,-8350.440928,-296.082377
4402.501177,444.123565,-8580.269578,-370.102971
4402.501502,592.164754,-8886.707777,-296.082377
4402.501826,444.123565,-8503.660028,-444.123565
4402.502150,296.082377,-8503.660028,-444.123565
4402.502475,222.061783,-8580.269578,-370.102971
4402.502799,148.041188,-8810.098227,-370.102971
4402.503124,74.020594,-8580.269578,-444.123565
4402.503448,444.123565,-8656.879127,-518.144159
4402.503772,444.123565,-8427.050478,-296.082377
4402.504097,296.082377,-8044.002729,-370.102971
4402.504421,444.123565,-8733.488677,-518.144159
4402.504745,518.144159,-8427.050478,-666.185348
4402.505070,592.164754,-8580.269578,-592.164754
4402.505394,370.102971,-8580.269578,-592.164754
4402.505719,0.000000,-8886.707777,0.000000
4402.506043,370.102971,-8733.488677,-518.144159
4402.506367,592.164754,-8427.050478,-814.226536
4402.506692,444.123565,-8503.660028,-444.123565
4402.507016,518.144159,-8503.660028,-814.226536
4402.507340,444.123565,-8273.831378,-518.144159
4402.507664,444.123565,-8503.660028,-666.185348
4402.507989,370.102971,-8427.050478,-740.205942
4402.508313,222.061783,-8350.440928,-592.164754
4402.508637,518.144159,-8656.879127,-296.082377
4402.508962,296.082377,-8656.879127,-444.123565
4402.509286,518.144159,-8273.831378,-666.185348
4402.509610,444.123565,-8580.269578,-518.144159
4402.509935,296.082377,-8886.707777,-814.226536
4402.510259,444.123565,-8580.269578,-666.185348
4402.510583,518.144159,-8503.660028,-666.185348
4402.510908,444.123565,-8350.440928,0.000000
4402.511232,518.144159,-8273.831378,-370.102971
4402.511556,296.082377,-8427.050478,-592.164754
4402.511880,592.164754,-8580.269578,-518.144159
4402.512205,592.164754,-8733.488677,-518.144159
4402.512529,518.144159,-8656.879127,-370.102971
4402.512853,148.041188,-8273.831378,-740.205942
4402.513178,518.144159,-8580.269578,-296.082377
4402.513502,444.123565,-8580.269578,-296.082377
4402.513826,222.061783,-8580.269578,-518.144159
4402.514151,592.164754,-8580.269578,-222.061783
4402.514475,518.144159,-8197.221829,-444.123565
4402.514799,666.185348,-8656.879127,-296.082377
4402.515124,518.144159,-8427.050478,-370.102971
4402.515448,370.102971,-8656.879127,-148.041188
4402.515772,592.164754,-8350.440928,-370.102971
4402.516096,518.144159,-8427.050478,0.000000
4402.516421,296.082377,-8503.660028,-148.041188
4402.516745,74.020594,-8273.831378,-222.061783
4402.517069,592.164754,-8580.269578,-296.082377
4402.517394,444.123565,-8273.831378,-444.123565
4402.517718,518.144159,-8580.269578,0.000000
4402.518042,518.144159,-8273.831378,-296.082377
4402.518367,222.061783,-8503.660028,-370.102971
4402.518691,370.102971,-8350.440928,-296.082377
4402.519015,222.061783,-8580.269578,-370.102971
4402.519340,296.082377,-8810.098227,-296.082377
4402.519664,370.102971,-8427.050478,-222.061783
4402.519988,222.061783,-9039.926876,296.082377
4402.520312,0.000000,-8733.488677,0.000000
4402.520637,444.123565,-8580.269578,-444.123565
4402.520961,444.123565,-8886.707777,-296.082377
4402.521285,666.185348,-8963.317327,74.020594
4402.521610,444.123565,-8656.879127,-296.082377
4402.521934,222.061783,-8733.488677,-148.041188
4402.522258,518.144159,-8656.879127,-518.144159
4402.522583,148.041188,-8963.317327,-222.061783
4402.522907,148.041188,-8427.050478,-296.082377
4402.523231,444.123565,-8656.879127,-296.082377
4402.523556,296.082377,-8733.488677,0.000000
4402.523880,444.123565,-8580.269578,-296.082377
4402.524204,666.185348,-8197.221829,-666.185348
4402.524528,740.205942,-8503.660028,-148.041188
4402.524853,666.185348,-8580.269578,-296.082377
4402.525177,222.061783,-8733.488677,0.000000
4402.525501,222.061783,-8503.660028,0.000000
4402.525826,444.123565,-8427.050478,-518.144159
4402.526150,370.102971,-8886.707777,-444.123565
4402.526474,370.102971,-8273.831378,-592.164754
4402.526799,444.123565,-8350.440928,-74.020594
4402.527123,888.247130,-8580.269578,-592.164754
4402.527447,592.164754,-8580.269578,-296.082377
4402.527772,592.164754,-8580.269578,-444.123565
4402.528096,518.144159,-8656.879127,-148.041188
4402.528420,888.247130,-8733.488677,-148.041188
4402.528745,444.123565,-8733.488677,-444.123565
4402.529069,444.123565,-8350.440928,-296.082377
4402.529393,444.123565,-8580.269578,-592.164754
4402.529717,222.061783,-8656.879127,-370.102971
4402.530042,296.082377,-8810.098227,-444.123565
4402.530366,296.082377,-8656.879127,-370.102971
4402.530690,518.144159,-8580.269578,-592.164754
4402.531015,296.082377,-8503.660028,-814.226536
4402.531339,666.185348,-8810.098227,-740.205942
4402.531663,592.164754,-8503.660028,-370.102971
4402.531988,592.164754,-8733.488677,-518.144159
4402.532312,222.061783,-8580.269578,-444.123565
4402.532636,1110.308913,-8197.221829,0.000000
4402.532961,444.123565,-8580.269578,-666.185348
4402.533285,222.061783,-8350.440928,-592.164754
4402.533609,222.061783,-8350.440928,-444.123565
4402.533933,444.123565,-8733.488677,0.000000
4402.534258,370.102971,-8656.879127,-518.144159
4402.534582,296.082377,-8427.050478,-518.144159
4402.534906,296.082377,-8733.488677,-296.082377
4402.535231,592.164754,-8273.831378,-592.164754
4402.535555,222.061783,-8427.050478,-370.102971
4402.535879,370.102971,-8503.660028,-444.123565
4402.536204,592.164754,-8503.660028,-518.144159
4402.536528,296.082377,-8810.098227,-370.102971
4402.536852,518.144159,-9039.926876,0.000000
4402.537177,518.144159,-8580.269578,-222.061783
4402.537501,444.123565,-8733.488677,-74.020594
4402.537825,370.102971,-8580.269578,-296.082377
4402.538149,444.123565,-8656.879127,-296.082377
4402.538474,444.123565,-8503.660028,-222.061783
4402.538798,444.123565,-8427.050478,0.000000
4402.539122,444.123565,-8427.050478,-222.061783
4402.539447,370.102971,-8427.050478,0.000000
4402.539771,518.144159,-8503.660028,0.000000
4402.540095,518.144159,-8580.269578,-370.102971
4402.540420,518.144159,-8733.488677,0.000000
4402.540744,370.102971,-8503.660028,-296.082377
4402.541068,518.144159,-8044.002729,370.102971
4402.541393,444.123565,-8503.660028,0.000000
4402.541717,370.102971,-8810.098227,0.000000
4402.542041,814.226536,-8350.440928,0.000000
4402.542365,296.082377,-8427.050478,0.000000
4402.542690,666.185348,-8810.098227,0.000000
4402.543014,296.082377,-8580.269578,0.000000
4402.543338,444.123565,-8656.879127,0.000000
4402.543663,444.123565,-8656.879127,74.020594
4402.543987,888.247130,-8580.269578,0.000000
4402.544311,222.061783,-8580.269578,0.000000
4402.544636,370.102971,-8503.660028,0.000000
4402.544960,296.082377,-8656.879127,0.000000
4402.545284,814.226536,-8580.269578,0.000000
4402.545609,370.102971,-8580.269578,0.000000
4402.545933,0.000000,-8427.050478,222.061783
4402.546257,444.123565,-8656.879127,0.000000
4402.546581,370.102971,-8580.269578,0.000000
4402.546906,74.020594,-8427.050478,222.061783
4402.547230,296.082377,-8503.660028,0.000000
4402.547554,296.082377,-8733.488677,148.041188
4402.547879,74.020594,-8580.269578,0.000000
4402.548203,592.164754,-8580.269578,0.000000
4402.548527,296.082377,-8810.098227,0.000000
4402.548852,222.061783,-8810.098227,0.000000
4402.549176,592.164754,-8503.660028,0.000000
4402.549500,148.041188,-7814.174080,0.000000
4402.549825,148.041188,-8503.660028,0.000000
4402.550149,296.082377,-8427.050478,-222.061783
4402.550473,518.144159,-8656.879127,0.000000
4402.550797,444.123565,-8273.831378,-222.061783
4402.551122,296.082377,-8503.660028,-370.102971
4402.551446,518.144159,-8656.879127,-592.164754
4402.551770,518.144159,-8503.660028,-148.041188
4402.552095,444.123565,-8580.269578,-592.164754
4402.552419,444.123565,-8733.488677,222.061783
4402.552743,296.082377,-8350.440928,-222.061783
4402.553068,592.164754,-8733.488677,-370.102971
4402.553392,296.082377,-8503.660028,-444.123565
4402.553716,444.123565,-8503.660028,-222.061783
4402.554041,592.164754,-8427.050478,-370.102971
4402.554365,444.123565,-8656.879127,-222.061783
4402.554689,592.164754,-8350.440928,-666.185348
4402.555013,518.144159,-8810.098227,-222.061783
4402.555338,0.000000,-7967.393179,-444.123565
4402.555662,592.164754,-8733.488677,-518.144159
4402.555986,444.123565,-8350.440928,-518.144159
4402.556311,444.123565,-8350.440928,-370.102971
4402.556635,444.123565,-8886.707777,-370.102971
4402.556959,0.000000,-8503.660028,-222.061783
4402.557284,666.185348,-8733.488677,-444.123565
4402.557608,296.082377,-8503.660028,-370.102971
4402.557932,444.123565,-8503.660028,-444.123565
4402.558257,518.144159,-8503.660028,-370.102971
4402.558581,296.082377,-8503.660028,-296.082377
4402.558905,370.102971,-8197.221829,-814.226536
4402.559230,592.164754,-8810.098227,-592.164754
4402.559554,74.020594,-8044.002729,0.000000
4402.559878,296.082377,-8503.660028,-222.061783
4402.560202,0.000000,-8503.660028,-370.102971
4402.560527,370.102971,-8580.269578,-444.123565
4402.560851,370.102971,-8886.707777,-518.144159
4402.561175,296.082377,-8810.098227,-296.082377
4402.561500,148.041188,-8503.660028,-370.102971
4402.561824,296.082377,-8886.707777,-222.061783
4402.562148,74.020594,-8580.269578,-296.082377
4402.562473,148.041188,-8273.831378,-296.082377
4402.562797,666.185348,-8503.660028,-592.164754
4402.563121,518.144159,-8197.221829,-296.082377
4402.563446,296.082377,-8580.269578,-666.185348
4402.563770,148.041188,-8427.050478,-592.164754
4402.564094,666.185348,-8656.879127,-370.102971
4402.564418,518.144159,-8427.050478,-444.123565
4402.564743,370.102971,-8733.488677,-370.102971
4402.565067,518.144159,-8427.050478,0.000000
4402.565391,740.205942,-8656.879127,-222.061783
4402.565716,296.082377,-8503.660028,0.000000
4402.566040,666.185348,-8810.098227,-222.061783
4402.566364,518.144159,-8656.879127,-444.123565
4402.566689,296.082377,-8733.488677,0.000000
4402.567013,296.082377,-8427.050478,-444.123565
4402.567337,370.102971,-8656.879127,-222.061783
4402.567662,518.144159,-8350.440928,-222.061783
4402.567986,222.061783,-8810.098227,-148.041188
4402.568310,370.102971,-8427.050478,-222.061783
4402.568634,444.123565,-8886.707777,0.000000
4402.568959,518.144159,-8733.488677,-370.102971
4402.569283,518.144159,-8580.269578,0.000000
4402.569607,370.102971,-8733.488677,-296.082377
4402.569932,518.144159,-8580.269578,-148.041188
4402.570256,370.102971,-8503.660028,-222.061783
4402.570580,370.102971,-8963.317327,-148.041188
4402.570905,740.205942,-8503.660028,-296.082377
4402.571229,740.205942,-8503.660028,-444.123565
4402.571553,666.185348,-8810.098227,-148.041188
4402.571878,222.061783,-8580.269578,-148.041188
4402.572202,666.185348,-8810.098227,-370.102971
4402.572526,444.123565,-8197.221829,-222.061783
4402.572850,296.082377,-8580.269578,0.000000
4402.573175,296.082377,-8733.488677,-296.082377
4402.573499,296.082377,-8503.660028,74.020594
4402.573823,296.082377,-8503.660028,-370.102971
4402.574148,370.102971,-8656.879127,-296.082377
4402.574472,148.041188,-8580.269578,-222.061783
4402.574796,518.144159,-8656.879127,-222.061783
4402.575121,296.082377,-8886.707777,74.020594
4402.575445,148.041188,-8427.050478,0.000000
4402.575769,518.144159,-8427.050478,0.000000
4402.576094,222.061783,-8273.831378,-148.041188
4402.576418,666.185348,-8810.098227,0.000000
4402.576742,444.123565,-8427.050478,-370.102971
4402.577066,444.123565,-8273.831378,-370.102971
4402.577391,296.082377,-8427.050478,-444.123565
4402.577715,518.144159,-8886.707777,-296.082377
4402.578039,518.144159,-8350.440928,-444.123565
4402.578364,666.185348,-8733.488677,-296.082377
4402.578688,296.082377,-8273.831378,-518.144159
4402.579012,74.020594,-8503.660028,-296.082377
4402.579337,740.205942,-8197.221829,-444.123565
4402.579661,370.102971,-8427.050478,-296.082377
4402.579985,592.164754,-8580.269578,-222.061783
4402.580310,592.164754,-8503.660028,-296.082377
4402.580634,296.082377,-8427.050478,0.000000
4402.580958,148.041188,-8503.660028,-444.123565
4402.581282,444.123565,-8580.269578,-518.144159
4402.581607,296.082377,-8580.269578,-222.061783
4402.581931,444.123565,-8810.098227,-518.144159
4402.582255,444.123565,-8580.269578,-444.123565
4402.582580,370.102971,-8886.707777,-222.061783
4402.582904,444.123565,-8580.269578,-296.082377
4402.583228,296.082377,-8350.440928,-518.144159
4402.583553,1110.308913,-8886.707777,-148.041188
4402.583877,814.226536,-8503.660028,-444.123565
4402.584201,518.144159,-8580.269578,-592.164754
4402.584526,222.061783,-8886.707777,-666.185348
4402.584850,518.144159,-8733.488677,74.020594
4402.585174,592.164754,-8733.488677,-518.144159
4402.585499,148.041188,-8503.660028,-222.061783
4402.585823,370.102971,-8580.269578,-518.144159
4402.586147,444.123565,-8580.269578,-444.123565
4402.586471,0.000000,-8044.002729,-222.061783
4402.586796,666.185348,-8580.269578,-592.164754
4402.587120,592.164754,-8733.488677,-444.123565
4402.587444,518.144159,-8427.050478,-518.144159
4402.587769,592.164754,-8350.440928,0.000000
4402.588093,444.123565,-8733.488677,-740.205942
4402.588417,518.144159,-8733.488677,-296.082377
4402.588742,370.102971,-8656.879127,-444.123565
4402.589066,444.123565,-8810.098227,-666.185348
4402.589390,444.123565,-8656.879127,-370.102971
4402.589715,518.144159,-8886.707777,-518.144159
4402.590039,444.123565,-8427.050478,-518.144159
4402.590363,370.102971,-8733.488677,-666.185348
4402.590687,296.082377,-8427.050478,0.000000
4402.591012,444.123565,-8197.221829,-296.082377
4402.591336,444.123565,-8810.098227,-444.123565
4402.591660,444.123565,-8656.879127,-518.144159
4402.591985,666.185348,-8580.269578,0.000000
4402.592309,666.185348,-8427.050478,-740.205942
4402.592633,444.123565,-8656.879127,-592.164754
4402.592958,370.102971,-8733.488677,-592.164754
4402.593282,370.102971,-8580.269578,-148.041188
4402.593606,370.102971,-8656.879127,-592.164754
4402.593931,518.144159,-8580.269578,-592.164754
4402.594255,592.164754,-8427.050478,-518.144159
4402.594579,444.123565,-8273.831378,-370.102971
4402.594903,592.164754,-8886.707777,-222.061783
4402.595228,444.123565,-8580.269578,-518.144159
4402.595552,592.164754,-8810.098227,-370.102971
4402.595876,148.041188,-8427.050478,-518.144159
4402.596201,0.000000,-8963.317327,148.041188
4402.596525,296.082377,-8503.660028,-370.102971
4402.596849,592.164754,-8503.660028,-370.102971
4402.597174,444.123565,-8580.269578,-444.123565
4402.597498,444.123565,-8580.269578,-518.144159
4402.597822,814.226536,-8580.269578,-296.082377
4402.598147,444.123565,-8350.440928,-148.041188
4402.598471,370.102971,-8503.660028,-444.123565
4402.598795,370.102971,-8580.269578,-518.144159
4402.599119,740.205942,-8503.660028,-518.144159
4402.599444,370.102971,-8810.098227,-370.102971
4402.599768,370.102971,-8733.488677,-222.061783
4402.600092,370.102971,-8810.098227,-444.123565
4402.600417,296.082377,-7890.783629,74.020594
4402.600741,592.164754,-8427.050478,-518.144159
4402.601065,518.144159,-8580.269578,-444.123565
4402.601390,518.144159,-8580.269578,-296.082377
4402.601714,222.061783,-8580.269578,-444.123565
4402.602038,370.102971,-8427.050478,-592.164754
4402.602363,370.102971,-8656.879127,-444.123565
4402.602687,592.164754,-8886.707777,-296.082377
4402.603011,370.102971,-8350.440928,-444.123565
4402.603335,222.061783,-8350.440928,-370.102971
4402.603660,444.123565,-8580.269578,-666.185348
4402.603984,518.144159,-8503.660028,-592.164754
4402.604308,592.164754,-8503.660028,-666.185348
4402.604633,518.144159,-8503.660028,-518.144159
4402.604957,592.164754,-7967.393179,-518.144159
4402.605281,370.102971,-8427.050478,-370.102971
4402.605606,222.061783,-8656.879127,-592.164754
4402.605930,444.123565,-8503.660028,-592.164754
4402.606254,592.164754,-8350.440928,-1036.288319
4402.606579,222.061783,-8656.879127,-592.164754
4402.606903,148.041188,-8656.879127,-666.185348
4402.607227,444.123565,-8580.269578,-296.082377
4402.607551,518.144159,-8503.660028,-666.185348
4402.607875,518.144159,-8656.879127,-444.123565
4402.608200,444.123565,-8427.050478,-370.102971
4402.608524,370.102971,-8503.660028,-592.164754
4402.608848,370.102971,-8733.488677,-444.123565
4402.609172,666.185348,-8580.269578,-592.164754
4402.609497,444.123565,-8503.660028,-740.205942
4402.609821,444.123565,-8427.050478,-518.144159
4402.610145,148.041188,-8503.660028,-370.102971
4402.610469,814.226536,-8810.098227,0.000000
4402.610793,444.123565,-8656.879127,-370.102971
4402.611118,518.144159,-8810.098227,-296.082377
4402.611442,666.185348,-8810.098227,-296.082377
4402.611766,1036.288319,-8427.050478,-222.061783
4402.612090,518.144159,-8580.269578,-296.082377
4402.612415,222.061783,-8733.488677,-370.102971
4402.612739,444.123565,-8733.488677,-370.102971
4402.613063,444.123565,-8503.660028,-740.205942
4402.613387,666.185348,-8733.488677,-370.102971
4402.613711,222.061783,-8503.660028,-148.041188
4402.614036,370.102971,-8503.660028,0.000000
4402.614360,370.102971,-8350.440928,-296.082377
4402.614684,962.267725,-9193.145976,-518.144159
4402.615008,444.123565,-8580.269578,-296.082377
4402.615332,592.164754,-8503.660028,-148.041188
4402.615657,370.102971,-8273.831378,-370.102971
4402.615981,592.164754,-9039.926876,-444.123565
4402.616305,518.144159,-8350.440928,-518.144159
4402.616629,518.144159,-8963.317327,-444.123565
4402.616954,296.082377,-8580.269578,-222.061783
4402.617278,444.123565,-8580.269578,-370.102971
4402.617602,74.020594,-8350.440928,0.000000
4402.617926,296.082377,-8427.050478,-370.102971
4402.618250,592.164754,-8810.098227,-666.185348
4402.618575,592.164754,-8656.879127,-370.102971
4402.618899,740.205942,-8886.707777,-370.102971
4402.619223,296.082377,-8810.098227,-518.144159
4402.619547,148.041188,-8427.050478,-444.123565
4402.619872,222.061783,-8580.269578,-370.102971
4402.620196,518.144159,-8733.488677,-370.102971
4402.620520,296.082377,-8733.488677,-444.123565
4402.620844,518.144159,-8503.660028,-592.164754
4402.621168,518.144159,-8580.269578,-370.102971
4402.621493,444.123565,-8427.050478,-666.185348
4402.621817,666.185348,-8963.317327,-1036.288319
4402.622141,444.123565,-8350.440928,-518.144159
4402.622465,148.041188,-8656.879127,-296.082377
4402.622790,222.061783,-8503.660028,-666.185348
4402.623114,444.123565,-9269.755526,-370.102971
4402.623438,592.164754,-8580.269578,-666.185348
4402.623762,444.123565,-8503.660028,-740.205942
4402.624086,592.164754,-8580.269578,-370.102971
4402.624411,222.061783,-8503.660028,-444.123565
4402.624735,518.144159,-8580.269578,-592.164754
4402.625059,370.102971,-8733.488677,-592.164754
4402.625383,666.185348,-8886.707777,-666.185348
4402.625707,222.061783,-8350.440928,-370.102971
4402.626032,222.061783,-9116.536426,-444.123565
4402.626356,148.041188,-8963.317327,-370.102971
4402.626680,370.102971,-8350.440928,-518.144159
4402.627004,444.123565,-8733.488677,-740.205942
4402.627329,222.061783,-8273.831378,-296.082377
4402.627653,444.123565,-8580.269578,-296.082377
4402.627977,370.102971,-8580.269578,-444.123565
4402.628301,518.144159,-8886.707777,0.000000
4402.628625,518.144159,-8503.660028,-444.123565
4402.628950,370.102971,-8656.879127,-74.020594
4402.629274,296.082377,-8197.221829,-148.041188
4402.629598,296.082377,-8580.269578,-148.041188
4402.629922,444.123565,-8197.221829,-592.164754
4402.630247,74.020594,-8273.831378,-444.123565
4402.630571,592.164754,-8427.050478,-518.144159
4402.630895,592.164754,-8733.488677,-370.102971
4402.631219,740.205942,-8503.660028,-592.164754
4402.631543,222.061783,-8810.098227,-296.082377
4402.631868,370.102971,-8350.440928,-444.123565
4402.632192,296.082377,-8350.440928,-370.102971
4402.632516,518.144159,-8503.660028,-370.102971
4402.632840,444.123565,-8580.269578,-444.123565
4402.633165,222.061783,-8886.707777,-370.102971
4402.633489,370.102971,-8427.050478,-518.144159
4402.633813,444.123565,-8503.660028,-370.102971
4402.634137,370.102971,-8656.879127,0.000000
4402.634461,666.185348,-8810.098227,74.020594
4402.634786,666.185348,-8580.269578,-296.082377
4402.635110,370.102971,-8427.050478,-148.041188
4402.635434,296.082377,-8427.050478,-444.123565
4402.635758,296.082377,-9193.145976,-444.123565
4402.636082,370.102971,-8197.221829,0.000000
4402.636407,296.082377,-8580.269578,0.000000
4402.636731,518.144159,-8656.879127,-222.061783
4402.637055,592.164754,-8503.660028,-296.082377
4402.637379,814.226536,-8886.707777,0.000000
4402.637704,518.144159,-8503.660028,-296.082377
4402.638028,296.082377,-8580.269578,0.000000
4402.638352,444.123565,-8503.660028,-148.041188
4402.638676,148.041188,-9039.926876,592.164754
4402.639000,370.102971,-8656.879127,-370.102971
4402.639325,444.123565,-8810.098227,-222.061783
4402.639649,518.144159,-8273.831378,0.000000
4402.639973,370.102971,-8580.269578,0.000000
4402.640297,222.061783,-8580.269578,-370.102971
4402.640622,444.123565,-8733.488677,-148.041188
4402.640946,444.123565,-8580.269578,-296.082377
4402.641270,518.144159,-8886.707777,-370.102971
4402.641594,444.123565,-8427.050478,74.020594
4402.641918,518.144159,-8427.050478,-296.082377
4402.642243,370.102971,-8580.269578,-370.102971
4402.642567,370.102971,-8580.269578,-444.123565
4402.642891,148.041188,-8886.707777,-222.061783
4402.643215,370.102971,-8427.050478,-148.041188
4402.643540,444.123565,-8503.660028,-296.082377
4402.643864,666.185348,-8273.831378,-74.020594
4402.644188,518.144159,-8503.660028,-518.144159
4402.644512,592.164754,-8963.317327,-296.082377
4402.644836,370.102971,-8963.317327,-592.164754
4402.645161,444.123565,-8580.269578,-296.082377
4402.645485,148.041188,-8656.879127,-296.082377
4402.645809,148.041188,-8044.002729,-222.061783
4402.646133,370.102971,-8656.879127,-444.123565
4402.646457,444.123565,-8580.269578,0.000000
4402.646782,222.061783,-8503.660028,-222.061783
4402.647106,296.082377,-8580.269578,0.000000
4402.647430,296.082377,-8656.879127,-148.041188
4402.647754,592.164754,-8427.050478,-518.144159
4402.648079,444.123565,-8580.269578,-296.082377
4402.648403,222.061783,-8733.488677,-444.123565
4402.648727,296.082377,-8733.488677,0.000000
4402.649051,370.102971,-8886.707777,-296.082377
4402.649375,296.082377,-8733.488677,-592.164754
4402.649700,444.123565,-8580.269578,-518.144159
4402.650024,148.041188,-8044.002729,222.061783
4402.650348,370.102971,-8503.660028,-296.082377
4402.650672,370.102971,-8656.879127,-370.102971
4402.650997,666.185348,-8503.660028,-370.102971
4402.651321,444.123565,-8427.050478,0.000000
4402.651645,296.082377,-8273.831378,-222.061783
4402.651969,370.102971,-8503.660028,-296.082377
4402.652293,222.061783,-8656.879127,-148.041188
4402.652618,444.123565,-8580.269578,-296.082377
4402.652942,740.205942,-8656.879127,-666.185348
4402.653266,592.164754,-8580.269578,-222.061783
4402.653590,296.082377,-8273.831378,-296.082377
4402.653915,518.144159,-8503.660028,0.000000
4402.654239,740.205942,-8656.879127,-296.082377
4402.654563,740.205942,-8733.488677,-222.061783
4402.654887,518.144159,-8503.660028,-222.061783
4402.655211,444.123565,-8503.660028,-222.061783
4402.655536,296.082377,-8810.098227,-296.082377
4402.655860,370.102971,-8810.098227,-148.041188
4402.656184,222.061783,-8580.269578,-296.082377
4402.656508,444.123565,-8656.879127,-370.102971
4402.656833,370.102971,-8427.050478,0.000000
4402.657157,444.123565,-8656.879127,0.000000
4402.657481,518.144159,-8733.488677,-518.144159
4402.657805,592.164754,-8503.660028,-148.041188
4402.658129,592.164754,-8503.660028,-592.164754
4402.658454,814.226536,-8733.488677,-370.102971
4402.658778,518.144159,-8810.098227,-296.082377
4402.659102,444.123565,-8810.098227,-370.102971
4402.659426,296.082377,-8810.098227,-296.082377
4402.659750,74.020594,-8503.660028,-444.123565
4402.660075,370.102971,-8656.879127,-296.082377
4402.660399,518.144159,-8273.831378,-370.102971
4402.660723,296.082377,-8580.269578,-222.061783
4402.661047,222.061783,-8810.098227,-148.041188
4402.661372,814.226536,-8886.707777,-296.082377
4402.661696,444.123565,-8810.098227,-592.164754
4402.662020,370.102971,-8656.879127,-222.061783
4402.662344,74.020594,-8963.317327,-296.082377
4402.662668,370.102971,-8580.269578,-74.020594
4402.662993,370.102971,-8810.098227,0.000000
4402.663317,296.082377,-8656.879127,-148.041188
4402.663641,740.205942,-8810.098227,-370.102971
4402.663965,592.164754,-8273.831378,0.000000
4402.664290,518.144159,-8733.488677,-222.061783
4402.664614,518.144159,-8503.660028,-444.123565
4402.664938,222.061783,-8427.050478,-222.061783
4402.665262,444.123565,-8733.488677,0.000000
4402.665586,444.123565,-8044.002729,74.020594
4402.665911,518.144159,-8580.269578,0.000000
4402.666235,296.082377,-8427.050478,0.000000
4402.666559,592.164754,-8427.050478,-74.020594
4402.666883,592.164754,-8733.488677,0.000000
4402.667208,814.226536,-8580.269578,-148.041188
4402.667532,222.061783,-8427.050478,-296.082377
4402.667856,444.123565,-8886.707777,0.000000
4402.668180,370.102971,-8350.440928,-370.102971
4402.668504,148.041188,-8427.050478,0.000000
4402.668829,296.082377,-8427.050478,0.000000
4402.669153,592.164754,-8733.488677,0.000000
4402.669477,518.144159,-8350.440928,-296.082377
4402.669801,518.144159,-8733.488677,370.102971
4402.670125,296.082377,-8427.050478,0.000000
4402.670450,518.144159,-8733.488677,-148.041188
4402.670774,296.082377,-8273.831378,74.020594
4402.671098,296.082377,-8503.660028,0.000000
4402.671422,518.144159,-8733.488677,-370.102971
4402.671747,444.123565,-8810.098227,0.000000
4402.672071,518.144159,-8580.269578,-370.102971
4402.672395,444.123565,-8503.660028,0.000000
4402.672719,74.020594,-8656.879127,-370.102971
4402.673043,666.185348,-8886.707777,-296.082377
4402.673368,296.082377,-8580.269578,-296.082377
4402.673692,444.123565,-8656.879127,0.000000
4402.674016,370.102971,-8197.221829,0.000000
4402.674340,370.102971,-8656.879127,-222.061783
4402.674665,444.123565,-8810.098227,-370.102971
4402.674989,444.123565,-8733.488677,-370.102971
4402.675313,518.144159,-8656.879127,-296.082377
4402.675637,518.144159,-8503.660028,-296.082377
4402.675961,222.061783,-8503.660028,-148.041188
4402.676286,444.123565,-8580.269578,-296.082377
4402.676610,444.123565,-8810.098227,-148.041188
4402.676934,740.205942,-8656.879127,0.000000
4402.677258,518.144159,-8733.488677,-370.102971
4402.677583,518.144159,-8503.660028,-296.082377
4402.677907,444.123565,-8580.269578,-444.123565
4402.678231,518.144159,-8197.221829,-296.082377
4402.678555,296.082377,-8273.831378,-444.123565
4402.678879,592.164754,-8580.269578,-518.144159
4402.679204,518.144159,-8733.488677,-666.185348
4402.679528,296.082377,-8810.098227,-444.123565
4402.679852,296.082377,-8580.269578,-222.061783
4402.680176,592.164754,-8656.879127,-148.041188
4402.680500,370.102971,-8350.440928,-444.123565
4402.680825,444.123565,-8656.879127,-370.102971
4402.681149,518.144159,-8197.221829,-740.205942
4402.681473,370.102971,-8656.879127,-222.061783
4402.681797,370.102971,-8580.269578,-370.102971
4402.682122,370.102971,-8273.831378,-222.061783
4402.682446,444.123565,-8350.440928,-370.102971
4402.682770,296.082377,-8273.831378,-296.082377
4402.683094,370.102971,-8503.660028,0.000000
4402.683418,222.061783,-8656.879127,-444.123565
4402.683743,370.102971,-8580.269578,-296.082377
4402.684067,518.144159,-8350.440928,-592.164754
4402.684391,518.144159,-8733.488677,-148.041188
4402.684715,518.144159,-8656.879127,-296.082377
4402.685040,296.082377,-8656.879127,-148.041188
4402.685364,296.082377,-8503.660028,-666.185348
4402.685688,370.102971,-8580.269578,-370.102971
4402.686012,444.123565,-8580.269578,-518.144159
4402.686336,444.123565,-8503.660028,-370.102971
4402.686661,296.082377,-8963.317327,-370.102971
4402.686985,444.123565,-8810.098227,-222.061783
4402.687309,518.144159,-8273.831378,-222.061783
4402.687633,296.082377,-8656.879127,-370.102971
4402.687958,444.123565,-8580.269578,-518.144159
4402.688282,296.082377,-8350.440928,0.000000
4402.688606,296.082377,-8656.879127,-444.123565
4402.688930,74.020594,-8580.269578,-296.082377
4402.689254,518.144159,-8580.269578,-444.123565
4402.689579,370.102971,-8963.317327,0.000000
4402.689903,518.144159,-8580.269578,-444.123565
4402.690227,148.041188,-8656.879127,-518.144159
4402.690551,370.102971,-8580.269578,-296.082377
4402.690875,518.144159,-8427.050478,-370.102971
4402.691200,592.164754,-8427.050478,-962.267725
4402.691524,444.123565,-8810.098227,-444.123565
4402.691848,444.123565,-8350.440928,-592.164754
4402.692172,740.205942,-8656.879127,-740.205942
4402.692497,148.041188,-8580.269578,-444.123565
4402.692821,518.144159,-8656.879127,-592.164754
4402.693145,370.102971,-8656.879127,-888.247130
4402.693469,148.041188,-8580.269578,-370.102971
4402.693793,296.082377,-9346.365076,-444.123565
4402.694118,148.041188,-8656.879127,-444.123565
4402.694442,592.164754,-8273.831378,-666.185348
4402.694766,518.144159,-8886.707777,-518.144159
4402.695090,518.144159,-8656.879127,-666.185348
4402.695415,222.061783,-8427.050478,-148.041188
4402.695739,222.061783,-8580.269578,-592.164754
4402.696063,222.061783,-8273.831378,-592.164754
4402.696387,740.205942,-8427.050478,-518.144159
4402.696711,222.061783,-8273.831378,-666.185348
4402.697036,370.102971,-8733.488677,-444.123565
4402.697360,296.082377,-8580.269578,-518.144159
4402.697684,296.082377,-8580.269578,-592.164754
4402.698008,740.205942,-8656.879127,-1332.370696
4402.698333,592.164754,-8886.707777,-740.205942
4402.698657,592.164754,-8656.879127,-370.102971
4402.698981,222.061783,-8503.660028,-370.102971
4402.699305,444.123565,-8810.098227,-518.144159
4402.699629,518.144159,-8656.879127,-296.082377
4402.699954,370.102971,-8810.098227,-444.123565
4402.700278,148.041188,-8427.050478,-296.082377
4402.700602,370.102971,-8580.269578,-592.164754
4402.700926,370.102971,-8810.098227,296.082377
4402.701251,370.102971,-8580.269578,-370.102971
4402.701575,296.082377,-8656.879127,-444.123565
4402.701899,148.041188,-8580.269578,-296.082377
4402.702223,592.164754,-9116.536426,0.000000
4402.702547,444.123565,-8503.660028,0.000000
4402.702872,222.061783,-8656.879127,-148.041188
4402.703196,370.102971,-8733.488677,-370.102971
4402.703520,370.102971,-8580.269578,-518.144159
4402.703844,222.061783,-8733.488677,-222.061783
4402.704168,370.102971,-8580.269578,-296.082377
4402.704493,444.123565,-8580.269578,0.000000
4402.704817,222.061783,-8273.831378,-148.041188
4402.705141,222.061783,-8656.879127,0.000000
4402.705465,518.144159,-8656.879127,-222.061783
4402.705790,666.185348,-8427.050478,-222.061783
4402.706114,222.061783,-8733.488677,-370.102971
4402.706438,148.041188,-8503.660028,0.000000
4402.706762,296.082377,-8350.440928,-296.082377
4402.707086,444.123565,-8810.098227,-370.102971
4402.707411,370.102971,-8580.269578,-296.082377
4402.707735,222.061783,-8733.488677,-148.041188
4402.708059,296.082377,-8427.050478,-222.061783
4402.708383,370.102971,-8197.221829,-296.082377
4402.708707,296.082377,-8886.707777,-222.061783
4402.709032,740.205942,-8427.050478,-518.144159
4402.709356,962.267725,-8656.879127,-296.082377
4402.709680,370.102971,-8810.098227,-444.123565
4402.710004,370.102971,-8580.269578,-222.061783
4402.710329,518.144159,-8503.660028,-592.164754
4402.710653,444.123565,-8733.488677,-370.102971
4402.710977,444.123565,-8580.269578,-518.144159
4402.711301,370.102971,-8656.879127,-148.041188
4402.711625,370.102971,-8580.269578,-518.144159
4402.711950,518.144159,-8580.269578,-444.123565
4402.712274,814.226536,-8656.879127,0.000000
4402.712598,592.164754,-8733.488677,-222.061783
4402.712922,370.102971,-8427.050478,-666.185348
4402.713246,370.102971,-8810.098227,-370.102971
4402.713571,518.144159,-8963.317327,148.041188
4402.713895,296.082377,-8580.269578,-444.123565
4402.714219,370.102971,-8810.098227,-444.123565
4402.714543,296.082377,-8503.660028,-296.082377
4402.714867,296.082377,-8656.879127,-444.123565
4402.715192,222.061783,-8886.707777,-444.123565
4402.715516,444.123565,-8810.098227,-814.226536
4402.715840,444.123565,-8580.269578,-444.123565
4402.716164,296.082377,-8427.050478,-518.144159
4402.716488,444.123565,-8273.831378,0.000000
4402.716813,740.205942,-8656.879127,-592.164754
4402.717137,296.082377,-8733.488677,-518.144159
4402.717461,518.144159,-8580.269578,-592.164754
4402.717785,370.102971,-9116.536426,-444.123565
4402.718109,74.020594,-8656.879127,-592.164754
4402.718434,444.123565,-8427.050478,-370.102971
4402.718758,592.164754,-8273.831378,-740.205942
4402.719082,370.102971,-8810.098227,-814.226536
4402.719406,370.102971,-8503.660028,-518.144159
4402.719730,296.082377,-8580.269578,-592.164754
4402.720055,148.041188,-8580.269578,-666.185348
4402.720379,296.082377,-8427.050478,-666.185348
4402.720703,370.102971,-8656.879127,-222.061783
4402.721027,444.123565,-8350.440928,-592.164754
4402.721352,444.123565,-8733.488677,-148.041188
4402.721676,296.082377,-8656.879127,-444.123565
4402.722000,296.082377,-8503.660028,-370.102971
4402.722324,296.082377,-8273.831378,-518.144159
4402.722648,296.082377,-8580.269578,-666.185348
4402.722973,370.102971,-8427.050478,-444.123565
4402.723297,222.061783,-8580.269578,-296.082377
4402.723621,592.164754,-8656.879127,-740.205942
4402.723945,370.102971,-8427.050478,-222.061783
4402.724269,444.123565,-8733.488677,-444.123565
4402.724594,814.226536,-8656.879127,-296.082377
4402.724918,296.082377,-8427.050478,148.041188
4402.725242,370.102971,-8580.269578,-222.061783
4402.725566,518.144159,-8273.831378,-296.082377
4402.725890,518.144159,-8656.879127,-444.123565
4402.726215,296.082377,-8580.269578,-370.102971
4402.726539,370.102971,-8350.440928,-148.041188
4402.726863,222.061783,-8810.098227,-296.082377
4402.727187,370.102971,-8810.098227,0.000000
4402.727511,666.185348,-8656.879127,-370.102971
4402.727836,740.205942,-8120.612279,-518.144159
4402.728160,666.185348,-8656.879127,-222.061783
4402.728484,592.164754,-8503.660028,-222.061783
4402.728808,444.123565,-8656.879127,-370.102971
4402.729132,444.123565,-8427.050478,0.000000
4402.729457,444.123565,-8810.098227,-518.144159
4402.729781,444.123565,-8656.879127,-296.082377
4402.730105,222.061783,-8273.831378,-148.041188
4402.730429,592.164754,-8963.317327,-148.041188
4402.730754,592.164754,-8733.488677,-370.102971
4402.731078,666.185348,-8580.269578,-296.082377
4402.731402,666.185348,-8427.050478,-370.102971
4402.731726,518.144159,-8810.098227,0.000000
4402.732050,148.041188,-8273.831378,-222.061783
4402.732375,444.123565,-8656.879127,-148.041188
4402.732699,148.041188,-8580.269578,-444.123565
4402.733023,370.102971,-8963.317327,-444.123565
4402.733347,518.144159,-8656.879127,0.000000
4402.733671,148.041188,-8580.269578,-148.041188
4402.733996,370.102971,-8733.488677,-592.164754
4402.734320,444.123565,-8656.879127,-444.123565
4402.734644,592.164754,-8350.440928,-518.144159
4402.734968,370.102971,-8427.050478,-518.144159
4402.735292,518.144159,-8580.269578,-444.123565
4402.735617,74.020594,-8656.879127,-370.102971
4402.735941,370.102971,-8886.707777,-370.102971
4402.736265,148.041188,-8197.221829,-148.041188
4402.736589,296.082377,-8733.488677,-518.144159
4402.736913,518.144159,-8427.050478,-518.144159
4402.737238,296.082377,-8733.488677,-296.082377
4402.737562,296.082377,-8656.879127,0.000000
4402.737886,666.185348,-8427.050478,-370.102971
4402.738210,592.164754,-8733.488677,-518.144159
4402.738534,296.082377,-8656.879127,-518.144159
4402.738859,518.144159,-8733.488677,-222.061783
4402.739183,222.061783,-8503.660028,-222.061783
4402.739507,222.061783,-8580.269578,-296.082377
4402.739831,444.123565,-8273.831378,-370.102971
4402.740156,296.082377,-8886.707777,-222.061783
4402.740480,592.164754,-7660.954980,148.041188
4402.740804,518.144159,-8580.269578,-592.164754
4402.741128,592.164754,-8503.660028,-370.102971
4402.741452,592.164754,-8273.831378,-370.102971
4402.741777,518.144159,-8656.879127,-444.123565
4402.742101,666.185348,-8580.269578,-222.061783
4402.742425,592.164754,-8503.660028,-370.102971
4402.742749,370.102971,-8733.488677,0.000000
4402.743073,296.082377,-8197.221829,-296.082377
4402.743398,814.226536,-8656.879127,0.000000
4402.743722,444.123565,-8350.440928,-296.082377
4402.744046,592.164754,-8273.831378,-222.061783
4402.744370,444.123565,-8273.831378,-296.082377
4402.744694,370.102971,-8656.879127,148.041188
4402.745019,444.123565,-8350.440928,-444.123565
4402.745343,444.123565,-8580.269578,-518.144159
4402.745667,370.102971,-8273.831378,-370.102971
4402.745991,518.144159,-8656.879127,-148.041188
4402.746315,222.061783,-8427.050478,-148.041188
4402.746640,222.061783,-8503.660028,-148.041188
4402.746964,296.082377,-8886.707777,-518.144159
4402.747288,370.102971,-8197.221829,-296.082377
4402.747612,444.123565,-8733.488677,0.000000
4402.747936,148.041188,-8886.707777,-444.123565
4402.748261,370.102971,-8427.050478,-370.102971
4402.748585,296.082377,-8656.879127,-518.144159
4402.748909,666.185348,-8810.098227,-592.164754
4402.749233,296.082377,-8886.707777,0.000000
4402.749557,444.123565,-8810.098227,-666.185348
4402.749882,296.082377,-8886.707777,-222.061783
4402.750206,148.041188,-8733.488677,-592.164754
4402.750530,296.082377,-8963.317327,-148.041188
4402.750854,370.102971,-8503.660028,-370.102971
4402.751179,370.102971,-8580.269578,-296.082377
4402.751503,74.020594,-8350.440928,-518.144159
4402.751827,740.205942,-8656.879127,0.000000
4402.752151,296.082377,-8580.269578,-592.164754
4402.752475,444.123565,-8656.879127,-444.123565
4402.752800,0.000000,-8273.831378,-222.061783
4402.753124,296.082377,-8197.221829,-296.082377
4402.753448,296.082377,-8427.050478,-296.082377
4402.753772,518.144159,-8503.660028,-518.144159
4402.754096,592.164754,-8580.269578,-444.123565
4402.754421,444.123565,-8427.050478,0.000000
4402.754745,370.102971,-8503.660028,-592.164754
4402.755069,444.123565,-8503.660028,-518.144159
4402.755393,518.144159,-8503.660028,-296.082377
4402.755717,444.123565,-8580.269578,-666.185348
4402.756042,666.185348,-9499.584175,0.000000
4402.756366,296.082377,-8810.098227,0.000000
4402.756690,518.144159,-8580.269578,-296.082377
4402.757014,296.082377,-8273.831378,-148.041188
4402.757338,296.082377,-8733.488677,-148.041188
4402.757663,666.185348,-8503.660028,-296.082377
4402.757987,518.144159,-8580.269578,-222.061783
4402.758311,518.144159,-8886.707777,0.000000
4402.758635,222.061783,-8656.879127,0.000000
4402.758959,296.082377,-8656.879127,0.000000
4402.759284,518.144159,-8810.098227,-444.123565
4402.759608,444.123565,-8503.660028,-296.082377
4402.759932,444.123565,-8580.269578,-444.123565
4402.760256,592.164754,-8810.098227,0.000000
4402.760581,444.123565,-8580.269578,-222.061783
4402.760905,666.185348,-8733.488677,-370.102971
4402.761229,444.123565,-8427.050478,0.000000
4402.761553,444.123565,-8733.488677,-444.123565
4402.761877,518.144159,-8733.488677,-296.082377
4402.762202,222.061783,-8656.879127,-444.123565
4402.762526,370.102971,-8733.488677,-296.082377
4402.762850,222.061783,-8350.440928,-296.082377
4402.763174,296.082377,-8503.660028,-222.061783
4402.763498,444.123565,-8503.660028,-370.102971
4402.763823,222.061783,-8580.269578,-296.082377
4402.764147,222.061783,-8733.488677,-222.061783
4402.764471,666.185348,-8886.707777,-592.164754
4402.764795,444.123565,-8503.660028,-296.082377
4402.765119,370.102971,-8656.879127,-296.082377
4402.765444,296.082377,-8733.488677,-296.082377
4402.765768,444.123565,-8503.660028,-444.123565
4402.766092,222.061783,-8656.879127,-370.102971
4402.766416,148.041188,-8503.660028,-296.082377
4402.766740,0.000000,-8656.879127,-296.082377
4402.767065,296.082377,-8733.488677,-222.061783
4402.767389,740.205942,-8580.269578,0.000000
4402.767713,444.123565,-8810.098227,-222.061783
4402.768037,666.185348,-8503.660028,-296.082377
4402.768361,518.144159,-8503.660028,-148.041188
4402.768686,296.082377,-9193.145976,-222.061783
4402.769010,592.164754,-8580.269578,-296.082377
4402.769334,370.102971,-8656.879127,-370.102971
4402.769658,592.164754,-8427.050478,-296.082377
4402.769982,222.061783,-8733.488677,-222.061783
4402.770307,74.020594,-8810.098227,0.000000
4402.770631,222.061783,-8656.879127,-296.082377
4402.770955,370.102971,-8580.269578,-148.041188
4402.771279,296.082377,-8733.488677,-148.041188
4402.771604,296.082377,-8733.488677,0.000000
4402.771928,666.185348,-8580.269578,-222.061783
4402.772252,370.102971,-8963.317327,-74.020594
4402.772576,518.144159,-8580.269578,-222.061783
4402.772900,518.144159,-8427.050478,-222.061783
4402.773225,444.123565,-8580.269578,-296.082377
4402.773549,74.020594,-8503.660028,-370.102971
4402.773873,444.123565,-8656.879127,-222.061783
4402.774197,370.102971,-8580.269578,0.000000
4402.774521,666.185348,-8427.050478,-666.185348
4402.774846,370.102971,-8580.269578,-666.185348
4402.775170,444.123565,-8350.440928,-296.082377
4402.775494,370.102971,-8580.269578,-296.082377
4402.775818,444.123565,-9269.755526,-518.144159
4402.776142,370.102971,-8580.269578,-148.041188
4402.776467,296.082377,-8733.488677,-518.144159
4402.776791,370.102971,-8810.098227,-370.102971
4402.777115,592.164754,-8427.050478,-296.082377
4402.777439,518.144159,-8580.269578,-370.102971
4402.777763,592.164754,-8273.831378,-148.041188
4402.778088,592.164754,-8733.488677,-222.061783
4402.778412,222.061783,-8580.269578,-148.041188
4402.778736,962.267725,-8503.660028,0.000000
4402.779060,370.102971,-8580.269578,-296.082377
4402.779384,370.102971,-8810.098227,-222.061783
4402.779709,518.144159,-8427.050478,-518.144159
4402.780033,370.102971,-9269.755526,0.000000
4402.780357,518.144159,-8503.660028,0.000000
4402.780681,148.041188,-8580.269578,-296.082377
4402.781006,666.185348,-8810.098227,0.000000
4402.781330,296.082377,-8350.440928,-296.082377
4402.781654,814.226536,-8963.317327,-296.082377
4402.781978,444.123565,-8427.050478,-296.082377
4402.782302,444.123565,-8503.660028,0.000000
4402.782627,296.082377,-8503.660028,-296.082377
4402.782951,74.020594,-8733.488677,148.041188
4402.783275,444.123565,-8733.488677,-148.041188
4402.783599,296.082377,-8580.269578,-370.102971
4402.783923,518.144159,-8886.707777,-74.020594
4402.784248,518.144159,-8580.269578,-296.082377
4402.784572,518.144159,-8733.488677,-222.061783
4402.784896,370.102971,-8427.050478,-444.123565
4402.785220,518.144159,-8886.707777,-444.123565
4402.785544,370.102971,-8580.269578,-370.102971
4402.785869,666.185348,-8120.612279,-444.123565
4402.786193,370.102971,-8427.050478,-296.082377
4402.786517,370.102971,-8580.269578,-518.144159
4402.786841,518.144159,-8733.488677,-222.061783
4402.787165,888.247130,-8963.317327,-518.144159
4402.787490,444.123565,-8350.440928,-296.082377
4402.787814,370.102971,-8503.660028,-370.102971
4402.788138,740.205942,-8810.098227,-444.123565
4402.788462,444.123565,-8810.098227,-444.123565
4402.788786,370.102971,-8656.879127,-222.061783
4402.789111,296.082377,-8120.612279,-296.082377
4402.789435,370.102971,-8656.879127,-296.082377
4402.789759,518.144159,-8580.269578,-370.102971
4402.790083,518.144159,-8656.879127,-296.082377
4402.790407,814.226536,-8656.879127,-592.164754
4402.790732,444.123565,-8503.660028,-518.144159
4402.791056,370.102971,-9039.926876,-370.102971
4402.791380,370.102971,-8350.440928,0.000000
4402.791704,740.205942,-8503.660028,-592.164754
4402.792029,370.102971,-8427.050478,-444.123565
4402.792353,740.205942,-8580.269578,-370.102971
4402.792677,518.144159,-8503.660028,-518.144159
4402.793001,222.061783,-8197.221829,-370.102971
4402.793325,296.082377,-8580.269578,-444.123565
4402.793650,296.082377,-8656.879127,-296.082377
4402.793974,370.102971,-8733.488677,-592.164754
4402.794298,0.000000,-8580.269578,-888.247130
4402.794622,296.082377,-8963.317327,-370.102971
4402.794946,222.061783,-8580.269578,-518.144159
4402.795271,518.144159,-8503.660028,-296.082377
4402.795595,444.123565,-8427.050478,-296.082377
4402.795919,444.123565,-8656.879127,-370.102971
4402.796243,518.144159,-8427.050478,-444.123565
4402.796567,296.082377,-8656.879127,-296.082377
4402.796892,518.144159,-8580.269578,-370.102971
4402.797216,518.144159,-8580.269578,-592.164754
4402.797540,222.061783,-8656.879127,-444.123565
4402.797864,444.123565,-8580.269578,-296.082377
4402.798188,444.123565,-8733.488677,-148.041188
4402.798513,592.164754,-8580.269578,-222.061783
4402.798837,444.123565,-8427.050478,-222.061783
4402.799161,444.123565,-8810.098227,-296.082377
4402.799485,296.082377,-8580.269578,-148.041188
4402.799809,962.267725,-8580.269578,-148.041188
4402.800134,444.123565,-8427.050478,-296.082377
4402.800458,296.082377,-8733.488677,-296.082377
4402.800782,518.144159,-8580.269578,-518.144159
4402.801106,444.123565,-8580.269578,-444.123565
4402.801431,592.164754,-8886.707777,0.000000
4402.801755,518.144159,-8350.440928,-296.082377
4402.802079,444.123565,-8656.879127,0.000000
4402.802403,518.144159,-8580.269578,-444.123565
4402.802727,592.164754,-8963.317327,0.000000
4402.803052,444.123565,-8273.831378,-296.082377
4402.803376,444.123565,-8427.050478,-296.082377
4402.803700,740.205942,-8656.879127,-370.102971
4402.804024,592.164754,-9193.145976,-222.061783
4402.804348,444.123565,-8810.098227,-222.061783
4402.804673,444.123565,-8503.660028,-148.041188
4402.804997,518.144159,-8580.269578,-444.123565
4402.805321,666.185348,-8886.707777,-518.144159
4402.805645,370.102971,-8656.879127,-148.041188
4402.805969,370.102971,-8503.660028,-296.082377
4402.806294,666.185348,-8503.660028,-518.144159
4402.806618,370.102971,-8350.440928,-296.082377
4402.806942,444.123565,-8120.612279,-740.205942
4402.807266,0.000000,-8503.660028,-296.082377
4402.807590,518.144159,-8503.660028,-222.061783
4402.807915,444.123565,-8580.269578,-518.144159
4402.808239,370.102971,-8427.050478,-296.082377
4402.808563,222.061783,-8427.050478,-296.082377
4402.808887,444.123565,-8427.050478,-518.144159
4402.809211,296.082377,-8580.269578,-518.144159
4402.809536,444.123565,-8733.488677,-518.144159
4402.809860,518.144159,-8733.488677,-592.164754
4402.810184,370.102971,-8273.831378,-370.102971
4402.810508,0.000000,-8656.879127,-370.102971
4402.810832,444.123565,-8427.050478,-444.123565
4402.811156,296.082377,-8273.831378,-370.102971
4402.811481,592.164754,-8580.269578,-296.082377
4402.811805,222.061783,-8427.050478,-370.102971
4402.812129,370.102971,-8656.879127,-296.082377
4402.812453,592.164754,-8656.879127,-518.144159
4402.812777,296.082377,-8580.269578,-296.082377
4402.813102,592.164754,-8580.269578,-370.102971
4402.813426,370.102971,-8656.879127,-296.082377
4402.813750,222.061783,-8580.269578,-296.082377
4402.814074,444.123565,-8733.488677,-592.164754
4402.814398,814.226536,-8427.050478,-296.082377
4402.814722,518.144159,-8580.269578,-296.082377
4402.815047,222.061783,-8810.098227,-592.164754
4402.815371,370.102971,-9116.536426,-444.123565
4402.815695,518.144159,-8580.269578,-222.061783
4402.816019,296.082377,-8580.269578,-370.102971
4402.816343,666.185348,-8733.488677,-296.082377
4402.816668,370.102971,-8733.488677,-222.061783
4402.816992,740.205942,-8733.488677,-370.102971
4402.817316,518.144159,-8656.879127,-444.123565
4402.817640,444.123565,-8503.660028,0.000000
4402.817964,592.164754,-8503.660028,-296.082377
4402.818289,740.205942,-9116.536426,0.000000
4402.818613,296.082377,-8733.488677,-592.164754
4402.818937,666.185348,-8580.269578,-518.144159
4402.819261,444.123565,-8580.269578,-370.102971
4402.819585,444.123565,-8886.707777,-148.041188
4402.819909,296.082377,-8733.488677,-518.144159
4402.820234,518.144159,-8503.660028,-370.102971
4402.820558,222.061783,-8427.050478,-222.061783
4402.820882,296.082377,-8810.098227,-148.041188
4402.821206,518.144159,-8427.050478,-222.061783
4402.821530,444.123565,-8427.050478,-296.082377
4402.821855,296.082377,-8580.269578,-296.082377
4402.822179,148.041188,-8427.050478,0.000000
4402.822503,666.185348,-8503.660028,-666.185348
4402.822827,444.123565,-8503.660028,-296.082377
4402.823151,444.123565,-8963.317327,-296.082377
4402.823475,370.102971,-8733.488677,-444.123565
4402.823800,222.061783,-8350.440928,-222.061783
4402.824124,222.061783,-8580.269578,-370.102971
4402.824448,296.082377,-8733.488677,-370.102971
4402.824772,592.164754,-8503.660028,-592.164754
4402.825096,444.123565,-8503.660028,-370.102971
4402.825421,592.164754,-8580.269578,-444.123565
4402.825745,666.185348,-8810.098227,-296.082377
4402.826069,296.082377,-8656.879127,-296.082377
4402.826393,222.061783,-8810.098227,-518.144159
4402.826717,666.185348,-8120.612279,-222.061783
4402.827042,518.144159,-8733.488677,-296.082377
4402.827366,666.185348,-8273.831378,-370.102971
4402.827690,148.041188,-8580.269578,-370.102971
4402.828014,222.061783,-8733.488677,-444.123565
4402.828338,148.041188,-8656.879127,-370.102971
4402.828662,444.123565,-8503.660028,-370.102971
4402.828987,444.123565,-9039.926876,-518.144159
4402.829311,296.082377,-8810.098227,-370.102971
4402.829635,370.102971,-8350.440928,-148.041188
4402.829959,370.102971,-8427.050478,-370.102971
4402.830283,518.144159,-8733.488677,-370.102971
4402.830608,518.144159,-8733.488677,-592.164754
4402.830932,592.164754,-8503.660028,0.000000
4402.831256,592.164754,-8656.879127,-666.185348
4402.831580,444.123565,-8350.440928,-444.123565
4402.831904,370.102971,-8733.488677,-740.205942
4402.832228,444.123565,-8503.660028,-666.185348
4402.832553,296.082377,-8350.440928,-444.123565
4402.832877,444.123565,-8656.879127,-370.102971
4402.833201,444.123565,-8350.440928,-666.185348
4402.833525,444.123565,-8427.050478,-444.123565
4402.833849,370.102971,-8350.440928,-1332.370696
4402.834174,666.185348,-8503.660028,-518.144159
4402.834498,518.144159,-8273.831378,-592.164754
4402.834822,518.144159,-8656.879127,-666.185348
4402.835146,518.144159,-7967.393179,-370.102971
4402.835470,296.082377,-8350.440928,-740.205942
4402.835795,370.102971,-8580.269578,-666.185348
4402.836119,370.102971,-8273.831378,-592.164754
4402.836443,370.102971,-8580.269578,-444.123565
4402.836767,0.000000,-8197.221829,-148.041188
4402.837091,370.102971,-8580.269578,-592.164754
4402.837415,518.144159,-8580.269578,-518.144159
4402.837740,518.144159,-8503.660028,-370.102971
4402.838064,296.082377,-8350.440928,0.000000
4402.838388,518.144159,-8580.269578,-666.185348
4402.838712,370.102971,-8733.488677,-444.123565
4402.839036,444.123565,-8580.269578,-592.164754
4402.839361,148.041188,-7890.783629,-296.082377
4402.839685,148.041188,-8810.098227,-444.123565
4402.840009,222.061783,-8656.879127,-148.041188
4402.840333,370.102971,-8350.440928,-296.082377
4402.840657,592.164754,-8963.317327,-148.041188
4402.840981,666.185348,-9039.926876,-370.102971
4402.841306,592.164754,-8427.050478,-296.082377
4402.841630,296.082377,-8350.440928,-296.082377
4402.841954,148.041188,-8580.269578,-148.041188
4402.842278,592.164754,-9422.974625,-222.061783
4402.842602,370.102971,-8733.488677,-296.082377
4402.842927,666.185348,-8580.269578,-592.164754
4402.843251,296.082377,-8580.269578,-296.082377
4402.843575,444.123565,-8810.098227,-296.082377
4402.843899,296.082377,-8733.488677,-148.041188
4402.844223,666.185348,-8503.660028,0.000000
4402.844547,444.123565,-8886.707777,-296.082377
4402.844872,666.185348,-8273.831378,-222.061783
4402.845196,0.000000,-8503.660028,0.000000
4402.845520,518.144159,-8886.707777,-296.082377
4402.845844,444.123565,-8427.050478,-296.082377
4402.846168,518.144159,-8963.317327,-148.041188
4402.846493,296.082377,-8427.050478,-518.144159
4402.846817,370.102971,-8580.269578,74.020594
4402.847141,518.144159,-8427.050478,0.000000
4402.847465,592.164754,-8503.660028,-148.041188
4402.847789,518.144159,-8503.660028,-296.082377
4402.848114,518.144159,-8197.221829,-148.041188
4402.848438,444.123565,-8503.660028,0.000000
4402.848762,370.102971,-8656.879127,0.000000
4402.849086,370.102971,-8350.440928,-370.102971
4402.849410,444.123565,-8503.660028,-148.041188
4402.849734,296.082377,-8503.660028,-296.082377
4402.850059,444.123565,-8503.660028,0.000000
4402.850383,222.061783,-8273.831378,-148.041188
4402.850707,814.226536,-8963.317327,-222.061783
4402.851031,222.061783,-8580.269578,-370.102971
4402.851355,444.123565,-8580.269578,-222.061783
4402.851680,518.144159,-8427.050478,-370.102971
4402.852004,370.102971,-8503.660028,-296.082377
4402.852328,148.041188,-8656.879127,-148.041188
4402.852652,370.102971,-8503.660028,-518.144159
4402.852976,296.082377,-8656.879127,-518.144159
4402.853300,296.082377,-8503.660028,-370.102971
4402.853625,148.041188,-8886.707777,0.000000
4402.853949,370.102971,-8427.050478,-518.144159
4402.854273,444.123565,-8503.660028,-370.102971
4402.854597,222.061783,-8197.221829,-370.102971
4402.854921,518.144159,-9422.974625,-296.082377
4402.855246,518.144159,-8350.440928,-444.123565
4402.855570,518.144159,-8580.269578,-222.061783
4402.855894,0.000000,-8580.269578,-444.123565
4402.856218,370.102971,-8733.488677,-296.082377
4402.856542,0.000000,-8120.612279,-148.041188
4402.856867,222.061783,-8503.660028,-148.041188
4402.857191,518.144159,-8580.269578,-296.082377
4402.857515,296.082377,-8503.660028,0.000000
4402.857839,148.041188,-8656.879127,-444.123565
4402.858163,592.164754,-8580.269578,-148.041188
4402.858487,666.185348,-8580.269578,-592.164754
4402.858812,444.123565,-8503.660028,-296.082377
4402.859136,296.082377,-8656.879127,-296.082377
4402.859460,370.102971,-8656.879127,-296.082377
4402.859784,444.123565,-8427.050478,-370.102971
4402.860108,740.205942,-8733.488677,-518.144159
4402.860433,370.102971,-8656.879127,-148.041188
4402.860757,370.102971,-8120.612279,-148.041188
4402.861081,148.041188,-8427.050478,0.000000
4402.861405,296.082377,-8197.221829,-296.082377
4402.861729,296.082377,-8886.707777,-370.102971
4402.862053,666.185348,-8580.269578,-666.185348
4402.862378,518.144159,-8427.050478,-222.061783
4402.862702,518.144159,-8656.879127,-222.061783
4402.863026,444.123565,-8656.879127,-296.082377
4402.863350,666.185348,-8733.488677,-222.061783
4402.863674,148.041188,-8733.488677,-370.102971
4402.863999,148.041188,-8963.317327,-222.061783
4402.864323,296.082377,-8580.269578,-296.082377
4402.864647,296.082377,-8810.098227,0.000000
4402.864971,370.102971,-8886.707777,-148.041188
4402.865295,370.102971,-8810.098227,-592.164754
4402.865619,296.082377,-8733.488677,-296.082377
4402.865944,74.020594,-8656.879127,-222.061783
4402.866268,0.000000,-8503.660028,-148.041188
4402.866592,444.123565,-8580.269578,-222.061783
4402.866916,518.144159,-8503.660028,-666.185348
4402.867240,518.144159,-8503.660028,-444.123565
4402.867565,296.082377,-8733.488677,-296.082377
4402.867889,370.102971,-8656.879127,-444.123565
4402.868213,222.061783,-8580.269578,-370.102971
4402.868537,370.102971,-8733.488677,-370.102971
4402.868861,296.082377,-8656.879127,-666.185348
4402.869186,1184.329507,-8350.440928,-296.082377
4402.869510,370.102971,-8733.488677,-518.144159
4402.869834,518.144159,-8886.707777,-370.102971
4402.870158,370.102971,-8350.440928,-592.164754
4402.870482,296.082377,-8810.098227,-518.144159
4402.870806,444.123565,-8273.831378,-666.185348
4402.871131,148.041188,-8886.707777,0.000000
4402.871455,444.123565,-8733.488677,-444.123565
4402.871779,444.123565,-8656.879127,-518.144159
4402.872103,592.164754,-8963.317327,-296.082377
4402.872427,518.144159,-8733.488677,0.000000
4402.872752,592.164754,-8350.440928,-370.102971
4402.873076,148.041188,-8427.050478,-370.102971
4402.873400,592.164754,-7967.393179,0.000000
4402.873724,518.144159,-8656.879127,-222.061783
4402.874048,666.185348,-8503.660028,-444.123565
4402.874372,74.020594,-8656.879127,-370.102971
4402.874697,222.061783,-8580.269578,296.082377
4402.875021,296.082377,-8656.879127,0.000000
4402.875345,296.082377,-8197.221829,-148.041188
4402.875669,518.144159,-8656.879127,-296.082377
4402.875993,666.185348,-8503.660028,-148.041188
4402.876318,1036.288319,-8273.831378,-444.123565
4402.876642,222.061783,-8427.050478,-148.041188
4402.876966,518.144159,-8427.050478,0.000000
4402.877290,444.123565,-8503.660028,-444.123565
4402.877614,1184.329507,-8503.660028,-444.123565
4402.877939,370.102971,-8427.050478,-444.123565
4402.878263,592.164754,-8580.269578,0.000000
4402.878587,222.061783,-8273.831378,-296.082377
4402.878911,444.123565,-8503.660028,0.000000
4402.879235,518.144159,-8503.660028,-592.164754
4402.879559,518.144159,-8503.660028,-444.123565
4402.879884,370.102971,-8580.269578,-148.041188
4402.880208,370.102971,-8427.050478,-370.102971
4402.880532,740.205942,-8810.098227,-444.123565
4402.880856,444.123565,-8733.488677,-518.144159
4402.881180,222.061783,-8350.440928,-74.020594
4402.881505,222.061783,-8580.269578,-148.041188
4402.881829,962.267725,-8656.879127,-222.061783
4402.882153,518.144159,-8503.660028,-370.102971
4402.882477,370.102971,-8503.660028,-370.102971
4402.882801,518.144159,-8886.707777,-370.102971
4402.883125,518.144159,-8350.440928,-296.082377
4402.883450,74.020594,-8733.488677,-444.123565
4402.883774,296.082377,-8810.098227,-370.102971
4402.884098,518.144159,-8350.440928,-370.102971
4402.884422,444.123565,-8886.707777,-518.144159
4402.884746,1110.308913,-8580.269578,-296.082377
4402.885071,370.102971,-8580.269578,-296.082377
4402.885395,592.164754,-8733.488677,-222.061783
4402.885719,518.144159,-8427.050478,-592.164754
4402.886043,592.164754,-8503.660028,0.000000
4402.886367,370.102971,-8656.879127,-518.144159
4402.886692,296.082377,-8810.098227,-296.082377
4402.887016,148.041188,-8733.488677,-518.144159
4402.887340,518.144159,-8503.660028,-296.082377
4402.887664,888.247130,-8580.269578,-518.144159
4402.887988,592.164754,-8656.879127,-222.061783
4402.888312,296.082377,-8810.098227,0.000000
4402.888637,296.082377,-8656.879127,-222.061783
4402.888961,814.226536,-8810.098227,-222.061783
4402.889285,296.082377,-8580.269578,0.000000
4402.889609,444.123565,-8733.488677,-370.102971
4402.889933,222.061783,-8733.488677,0.000000
4402.890258,592.164754,-8733.488677,0.000000
4402.890582,296.082377,-8963.317327,-148.041188
4402.890906,370.102971,-8580.269578,0.000000
4402.891230,592.164754,-8886.707777,-370.102971
4402.891554,518.144159,-8733.488677,0.000000
4402.891878,740.205942,-8503.660028,74.020594
4402.892203,592.164754,-8733.488677,-148.041188
4402.892527,370.102971,-8810.098227,0.000000
4402.892851,222.061783,-8503.660028,0.000000
4402.893175,370.102971,-9039.926876,-962.267725
4402.893499,296.082377,-8044.002729,0.000000
4402.893824,148.041188,-8733.488677,0.000000
4402.894148,148.041188,-8503.660028,0.000000
4402.894472,370.102971,-8580.269578,-444.123565
4402.894796,370.102971,-8810.098227,-222.061783
4402.895120,148.041188,-8503.660028,-296.082377
4402.895444,370.102971,-8656.879127,0.000000
4402.895769,592.164754,-8350.440928,-296.082377
4402.896093,518.144159,-8580.269578,-148.041188
4402.896417,74.020594,-8273.831378,-222.061783
4402.896741,370.102971,-8427.050478,-444.123565
4402.897065,148.041188,-8503.660028,0.000000
4402.897390,518.144159,-9039.926876,0.000000
4402.897714,222.061783,-8427.050478,-296.082377
4402.898038,666.185348,-8503.660028,-444.123565
4402.898362,222.061783,-8503.660028,-370.102971
4402.898686,518.144159,-8427.050478,-222.061783
4402.899011,444.123565,-8273.831378,-148.041188
4402.899335,444.123565,-8503.660028,0.000000
4402.899659,518.144159,-8427.050478,-518.144159
4402.899983,888.247130,-9039.926876,-666.185348
4402.900307,296.082377,-8273.831378,-740.205942
4402.900631,370.102971,-8427.050478,-148.041188
4402.900956,222.061783,-8886.707777,-666.185348
4402.901280,518.144159,-8656.879127,-444.123565
4402.901604,370.102971,-8656.879127,-814.226536
4402.901928,518.144159,-8427.050478,-666.185348
4402.902252,444.123565,-8656.879127,-518.144159
4402.902577,518.144159,-8733.488677,-592.164754
4402.902901,444.123565,-8350.440928,-666.185348
4402.903225,740.205942,-8656.879127,-592.164754
4402.903549,370.102971,-8733.488677,-740.205942
4402.903873,444.123565,-8656.879127,-444.123565
4402.904197,370.102971,-8580.269578,-740.205942
4402.904522,740.205942,-8580.269578,-518.144159
4402.904846,518.144159,-8580.269578,-666.185348
4402.905170,666.185348,-8733.488677,-444.123565
4402.905494,518.144159,-8580.269578,-666.185348
4402.905818,222.061783,-9039.926876,-666.185348
4402.906143,518.144159,-8580.269578,-666.185348
4402.906467,666.185348,-8580.269578,-740.205942
4402.906791,518.144159,-8733.488677,-888.247130
4402.907115,444.123565,-8810.098227,-666.185348
4402.907439,370.102971,-8886.707777,-518.144159
4402.907764,148.041188,-8580.269578,-518.144159
4402.908088,518.144159,-8580.269578,-666.185348
4402.908412,518.144159,-8580.269578,-370.102971
4402.908736,222.061783,-9039.926876,148.041188
4402.909061,370.102971,-8580.269578,-444.123565
4402.909385,444.123565,-8427.050478,-518.144159
4402.909709,444.123565,-8503.660028,-444.123565
4402.910034,444.123565,-8580.269578,-592.164754
4402.910358,222.061783,-8810.098227,-444.123565
4402.910682,370.102971,-8580.269578,-296.082377
4402.911007,296.082377,-8120.612279,-444.123565
4402.911331,296.082377,-8580.269578,-222.061783
4402.911656,444.123565,-8350.440928,-222.061783
4402.911980,518.144159,-8733.488677,-370.102971
4402.912304,592.164754,-8350.440928,-370.102971
4402.912629,518.144159,-8503.660028,-296.082377
4402.912953,0.000000,-8656.879127,0.000000
4402.913277,444.123565,-8580.269578,0.000000
4402.913602,370.102971,-8273.831378,-222.061783
4402.913926,518.144159,-8580.269578,-370.102971
4402.914250,518.144159,-8503.660028,0.000000
4402.914575,74.020594,-8197.221829,0.000000
4402.914899,370.102971,-8656.879127,-222.061783
4402.915223,518.144159,-8350.440928,-296.082377
4402.915548,592.164754,-8503.660028,-296.082377
4402.915872,592.164754,-8350.440928,-296.082377
4402.916196,370.102971,-8656.879127,74.020594
4402.916521,222.061783,-8273.831378,-296.082377
4402.916845,370.102971,-8656.879127,0.000000
4402.917169,148.041188,-8273.831378,0.000000
4402.917494,518.144159,-8810.098227,-370.102971
4402.917818,518.144159,-8503.660028,-222.061783
4402.918143,370.102971,-8427.050478,-148.041188
4402.918467,296.082377,-8810.098227,-296.082377
4402.918791,370.102971,-8656.879127,-370.102971
4402.919116,444.123565,-8503.660028,-444.123565
4402.919440,296.082377,-8427.050478,-370.102971
4402.919764,222.061783,-8503.660028,-222.061783
4402.920089,148.041188,-8350.440928,0.000000
4402.920413,222.061783,-8580.269578,-222.061783
4402.920737,666.185348,-8580.269578,-666.185348
4402.921062,592.164754,-8810.098227,-518.144159
4402.921386,296.082377,-8503.660028,74.020594
4402.921710,74.020594,-8580.269578,-592.164754
4402.922035,222.061783,-8733.488677,-518.144159
4402.922359,518.144159,-8580.269578,-666.185348
4402.922683,444.123565,-8656.879127,-444.123565
4402.923008,148.041188,-8350.440928,-148.041188
4402.923332,370.102971,-8656.879127,-444.123565
4402.923656,592.164754,-8733.488677,-518.144159
4402.923981,592.164754,-8733.488677,-296.082377
4402.924305,74.020594,-8197.221829,-148.041188
4402.924630,444.123565,-8810.098227,-444.123565
4402.924954,370.102971,-8427.050478,-370.102971
4402.925278,370.102971,-8427.050478,-370.102971
4402.925603,518.144159,-8197.221829,-592.164754
4402.925927,370.102971,-8273.831378,-592.164754
4402.926251,518.144159,-8427.050478,-444.123565
4402.926576,296.082377,-8350.440928,-296.082377
4402.926900,518.144159,-8503.660028,-518.144159
4402.927224,592.164754,-8503.660028,-740.205942
4402.927549,518.144159,-8273.831378,-370.102971
4402.927873,296.082377,-8656.879127,-666.185348
4402.928197,518.144159,-8503.660028,-370.102971
4402.928522,666.185348,-8350.440928,-296.082377
4402.928846,296.082377,-8810.098227,-296.082377
4402.929170,222.061783,-8656.879127,-666.185348
4402.929495,296.082377,-8427.050478,-370.102971
4402.929819,296.082377,-8427.050478,-296.082377
4402.930143,666.185348,-8656.879127,-296.082377
4402.930468,444.123565,-8733.488677,-444.123565
4402.930792,444.123565,-8503.660028,-222.061783
4402.931117,518.144159,-8503.660028,-518.144159
4402.931441,222.061783,-8273.831378,0.000000
4402.931765,444.123565,-8733.488677,0.000000
4402.932090,444.123565,-8503.660028,-296.082377
4402.932414,370.102971,-8503.660028,-148.041188
4402.932738,740.205942,-8044.002729,-296.082377
4402.933063,222.061783,-8656.879127,-296.082377
4402.933387,222.061783,-8733.488677,-370.102971
4402.933711,370.102971,-8656.879127,-296.082377
4402.934036,518.144159,-8503.660028,-148.041188
4402.934360,222.061783,-8810.098227,0.000000
4402.934684,148.041188,-8503.660028,-148.041188
4402.935009,296.082377,-8580.269578,0.000000
4402.935333,518.144159,-8580.269578,-148.041188
4402.935657,518.144159,-8197.221829,0.000000
4402.935982,370.102971,-8810.098227,-518.144159
4402.936306,444.123565,-8350.440928,-296.082377
4402.936630,296.082377,-8656.879127,-296.082377
4402.936955,370.102971,-7967.393179,0.000000
4402.937279,0.000000,-8656.879127,-296.082377
4402.937604,444.123565,-8350.440928,-370.102971
4402.937928,444.123565,-8580.269578,-444.123565
4402.938252,444.123565,-8810.098227,-370.102971
4402.938577,444.123565,-8503.660028,-296.082377
4402.938901,370.102971,-8427.050478,-148.041188
4402.939225,296.082377,-8580.269578,-296.082377
4402.939550,444.123565,-8580.269578,-444.123565
4402.939874,222.061783,-8197.221829,0.000000
4402.940198,296.082377,-8656.879127,-444.123565
4402.940523,370.102971,-8733.488677,-296.082377
4402.940847,222.061783,-8656.879127,-666.185348
4402.941171,592.164754,-8733.488677,0.000000
4402.941496,592.164754,-8580.269578,-592.164754
4402.941820,740.205942,-8656.879127,-518.144159
4402.942144,592.164754,-8273.831378,-444.123565
4402.942469,518.144159,-8733.488677,-296.082377
4402.942793,444.123565,-8580.269578,-592.164754
4402.943117,592.164754,-8350.440928,-666.185348
4402.943442,370.102971,-8580.269578,-370.102971
4402.943766,518.144159,-8810.098227,-296.082377
4402.944091,518.144159,-8197.221829,74.020594
4402.944415,592.164754,-8580.269578,-444.123565
4402.944739,370.102971,-8656.879127,-444.123565
4402.945064,444.123565,-8810.098227,-518.144159
4402.945388,444.123565,-8197.221829,-444.123565
4402.945712,518.144159,-8273.831378,-148.041188
4402.946037,666.185348,-8656.879127,-222.061783
4402.946361,444.123565,-9116.536426,-518.144159
4402.946685,666.185348,-8503.660028,-518.144159
4402.947010,370.102971,-8503.660028,-666.185348
4402.947334,222.061783,-8427.050478,-370.102971
4402.947658,222.061783,-8656.879127,-370.102971
4402.947983,370.102971,-8503.660028,-222.061783
4402.948307,296.082377,-8044.002729,-148.041188
4402.948631,370.102971,-8427.050478,-370.102971
4402.948956,592.164754,-8580.269578,-296.082377
4402.949280,518.144159,-8427.050478,-148.041188
4402.949604,444.123565,-8580.269578,-148.041188
4402.949929,296.082377,-8120.612279,-370.102971
4402.950253,518.144159,-8733.488677,-370.102971
4402.950578,518.144159,-8733.488677,-296.082377
4402.950902,444.123565,-8580.269578,-370.102971
4402.951226,296.082377,-8197.221829,-518.144159
4402.951551,370.102971,-8503.660028,-296.082377
4402.951875,74.020594,-8350.440928,-222.061783
4402.952199,518.144159,-8580.269578,-518.144159
4402.952524,518.144159,-9422.974625,-296.082377
4402.952848,888.247130,-8656.879127,-370.102971
4402.953172,222.061783,-8580.269578,-666.185348
4402.953497,592.164754,-8427.050478,-296.082377
4402.953821,444.123565,-8427.050478,-296.082377
4402.954145,296.082377,-8656.879127,-666.185348
4402.954470,444.123565,-9039.926876,-222.061783
4402.954794,444.123565,-8273.831378,-666.185348
4402.955118,518.144159,-8656.879127,-148.041188
4402.955443,0.000000,-8580.269578,-148.041188
4402.955767,370.102971,-8733.488677,-444.123565
4402.956091,518.144159,-8350.440928,-370.102971
4402.956416,666.185348,-8427.050478,-370.102971
4402.956740,444.123565,-8733.488677,-296.082377
4402.957065,518.144159,-8733.488677,-296.082377
4402.957389,592.164754,-8656.879127,-444.123565
4402.957713,444.123565,-8197.221829,-370.102971
4402.958038,296.082377,-8733.488677,-222.061783
4402.958362,0.000000,-8886.707777,-222.061783
4402.958686,222.061783,-8656.879127,-148.041188
4402.959011,370.102971,-8656.879127,-444.123565
4402.959335,740.205942,-8810.098227,-666.185348
4402.959659,962.267725,-7814.174080,0.000000
4402.959984,370.102971,-8733.488677,-148.041188
4402.960308,370.102971,-8580.269578,-444.123565
4402.960632,296.082377,-8580.269578,-296.082377
4402.960957,518.144159,-8886.707777,-222.061783
4402.961281,518.144159,-8580.269578,-370.102971
4402.961605,518.144159,-8810.098227,0.000000
4402.961930,370.102971,-8580.269578,-296.082377
4402.962254,222.061783,-8580.269578,-370.102971
4402.962578,592.164754,-8580.269578,-370.102971
4402.962903,370.102971,-8503.660028,-296.082377
4402.963227,370.102971,-8427.050478,0.000000
4402.963552,444.123565,-8656.879127,-444.123565
4402.963876,296.082377,-8810.098227,-148.041188
4402.964200,592.164754,-8427.050478,-296.082377
4402.964525,518.144159,-8733.488677,-592.164754
4402.964849,444.123565,-8503.660028,-148.041188
4402.965173,444.123565,-8580.269578,-222.061783
4402.965498,518.144159,-8656.879127,-592.164754
4402.965822,296.082377,-8656.879127,-296.082377
4402.966146,222.061783,-8656.879127,-296.082377
4402.966471,296.082377,-8427.050478,0.000000
4402.966795,370.102971,-8733.488677,-296.082377
4402.967119,296.082377,-8733.488677,0.000000
4402.967444,370.102971,-8197.221829,0.000000
4402.967768,592.164754,-8656.879127,0.000000
4402.968092,666.185348,-8810.098227,0.000000
4402.968417,370.102971,-8886.707777,0.000000
4402.968741,444.123565,-8427.050478,-222.061783
4402.969065,222.061783,-8810.098227,-74.020594
4402.969390,222.061783,-8350.440928,-370.102971
4402.969714,74.020594,-8427.050478,-74.020594
4402.970039,296.082377,-8350.440928,0.000000
4402.970363,296.082377,-8503.660028,-222.061783
4402.970687,370.102971,-8886.707777,-296.082377
4402.971012,370.102971,-8503.660028,444.123565
4402.971336,592.164754,-8503.660028,0.000000
4402.971660,148.041188,-8503.660028,-444.123565
4402.971985,518.144159,-8580.269578,0.000000
4402.972309,370.102971,-8886.707777,0.000000
4402.972633,518.144159,-8350.440928,-518.144159
4402.972958,296.082377,-8503.660028,-592.164754
4402.973282,444.123565,-8733.488677,-222.061783
4402.973606,518.144159,-8350.440928,-296.082377
4402.973931,444.123565,-8350.440928,-592.164754
4402.974255,370.102971,-8656.879127,-370.102971
4402.974579,592.164754,-8503.660028,-444.123565
4402.974904,592.164754,-8580.269578,-518.144159
4402.975228,592.164754,-8656.879127,-592.164754
4402.975552,518.144159,-8810.098227,-444.123565
4402.975877,444.123565,-8656.879127,-444.123565
4402.976201,370.102971,-8580.269578,-370.102971
4402.976526,592.164754,-9346.365076,-444.123565
4402.976850,592.164754,-8580.269578,-370.102971
4402.977174,518.144159,-8503.660028,-592.164754
4402.977499,296.082377,-8656.879127,-296.082377
4402.977823,296.082377,-8427.050478,-444.123565
4402.978147,518.144159,-8886.707777,-222.061783
4402.978472,518.144159,-8580.269578,-518.144159
4402.978796,444.123565,-8886.707777,-296.082377
4402.979120,222.061783,-8656.879127,-444.123565
4402.979445,296.082377,-9039.926876,74.020594
4402.979769,296.082377,-8273.831378,-518.144159
4402.980093,592.164754,-8963.317327,-444.123565
4402.980418,444.123565,-8350.440928,-296.082377
4402.980742,444.123565,-8886.707777,-370.102971
4402.981066,148.041188,-8580.269578,-444.123565
4402.981391,222.061783,-8427.050478,-740.205942
4402.981715,444.123565,-8580.269578,-444.123565
4402.982039,370.102971,-8810.098227,-444.123565
4402.982364,74.020594,-8656.879127,74.020594
4402.982688,370.102971,-8580.269578,-296.082377
4402.983013,222.061783,-8656.879127,-370.102971
4402.983337,222.061783,-8427.050478,-370.102971
4402.983661,222.061783,-8427.050478,74.020594
4402.983986,518.144159,-8427.050478,-222.061783
4402.984310,296.082377,-8503.660028,-222.061783
4402.984634,296.082377,-8503.660028,0.000000
4402.984959,444.123565,-8427.050478,-296.082377
4402.985283,518.144159,-8886.707777,0.000000
4402.985607,296.082377,-8427.050478,-222.061783
4402.985932,518.144159,-8580.269578,-148.041188
4402.986256,148.041188,-8427.050478,-222.061783
4402.986580,0.000000,-8120.612279,0.000000
4402.986905,444.123565,-8273.831378,-370.102971
4402.987229,370.102971,-8810.098227,0.000000
4402.987553,518.144159,-8197.221829,-222.061783
4402.987878,222.061783,-7890.783629,0.000000
4402.988202,296.082377,-8427.050478,0.000000
4402.988526,444.123565,-8503.660028,0.000000
4402.988851,296.082377,-8427.050478,-222.061783
4402.989175,444.123565,-8273.831378,-148.041188
4402.989500,148.041188,-8427.050478,0.000000
4402.989824,444.123565,-8810.098227,0.000000
4402.990148,444.123565,-8350.440928,0.000000
4402.990473,518.144159,-8503.660028,0.000000
4402.990797,444.123565,-8350.440928,0.000000
4402.991121,370.102971,-8427.050478,0.000000
4402.991446,370.102971,-8580.269578,0.000000
4402.991770,74.020594,-8197.221829,-222.061783
4402.992094,370.102971,-8427.050478,0.000000
4402.992419,370.102971,-8656.879127,-370.102971
4402.992743,222.061783,-8503.660028,-74.020594
4402.993067,370.102971,-8580.269578,-444.123565
4402.993392,296.082377,-8350.440928,-444.123565
4402.993716,370.102971,-8273.831378,-370.102971
4402.994040,592.164754,-8733.488677,-444.123565
4402.994365,740.205942,-8503.660028,-518.144159
4402.994689,666.185348,-8427.050478,-518.144159
4402.995013,592.164754,-8886.707777,-444.123565
4402.995338,296.082377,-8580.269578,-370.102971
4402.995662,370.102971,-8580.269578,-592.164754
4402.995987,222.061783,-8580.269578,-444.123565
4402.996311,518.144159,-8810.098227,-740.205942
4402.996635,370.102971,-8733.488677,-222.061783
4402.996960,296.082377,-8656.879127,-370.102971
4402.997284,370.102971,-8580.269578,-518.144159
4402.997608,444.123565,-8656.879127,-518.144159
4402.997933,518.144159,-8427.050478,-592.164754
4402.998257,370.102971,-8580.269578,-592.164754
4402.998581,370.102971,-8656.879127,-370.102971
4402.998906,222.061783,-8427.050478,-518.144159
4402.999230,518.144159,-8503.660028,0.000000
4402.999554,370.102971,-8503.660028,-518.144159
4402.999879,222.061783,-8656.879127,-222.061783
4403.000203,74.020594,-8503.660028,-518.144159
4403.000527,518.144159,-8503.660028,-518.144159
4403.000852,666.185348,-8350.440928,-740.205942
4403.001176,518.144159,-8656.879127,-444.123565
4403.001500,592.164754,-8273.831378,-444.123565
4403.001825,74.020594,-8350.440928,-592.164754
4403.002149,814.226536,-8580.269578,-740.205942
4403.002474,666.185348,-8427.050478,-518.144159
4403.002798,518.144159,-8503.660028,-444.123565
4403.003122,444.123565,-8733.488677,-518.144159
4403.003447,740.205942,-8963.317327,-444.123565
4403.003771,592.164754,-8503.660028,-444.123565
4403.004095,296.082377,-8503.660028,-148.041188
4403.004420,740.205942,-8733.488677,-222.061783
4403.004744,370.102971,-8886.707777,-296.082377
4403.005068,814.226536,-8580.269578,-370.102971
4403.005393,370.102971,-8656.879127,-296.082377
4403.005717,518.144159,-8503.660028,-296.082377
4403.006041,296.082377,-8733.488677,-296.082377
4403.006366,592.164754,-8963.317327,0.000000
4403.006690,444.123565,-8733.488677,-148.041188
4403.007014,518.144159,-8427.050478,-148.041188
4403.007339,370.102971,-8427.050478,-296.082377
4403.007663,592.164754,-8427.050478,-370.102971
4403.007987,444.123565,-8427.050478,-370.102971
4403.008312,518.144159,-8733.488677,-370.102971
4403.008636,296.082377,-8503.660028,0.000000
4403.008960,296.082377,-8427.050478,-370.102971
4403.009284,222.061783,-8656.879127,-296.082377
4403.009609,74.020594,-8580.269578,-444.123565
4403.009933,592.164754,-8656.879127,-444.123565
4403.010257,74.020594,-8503.660028,-148.041188
4403.010582,518.144159,-8733.488677,-666.185348
4403.010906,222.061783,-8656.879127,-222.061783
4403.011230,222.061783,-8656.879127,-444.123565
4403.011555,148.041188,-8656.879127,-370.102971
4403.011879,518.144159,-8656.879127,0.000000
4403.012204,296.082377,-8427.050478,-296.082377
4403.012528,222.061783,-8810.098227,-222.061783
4403.012852,592.164754,-8503.660028,-592.164754
4403.013177,518.144159,-8733.488677,-518.144159
4403.013501,1036.288319,-8963.317327,-444.123565
4403.013825,296.082377,-8733.488677,-444.123565
4403.014150,518.144159,-8427.050478,-370.102971
4403.014474,444.123565,-8580.269578,-296.082377
4403.014798,888.247130,-9193.145976,-518.144159
4403.015123,370.102971,-8733.488677,-444.123565
4403.015447,370.102971,-8427.050478,-296.082377
4403.015771,444.123565,-8580.269578,-370.102971
4403.016096,444.123565,-8580.269578,-518.144159
4403.016420,666.185348,-8580.269578,-444.123565
4403.016744,518.144159,-8656.879127,-592.164754
