#time,accel_x,accel_y,accel_z
5655.141301,296.082377,-8810.098227,0.000000
5655.141626,666.185348,-8733.488677,-370.102971
5655.141950,222.061783,-8656.879127,-222.061783
5655.142274,666.185348,-8810.098227,-296.082377
5655.142599,518.144159,-8427.050478,-222.061783
5655.142923,0.000000,-8427.050478,370.102971
5655.143247,592.164754,-8733.488677,-148.041188
5655.143571,592.164754,-8810.098227,0.000000
5655.143896,814.226536,-8580.269578,0.000000
5655.144220,740.205942,-8503.660028,148.041188
5655.144544,148.041188,-8810.098227,0.000000
5655.144869,444.123565,-8656.879127,-370.102971
5655.145193,444.123565,-8733.488677,0.000000
5655.145517,444.123565,-8580.269578,-518.144159
5655.145842,370.102971,-8580.269578,-222.061783
5655.146166,518.144159,-8427.050478,-148.041188
5655.146490,148.041188,-8350.440928,74.020594
5655.146815,444.123565,-8963.317327,-296.082377
5655.147139,222.061783,-8810.098227,74.020594
5655.147463,814.226536,-8580.269578,-296.082377
5655.147788,296.082377,-8580.269578,-296.082377
5655.148112,444.123565,-8733.488677,0.000000
5655.148436,370.102971,-9652.803275,-148.041188
5655.148761,296.082377,-8733.488677,-222.061783
5655.149085,296.082377,-8503.660028,-444.123565
5655.149409,740.205942,-8427.050478,-666.185348
5655.149734,370.102971,-8273.831378,-222.061783
5655.150058,0.000000,-8733.488677,-148.041188
5655.150382,148.041188,-8656.879127,-222.061783
5655.150706,444.123565,-8580.269578,-444.123565
5655.151031,296.082377,-8733.488677,-370.102971
5655.151355,296.082377,-9116.536426,0.000000
5655.151679,148.041188,-9116.536426,0.000000
5655.152004,444.123565,-8810.098227,0.000000
5655.152328,444.123565,-8580.269578,0.000000
5655.152652,518.144159,-8810.098227,0.000000
5655.152977,814.226536,-8886.707777,-296.082377
5655.153301,444.123565,-8733.488677,0.000000
5655.153625,296.082377,-8656.879127,-148.041188
5655.153950,222.061783,-8580.269578,-148.041188
5655.154274,222.061783,-8427.050478,0.000000
5655.154598,0.000000,-8656.879127,0.000000
5655.154923,296.082377,-8886.707777,148.041188
5655.155247,222.061783,-8427.050478,-148.041188
5655.155571,296.082377,-8503.660028,0.000000
5655.155896,370.102971,-8656.879127,0.000000
5655.156220,666.185348,-9039.926876,-370.102971
5655.156544,592.164754,-8580.269578,-370.102971
5655.156869,148.041188,-8656.879127,-296.082377
5655.157193,222.061783,-8963.317327,-666.185348
5655.157517,296.082377,-8580.269578,-444.123565
5655.157841,444.123565,-8733.488677,-444.123565
5655.158166,0.000000,-8350.440928,-296.082377
5655.158490,444.123565,-8733.488677,-148.041188
5655.158814,296.082377,-8503.660028,-444.123565
5655.159139,666.185348,-8810.098227,-148.041188
5655.159463,444.123565,-8350.440928,-370.102971
5655.159787,740.205942,-9499.584175,148.041188
5655.160112,444.123565,-8197.221829,-444.123565
5655.160436,222.061783,-8733.488677,-148.041188
5655.160760,296.082377,-8656.879127,-296.082377
5655.161085,222.061783,-8886.707777,-148.041188
5655.161409,518.144159,-8503.660028,0.000000
5655.161733,370.102971,-8580.269578,-222.061783
5655.162058,370.102971,-8580.269578,-296.082377
5655.162382,370.102971,-8427.050478,-148.041188
5655.162706,888.247130,-8810.098227,222.061783
5655.163031,518.144159,-8350.440928,0.000000
5655.163355,740.205942,-8886.707777,74.020594
5655.163679,370.102971,-8503.660028,148.041188
5655.164004,148.041188,-8733.488677,222.061783
5655.164328,296.082377,-8580.269578,-222.061783
5655.164652,370.102971,-8580.269578,222.061783
5655.164976,518.144159,-8427.050478,0.000000
5655.165301,444.123565,-8273.831378,74.020594
5655.165625,518.144159,-8350.440928,0.000000
5655.165949,666.185348,-8503.660028,0.000000
5655.166274,444.123565,-8427.050478,-222.061783
5655.166598,518.144159,-8656.879127,0.000000
5655.166922,592.164754,-8580.269578,296.082377
5655.167247,592.164754,-8273.831378,0.000000
5655.167571,518.144159,-8656.879127,0.000000
5655.167895,296.082377,-8503.660028,0.000000
5655.168220,888.247130,-8810.098227,148.041188
5655.168544,518.144159,-8733.488677,0.000000
5655.168868,740.205942,-8733.488677,0.000000
5655.169193,148.041188,-8503.660028,0.000000
5655.169517,296.082377,-8656.879127,370.102971
5655.169841,444.123565,-8656.879127,296.082377
5655.170166,740.205942,-8656.879127,0.000000
5655.170490,296.082377,-8273.831378,148.041188
5655.170814,148.041188,-8197.221829,296.082377
5655.171139,148.041188,-7967.393179,518.144159
5655.171463,370.102971,-8656.879127,296.082377
5655.171787,370.102971,-8273.831378,74.020594
5655.172111,74.020594,-8503.660028,518.144159
5655.172436,0.000000,-8350.440928,518.144159
5655.172760,74.020594,-8503.660028,740.205942
5655.173084,296.082377,-8273.831378,444.123565
5655.173409,0.000000,-8580.269578,444.123565
5655.173733,222.061783,-8656.879127,666.185348
5655.174057,0.000000,-8350.440928,1036.288319
5655.174382,0.000000,-8503.660028,592.164754
5655.174706,74.020594,-8503.660028,740.205942
5655.175030,222.061783,-8886.707777,296.082377
5655.175355,592.164754,-8580.269578,370.102971
5655.175679,74.020594,-8503.660028,666.185348
5655.176003,0.000000,-8273.831378,666.185348
5655.176328,74.020594,-8580.269578,888.247130
5655.176652,74.020594,-8427.050478,444.123565
5655.176976,444.123565,-8580.269578,296.082377
5655.177301,444.123565,-7967.393179,666.185348
5655.177625,370.102971,-8427.050478,740.205942
5655.177949,296.082377,-8427.050478,444.123565
5655.178274,814.226536,-8733.488677,518.144159
5655.178598,370.102971,-8427.050478,370.102971
5655.178922,370.102971,-8503.660028,370.102971
5655.179246,74.020594,-8580.269578,296.082377
5655.179571,296.082377,-7890.783629,1036.288319
5655.179895,370.102971,-8503.660028,518.144159
5655.180219,222.061783,-8120.612279,296.082377
5655.180544,74.020594,-8580.269578,592.164754
5655.180868,740.205942,-8120.612279,518.144159
5655.181192,370.102971,-8580.269578,370.102971
5655.181517,370.102971,-8350.440928,666.185348
5655.181841,296.082377,-8503.660028,592.164754
5655.182165,444.123565,-8733.488677,666.185348
5655.182490,666.185348,-8350.440928,370.102971
5655.182814,296.082377,-8427.050478,740.205942
5655.183138,370.102971,-8580.269578,518.144159
5655.183463,74.020594,-8120.612279,222.061783
5655.183787,592.164754,-8273.831378,444.123565
5655.184111,592.164754,-8350.440928,74.020594
5655.184436,370.102971,-8197.221829,370.102971
5655.184760,370.102971,-8273.831378,74.020594
5655.185084,370.102971,-8580.269578,0.000000
5655.185409,444.123565,-8503.660028,0.000000
5655.185733,222.061783,-8427.050478,0.000000
5655.186057,74.020594,-8427.050478,0.000000
5655.186382,370.102971,-8503.660028,0.000000
5655.186706,518.144159,-8810.098227,-370.102971
5655.187030,444.123565,-8427.050478,-148.041188
5655.187354,222.061783,-8733.488677,-592.164754
5655.187679,518.144159,-8503.660028,-296.082377
5655.188003,444.123565,-8350.440928,-518.144159
5655.188327,370.102971,-8656.879127,-444.123565
5655.188652,444.123565,-8273.831378,-666.185348
5655.188976,592.164754,-8656.879127,-740.205942
5655.189300,444.123565,-8580.269578,-592.164754
5655.189625,444.123565,-8733.488677,-444.123565
5655.189949,222.061783,-8886.707777,-666.185348
5655.190273,222.061783,-8427.050478,-1036.288319
5655.190598,222.061783,-8656.879127,-814.226536
5655.190922,370.102971,-8427.050478,-740.205942
5655.191246,370.102971,-8427.050478,-888.247130
5655.191571,74.020594,-8580.269578,-1184.329507
5655.191895,370.102971,-8810.098227,-1406.391290
5655.192219,0.000000,-7660.954980,-1036.288319
5655.192544,518.144159,-8963.317327,-1110.308913
5655.192868,148.041188,-8580.269578,-1110.308913
5655.193192,296.082377,-8886.707777,-740.205942
5655.193517,296.082377,-8656.879127,-1258.350101
5655.193841,148.041188,-8273.831378,-888.247130
5655.194165,222.061783,-8656.879127,-1258.350101
5655.194489,518.144159,-8656.879127,-1258.350101
5655.194814,444.123565,-8273.831378,-1406.391290
5655.195138,0.000000,-8120.612279,-1258.350101
5655.195462,222.061783,-8810.098227,-1406.391290
5655.195787,592.164754,-8580.269578,-1554.432478
5655.196111,592.164754,-8963.317327,-1554.432478
5655.196435,518.144159,-8886.707777,-1406.391290
5655.196760,370.102971,-8886.707777,-1258.350101
5655.197084,444.123565,-8963.317327,-1480.411884
5655.197408,518.144159,-8810.098227,-1332.370696
5655.197733,518.144159,-9193.145976,-1480.411884
5655.198057,740.205942,-8580.269578,-1406.391290
5655.198381,222.061783,-8503.660028,-1332.370696
5655.198706,592.164754,-8963.317327,-1628.453072
5655.199030,518.144159,-8580.269578,-1406.391290
5655.199354,814.226536,-8120.612279,-1406.391290
5655.199679,592.164754,-8886.707777,-1554.432478
5655.200003,444.123565,-8810.098227,-1406.391290
5655.200327,592.164754,-8886.707777,-1406.391290
5655.200652,666.185348,-8733.488677,-1258.350101
5655.200976,666.185348,-8886.707777,-1406.391290
5655.201300,444.123565,-8963.317327,-1184.329507
5655.201624,592.164754,-8273.831378,-1110.308913
5655.201949,592.164754,-8733.488677,-962.267725
5655.202273,148.041188,-9193.145976,-814.226536
5655.202597,444.123565,-8733.488677,-1110.308913
5655.202922,444.123565,-8810.098227,-1184.329507
5655.203246,666.185348,-8733.488677,-1036.288319
5655.203570,518.144159,-8886.707777,-814.226536
5655.203895,222.061783,-8810.098227,-592.164754
5655.204219,296.082377,-8810.098227,-666.185348
5655.204543,444.123565,-8810.098227,-814.226536
5655.204868,666.185348,-8886.707777,-814.226536
5655.205192,370.102971,-8197.221829,-370.102971
5655.205516,444.123565,-8656.879127,-740.205942
5655.205841,444.123565,-8733.488677,-592.164754
5655.206165,296.082377,-8656.879127,-222.061783
5655.206489,666.185348,-8963.317327,-148.041188
5655.206814,518.144159,-8810.098227,-296.082377
5655.207138,222.061783,-8503.660028,-222.061783
5655.207462,740.205942,-8810.098227,-222.061783
5655.207787,518.144159,-8580.269578,-148.041188
5655.208111,666.185348,-8580.269578,-222.061783
5655.208435,666.185348,-8733.488677,0.000000
5655.208759,518.144159,-8503.660028,-148.041188
5655.209084,666.185348,-8810.098227,-370.102971
5655.209408,222.061783,-8503.660028,222.061783
5655.209732,814.226536,-8427.050478,0.000000
5655.210057,592.164754,-8580.269578,-148.041188
5655.210381,518.144159,-8733.488677,0.000000
5655.210705,962.267725,-8044.002729,74.020594
5655.211030,666.185348,-8580.269578,0.000000
5655.211354,592.164754,-8197.221829,0.000000
5655.211678,666.185348,-8503.660028,0.000000
5655.212003,666.185348,-7890.783629,-148.041188
5655.212327,666.185348,-8503.660028,0.000000
5655.212651,370.102971,-8580.269578,0.000000
5655.212976,666.185348,-8273.831378,-296.082377
5655.213300,444.123565,-8733.488677,74.020594
5655.213624,518.144159,-9039.926876,0.000000
5655.213949,370.102971,-8503.660028,74.020594
5655.214273,666.185348,-8580.269578,-222.061783
5655.214597,666.185348,-8350.440928,-222.061783
5655.214922,814.226536,-9039.926876,-370.102971
5655.215246,444.123565,-8656.879127,-444.123565
5655.215570,814.226536,-8197.221829,-370.102971
5655.215894,444.123565,-8580.269578,-592.164754
5655.216219,518.144159,-8733.488677,-370.102971
5655.216543,518.144159,-8656.879127,-592.164754
5655.216867,444.123565,-8733.488677,-666.185348
5655.217192,518.144159,-8810.098227,-666.185348
5655.217516,518.144159,-8656.879127,-592.164754
5655.217840,888.247130,-9193.145976,-148.041188
5655.218165,444.123565,-8503.660028,-814.226536
5655.218489,592.164754,-8810.098227,-814.226536
5655.218813,518.144159,-8580.269578,-814.226536
5655.219138,592.164754,-8886.707777,-1184.329507
5655.219462,222.061783,-8886.707777,-1036.288319
5655.219786,370.102971,-8810.098227,-888.247130
5655.220111,296.082377,-8656.879127,-1258.350101
5655.220435,444.123565,-8733.488677,-1036.288319
5655.220759,518.144159,-8963.317327,-888.247130
5655.221084,370.102971,-8733.488677,-1110.308913
5655.221408,222.061783,-8886.707777,-888.247130
5655.221732,148.041188,-8580.269578,-1110.308913
5655.222057,444.123565,-9499.584175,-592.164754
5655.222381,222.061783,-8580.269578,-1332.370696
5655.222705,296.082377,-8810.098227,-1110.308913
5655.223029,222.061783,-8886.707777,-1480.411884
5655.223354,222.061783,-9576.193725,-1110.308913
5655.223678,222.061783,-8656.879127,-1480.411884
5655.224002,444.123565,-8656.879127,-1184.329507
5655.224327,148.041188,-8656.879127,-1184.329507
5655.224651,444.123565,-8656.879127,-1036.288319
5655.224975,370.102971,-8733.488677,-1184.329507
5655.225300,666.185348,-8963.317327,-1406.391290
5655.225624,222.061783,-8656.879127,-1184.329507
5655.225948,296.082377,-8580.269578,-1258.350101
5655.226273,518.144159,-8886.707777,-666.185348
5655.226597,444.123565,-8963.317327,-888.247130
5655.226921,518.144159,-8580.269578,-1110.308913
5655.227246,444.123565,-8427.050478,-962.267725
5655.227570,148.041188,-9116.536426,-740.205942
5655.227894,592.164754,-8656.879127,-962.267725
5655.228219,444.123565,-8733.488677,-740.205942
5655.228543,518.144159,-8273.831378,-962.267725
5655.228867,592.164754,-8580.269578,-666.185348
5655.229192,444.123565,-8580.269578,-148.041188
5655.229516,814.226536,-8427.050478,-666.185348
5655.229840,518.144159,-8503.660028,-666.185348
5655.230164,370.102971,-8273.831378,-518.144159
5655.230489,222.061783,-8886.707777,0.000000
5655.230813,518.144159,-8580.269578,-592.164754
5655.231137,370.102971,-8656.879127,-592.164754
5655.231462,370.102971,-8656.879127,-370.102971
5655.231786,592.164754,-8273.831378,-592.164754
5655.232110,444.123565,-8580.269578,-222.061783
5655.232435,444.123565,-8427.050478,-666.185348
5655.232759,666.185348,-8273.831378,-370.102971
5655.233083,444.123565,-8197.221829,-296.082377
5655.233408,148.041188,-8503.660028,0.000000
5655.233732,444.123565,-8427.050478,-592.164754
5655.234056,666.185348,-8427.050478,-592.164754
5655.234381,444.123565,-8427.050478,-370.102971
5655.234705,592.164754,-8350.440928,-444.123565
5655.235029,518.144159,-8427.050478,-370.102971
5655.235354,444.123565,-8273.831378,-370.102971
5655.235678,444.123565,-8503.660028,-296.082377
5655.236002,148.041188,-8427.050478,-370.102971
5655.236327,444.123565,-8120.612279,-74.020594
5655.236651,518.144159,-8503.660028,-592.164754
5655.236975,222.061783,-8350.440928,-370.102971
5655.237299,296.082377,-8350.440928,-370.102971
5655.237624,740.205942,-8810.098227,0.000000
5655.237948,592.164754,-8350.440928,-370.102971
5655.238272,222.061783,-8350.440928,-296.082377
5655.238597,592.164754,-8656.879127,-148.041188
5655.238921,148.041188,-8350.440928,74.020594
5655.239245,518.144159,-8656.879127,-518.144159
5655.239570,296.082377,-8427.050478,-518.144159
5655.239894,370.102971,-8427.050478,0.000000
5655.240218,296.082377,-8810.098227,-296.082377
5655.240542,74.020594,-8503.660028,0.000000
5655.240866,592.164754,-8427.050478,-370.102971
5655.241191,814.226536,-8733.488677,-370.102971
5655.241515,518.144159,-8580.269578,-296.082377
5655.241839,296.082377,-8580.269578,0.000000
5655.242163,296.082377,-8656.879127,-296.082377
5655.242488,222.061783,-8503.660028,-444.123565
5655.242812,222.061783,-8810.098227,-444.123565
5655.243136,370.102971,-8503.660028,74.020594
5655.243460,518.144159,-8273.831378,-148.041188
5655.243785,370.102971,-8733.488677,-370.102971
5655.244109,222.061783,-8580.269578,0.000000
5655.244433,666.185348,-8580.269578,-370.102971
5655.244757,814.226536,-8886.707777,-740.205942
5655.245081,222.061783,-8810.098227,-296.082377
5655.245406,444.123565,-8503.660028,-148.041188
5655.245730,666.185348,-8273.831378,-444.123565
5655.246054,592.164754,-8580.269578,-592.164754
5655.246378,296.082377,-8580.269578,-444.123565
5655.246703,444.123565,-8427.050478,-222.061783
5655.247027,666.185348,-8350.440928,-444.123565
5655.247351,444.123565,-8810.098227,-518.144159
5655.247675,814.226536,-8503.660028,0.000000
5655.248000,370.102971,-8273.831378,-592.164754
5655.248324,592.164754,-8427.050478,-296.082377
5655.248648,518.144159,-8580.269578,-370.102971
5655.248972,740.205942,-8810.098227,-370.102971
5655.249296,518.144159,-8427.050478,-444.123565
5655.249621,666.185348,-8810.098227,-296.082377
5655.249945,666.185348,-8580.269578,-370.102971
5655.250269,888.247130,-7814.174080,370.102971
5655.250593,666.185348,-8580.269578,-148.041188
5655.250918,518.144159,-8580.269578,0.000000
5655.251242,518.144159,-8580.269578,0.000000
5655.251566,444.123565,-8580.269578,-296.082377
5655.251890,888.247130,-8580.269578,222.061783
5655.252215,444.123565,-8503.660028,0.000000
5655.252539,740.205942,-8503.660028,0.000000
5655.252863,222.061783,-8350.440928,148.041188
5655.253187,518.144159,-8350.440928,222.061783
5655.253511,444.123565,-8503.660028,74.020594
5655.253836,518.144159,-8733.488677,74.020594
5655.254160,296.082377,-8580.269578,0.000000
5655.254484,740.205942,-7967.393179,148.041188
5655.254808,370.102971,-8580.269578,74.020594
5655.255133,518.144159,-8580.269578,-148.041188
5655.255457,444.123565,-8733.488677,74.020594
5655.255781,148.041188,-8810.098227,148.041188
5655.256105,666.185348,-8886.707777,0.000000
5655.256430,444.123565,-8656.879127,-148.041188
5655.256754,518.144159,-8656.879127,0.000000
5655.257078,444.123565,-8427.050478,0.000000
5655.257402,666.185348,-9039.926876,148.041188
5655.257726,222.061783,-8810.098227,148.041188
5655.258051,518.144159,-8580.269578,0.000000
5655.258375,666.185348,-8963.317327,0.000000
5655.258699,370.102971,-8810.098227,0.000000
5655.259023,222.061783,-8733.488677,74.020594
5655.259348,148.041188,-8733.488677,-74.020594
5655.259672,518.144159,-8580.269578,0.000000
5655.259996,592.164754,-8656.879127,0.000000
5655.260320,666.185348,-8656.879127,0.000000
5655.260645,444.123565,-8427.050478,0.000000
5655.260969,592.164754,-8963.317327,74.020594
5655.261293,222.061783,-8580.269578,0.000000
5655.261617,592.164754,-8580.269578,-296.082377
5655.261941,666.185348,-8656.879127,-74.020594
5655.262266,370.102971,-8886.707777,0.000000
5655.262590,370.102971,-8810.098227,0.000000
5655.262914,444.123565,-8810.098227,0.000000
5655.263238,370.102971,-8580.269578,-148.041188
5655.263563,444.123565,-8733.488677,0.000000
5655.263887,666.185348,-8963.317327,-222.061783
5655.264211,296.082377,-8350.440928,0.000000
5655.264535,814.226536,-9193.145976,0.000000
5655.264860,444.123565,-8503.660028,-222.061783
5655.265184,814.226536,-8886.707777,-148.041188
5655.265508,370.102971,-8580.269578,-518.144159
5655.265832,592.164754,-9422.974625,-296.082377
5655.266156,296.082377,-8733.488677,-370.102971
5655.266481,370.102971,-8810.098227,-370.102971
5655.266805,222.061783,-8503.660028,-518.144159
5655.267129,370.102971,-8733.488677,-518.144159
5655.267453,148.041188,-8273.831378,-370.102971
5655.267778,148.041188,-8733.488677,-444.123565
5655.268102,148.041188,-8733.488677,-592.164754
5655.268426,296.082377,-8273.831378,-592.164754
5655.268750,370.102971,-9116.536426,-370.102971
5655.269075,222.061783,-8580.269578,-666.185348
5655.269399,444.123565,-8580.269578,-296.082377
5655.269723,370.102971,-8503.660028,-444.123565
5655.270047,370.102971,-9269.755526,-592.164754
5655.270372,222.061783,-8656.879127,-518.144159
5655.270696,296.082377,-8810.098227,-370.102971
5655.271020,296.082377,-8503.660028,-370.102971
5655.271344,222.061783,-8733.488677,-148.041188
5655.271668,-296.082377,-8503.660028,-370.102971
5655.271993,148.041188,-8427.050478,-296.082377
5655.272317,0.000000,-8810.098227,-222.061783
5655.272641,370.102971,-8963.317327,0.000000
5655.272965,74.020594,-8733.488677,74.020594
5655.273290,222.061783,-8810.098227,0.000000
5655.273614,370.102971,-8273.831378,-296.082377
5655.273938,222.061783,-8733.488677,0.000000
5655.274262,296.082377,-7967.393179,148.041188
5655.274587,0.000000,-8197.221829,0.000000
5655.274911,74.020594,-8656.879127,0.000000
5655.275235,148.041188,-8427.050478,-222.061783
5655.275559,222.061783,-8810.098227,74.020594
5655.275883,370.102971,-8503.660028,-296.082377
5655.276208,148.041188,-8503.660028,74.020594
5655.276532,296.082377,-8580.269578,0.000000
5655.276856,0.000000,-8503.660028,74.020594
5655.277180,518.144159,-8733.488677,0.000000
5655.277505,444.123565,-8656.879127,0.000000
5655.277829,370.102971,-8580.269578,0.000000
5655.278153,74.020594,-8503.660028,222.061783
5655.278477,444.123565,-9346.365076,74.020594
5655.278802,444.123565,-8733.488677,222.061783
5655.279126,370.102971,-8580.269578,222.061783
5655.279450,444.123565,-8886.707777,0.000000
5655.279774,222.061783,-8580.269578,74.020594
5655.280098,444.123565,-8733.488677,222.061783
5655.280423,222.061783,-8733.488677,296.082377
5655.280747,518.144159,-8656.879127,74.020594
5655.281071,444.123565,-8886.707777,370.102971
5655.281395,888.247130,-8350.440928,518.144159
5655.281720,444.123565,-8580.269578,370.102971
5655.282044,444.123565,-8656.879127,592.164754
5655.282368,296.082377,-8656.879127,222.061783
5655.282692,370.102971,-8810.098227,148.041188
5655.283017,148.041188,-8733.488677,296.082377
5655.283341,0.000000,-8273.831378,518.144159
5655.283665,518.144159,-8656.879127,296.082377
5655.283989,296.082377,-8656.879127,148.041188
5655.284313,666.185348,-9193.145976,0.000000
5655.284638,296.082377,-8580.269578,0.000000
5655.284962,296.082377,-8580.269578,370.102971
5655.285286,74.020594,-8656.879127,74.020594
5655.285610,370.102971,-9116.536426,592.164754
5655.285935,444.123565,-8580.269578,0.000000
5655.286259,444.123565,-9039.926876,0.000000
5655.286583,74.020594,-8656.879127,0.000000
5655.286907,0.000000,-8580.269578,148.041188
5655.287232,74.020594,-8886.707777,74.020594
5655.287556,148.041188,-8503.660028,74.020594
5655.287880,444.123565,-8656.879127,-148.041188
5655.288204,222.061783,-8733.488677,0.000000
5655.288528,74.020594,-8273.831378,0.000000
5655.288853,148.041188,-8810.098227,-370.102971
5655.289177,370.102971,-8733.488677,-296.082377
5655.289501,518.144159,-8580.269578,-296.082377
5655.289825,740.205942,-8886.707777,-148.041188
5655.290150,370.102971,-8580.269578,-222.061783
5655.290474,370.102971,-8733.488677,-296.082377
5655.290798,444.123565,-8350.440928,-592.164754
5655.291122,296.082377,-8427.050478,-296.082377
5655.291447,444.123565,-8503.660028,-370.102971
5655.291771,518.144159,-8350.440928,-296.082377
5655.292095,148.041188,-8733.488677,-370.102971
5655.292419,444.123565,-8733.488677,-666.185348
5655.292743,814.226536,-9116.536426,-518.144159
5655.293068,222.061783,-8580.269578,-740.205942
5655.293392,444.123565,-8427.050478,-962.267725
5655.293716,148.041188,-8733.488677,-444.123565
5655.294040,296.082377,-9116.536426,-666.185348
5655.294365,296.082377,-8427.050478,-592.164754
5655.294689,518.144159,-8656.879127,-740.205942
5655.295013,518.144159,-8580.269578,-888.247130
5655.295337,518.144159,-8044.002729,-518.144159
5655.295662,74.020594,-8120.612279,-592.164754
5655.295986,222.061783,-8503.660028,-444.123565
5655.296310,296.082377,-8503.660028,-444.123565
5655.296634,296.082377,-8733.488677,-814.226536
5655.296958,592.164754,-8120.612279,0.000000
5655.297283,444.123565,-8580.269578,-592.164754
5655.297607,222.061783,-8580.269578,-296.082377
5655.297931,222.061783,-8273.831378,-666.185348
5655.298255,518.144159,-8963.317327,-740.205942
5655.298580,444.123565,-8120.612279,-444.123565
5655.298904,444.123565,-8273.831378,-518.144159
5655.299228,148.041188,-8503.660028,-592.164754
5655.299552,518.144159,-8350.440928,-148.041188
5655.299877,666.185348,-8427.050478,-592.164754
5655.300201,518.144159,-8273.831378,-518.144159
5655.300525,518.144159,-8580.269578,-296.082377
5655.300849,370.102971,-8580.269578,-296.082377
5655.301174,518.144159,-8120.612279,-148.041188
5655.301498,222.061783,-8427.050478,-518.144159
5655.301822,666.185348,-8273.831378,-592.164754
5655.302146,370.102971,-8580.269578,-222.061783
5655.302470,296.082377,-8503.660028,-444.123565
5655.302795,444.123565,-8580.269578,-444.123565
5655.303119,740.205942,-8580.269578,-518.144159
5655.303443,518.144159,-8503.660028,-592.164754
5655.303767,370.102971,-8503.660028,-74.020594
5655.304092,444.123565,-8044.002729,-518.144159
5655.304416,444.123565,-8273.831378,-222.061783
5655.304740,444.123565,-8427.050478,-222.061783
5655.305064,444.123565,-8580.269578,-370.102971
5655.305389,666.185348,-8197.221829,-148.041188
5655.305713,296.082377,-8427.050478,-592.164754
5655.306037,518.144159,-8810.098227,-444.123565
5655.306361,222.061783,-8427.050478,-222.061783
5655.306685,592.164754,-8810.098227,0.000000
5655.307010,666.185348,-8427.050478,-740.205942
5655.307334,666.185348,-8733.488677,-444.123565
5655.307658,518.144159,-8656.879127,-518.144159
5655.307982,592.164754,-8733.488677,-518.144159
5655.308307,814.226536,-8733.488677,-962.267725
5655.308631,666.185348,-8886.707777,-592.164754
5655.308955,592.164754,-8350.440928,-518.144159
5655.309279,518.144159,-8503.660028,-518.144159
5655.309604,518.144159,-8733.488677,-444.123565
5655.309928,666.185348,-8656.879127,-518.144159
5655.310252,666.185348,-8503.660028,-666.185348
5655.310576,518.144159,-8733.488677,-666.185348
5655.310900,740.205942,-8656.879127,-518.144159
5655.311225,296.082377,-8427.050478,-444.123565
5655.311549,370.102971,-8580.269578,-296.082377
5655.311873,370.102971,-8350.440928,-592.164754
5655.312197,666.185348,-8886.707777,-592.164754
5655.312522,0.000000,-8427.050478,-296.082377
5655.312846,592.164754,-8503.660028,-518.144159
5655.313170,370.102971,-8733.488677,-740.205942
5655.313494,740.205942,-8503.660028,-444.123565
5655.313819,444.123565,-8580.269578,-666.185348
5655.314143,592.164754,-8656.879127,-592.164754
5655.314467,370.102971,-8350.440928,-518.144159
5655.314791,518.144159,-8656.879127,-370.102971
5655.315115,148.041188,-8350.440928,-518.144159
5655.315440,740.205942,-8810.098227,-592.164754
5655.315764,592.164754,-8656.879127,-666.185348
5655.316088,518.144159,-8427.050478,-296.082377
5655.316412,592.164754,-8810.098227,-370.102971
5655.316737,370.102971,-8350.440928,-962.267725
5655.317061,888.247130,-8733.488677,-370.102971
5655.317385,370.102971,-8503.660028,-666.185348
5655.317709,592.164754,-8810.098227,-370.102971
5655.318034,222.061783,-8580.269578,-518.144159
5655.318358,666.185348,-8656.879127,-296.082377
5655.318682,444.123565,-8503.660028,-444.123565
5655.319006,592.164754,-8810.098227,-518.144159
5655.319330,518.144159,-8427.050478,-296.082377
5655.319655,666.185348,-8427.050478,0.000000
5655.319979,518.144159,-8580.269578,-444.123565
5655.320303,518.144159,-8120.612279,-518.144159
5655.320627,444.123565,-8733.488677,-740.205942
5655.320952,444.123565,-8733.488677,-592.164754
5655.321276,296.082377,-8273.831378,0.000000
5655.321600,148.041188,-8580.269578,-222.061783
5655.321924,444.123565,-8503.660028,-518.144159
5655.322249,592.164754,-8273.831378,-592.164754
5655.322573,370.102971,-8656.879127,-296.082377
5655.322897,592.164754,-8503.660028,-444.123565
5655.323221,666.185348,-8427.050478,-444.123565
5655.323545,444.123565,-8733.488677,-370.102971
5655.323870,222.061783,-8427.050478,-222.061783
5655.324194,444.123565,-8427.050478,-592.164754
5655.324518,518.144159,-8273.831378,-370.102971
5655.324842,296.082377,-8963.317327,-296.082377
5655.325167,592.164754,-8656.879127,-222.061783
5655.325491,444.123565,-8580.269578,-222.061783
5655.325815,444.123565,-8733.488677,-444.123565
5655.326139,592.164754,-8656.879127,-592.164754
5655.326464,518.144159,-8656.879127,-370.102971
5655.326788,444.123565,-8044.002729,-592.164754
5655.327112,444.123565,-8580.269578,-592.164754
5655.327436,740.205942,-8427.050478,-592.164754
5655.327760,518.144159,-8810.098227,-740.205942
5655.328085,444.123565,-8810.098227,-666.185348
5655.328409,148.041188,-8580.269578,-592.164754
5655.328733,296.082377,-8810.098227,-592.164754
5655.329057,518.144159,-8503.660028,-666.185348
5655.329382,740.205942,-9193.145976,-1036.288319
5655.329706,814.226536,-8580.269578,-444.123565
5655.330030,296.082377,-8350.440928,-814.226536
5655.330354,296.082377,-8810.098227,-592.164754
5655.330679,444.123565,-8350.440928,-888.247130
5655.331003,444.123565,-9193.145976,-518.144159
5655.331327,296.082377,-8427.050478,-740.205942
5655.331651,444.123565,-8963.317327,-296.082377
5655.331975,148.041188,-8733.488677,-518.144159
5655.332300,0.000000,-8580.269578,-296.082377
5655.332624,296.082377,-8656.879127,-370.102971
5655.332948,370.102971,-8733.488677,-518.144159
5655.333272,222.061783,-8503.660028,-370.102971
5655.333597,148.041188,-8810.098227,-296.082377
5655.333921,222.061783,-8733.488677,-518.144159
5655.334245,370.102971,-8656.879127,-370.102971
5655.334569,592.164754,-8580.269578,-666.185348
5655.334894,296.082377,-8503.660028,-740.205942
5655.335218,296.082377,-8350.440928,-296.082377
5655.335542,444.123565,-8656.879127,-518.144159
5655.335866,666.185348,-8656.879127,-592.164754
5655.336191,518.144159,-8733.488677,-1036.288319
5655.336515,740.205942,-8810.098227,-518.144159
5655.336839,592.164754,-8503.660028,-740.205942
5655.337163,74.020594,-8733.488677,-518.144159
5655.337487,370.102971,-8580.269578,-740.205942
5655.337812,592.164754,-8350.440928,-1110.308913
5655.338136,814.226536,-8886.707777,-1184.329507
5655.338460,444.123565,-8503.660028,-740.205942
5655.338784,296.082377,-8733.488677,-814.226536
5655.339109,444.123565,-8656.879127,-666.185348
5655.339433,518.144159,-8656.879127,-740.205942
5655.339757,296.082377,-8810.098227,-962.267725
5655.340081,592.164754,-8503.660028,-888.247130
5655.340405,296.082377,-8503.660028,-814.226536
5655.340730,296.082377,-8503.660028,-888.247130
5655.341054,592.164754,-8733.488677,-740.205942
5655.341378,518.144159,-8963.317327,-740.205942
5655.341702,444.123565,-8810.098227,-888.247130
5655.342026,518.144159,-8580.269578,-666.185348
5655.342351,962.267725,-8503.660028,-592.164754
5655.342675,518.144159,-8503.660028,-444.123565
5655.342999,592.164754,-8503.660028,-740.205942
5655.343323,370.102971,-8503.660028,-740.205942
5655.343647,1036.288319,-8810.098227,-370.102971
5655.343971,0.000000,-8350.440928,-518.144159
5655.344296,518.144159,-8810.098227,-518.144159
5655.344620,222.061783,-8580.269578,-518.144159
5655.344944,518.144159,-8120.612279,-740.205942
5655.345268,296.082377,-8656.879127,-370.102971
5655.345592,296.082377,-8656.879127,-370.102971
5655.345917,518.144159,-8733.488677,-592.164754
5655.346241,518.144159,-8427.050478,-666.185348
5655.346565,518.144159,-8580.269578,-518.144159
5655.346889,666.185348,-8580.269578,-888.247130
5655.347213,444.123565,-8733.488677,-592.164754
5655.347537,296.082377,-8810.098227,-814.226536
5655.347862,370.102971,-8503.660028,-518.144159
5655.348186,444.123565,-8350.440928,-518.144159
5655.348510,592.164754,-9039.926876,-740.205942
5655.348834,518.144159,-8733.488677,-518.144159
5655.349158,518.144159,-8886.707777,-222.061783
5655.349483,666.185348,-8733.488677,-518.144159
5655.349807,444.123565,-8503.660028,-222.061783
5655.350131,518.144159,-8733.488677,-444.123565
5655.350455,666.185348,-8503.660028,-370.102971
5655.350779,370.102971,-8350.440928,-444.123565
5655.351104,444.123565,-8886.707777,-444.123565
5655.351428,370.102971,-8656.879127,0.000000
5655.351752,296.082377,-8656.879127,0.000000
5655.352076,444.123565,-8350.440928,74.020594
5655.352400,518.144159,-8733.488677,0.000000
5655.352724,370.102971,-8810.098227,222.061783
5655.353049,666.185348,-8810.098227,0.000000
5655.353373,296.082377,-8427.050478,-222.061783
5655.353697,518.144159,-8580.269578,0.000000
5655.354021,666.185348,-8197.221829,-148.041188
5655.354345,296.082377,-8733.488677,-148.041188
5655.354670,370.102971,-8580.269578,0.000000
5655.354994,370.102971,-8733.488677,-444.123565
5655.355318,444.123565,-8733.488677,0.000000
5655.355642,148.041188,-8503.660028,-370.102971
5655.355966,148.041188,-8427.050478,0.000000
5655.356291,740.205942,-8886.707777,-296.082377
5655.356615,370.102971,-8503.660028,-296.082377
5655.356939,666.185348,-8656.879127,-296.082377
5655.357263,592.164754,-8580.269578,-370.102971
5655.357587,518.144159,-8350.440928,-148.041188
5655.357911,296.082377,-8120.612279,-518.144159
5655.358236,666.185348,-8273.831378,-148.041188
5655.358560,518.144159,-8427.050478,-370.102971
5655.358884,740.205942,-8886.707777,-370.102971
5655.359208,518.144159,-8350.440928,-370.102971
5655.359532,592.164754,-8427.050478,-222.061783
5655.359857,444.123565,-8580.269578,-370.102971
5655.360181,444.123565,-8503.660028,-222.061783
5655.360505,814.226536,-8580.269578,-518.144159
5655.360829,666.185348,-8656.879127,-222.061783
5655.361153,444.123565,-8197.221829,-296.082377
5655.361478,370.102971,-8810.098227,-370.102971
5655.361802,518.144159,-8427.050478,-444.123565
5655.362126,518.144159,-8273.831378,-444.123565
5655.362450,518.144159,-8656.879127,-592.164754
5655.362774,370.102971,-8963.317327,-296.082377
5655.363098,518.144159,-8886.707777,-444.123565
5655.363423,666.185348,-8503.660028,-740.205942
5655.363747,518.144159,-8350.440928,-518.144159
5655.364071,370.102971,-8350.440928,-592.164754
5655.364395,296.082377,-8503.660028,0.000000
5655.364719,296.082377,-8427.050478,-370.102971
5655.365044,592.164754,-8656.879127,-148.041188
5655.365368,222.061783,-8503.660028,-518.144159
5655.365692,370.102971,-8656.879127,-444.123565
5655.366016,444.123565,-8427.050478,-592.164754
5655.366340,296.082377,-8733.488677,0.000000
5655.366665,222.061783,-8427.050478,-370.102971
5655.366989,296.082377,-8503.660028,-370.102971
5655.367313,518.144159,-8656.879127,-518.144159
5655.367637,518.144159,-8733.488677,-444.123565
5655.367961,740.205942,-8273.831378,-592.164754
5655.368285,222.061783,-8273.831378,-222.061783
5655.368610,370.102971,-8350.440928,-148.041188
5655.368934,444.123565,-8273.831378,-370.102971
5655.369258,814.226536,-8580.269578,-666.185348
5655.369582,296.082377,-8273.831378,-518.144159
5655.369906,592.164754,-8733.488677,-222.061783
5655.370231,148.041188,-8427.050478,-444.123565
5655.370555,962.267725,-8580.269578,-370.102971
5655.370879,592.164754,-8580.269578,-370.102971
5655.371203,296.082377,-8427.050478,-222.061783
5655.371527,370.102971,-8503.660028,0.000000
5655.371852,296.082377,-8733.488677,0.000000
5655.372176,518.144159,-8733.488677,-148.041188
5655.372500,444.123565,-8427.050478,-148.041188
5655.372824,370.102971,-8656.879127,-148.041188
5655.373148,74.020594,-8656.879127,0.000000
5655.373472,444.123565,-8733.488677,-148.041188
5655.373797,148.041188,-8503.660028,0.000000
5655.374121,370.102971,-8810.098227,0.000000
5655.374445,0.000000,-8733.488677,-74.020594
5655.374769,518.144159,-8963.317327,444.123565
5655.375093,74.020594,-8197.221829,74.020594
5655.375418,74.020594,-8810.098227,0.000000
5655.375742,74.020594,-8503.660028,74.020594
5655.376066,148.041188,-9269.755526,518.144159
5655.376390,148.041188,-8810.098227,0.000000
5655.376714,370.102971,-8810.098227,0.000000
5655.377039,296.082377,-8656.879127,222.061783
5655.377363,148.041188,-8580.269578,0.000000
5655.377687,370.102971,-8273.831378,0.000000
5655.378011,222.061783,-8503.660028,0.000000
5655.378335,296.082377,-8503.660028,0.000000
5655.378659,74.020594,-8427.050478,-222.061783
5655.378984,222.061783,-8503.660028,222.061783
5655.379308,444.123565,-7967.393179,-518.144159
5655.379632,518.144159,-8580.269578,-296.082377
5655.379956,296.082377,-8427.050478,0.000000
5655.380280,370.102971,-8503.660028,74.020594
5655.380605,222.061783,-8580.269578,0.000000
5655.380929,444.123565,-8580.269578,0.000000
5655.381253,444.123565,-8580.269578,-370.102971
5655.381577,370.102971,-8810.098227,0.000000
5655.381901,370.102971,-8273.831378,0.000000
5655.382226,74.020594,-8656.879127,0.000000
5655.382550,148.041188,-8273.831378,0.000000
5655.382874,222.061783,-8427.050478,0.000000
5655.383198,518.144159,-8656.879127,222.061783
5655.383522,148.041188,-8656.879127,74.020594
5655.383846,296.082377,-8810.098227,0.000000
5655.384171,370.102971,-8427.050478,74.020594
5655.384495,444.123565,-8197.221829,0.000000
5655.384819,370.102971,-8656.879127,0.000000
5655.385143,444.123565,-8580.269578,0.000000
5655.385467,296.082377,-8427.050478,0.000000
5655.385792,296.082377,-8810.098227,-296.082377
5655.386116,888.247130,-8733.488677,-518.144159
5655.386440,148.041188,-8733.488677,0.000000
5655.386764,148.041188,-8503.660028,148.041188
5655.387088,0.000000,-8580.269578,74.020594
5655.387413,814.226536,-8886.707777,-148.041188
5655.387737,222.061783,-8503.660028,0.000000
5655.388061,592.164754,-8503.660028,-296.082377
5655.388385,370.102971,-8580.269578,-370.102971
5655.388709,370.102971,-8656.879127,0.000000
5655.389033,222.061783,-8503.660028,0.000000
5655.389358,222.061783,-8503.660028,0.000000
5655.389682,444.123565,-8273.831378,0.000000
5655.390006,444.123565,-8350.440928,-222.061783
5655.390330,296.082377,-7967.393179,0.000000
5655.390654,74.020594,-8350.440928,0.000000
5655.390979,444.123565,-8656.879127,0.000000
5655.391303,518.144159,-8197.221829,0.000000
5655.391627,370.102971,-8503.660028,-148.041188
5655.391951,518.144159,-8733.488677,74.020594
5655.392275,444.123565,-8427.050478,-148.041188
5655.392599,222.061783,-8656.879127,0.000000
5655.392924,592.164754,-8503.660028,0.000000
5655.393248,740.205942,-8273.831378,-222.061783
5655.393572,592.164754,-8580.269578,-222.061783
5655.393896,370.102971,-8580.269578,0.000000
5655.394220,444.123565,-8656.879127,-148.041188
5655.394545,888.247130,-8963.317327,296.082377
5655.394869,222.061783,-8350.440928,0.000000
5655.395193,222.061783,-8656.879127,0.000000
5655.395517,370.102971,-8503.660028,-222.061783
5655.395841,296.082377,-8656.879127,0.000000
5655.396166,222.061783,-8810.098227,0.000000
5655.396490,148.041188,-8350.440928,0.000000
5655.396814,444.123565,-8810.098227,0.000000
5655.397138,370.102971,-8580.269578,74.020594
5655.397462,814.226536,-8733.488677,0.000000
5655.397786,296.082377,-8427.050478,-148.041188
5655.398111,296.082377,-8810.098227,0.000000
5655.398435,296.082377,-8427.050478,-592.164754
5655.398759,518.144159,-8656.879127,0.000000
5655.399083,222.061783,-8273.831378,0.000000
5655.399407,370.102971,-8963.317327,-296.082377
5655.399732,296.082377,-8503.660028,-296.082377
5655.400056,592.164754,-8580.269578,-444.123565
5655.400380,518.144159,-8886.707777,-444.123565
5655.400704,444.123565,-8810.098227,0.000000
5655.401028,444.123565,-8503.660028,-370.102971
5655.401353,444.123565,-8810.098227,-222.061783
5655.401677,888.247130,-8810.098227,-666.185348
5655.402001,444.123565,-8656.879127,-592.164754
5655.402325,592.164754,-8656.879127,-592.164754
5655.402649,518.144159,-8427.050478,-518.144159
5655.402973,666.185348,-9039.926876,-222.061783
5655.403298,444.123565,-8810.098227,-370.102971
5655.403622,518.144159,-8503.660028,-518.144159
5655.403946,592.164754,-8580.269578,-518.144159
5655.404270,592.164754,-8656.879127,-518.144159
5655.404594,592.164754,-8503.660028,-518.144159
5655.404919,666.185348,-8733.488677,-370.102971
5655.405243,296.082377,-8580.269578,-370.102971
5655.405567,296.082377,-8810.098227,-666.185348
5655.405891,518.144159,-8886.707777,-296.082377
5655.406215,296.082377,-8886.707777,-148.041188
5655.406540,444.123565,-8656.879127,-518.144159
5655.406864,444.123565,-8580.269578,-444.123565
5655.407188,1110.308913,-9039.926876,-296.082377
5655.407512,666.185348,-8733.488677,-592.164754
5655.407836,370.102971,-8810.098227,-148.041188
5655.408160,370.102971,-8656.879127,-444.123565
5655.408485,518.144159,-8503.660028,-222.061783
5655.408809,148.041188,-8656.879127,-518.144159
5655.409133,518.144159,-8733.488677,-592.164754
5655.409457,222.061783,-8350.440928,-370.102971
5655.409781,370.102971,-8503.660028,-296.082377
5655.410106,740.205942,-8273.831378,-296.082377
5655.410430,740.205942,-8427.050478,-370.102971
5655.410754,592.164754,-8810.098227,-444.123565
5655.411078,444.123565,-8580.269578,-444.123565
5655.411402,148.041188,-8273.831378,-74.020594
5655.411727,518.144159,-8656.879127,-444.123565
5655.412051,370.102971,-8810.098227,-296.082377
5655.412375,296.082377,-8656.879127,-518.144159
5655.412699,666.185348,-8886.707777,-444.123565
5655.413023,222.061783,-8273.831378,0.000000
5655.413347,518.144159,-8656.879127,-296.082377
5655.413672,444.123565,-8503.660028,-296.082377
5655.413996,814.226536,-8350.440928,-444.123565
5655.414320,1036.288319,-9116.536426,0.000000
5655.414644,592.164754,-8733.488677,-592.164754
5655.414968,296.082377,-8427.050478,-444.123565
5655.415293,444.123565,-8503.660028,-370.102971
5655.415617,518.144159,-8427.050478,-370.102971
5655.415941,370.102971,-8733.488677,-222.061783
5655.416265,740.205942,-8580.269578,-518.144159
5655.416589,592.164754,-8350.440928,-370.102971
5655.416914,592.164754,-8580.269578,-222.061783
5655.417238,370.102971,-8503.660028,-148.041188
5655.417562,814.226536,-8350.440928,-444.123565
5655.417886,444.123565,-8733.488677,-296.082377
5655.418210,592.164754,-8733.488677,-518.144159
5655.418534,444.123565,-8503.660028,-444.123565
5655.418859,518.144159,-8580.269578,-592.164754
5655.419183,592.164754,-8810.098227,-518.144159
5655.419507,592.164754,-8733.488677,-592.164754
5655.419831,666.185348,-8580.269578,-148.041188
5655.420155,444.123565,-8350.440928,-370.102971
5655.420480,518.144159,-8503.660028,-370.102971
5655.420804,370.102971,-8273.831378,-370.102971
5655.421128,666.185348,-8810.098227,-518.144159
5655.421452,518.144159,-8273.831378,-592.164754
5655.421776,222.061783,-8733.488677,-296.082377
5655.422101,444.123565,-8733.488677,-222.061783
5655.422425,148.041188,-8656.879127,0.000000
5655.422749,222.061783,-9193.145976,-518.144159
5655.423073,444.123565,-8810.098227,-370.102971
5655.423397,518.144159,-8350.440928,-222.061783
5655.423721,222.061783,-8503.660028,-518.144159
5655.424046,222.061783,-8580.269578,-296.082377
5655.424370,0.000000,-8580.269578,-296.082377
5655.424694,592.164754,-8350.440928,-518.144159
5655.425018,148.041188,-8427.050478,-592.164754
5655.425342,296.082377,-8273.831378,-296.082377
5655.425667,444.123565,-8810.098227,148.041188
5655.425991,370.102971,-8197.221829,-444.123565
5655.426315,592.164754,-8580.269578,-666.185348
5655.426639,74.020594,-8503.660028,-592.164754
5655.426963,370.102971,-8963.317327,-888.247130
5655.427288,222.061783,-8503.660028,-592.164754
5655.427612,592.164754,-8503.660028,-666.185348
5655.427936,296.082377,-8580.269578,-740.205942
5655.428260,444.123565,-8810.098227,-962.267725
5655.428584,74.020594,-8427.050478,-666.185348
5655.428908,518.144159,-8580.269578,-740.205942
5655.429233,666.185348,-8273.831378,-888.247130
5655.429557,888.247130,-8350.440928,-814.226536
5655.429881,444.123565,-8810.098227,-222.061783
5655.430205,592.164754,-8427.050478,-666.185348
5655.430529,518.144159,-8273.831378,-1110.308913
5655.430854,592.164754,-8656.879127,-740.205942
5655.431178,814.226536,-9193.145976,-888.247130
5655.431502,296.082377,-8503.660028,-888.247130
5655.431826,518.144159,-8580.269578,-740.205942
5655.432150,370.102971,-8427.050478,-518.144159
5655.432475,296.082377,-8656.879127,-592.164754
5655.432799,444.123565,-7967.393179,-592.164754
5655.433123,666.185348,-8427.050478,-518.144159
5655.433447,518.144159,-8886.707777,-740.205942
5655.433771,814.226536,-8350.440928,-666.185348
5655.434095,74.020594,-8503.660028,-666.185348
5655.434420,296.082377,-8427.050478,-592.164754
5655.434744,814.226536,-8273.831378,-592.164754
5655.435068,592.164754,-8427.050478,-740.205942
5655.435392,518.144159,-8656.879127,-740.205942
5655.435716,0.000000,-8197.221829,-592.164754
5655.436041,296.082377,-8350.440928,-518.144159
5655.436365,444.123565,-8350.440928,-666.185348
5655.436689,518.144159,-8503.660028,-740.205942
5655.437013,296.082377,-8350.440928,-814.226536
5655.437337,518.144159,-8273.831378,-518.144159
5655.437661,296.082377,-8810.098227,-888.247130
5655.437986,222.061783,-8580.269578,-666.185348
5655.438310,740.205942,-8656.879127,-1110.308913
5655.438634,518.144159,-8503.660028,-962.267725
5655.438958,518.144159,-8733.488677,-814.226536
5655.439282,518.144159,-8656.879127,-666.185348
5655.439607,518.144159,-8503.660028,-592.164754
5655.439931,518.144159,-8580.269578,-814.226536
5655.440255,518.144159,-8810.098227,-740.205942
5655.440579,518.144159,-8503.660028,-518.144159
5655.440904,222.061783,-8656.879127,-444.123565
5655.441228,1036.288319,-8886.707777,-740.205942
5655.441552,148.041188,-8733.488677,-518.144159
5655.441877,370.102971,-8656.879127,-444.123565
5655.442201,296.082377,-8427.050478,-370.102971
5655.442525,518.144159,-8810.098227,0.000000
5655.442850,444.123565,-8503.660028,-370.102971
5655.443174,518.144159,-8656.879127,-444.123565
5655.443498,74.020594,-8350.440928,-370.102971
5655.443823,296.082377,-8656.879127,-296.082377
5655.444147,148.041188,-8197.221829,0.000000
5655.444471,370.102971,-8580.269578,-370.102971
5655.444795,296.082377,-8580.269578,-444.123565
5655.445120,592.164754,-8273.831378,-444.123565
5655.445444,222.061783,-8733.488677,-518.144159
5655.445768,518.144159,-8427.050478,-592.164754
5655.446093,444.123565,-8350.440928,-518.144159
5655.446417,222.061783,-8427.050478,-370.102971
5655.446741,296.082377,-8350.440928,-518.144159
5655.447066,370.102971,-8503.660028,-518.144159
5655.447390,518.144159,-8503.660028,-444.123565
5655.447714,444.123565,-8273.831378,-370.102971
5655.448039,222.061783,-8580.269578,-518.144159
5655.448363,740.205942,-8427.050478,-518.144159
5655.448687,666.185348,-8656.879127,-370.102971
5655.449012,444.123565,-8427.050478,-740.205942
5655.449336,518.144159,-8503.660028,-296.082377
5655.449660,666.185348,-8810.098227,-740.205942
5655.449984,518.144159,-8273.831378,-370.102971
5655.450309,518.144159,-8733.488677,-444.123565
5655.450633,370.102971,-8427.050478,-370.102971
5655.450957,592.164754,-8733.488677,-222.061783
5655.451282,222.061783,-8580.269578,0.000000
5655.451606,74.020594,-8656.879127,-370.102971
5655.451930,296.082377,-8503.660028,-444.123565
5655.452255,444.123565,-8886.707777,-296.082377
5655.452579,666.185348,-8886.707777,-444.123565
5655.452903,222.061783,-8580.269578,0.000000
5655.453228,444.123565,-8810.098227,-444.123565
5655.453552,148.041188,-8733.488677,-222.061783
5655.453876,370.102971,-9116.536426,-666.185348
5655.454200,296.082377,-8963.317327,-518.144159
5655.454525,518.144159,-8503.660028,-296.082377
5655.454849,296.082377,-8580.269578,-518.144159
5655.455173,370.102971,-8273.831378,-592.164754
5655.455498,370.102971,-8656.879127,-592.164754
5655.455822,370.102971,-8886.707777,-222.061783
5655.456146,222.061783,-8733.488677,-444.123565
5655.456471,444.123565,-8886.707777,-296.082377
5655.456795,148.041188,-8963.317327,74.020594
5655.457119,370.102971,-8733.488677,-444.123565
5655.457444,518.144159,-8656.879127,-370.102971
5655.457768,592.164754,-8427.050478,-666.185348
5655.458092,592.164754,-8580.269578,148.041188
5655.458417,296.082377,-8273.831378,-592.164754
5655.458741,592.164754,-8580.269578,-222.061783
5655.459065,444.123565,-8273.831378,-666.185348
5655.459389,666.185348,-8656.879127,-444.123565
5655.459714,222.061783,-8733.488677,-222.061783
5655.460038,666.185348,-8656.879127,-296.082377
5655.460362,370.102971,-8427.050478,-370.102971
5655.460687,444.123565,-8427.050478,-296.082377
5655.461011,222.061783,-9116.536426,-592.164754
5655.461335,518.144159,-8580.269578,-444.123565
5655.461660,592.164754,-8427.050478,-518.144159
5655.461984,518.144159,-8656.879127,-518.144159
5655.462308,444.123565,-8810.098227,-740.205942
5655.462633,518.144159,-8503.660028,-518.144159
5655.462957,592.164754,-8503.660028,-518.144159
5655.463281,296.082377,-8503.660028,-444.123565
5655.463606,518.144159,-8580.269578,-666.185348
5655.463930,148.041188,-8580.269578,0.000000
5655.464254,444.123565,-8503.660028,-444.123565
5655.464578,296.082377,-8733.488677,-592.164754
5655.464903,592.164754,-8427.050478,-518.144159
5655.465227,296.082377,-9039.926876,-296.082377
5655.465551,444.123565,-8810.098227,-444.123565
5655.465876,740.205942,-8580.269578,-370.102971
5655.466200,666.185348,-8580.269578,-518.144159
5655.466524,296.082377,-8656.879127,-222.061783
5655.466849,370.102971,-8350.440928,-222.061783
5655.467173,148.041188,-8810.098227,0.000000
5655.467497,296.082377,-8886.707777,-518.144159
5655.467822,518.144159,-8963.317327,-370.102971
5655.468146,592.164754,-8656.879127,-740.205942
5655.468470,518.144159,-8733.488677,-296.082377
5655.468794,370.102971,-8580.269578,-444.123565
5655.469119,592.164754,-8656.879127,-148.041188
5655.469443,518.144159,-8580.269578,-370.102971
5655.469767,370.102971,-8733.488677,-444.123565
5655.470092,444.123565,-8656.879127,-370.102971
5655.470416,222.061783,-8733.488677,-592.164754
5655.470740,74.020594,-8733.488677,0.000000
5655.471065,296.082377,-8656.879127,-592.164754
5655.471389,518.144159,-8963.317327,-666.185348
5655.471713,444.123565,-8503.660028,0.000000
5655.472038,370.102971,-8427.050478,-296.082377
5655.472362,1184.329507,-8503.660028,-814.226536
5655.472686,296.082377,-8580.269578,-296.082377
5655.473011,444.123565,-8503.660028,-296.082377
5655.473335,444.123565,-8810.098227,0.000000
5655.473659,444.123565,-8427.050478,-370.102971
5655.473983,370.102971,-8733.488677,-148.041188
5655.474308,74.020594,-8656.879127,0.000000
5655.474632,370.102971,-8580.269578,-222.061783
5655.474956,222.061783,-8963.317327,-148.041188
5655.475281,666.185348,-8580.269578,74.020594
5655.475605,296.082377,-8427.050478,-222.061783
5655.475929,518.144159,-8810.098227,0.000000
5655.476254,518.144159,-8427.050478,0.000000
5655.476578,888.247130,-7967.393179,74.020594
5655.476902,518.144159,-8427.050478,0.000000
5655.477227,222.061783,-8580.269578,0.000000
5655.477551,296.082377,-8656.879127,148.041188
5655.477875,370.102971,-8427.050478,148.041188
5655.478199,518.144159,-8427.050478,-296.082377
5655.478524,444.123565,-8656.879127,-148.041188
5655.478848,666.185348,-8044.002729,0.000000
5655.479172,222.061783,-8503.660028,0.000000
5655.479497,740.205942,-8350.440928,0.000000
5655.479821,888.247130,-8350.440928,-370.102971
5655.480145,592.164754,-8427.050478,-222.061783
5655.480470,222.061783,-8810.098227,0.000000
5655.480794,888.247130,-8197.221829,-370.102971
5655.481118,592.164754,-8580.269578,-222.061783
5655.481443,296.082377,-8427.050478,-222.061783
5655.481767,518.144159,-8656.879127,0.000000
5655.482091,370.102971,-8810.098227,-296.082377
5655.482416,444.123565,-8580.269578,74.020594
5655.482740,222.061783,-8580.269578,0.000000
5655.483064,666.185348,-8427.050478,0.000000
5655.483388,444.123565,-8580.269578,0.000000
5655.483713,888.247130,-9193.145976,-444.123565
5655.484037,296.082377,-8273.831378,-148.041188
5655.484361,444.123565,-8580.269578,0.000000
5655.484686,370.102971,-8580.269578,74.020594
5655.485010,592.164754,-8656.879127,-222.061783
5655.485334,444.123565,-9193.145976,-222.061783
5655.485659,222.061783,-8350.440928,-148.041188
5655.485983,444.123565,-8733.488677,-148.041188
5655.486307,222.061783,-8503.660028,-296.082377
5655.486632,518.144159,-8503.660028,0.000000
5655.486956,370.102971,-8503.660028,-444.123565
5655.487280,370.102971,-8580.269578,-296.082377
5655.487605,148.041188,-8580.269578,-148.041188
5655.487929,592.164754,-8350.440928,0.000000
5655.488253,370.102971,-8733.488677,-222.061783
5655.488577,222.061783,-8503.660028,-148.041188
5655.488902,444.123565,-8580.269578,-222.061783
5655.489226,592.164754,-7660.954980,0.000000
5655.489550,444.123565,-8503.660028,-444.123565
5655.489875,296.082377,-8427.050478,-370.102971
5655.490199,444.123565,-8503.660028,-296.082377
5655.490523,518.144159,-8580.269578,-444.123565
5655.490848,592.164754,-8656.879127,-148.041188
5655.491172,370.102971,-8503.660028,-370.102971
5655.491496,370.102971,-8503.660028,0.000000
5655.491821,296.082377,-8350.440928,0.000000
5655.492145,962.267725,-8580.269578,-370.102971
5655.492469,888.247130,-8580.269578,-148.041188
5655.492793,444.123565,-8197.221829,0.000000
5655.493118,222.061783,-8963.317327,0.000000
5655.493442,518.144159,-8733.488677,0.000000
5655.493766,592.164754,-8580.269578,0.000000
5655.494091,444.123565,-8350.440928,0.000000
5655.494415,370.102971,-8656.879127,0.000000
5655.494739,148.041188,-8733.488677,0.000000
5655.495064,518.144159,-8656.879127,0.000000
5655.495388,296.082377,-8350.440928,0.000000
5655.495712,370.102971,-8656.879127,-74.020594
5655.496037,444.123565,-8350.440928,-222.061783
5655.496361,666.185348,-9499.584175,0.000000
5655.496685,518.144159,-8580.269578,0.000000
5655.497010,444.123565,-8656.879127,-296.082377
5655.497334,518.144159,-8733.488677,-296.082377
5655.497658,148.041188,-8886.707777,-148.041188
5655.497982,222.061783,-8733.488677,-148.041188
5655.498307,296.082377,-8503.660028,-222.061783
5655.498631,296.082377,-8810.098227,-222.061783
5655.498955,296.082377,-8810.098227,-444.123565
5655.499280,592.164754,-8580.269578,0.000000
5655.499604,518.144159,-8197.221829,0.000000
5655.499928,370.102971,-8350.440928,0.000000
5655.500253,666.185348,-8580.269578,-148.041188
5655.500577,666.185348,-8350.440928,-666.185348
5655.500901,666.185348,-8810.098227,0.000000
5655.501226,370.102971,-8503.660028,0.000000
5655.501550,444.123565,-8810.098227,0.000000
5655.501874,222.061783,-8656.879127,0.000000
5655.502198,666.185348,-8580.269578,-370.102971
5655.502523,518.144159,-8810.098227,-74.020594
5655.502847,518.144159,-8427.050478,0.000000
5655.503171,296.082377,-8197.221829,222.061783
5655.503496,370.102971,-8503.660028,-222.061783
5655.503820,444.123565,-8350.440928,-222.061783
5655.504144,444.123565,-8503.660028,-148.041188
5655.504469,444.123565,-8886.707777,-444.123565
5655.504793,370.102971,-8273.831378,-148.041188
5655.505117,518.144159,-8580.269578,0.000000
5655.505442,222.061783,-8656.879127,-296.082377
5655.505766,370.102971,-8503.660028,-296.082377
5655.506090,222.061783,-8733.488677,-370.102971
5655.506415,518.144159,-8503.660028,-370.102971
5655.506739,444.123565,-8503.660028,-444.123565
5655.507063,296.082377,-8810.098227,-370.102971
5655.507387,296.082377,-8427.050478,-370.102971
5655.507712,592.164754,-8963.317327,-370.102971
5655.508036,370.102971,-8503.660028,-518.144159
5655.508360,444.123565,-8503.660028,-296.082377
5655.508685,592.164754,-8963.317327,-222.061783
5655.509009,296.082377,-8197.221829,-518.144159
5655.509333,444.123565,-8886.707777,-444.123565
5655.509658,444.123565,-8733.488677,-370.102971
5655.509982,444.123565,-8350.440928,-222.061783
5655.510306,222.061783,-8656.879127,-444.123565
5655.510631,296.082377,-8886.707777,0.000000
5655.510955,296.082377,-8503.660028,-370.102971
5655.511279,592.164754,-8810.098227,-370.102971
5655.511604,444.123565,-8273.831378,0.000000
5655.511928,592.164754,-9499.584175,222.061783
5655.512252,222.061783,-8580.269578,-222.061783
5655.512576,74.020594,-8427.050478,0.000000
5655.512901,370.102971,-8503.660028,-148.041188
5655.513225,518.144159,-8580.269578,-222.061783
5655.513549,592.164754,-8503.660028,-222.061783
5655.513874,222.061783,-8580.269578,-296.082377
5655.514198,296.082377,-8580.269578,0.000000
5655.514522,444.123565,-8273.831378,0.000000
5655.514847,444.123565,-8656.879127,0.000000
5655.515171,666.185348,-8580.269578,-370.102971
5655.515495,222.061783,-8503.660028,0.000000
5655.515820,296.082377,-8580.269578,-148.041188
5655.516144,518.144159,-8886.707777,-222.061783
5655.516468,518.144159,-8810.098227,-518.144159
5655.516792,518.144159,-8580.269578,0.000000
5655.517117,222.061783,-8580.269578,-370.102971
5655.517441,592.164754,-8580.269578,-296.082377
5655.517765,444.123565,-8656.879127,-296.082377
5655.518090,518.144159,-8656.879127,-444.123565
5655.518414,666.185348,-8733.488677,-592.164754
5655.518738,444.123565,-8656.879127,0.000000
5655.519063,444.123565,-8733.488677,-222.061783
5655.519387,518.144159,-8656.879127,-518.144159
5655.519711,518.144159,-8503.660028,-370.102971
5655.520036,518.144159,-8580.269578,-296.082377
5655.520360,592.164754,-9652.803275,-222.061783
5655.520684,74.020594,-8503.660028,-148.041188
5655.521009,148.041188,-8810.098227,-370.102971
5655.521333,370.102971,-8580.269578,-296.082377
5655.521657,592.164754,-9116.536426,-444.123565
5655.521981,444.123565,-8350.440928,-518.144159
5655.522306,74.020594,-8810.098227,0.000000
5655.522630,148.041188,-8733.488677,0.000000
5655.522954,444.123565,-8580.269578,0.000000
5655.523279,740.205942,-8580.269578,-370.102971
5655.523603,518.144159,-8350.440928,-148.041188
5655.523927,222.061783,-8273.831378,-222.061783
5655.524252,148.041188,-8886.707777,-222.061783
5655.524576,296.082377,-9193.145976,-888.247130
5655.524900,666.185348,-8656.879127,-518.144159
5655.525225,518.144159,-8656.879127,-666.185348
5655.525549,370.102971,-8580.269578,-444.123565
5655.525873,370.102971,-8503.660028,-370.102971
5655.526198,592.164754,-8963.317327,-370.102971
5655.526522,592.164754,-8580.269578,-518.144159
5655.526846,518.144159,-8810.098227,-592.164754
5655.527170,444.123565,-8733.488677,-592.164754
5655.527495,444.123565,-9116.536426,-666.185348
5655.527819,518.144159,-8733.488677,-666.185348
5655.528143,370.102971,-8350.440928,-666.185348
5655.528468,592.164754,-8580.269578,-666.185348
5655.528792,518.144159,-9422.974625,-592.164754
5655.529116,666.185348,-8427.050478,-814.226536
5655.529441,518.144159,-8580.269578,-518.144159
5655.529765,518.144159,-8503.660028,-518.144159
5655.530089,518.144159,-8427.050478,-666.185348
5655.530414,888.247130,-8963.317327,-666.185348
5655.530738,592.164754,-8197.221829,-518.144159
5655.531062,444.123565,-8427.050478,-592.164754
5655.531386,444.123565,-8810.098227,-370.102971
5655.531711,518.144159,-9039.926876,-592.164754
5655.532035,296.082377,-8886.707777,-444.123565
5655.532359,296.082377,-8503.660028,-518.144159
5655.532684,148.041188,-8733.488677,-296.082377
5655.533008,592.164754,-8733.488677,-370.102971
5655.533332,296.082377,-8427.050478,-592.164754
5655.533657,370.102971,-8733.488677,-592.164754
5655.533981,592.164754,-8580.269578,-148.041188
5655.534305,444.123565,-8503.660028,-444.123565
5655.534630,296.082377,-8427.050478,-592.164754
5655.534954,0.000000,-8503.660028,-518.144159
5655.535278,518.144159,-8656.879127,-592.164754
5655.535603,444.123565,-8580.269578,-518.144159
5655.535927,222.061783,-8503.660028,-518.144159
5655.536251,296.082377,-8350.440928,-444.123565
5655.536575,296.082377,-8656.879127,-444.123565
5655.536900,444.123565,-8427.050478,-666.185348
5655.537224,592.164754,-8503.660028,-962.267725
5655.537548,666.185348,-8580.269578,-740.205942
5655.537873,444.123565,-8503.660028,-740.205942
5655.538197,74.020594,-8580.269578,-814.226536
5655.538521,518.144159,-8427.050478,-814.226536
5655.538846,1110.308913,-8273.831378,-1184.329507
5655.539170,666.185348,-8733.488677,-740.205942
5655.539494,296.082377,-8656.879127,-666.185348
5655.539819,370.102971,-8733.488677,-592.164754
5655.540143,518.144159,-8427.050478,-518.144159
5655.540467,370.102971,-8580.269578,-592.164754
5655.540792,370.102971,-8503.660028,-518.144159
5655.541116,666.185348,-8580.269578,-370.102971
5655.541440,370.102971,-8273.831378,-666.185348
5655.541765,518.144159,-8580.269578,-370.102971
5655.542089,592.164754,-8503.660028,-370.102971
5655.542414,370.102971,-8733.488677,-444.123565
5655.542738,518.144159,-8733.488677,-666.185348
5655.543062,888.247130,-8733.488677,-518.144159
5655.543387,444.123565,-8580.269578,-370.102971
5655.543711,518.144159,-8656.879127,-370.102971
5655.544036,666.185348,-8580.269578,-518.144159
5655.544360,518.144159,-8963.317327,-296.082377
5655.544684,592.164754,-8580.269578,-518.144159
5655.545009,296.082377,-8656.879127,-592.164754
5655.545333,370.102971,-9039.926876,-518.144159
5655.545657,148.041188,-8580.269578,-592.164754
5655.545982,518.144159,-8580.269578,-296.082377
5655.546306,296.082377,-8503.660028,-444.123565
5655.546631,296.082377,-8580.269578,-370.102971
5655.546955,444.123565,-8580.269578,-518.144159
5655.547279,814.226536,-8197.221829,-148.041188
5655.547604,518.144159,-8656.879127,-740.205942
5655.547928,666.185348,-8503.660028,-518.144159
5655.548253,370.102971,-8427.050478,-666.185348
5655.548577,296.082377,-8580.269578,-666.185348
5655.548901,518.144159,-8580.269578,-370.102971
5655.549226,666.185348,-8656.879127,-740.205942
5655.549550,666.185348,-8580.269578,-518.144159
5655.549875,370.102971,-8580.269578,-148.041188
5655.550199,518.144159,-8273.831378,-444.123565
5655.550523,370.102971,-8503.660028,-444.123565
5655.550848,518.144159,-8503.660028,-518.144159
5655.551172,222.061783,-8580.269578,-444.123565
5655.551497,148.041188,-8580.269578,-296.082377
5655.551821,296.082377,-8427.050478,-444.123565
5655.552145,296.082377,-8503.660028,-296.082377
5655.552470,444.123565,-8580.269578,-296.082377
5655.552794,370.102971,-8503.660028,-296.082377
5655.553118,370.102971,-8427.050478,-370.102971
5655.553443,370.102971,-8427.050478,0.000000
5655.553767,444.123565,-8733.488677,-222.061783
5655.554092,74.020594,-8273.831378,-296.082377
5655.554416,740.205942,-8427.050478,-814.226536
5655.554740,444.123565,-8963.317327,-592.164754
5655.555065,518.144159,-8656.879127,-444.123565
5655.555389,0.000000,-8656.879127,-444.123565
5655.555714,518.144159,-8733.488677,-444.123565
5655.556038,370.102971,-8656.879127,-666.185348
5655.556362,740.205942,-8656.879127,-518.144159
5655.556687,666.185348,-8733.488677,-592.164754
5655.557011,296.082377,-8886.707777,-444.123565
5655.557336,222.061783,-8963.317327,-222.061783
5655.557660,592.164754,-8580.269578,-740.205942
5655.557984,666.185348,-8427.050478,-444.123565
5655.558309,518.144159,-8503.660028,-740.205942
5655.558633,740.205942,-8886.707777,-592.164754
5655.558958,222.061783,-8963.317327,-740.205942
5655.559282,518.144159,-8503.660028,-518.144159
5655.559606,370.102971,-8273.831378,-518.144159
5655.559931,740.205942,-8810.098227,-592.164754
5655.560255,370.102971,-8733.488677,-444.123565
5655.560580,592.164754,-8427.050478,-592.164754
5655.560904,148.041188,-8733.488677,-518.144159
5655.561228,370.102971,-8503.660028,-370.102971
5655.561553,444.123565,-8963.317327,-370.102971
5655.561877,444.123565,-8350.440928,-666.185348
5655.562201,296.082377,-8656.879127,-444.123565
5655.562526,148.041188,-8580.269578,-592.164754
5655.562850,962.267725,-8810.098227,-222.061783
5655.563175,296.082377,-8503.660028,-666.185348
5655.563499,592.164754,-8963.317327,-592.164754
5655.563823,370.102971,-8427.050478,-518.144159
5655.564148,592.164754,-8886.707777,0.000000
5655.564472,296.082377,-8503.660028,-296.082377
5655.564797,592.164754,-8580.269578,-518.144159
5655.565121,296.082377,-8656.879127,-666.185348
5655.565445,370.102971,-8350.440928,-296.082377
5655.565770,370.102971,-8273.831378,-222.061783
5655.566094,518.144159,-8656.879127,-444.123565
5655.566419,666.185348,-8886.707777,-370.102971
5655.566743,370.102971,-8503.660028,-444.123565
5655.567067,592.164754,-8273.831378,0.000000
5655.567392,370.102971,-8503.660028,-296.082377
5655.567716,370.102971,-8963.317327,-148.041188
5655.568041,444.123565,-8427.050478,-518.144159
5655.568365,740.205942,-8656.879127,-444.123565
5655.568689,592.164754,-9039.926876,-296.082377
5655.569014,370.102971,-8503.660028,0.000000
5655.569338,592.164754,-8503.660028,-444.123565
5655.569663,370.102971,-8350.440928,-222.061783
5655.569987,962.267725,-8273.831378,0.000000
5655.570311,370.102971,-8427.050478,-296.082377
5655.570636,592.164754,-8273.831378,-444.123565
5655.570960,296.082377,-8656.879127,-296.082377
5655.571284,518.144159,-8963.317327,296.082377
5655.571609,222.061783,-8580.269578,-296.082377
5655.571933,296.082377,-8810.098227,0.000000
5655.572258,222.061783,-8427.050478,-222.061783
5655.572582,0.000000,-8427.050478,0.000000
5655.572906,296.082377,-8656.879127,0.000000
5655.573231,222.061783,-8503.660028,0.000000
5655.573555,370.102971,-8810.098227,0.000000
5655.573880,222.061783,-8503.660028,-370.102971
5655.574204,296.082377,-8886.707777,222.061783
5655.574528,148.041188,-8350.440928,-148.041188
5655.574853,444.123565,-8810.098227,-222.061783
5655.575177,222.061783,-8503.660028,-370.102971
5655.575502,444.123565,-8580.269578,0.000000
5655.575826,518.144159,-8656.879127,-370.102971
5655.576150,518.144159,-8580.269578,-296.082377
5655.576475,148.041188,-8733.488677,0.000000
5655.576799,518.144159,-8580.269578,-148.041188
5655.577124,148.041188,-8886.707777,-370.102971
5655.577448,592.164754,-8656.879127,-518.144159
5655.577772,370.102971,-8656.879127,-518.144159
5655.578097,370.102971,-8963.317327,-296.082377
5655.578421,518.144159,-8427.050478,-148.041188
5655.578745,444.123565,-8656.879127,-296.082377
5655.579070,518.144159,-8580.269578,-222.061783
5655.579394,296.082377,-8350.440928,-296.082377
5655.579719,518.144159,-8733.488677,0.000000
5655.580043,296.082377,-8427.050478,-296.082377
5655.580367,666.185348,-8810.098227,-370.102971
5655.580692,518.144159,-8656.879127,-518.144159
5655.581016,296.082377,-8656.879127,-148.041188
5655.581341,444.123565,-8197.221829,-518.144159
5655.581665,814.226536,-8427.050478,-592.164754
5655.581989,592.164754,-8427.050478,-222.061783
5655.582314,592.164754,-8810.098227,-370.102971
5655.582638,444.123565,-8197.221829,296.082377
5655.582963,148.041188,-8350.440928,0.000000
5655.583287,444.123565,-8733.488677,-296.082377
5655.583611,370.102971,-8427.050478,-296.082377
5655.583936,518.144159,-8350.440928,-444.123565
5655.584260,444.123565,-8273.831378,-370.102971
5655.584585,592.164754,-8656.879127,-74.020594
5655.584909,370.102971,-8503.660028,-296.082377
5655.585233,296.082377,-8810.098227,-222.061783
5655.585558,222.061783,-8350.440928,-370.102971
5655.585882,444.123565,-8656.879127,-592.164754
5655.586207,296.082377,-8273.831378,0.000000
5655.586531,222.061783,-8810.098227,-592.164754
5655.586855,592.164754,-9039.926876,74.020594
5655.587180,592.164754,-8503.660028,-370.102971
5655.587504,666.185348,-8656.879127,-296.082377
5655.587828,518.144159,-8427.050478,-444.123565
5655.588153,222.061783,-8503.660028,0.000000
5655.588477,370.102971,-8810.098227,0.000000
5655.588802,592.164754,-8810.098227,-296.082377
5655.589126,518.144159,-8580.269578,-370.102971
5655.589450,518.144159,-8580.269578,-370.102971
5655.589775,444.123565,-8273.831378,0.000000
5655.590099,222.061783,-8656.879127,0.000000
5655.590424,222.061783,-8810.098227,-148.041188
5655.590748,666.185348,-8810.098227,0.000000
5655.591072,222.061783,-8427.050478,0.000000
5655.591397,296.082377,-8580.269578,0.000000
5655.591721,222.061783,-8580.269578,222.061783
5655.592046,296.082377,-8733.488677,0.000000
5655.592370,444.123565,-8350.440928,0.000000
5655.592694,740.205942,-8810.098227,-74.020594
5655.593019,518.144159,-8503.660028,0.000000
5655.593343,370.102971,-8350.440928,0.000000
5655.593668,222.061783,-8733.488677,148.041188
5655.593992,148.041188,-7890.783629,-222.061783
5655.594316,370.102971,-8656.879127,0.000000
5655.594641,370.102971,-8656.879127,-222.061783
5655.594965,370.102971,-8580.269578,0.000000
5655.595290,444.123565,-8656.879127,370.102971
5655.595614,296.082377,-8350.440928,0.000000
5655.595938,370.102971,-8656.879127,-74.020594
5655.596263,222.061783,-8350.440928,-148.041188
5655.596587,592.164754,-8350.440928,0.000000
5655.596911,444.123565,-8120.612279,-370.102971
5655.597236,370.102971,-8810.098227,-222.061783
5655.597560,222.061783,-8350.440928,-370.102971
5655.597885,592.164754,-8810.098227,-148.041188
5655.598209,370.102971,-7814.174080,0.000000
5655.598533,666.185348,-8656.879127,0.000000
5655.598858,518.144159,-8503.660028,-444.123565
5655.599182,518.144159,-8503.660028,0.000000
5655.599507,666.185348,-8427.050478,-370.102971
5655.599831,592.164754,-8733.488677,-370.102971
5655.600155,370.102971,-8197.221829,0.000000
5655.600480,370.102971,-8656.879127,-296.082377
5655.600804,518.144159,-8503.660028,0.000000
5655.601129,814.226536,-8273.831378,0.000000
5655.601453,666.185348,-8810.098227,-370.102971
5655.601777,296.082377,-8810.098227,74.020594
5655.602102,444.123565,-8963.317327,74.020594
5655.602426,0.000000,-8273.831378,0.000000
5655.602751,444.123565,-8503.660028,-222.061783
5655.603075,518.144159,-9039.926876,0.000000
5655.603399,296.082377,-8656.879127,0.000000
5655.603724,222.061783,-8580.269578,0.000000
5655.604048,148.041188,-8427.050478,0.000000
5655.604373,0.000000,-8733.488677,0.000000
5655.604697,592.164754,-8733.488677,-370.102971
5655.605021,444.123565,-8580.269578,-444.123565
5655.605346,296.082377,-8350.440928,-666.185348
5655.605670,592.164754,-8656.879127,0.000000
5655.605994,444.123565,-8503.660028,-444.123565
5655.606319,518.144159,-8656.879127,-296.082377
5655.606643,296.082377,-8044.002729,-148.041188
5655.606968,518.144159,-8580.269578,-222.061783
5655.607292,296.082377,-8503.660028,-518.144159
5655.607616,518.144159,-8733.488677,-444.123565
5655.607941,222.061783,-8733.488677,-296.082377
5655.608265,370.102971,-8503.660028,-296.082377
5655.608590,740.205942,-8656.879127,-518.144159
5655.608914,296.082377,-8273.831378,-296.082377
5655.609238,518.144159,-8656.879127,-370.102971
5655.609563,518.144159,-7660.954980,-222.061783
5655.609887,592.164754,-8580.269578,-444.123565
5655.610212,296.082377,-8503.660028,-444.123565
5655.610536,592.164754,-8273.831378,-148.041188
5655.610860,148.041188,-8427.050478,-518.144159
5655.611185,444.123565,-8427.050478,-296.082377
5655.611509,296.082377,-8273.831378,-370.102971
5655.611834,666.185348,-8350.440928,-222.061783
5655.612158,370.102971,-8503.660028,-444.123565
5655.612482,518.144159,-8350.440928,0.000000
5655.612807,518.144159,-8427.050478,-222.061783
5655.613131,370.102971,-8656.879127,-222.061783
5655.613455,444.123565,-8656.879127,-296.082377
5655.613780,370.102971,-9652.803275,0.000000
5655.614104,444.123565,-8503.660028,0.000000
5655.614429,222.061783,-8503.660028,-222.061783
5655.614753,518.144159,-8886.707777,-370.102971
5655.615077,222.061783,-8503.660028,-222.061783
5655.615402,444.123565,-8733.488677,-296.082377
5655.615726,296.082377,-8733.488677,-222.061783
5655.616051,222.061783,-8580.269578,-296.082377
5655.616375,666.185348,-8580.269578,-370.102971
5655.616699,-296.082377,-8503.660028,0.000000
5655.617024,370.102971,-9039.926876,-148.041188
5655.617348,370.102971,-8427.050478,-370.102971
5655.617673,296.082377,-8580.269578,-444.123565
5655.617997,518.144159,-9116.536426,-148.041188
5655.618321,444.123565,-8733.488677,-296.082377
5655.618646,444.123565,-8656.879127,-518.144159
5655.618970,370.102971,-8427.050478,-222.061783
5655.619295,148.041188,-8580.269578,-444.123565
5655.619619,444.123565,-9039.926876,0.000000
5655.619943,296.082377,-8733.488677,-592.164754
5655.620268,444.123565,-8503.660028,-518.144159
5655.620592,370.102971,-8656.879127,-370.102971
5655.620917,740.205942,-8350.440928,0.000000
5655.621241,370.102971,-8503.660028,-222.061783
5655.621565,296.082377,-8733.488677,-444.123565
5655.621890,666.185348,-8427.050478,-222.061783
5655.622214,592.164754,-8273.831378,-222.061783
5655.622538,444.123565,-8580.269578,-148.041188
5655.622863,444.123565,-8350.440928,-296.082377
5655.623187,592.164754,-8810.098227,-444.123565
5655.623512,222.061783,-8656.879127,-444.123565
5655.623836,444.123565,-8733.488677,-222.061783
5655.624160,444.123565,-8810.098227,-370.102971
5655.624485,518.144159,-8350.440928,-370.102971
5655.624809,518.144159,-8733.488677,-592.164754
5655.625134,296.082377,-9039.926876,74.020594
5655.625458,666.185348,-8580.269578,-296.082377
5655.625782,592.164754,-8503.660028,-592.164754
5655.626107,444.123565,-8503.660028,0.000000
5655.626431,518.144159,-8886.707777,-296.082377
5655.626756,666.185348,-8503.660028,-296.082377
5655.627080,518.144159,-8427.050478,-370.102971
5655.627404,222.061783,-8886.707777,-296.082377
5655.627729,296.082377,-8427.050478,-370.102971
5655.628053,148.041188,-8580.269578,0.000000
5655.628378,666.185348,-8656.879127,-814.226536
5655.628702,518.144159,-8810.098227,-444.123565
5655.629026,592.164754,-8656.879127,-370.102971
5655.629351,592.164754,-8656.879127,-222.061783
5655.629675,518.144159,-8273.831378,-370.102971
5655.630000,444.123565,-8656.879127,-592.164754
5655.630324,444.123565,-8503.660028,-296.082377
5655.630648,444.123565,-8427.050478,-444.123565
5655.630973,370.102971,-8810.098227,-444.123565
5655.631297,518.144159,-8503.660028,-444.123565
5655.631621,222.061783,-8580.269578,-370.102971
5655.631946,296.082377,-8503.660028,-518.144159
5655.632270,518.144159,-8273.831378,-370.102971
5655.632595,222.061783,-8580.269578,-296.082377
5655.632919,444.123565,-8580.269578,0.000000
5655.633243,74.020594,-8580.269578,-296.082377
5655.633568,666.185348,-8656.879127,-740.205942
5655.633892,222.061783,-8503.660028,-370.102971
5655.634217,444.123565,-8733.488677,-296.082377
5655.634541,222.061783,-8350.440928,-296.082377
5655.634865,296.082377,-8427.050478,-296.082377
5655.635190,0.000000,-8273.831378,-222.061783
5655.635514,370.102971,-8427.050478,-296.082377
5655.635839,518.144159,-8503.660028,-370.102971
5655.636163,518.144159,-8810.098227,-370.102971
5655.636487,518.144159,-9039.926876,-370.102971
5655.636812,222.061783,-8503.660028,-444.123565
5655.637136,370.102971,-8580.269578,-296.082377
5655.637461,222.061783,-8503.660028,-666.185348
5655.637785,814.226536,-9193.145976,-592.164754
5655.638109,444.123565,-8503.660028,-444.123565
5655.638434,518.144159,-8503.660028,-296.082377
5655.638758,444.123565,-8503.660028,-814.226536
5655.639082,666.185348,-8427.050478,-518.144159
5655.639407,740.205942,-8427.050478,-814.226536
5655.639731,666.185348,-8580.269578,-592.164754
5655.640056,814.226536,-8427.050478,-666.185348
5655.640380,370.102971,-8580.269578,-370.102971
5655.640704,592.164754,-8810.098227,0.000000
5655.641029,370.102971,-8503.660028,-518.144159
5655.641353,518.144159,-8580.269578,-740.205942
5655.641677,740.205942,-8503.660028,-444.123565
5655.642002,296.082377,-8963.317327,-148.041188
5655.642326,148.041188,-8810.098227,-222.061783
5655.642650,370.102971,-8350.440928,-518.144159
5655.642975,518.144159,-8427.050478,-370.102971
5655.643299,592.164754,-8503.660028,-740.205942
5655.643623,222.061783,-9039.926876,-296.082377
5655.643948,444.123565,-8427.050478,-444.123565
5655.644272,518.144159,-9039.926876,0.000000
5655.644596,444.123565,-8580.269578,-592.164754
5655.644921,444.123565,-9269.755526,74.020594
5655.645245,296.082377,-8503.660028,-518.144159
5655.645569,444.123565,-8427.050478,-222.061783
5655.645894,0.000000,-8580.269578,-592.164754
5655.646218,592.164754,-8810.098227,-296.082377
5655.646542,370.102971,-8580.269578,-666.185348
5655.646867,222.061783,-8656.879127,-296.082377
5655.647191,518.144159,-8810.098227,-666.185348
5655.647515,148.041188,-8580.269578,-370.102971
5655.647839,296.082377,-8350.440928,-518.144159
5655.648164,518.144159,-8733.488677,-444.123565
5655.648488,518.144159,-8810.098227,-444.123565
5655.648812,518.144159,-8427.050478,-518.144159
5655.649137,148.041188,-8963.317327,0.000000
5655.649461,444.123565,-8580.269578,-666.185348
5655.649785,666.185348,-8580.269578,-666.185348
5655.650110,296.082377,-8810.098227,-592.164754
5655.650434,518.144159,-8656.879127,-518.144159
5655.650758,222.061783,-8503.660028,-148.041188
5655.651083,518.144159,-8350.440928,-444.123565
5655.651407,592.164754,-8656.879127,-444.123565
5655.651731,592.164754,-8810.098227,-370.102971
5655.652056,518.144159,-8503.660028,0.000000
5655.652380,74.020594,-8197.221829,-222.061783
5655.652704,296.082377,-8656.879127,0.000000
5655.653029,370.102971,-8427.050478,-222.061783
5655.653353,148.041188,-9116.536426,0.000000
5655.653677,370.102971,-8656.879127,-296.082377
5655.654001,296.082377,-8350.440928,-148.041188
5655.654326,370.102971,-8427.050478,0.000000
5655.654650,592.164754,-8273.831378,-296.082377
5655.654974,740.205942,-8580.269578,-296.082377
5655.655299,592.164754,-8656.879127,-444.123565
5655.655623,592.164754,-8120.612279,-370.102971
5655.655947,222.061783,-8350.440928,-518.144159
5655.656272,814.226536,-8656.879127,-444.123565
5655.656596,370.102971,-8427.050478,-518.144159
5655.656920,666.185348,-8733.488677,-444.123565
5655.657245,592.164754,-8350.440928,-592.164754
5655.657569,518.144159,-9269.755526,-296.082377
5655.657893,518.144159,-8503.660028,-370.102971
5655.658218,592.164754,-8656.879127,-592.164754
5655.658542,518.144159,-8427.050478,-740.205942
5655.658866,592.164754,-8580.269578,-740.205942
5655.659191,814.226536,-8503.660028,-518.144159
5655.659515,444.123565,-8427.050478,-518.144159
5655.659839,518.144159,-8580.269578,-666.185348
5655.660164,740.205942,-8580.269578,-666.185348
5655.660488,814.226536,-8580.269578,-518.144159
5655.660812,444.123565,-8733.488677,-370.102971
5655.661136,518.144159,-8580.269578,-444.123565
5655.661461,518.144159,-8656.879127,-370.102971
5655.661785,222.061783,-9116.536426,-518.144159
5655.662109,444.123565,-8963.317327,-296.082377
5655.662434,518.144159,-8273.831378,-370.102971
5655.662758,370.102971,-8427.050478,-148.041188
5655.663082,444.123565,-8656.879127,-222.061783
5655.663407,518.144159,-8733.488677,-222.061783
5655.663731,296.082377,-8810.098227,-444.123565
5655.664055,296.082377,-8580.269578,-444.123565
5655.664380,370.102971,-8580.269578,-518.144159
5655.664704,370.102971,-8886.707777,148.041188
5655.665028,518.144159,-8350.440928,-592.164754
5655.665353,518.144159,-8503.660028,-814.226536
5655.665677,370.102971,-8580.269578,-666.185348
5655.666001,592.164754,-8810.098227,-296.082377
5655.666326,296.082377,-8350.440928,-518.144159
5655.666650,296.082377,-8886.707777,-222.061783
5655.666974,444.123565,-8503.660028,-814.226536
5655.667298,370.102971,-8810.098227,-444.123565
5655.667623,740.205942,-8810.098227,-518.144159
5655.667947,592.164754,-8656.879127,-518.144159
5655.668271,592.164754,-8656.879127,-592.164754
5655.668596,518.144159,-8427.050478,-370.102971
5655.668920,1110.308913,-9193.145976,-740.205942
5655.669244,518.144159,-8733.488677,-370.102971
5655.669569,592.164754,-8273.831378,-444.123565
5655.669893,296.082377,-8656.879127,-222.061783
5655.670217,444.123565,-8427.050478,-296.082377
5655.670542,370.102971,-8580.269578,-296.082377
5655.670866,444.123565,-8733.488677,-296.082377
5655.671190,222.061783,-8963.317327,0.000000
5655.671515,370.102971,-9039.926876,-222.061783
5655.671839,888.247130,-8580.269578,-222.061783
5655.672163,370.102971,-8350.440928,-148.041188
5655.672488,592.164754,-9039.926876,-370.102971
5655.672812,444.123565,-8580.269578,-74.020594
5655.673136,444.123565,-8273.831378,-518.144159
5655.673460,296.082377,-8733.488677,-370.102971
5655.673785,296.082377,-8427.050478,-148.041188
5655.674109,592.164754,-8427.050478,-740.205942
5655.674433,444.123565,-8503.660028,-518.144159
5655.674758,444.123565,-8810.098227,-370.102971
5655.675082,370.102971,-8503.660028,-370.102971
5655.675406,148.041188,-8656.879127,-296.082377
5655.675731,444.123565,-8503.660028,-148.041188
5655.676055,962.267725,-8886.707777,-518.144159
5655.676379,444.123565,-8273.831378,-148.041188
5655.676704,148.041188,-8273.831378,-518.144159
5655.677028,296.082377,-8503.660028,-296.082377
5655.677352,518.144159,-8503.660028,-444.123565
5655.677677,518.144159,-8427.050478,-444.123565
5655.678001,444.123565,-8656.879127,-222.061783
5655.678325,222.061783,-8503.660028,-296.082377
5655.678650,592.164754,-8580.269578,-444.123565
5655.678974,444.123565,-8197.221829,-518.144159
5655.679298,592.164754,-8656.879127,-370.102971
5655.679622,444.123565,-8503.660028,-518.144159
5655.679947,740.205942,-8427.050478,-296.082377
5655.680271,296.082377,-8120.612279,-296.082377
5655.680595,592.164754,-8580.269578,148.041188
5655.680920,296.082377,-8350.440928,-296.082377
5655.681244,814.226536,-8580.269578,-370.102971
5655.681568,370.102971,-8733.488677,-518.144159
5655.681893,370.102971,-8580.269578,0.000000
5655.682217,222.061783,-8656.879127,-296.082377
5655.682541,148.041188,-8656.879127,-148.041188
5655.682866,296.082377,-8810.098227,-370.102971
5655.683190,518.144159,-8656.879127,-592.164754
5655.683514,296.082377,-8580.269578,0.000000
5655.683839,222.061783,-8810.098227,-222.061783
5655.684163,666.185348,-8810.098227,-296.082377
5655.684487,814.226536,-8886.707777,-444.123565
5655.684812,518.144159,-8733.488677,-740.205942
5655.685136,148.041188,-8656.879127,-148.041188
5655.685460,518.144159,-8963.317327,-296.082377
5655.685784,296.082377,-8580.269578,-444.123565
5655.686109,740.205942,-8427.050478,-592.164754
5655.686433,370.102971,-8733.488677,-518.144159
5655.686757,222.061783,-8427.050478,-370.102971
5655.687082,370.102971,-8656.879127,-592.164754
5655.687406,814.226536,-8810.098227,-296.082377
5655.687730,518.144159,-8580.269578,-444.123565
5655.688055,370.102971,-8580.269578,-592.164754
5655.688379,370.102971,-8503.660028,-222.061783
5655.688703,518.144159,-8733.488677,0.000000
5655.689028,518.144159,-8580.269578,-444.123565
5655.689352,592.164754,-8273.831378,-222.061783
5655.689676,518.144159,-8503.660028,-296.082377
5655.690001,444.123565,-8886.707777,0.000000
5655.690325,296.082377,-8120.612279,0.000000
5655.690649,296.082377,-8503.660028,0.000000
5655.690974,444.123565,-8656.879127,-222.061783
5655.691298,296.082377,-8273.831378,0.000000
5655.691622,444.123565,-8273.831378,-296.082377
5655.691946,370.102971,-8427.050478,0.000000
5655.692271,370.102971,-8350.440928,0.000000
5655.692595,518.144159,-8733.488677,74.020594
5655.692919,814.226536,-7737.564530,0.000000
5655.693244,518.144159,-8810.098227,74.020594
5655.693568,370.102971,-8350.440928,-370.102971
5655.693892,222.061783,-8503.660028,0.000000
5655.694217,222.061783,-8580.269578,-148.041188
5655.694541,74.020594,-8427.050478,-370.102971
5655.694865,518.144159,-8427.050478,-296.082377
5655.695190,518.144159,-8350.440928,0.000000
5655.695514,370.102971,-8733.488677,0.000000
5655.695838,518.144159,-8427.050478,-592.164754
5655.696163,148.041188,-8580.269578,0.000000
5655.696487,296.082377,-8350.440928,-296.082377
5655.696811,370.102971,-8886.707777,-296.082377
5655.697136,148.041188,-7660.954980,148.041188
5655.697460,148.041188,-8503.660028,0.000000
5655.697784,148.041188,-8733.488677,-370.102971
5655.698108,370.102971,-8580.269578,-296.082377
5655.698433,444.123565,-8580.269578,-296.082377
5655.698757,444.123565,-8503.660028,-666.185348
5655.699081,222.061783,-8427.050478,-222.061783
5655.699406,444.123565,-8656.879127,-222.061783
5655.699730,148.041188,-8273.831378,-444.123565
5655.700054,444.123565,-9116.536426,-148.041188
5655.700379,444.123565,-8580.269578,-518.144159
5655.700703,518.144159,-8656.879127,-148.041188
5655.701027,444.123565,-8427.050478,-296.082377
5655.701352,74.020594,-9116.536426,0.000000
5655.701676,444.123565,-8427.050478,-444.123565
5655.702000,296.082377,-9039.926876,0.000000
5655.702325,592.164754,-8350.440928,-444.123565
5655.702649,222.061783,-8656.879127,0.000000
5655.702973,444.123565,-8273.831378,0.000000
5655.703298,296.082377,-8580.269578,-148.041188
5655.703622,740.205942,-8810.098227,-148.041188
5655.703946,370.102971,-8886.707777,0.000000
5655.704271,222.061783,-8197.221829,0.000000
5655.704595,0.000000,-8733.488677,-148.041188
5655.704919,444.123565,-8580.269578,-444.123565
5655.705243,592.164754,-8427.050478,-222.061783
5655.705568,518.144159,-8580.269578,-666.185348
5655.705892,518.144159,-8503.660028,0.000000
5655.706216,444.123565,-8273.831378,-222.061783
5655.706541,666.185348,-8580.269578,0.000000
5655.706865,518.144159,-8273.831378,-666.185348
5655.707189,740.205942,-8273.831378,-444.123565
5655.707514,666.185348,-8503.660028,-518.144159
5655.707838,518.144159,-8580.269578,-370.102971
5655.708162,222.061783,-9039.926876,-444.123565
5655.708487,444.123565,-8273.831378,-370.102971
5655.708811,592.164754,-8427.050478,-518.144159
5655.709135,518.144159,-8656.879127,-370.102971
5655.709460,666.185348,-8503.660028,-592.164754
5655.709784,444.123565,-8656.879127,-222.061783
5655.710108,592.164754,-8503.660028,-518.144159
5655.710433,740.205942,-8656.879127,-444.123565
5655.710757,444.123565,-8733.488677,-444.123565
5655.711081,370.102971,-8503.660028,-148.041188
5655.711405,370.102971,-8886.707777,0.000000
5655.711730,444.123565,-8656.879127,-370.102971
5655.712054,370.102971,-8656.879127,0.000000
5655.712378,444.123565,-8503.660028,0.000000
5655.712703,222.061783,-8886.707777,-296.082377
5655.713027,296.082377,-8427.050478,0.000000
5655.713351,518.144159,-8350.440928,-222.061783
5655.713676,444.123565,-8503.660028,-222.061783
5655.714000,444.123565,-8656.879127,-370.102971
5655.714324,222.061783,-8656.879127,0.000000
5655.714649,296.082377,-8273.831378,-222.061783
5655.714973,296.082377,-8656.879127,-296.082377
5655.715297,222.061783,-8656.879127,-296.082377
5655.715622,888.247130,-9193.145976,0.000000
5655.715946,444.123565,-8886.707777,0.000000
5655.716270,370.102971,-8503.660028,-370.102971
5655.716595,296.082377,-8733.488677,74.020594
5655.716919,592.164754,-8427.050478,0.000000
5655.717243,444.123565,-8503.660028,-370.102971
5655.717567,518.144159,-8963.317327,-592.164754
5655.717892,592.164754,-8733.488677,-370.102971
5655.718216,222.061783,-8656.879127,0.000000
5655.718540,148.041188,-8963.317327,0.000000
5655.718865,518.144159,-8427.050478,-518.144159
5655.719189,444.123565,-8580.269578,-370.102971
5655.719513,370.102971,-8656.879127,-444.123565
5655.719838,666.185348,-9039.926876,-222.061783
5655.720162,518.144159,-8656.879127,-518.144159
5655.720486,518.144159,-8503.660028,-444.123565
5655.720811,444.123565,-8350.440928,-370.102971
5655.721135,444.123565,-8810.098227,-518.144159
5655.721459,666.185348,-8810.098227,0.000000
5655.721784,148.041188,-8580.269578,0.000000
5655.722108,148.041188,-8810.098227,-370.102971
5655.722432,222.061783,-8580.269578,-444.123565
5655.722757,518.144159,-8656.879127,0.000000
5655.723081,296.082377,-8580.269578,-296.082377
5655.723405,444.123565,-8656.879127,0.000000
5655.723729,222.061783,-8886.707777,0.000000
5655.724054,296.082377,-8197.221829,0.000000
5655.724378,296.082377,-8580.269578,-444.123565
5655.724702,518.144159,-8580.269578,-148.041188
5655.725027,296.082377,-8350.440928,0.000000
5655.725351,222.061783,-8503.660028,-518.144159
5655.725675,518.144159,-8886.707777,0.000000
5655.726000,444.123565,-8427.050478,-370.102971
5655.726324,666.185348,-8733.488677,-296.082377
5655.726648,592.164754,-8503.660028,-370.102971
5655.726973,444.123565,-8656.879127,0.000000
5655.727297,148.041188,-8427.050478,-444.123565
5655.727621,222.061783,-8580.269578,-370.102971
5655.727946,370.102971,-8580.269578,-296.082377
5655.728270,592.164754,-8580.269578,-222.061783
5655.728594,222.061783,-8350.440928,-296.082377
5655.728919,296.082377,-8656.879127,-370.102971
5655.729243,296.082377,-8503.660028,-666.185348
5655.729567,444.123565,-8580.269578,-296.082377
5655.729891,222.061783,-8580.269578,-296.082377
5655.730216,370.102971,-8580.269578,-370.102971
5655.730540,518.144159,-8656.879127,-148.041188
5655.730864,444.123565,-8427.050478,-296.082377
5655.731189,444.123565,-7737.564530,-444.123565
5655.731513,222.061783,-8810.098227,-370.102971
5655.731837,518.144159,-8273.831378,-296.082377
5655.732162,370.102971,-8197.221829,-296.082377
5655.732486,444.123565,-8580.269578,-222.061783
5655.732810,518.144159,-8197.221829,-592.164754
5655.733135,444.123565,-8656.879127,-296.082377
5655.733459,222.061783,-8580.269578,0.000000
5655.733783,296.082377,-8656.879127,-296.082377
5655.734108,444.123565,-8886.707777,-370.102971
5655.734432,592.164754,-8503.660028,-222.061783
5655.734756,518.144159,-8273.831378,-518.144159
5655.735081,444.123565,-8656.879127,-370.102971
5655.735405,296.082377,-8963.317327,-222.061783
5655.735729,0.000000,-8810.098227,-370.102971
5655.736053,74.020594,-8810.098227,-444.123565
5655.736378,296.082377,-8427.050478,-370.102971
5655.736702,518.144159,-8427.050478,-444.123565
5655.737026,370.102971,-8886.707777,-296.082377
5655.737351,296.082377,-8580.269578,-444.123565
5655.737675,592.164754,-8656.879127,-296.082377
5655.737999,222.061783,-8197.221829,-296.082377
5655.738324,592.164754,-8886.707777,-296.082377
5655.738648,444.123565,-8503.660028,-518.144159
5655.738972,296.082377,-8580.269578,-296.082377
5655.739297,370.102971,-8810.098227,-666.185348
5655.739621,444.123565,-9193.145976,-222.061783
5655.739945,444.123565,-8656.879127,-518.144159
5655.740270,370.102971,-8656.879127,-444.123565
5655.740594,444.123565,-8656.879127,-370.102971
5655.740918,518.144159,-8580.269578,-444.123565
5655.741243,518.144159,-8580.269578,-296.082377
5655.741567,444.123565,-8733.488677,-518.144159
5655.741891,518.144159,-8656.879127,-444.123565
5655.742215,370.102971,-8580.269578,-296.082377
5655.742540,0.000000,-8886.707777,0.000000
5655.742864,0.000000,-8810.098227,-296.082377
5655.743188,222.061783,-8503.660028,-370.102971
5655.743513,444.123565,-8733.488677,-592.164754
5655.743837,370.102971,-8427.050478,-296.082377
5655.744161,296.082377,-8656.879127,-370.102971
5655.744485,296.082377,-8810.098227,-518.144159
5655.744810,444.123565,-8580.269578,-370.102971
5655.745134,444.123565,-8350.440928,-444.123565
5655.745458,1110.308913,-8656.879127,-370.102971
5655.745783,370.102971,-8503.660028,-148.041188
5655.746107,148.041188,-8580.269578,-222.061783
5655.746431,444.123565,-8427.050478,-444.123565
5655.746755,888.247130,-8427.050478,-370.102971
5655.747080,296.082377,-8963.317327,-518.144159
5655.747404,222.061783,-8580.269578,0.000000
5655.747728,444.123565,-8350.440928,-370.102971
5655.748053,444.123565,-8427.050478,-296.082377
5655.748377,814.226536,-8427.050478,-592.164754
5655.748701,666.185348,-8733.488677,-370.102971
5655.749025,592.164754,-8656.879127,-296.082377
5655.749350,370.102971,-8503.660028,-370.102971
5655.749674,888.247130,-8886.707777,-740.205942
5655.749998,444.123565,-8350.440928,-444.123565
5655.750323,666.185348,-8350.440928,-370.102971
5655.750647,592.164754,-8733.488677,-592.164754
5655.750971,962.267725,-8350.440928,-814.226536
5655.751295,370.102971,-8810.098227,-592.164754
5655.751620,518.144159,-8580.269578,-296.082377
5655.751944,592.164754,-8580.269578,-518.144159
5655.752268,444.123565,-8886.707777,-666.185348
5655.752593,518.144159,-8810.098227,-370.102971
5655.752917,74.020594,-8580.269578,-370.102971
5655.753241,592.164754,-8733.488677,-592.164754
5655.753565,296.082377,-8273.831378,-518.144159
5655.753890,814.226536,-9039.926876,-444.123565
5655.754214,592.164754,-8656.879127,-518.144159
5655.754538,444.123565,-8580.269578,-518.144159
5655.754863,444.123565,-8580.269578,-518.144159
5655.755187,518.144159,-8427.050478,-518.144159
5655.755511,370.102971,-8580.269578,-666.185348
5655.755835,370.102971,-8886.707777,-518.144159
5655.756160,370.102971,-8503.660028,-592.164754
5655.756484,222.061783,-8656.879127,-296.082377
5655.756808,148.041188,-8427.050478,-222.061783
5655.757133,296.082377,-8427.050478,-444.123565
5655.757457,518.144159,-8580.269578,-370.102971
5655.757781,370.102971,-8503.660028,-592.164754
5655.758105,296.082377,-8503.660028,0.000000
5655.758430,666.185348,-8733.488677,-444.123565
5655.758754,296.082377,-8656.879127,-666.185348
5655.759078,518.144159,-8810.098227,-518.144159
5655.759403,666.185348,-8733.488677,-444.123565
5655.759727,444.123565,-8427.050478,-370.102971
5655.760051,296.082377,-8656.879127,-296.082377
5655.760375,592.164754,-8427.050478,-444.123565
5655.760700,518.144159,-8350.440928,-518.144159
5655.761024,962.267725,-8733.488677,-666.185348
5655.761348,518.144159,-8503.660028,-444.123565
5655.761673,518.144159,-8427.050478,-296.082377
5655.761997,518.144159,-8580.269578,-296.082377
5655.762321,888.247130,-9039.926876,-444.123565
5655.762646,592.164754,-8580.269578,-444.123565
5655.762970,592.164754,-8427.050478,0.000000
5655.763294,444.123565,-8197.221829,148.041188
5655.763618,296.082377,-8733.488677,-222.061783
5655.763943,518.144159,-8503.660028,-148.041188
5655.764267,518.144159,-8656.879127,-222.061783
5655.764591,518.144159,-8580.269578,-444.123565
5655.764916,592.164754,-8427.050478,-222.061783
5655.765240,666.185348,-8810.098227,-296.082377
5655.765564,592.164754,-8580.269578,0.000000
5655.765888,370.102971,-8350.440928,-370.102971
5655.766213,518.144159,-8733.488677,-296.082377
5655.766537,666.185348,-8120.612279,-296.082377
5655.766861,444.123565,-8656.879127,-222.061783
5655.767186,296.082377,-8656.879127,-296.082377
5655.767510,740.205942,-8350.440928,-370.102971
5655.767834,666.185348,-8580.269578,-518.144159
5655.768158,222.061783,-8350.440928,-444.123565
5655.768483,296.082377,-8503.660028,-222.061783
5655.768807,666.185348,-8503.660028,-666.185348
5655.769131,592.164754,-8273.831378,-370.102971
5655.769456,518.144159,-8350.440928,-444.123565
5655.769780,444.123565,-8656.879127,-444.123565
5655.770104,592.164754,-8273.831378,-296.082377
5655.770428,444.123565,-8580.269578,-518.144159
5655.770753,148.041188,-8044.002729,0.000000
5655.771077,518.144159,-8273.831378,-592.164754
5655.771401,148.041188,-8580.269578,-592.164754
5655.771726,518.144159,-8810.098227,-444.123565
5655.772050,222.061783,-8427.050478,0.000000
5655.772374,444.123565,-8427.050478,-592.164754
5655.772698,222.061783,-8350.440928,-370.102971
5655.773023,370.102971,-8503.660028,-518.144159
5655.773347,296.082377,-8427.050478,-222.061783
5655.773671,222.061783,-8197.221829,-222.061783
5655.773996,222.061783,-8427.050478,-370.102971
5655.774320,444.123565,-8427.050478,-444.123565
5655.774644,444.123565,-8810.098227,-370.102971
5655.774968,296.082377,-7967.393179,-296.082377
5655.775293,370.102971,-8503.660028,-148.041188
5655.775617,148.041188,-8580.269578,-518.144159
5655.775941,296.082377,-8503.660028,-444.123565
5655.776266,222.061783,-8350.440928,-518.144159
5655.776590,444.123565,-8580.269578,-370.102971
5655.776914,444.123565,-8273.831378,-518.144159
5655.777238,518.144159,-8580.269578,-740.205942
5655.777563,74.020594,-8810.098227,-444.123565
5655.777887,888.247130,-9193.145976,-814.226536
5655.778211,592.164754,-8580.269578,-592.164754
5655.778536,592.164754,-8656.879127,-666.185348
5655.778860,592.164754,-8580.269578,-518.144159
5655.779184,0.000000,-8963.317327,-370.102971
5655.779508,814.226536,-8733.488677,-444.123565
5655.779833,518.144159,-8350.440928,-444.123565
5655.780157,666.185348,-8580.269578,-592.164754
5655.780481,444.123565,-8273.831378,-592.164754
5655.780806,666.185348,-8810.098227,-592.164754
5655.781130,518.144159,-8503.660028,-370.102971
5655.781454,666.185348,-8580.269578,-370.102971
5655.781778,518.144159,-8580.269578,-592.164754
5655.782103,666.185348,-9039.926876,-148.041188
5655.782427,444.123565,-8503.660028,-444.123565
5655.782751,444.123565,-8580.269578,-148.041188
5655.783076,592.164754,-8427.050478,-370.102971
5655.783400,592.164754,-8656.879127,-444.123565
5655.783724,592.164754,-8580.269578,-444.123565
5655.784048,518.144159,-8427.050478,-444.123565
5655.784373,518.144159,-8503.660028,-518.144159
5655.784697,74.020594,-8656.879127,-222.061783
5655.785021,814.226536,-8810.098227,-814.226536
5655.785346,296.082377,-8503.660028,-518.144159
5655.785670,370.102971,-8503.660028,-370.102971
5655.785994,222.061783,-8886.707777,-296.082377
5655.786318,518.144159,-8656.879127,-444.123565
5655.786643,296.082377,-8580.269578,-370.102971
5655.786967,296.082377,-8810.098227,-592.164754
5655.787291,444.123565,-8733.488677,-370.102971
5655.787616,222.061783,-8273.831378,-592.164754
5655.787940,370.102971,-8810.098227,-370.102971
5655.788264,444.123565,-8733.488677,-740.205942
5655.788588,370.102971,-8656.879127,-592.164754
5655.788913,444.123565,-8656.879127,-296.082377
5655.789237,0.000000,-8656.879127,0.000000
5655.789561,296.082377,-8580.269578,-444.123565
5655.789886,296.082377,-8733.488677,-296.082377
5655.790210,370.102971,-8503.660028,-370.102971
5655.790534,444.123565,-9116.536426,-222.061783
5655.790858,370.102971,-8427.050478,-222.061783
5655.791183,296.082377,-8810.098227,-222.061783
5655.791507,148.041188,-8656.879127,0.000000
5655.791831,444.123565,-8580.269578,0.000000
5655.792156,222.061783,-8656.879127,0.000000
5655.792480,444.123565,-8580.269578,0.000000
5655.792804,444.123565,-8580.269578,-296.082377
5655.793128,444.123565,-8503.660028,0.000000
5655.793453,666.185348,-7890.783629,0.000000
5655.793777,444.123565,-8656.879127,-222.061783
5655.794101,592.164754,-8503.660028,0.000000
5655.794426,370.102971,-8427.050478,0.000000
5655.794750,444.123565,-9039.926876,0.000000
5655.795074,296.082377,-8350.440928,-148.041188
5655.795398,666.185348,-8273.831378,-370.102971
5655.795723,296.082377,-8656.879127,0.000000
5655.796047,296.082377,-8580.269578,0.000000
5655.796371,296.082377,-8733.488677,0.000000
5655.796696,370.102971,-8580.269578,0.000000
5655.797020,444.123565,-8427.050478,-148.041188
5655.797344,518.144159,-8503.660028,-370.102971
5655.797668,296.082377,-8273.831378,-296.082377
5655.797993,444.123565,-8350.440928,-296.082377
5655.798317,370.102971,-8733.488677,0.000000
5655.798641,518.144159,-8197.221829,-444.123565
5655.798966,666.185348,-8580.269578,-518.144159
5655.799290,370.102971,-8580.269578,-148.041188
5655.799614,518.144159,-8197.221829,0.000000
5655.799938,444.123565,-8656.879127,-222.061783
5655.800263,444.123565,-8350.440928,-296.082377
5655.800587,370.102971,-8886.707777,-148.041188
5655.800911,222.061783,-8810.098227,-222.061783
5655.801236,222.061783,-8656.879127,0.000000
5655.801560,444.123565,-8733.488677,-148.041188
5655.801884,370.102971,-9269.755526,0.000000
5655.802208,296.082377,-8427.050478,-296.082377
5655.802533,518.144159,-8886.707777,-296.082377
5655.802857,222.061783,-8733.488677,0.000000
5655.803181,444.123565,-8810.098227,0.000000
5655.803506,296.082377,-8273.831378,-148.041188
5655.803830,370.102971,-8656.879127,-148.041188
5655.804154,148.041188,-8733.488677,-296.082377
5655.804478,444.123565,-8503.660028,-370.102971
5655.804803,666.185348,-8963.317327,-222.061783
5655.805127,370.102971,-8733.488677,-518.144159
5655.805451,296.082377,-8656.879127,-444.123565
5655.805776,370.102971,-8580.269578,-296.082377
5655.806100,592.164754,-9422.974625,-740.205942
5655.806424,148.041188,-8656.879127,-296.082377
5655.806749,518.144159,-8427.050478,-444.123565
5655.807073,296.082377,-8427.050478,-370.102971
5655.807397,740.205942,-8503.660028,-370.102971
5655.807721,740.205942,-8810.098227,-962.267725
5655.808046,592.164754,-8503.660028,-222.061783
5655.808370,222.061783,-8273.831378,-518.144159
5655.808694,740.205942,-8886.707777,-666.185348
5655.809019,370.102971,-8810.098227,0.000000
5655.809343,518.144159,-8427.050478,-444.123565
5655.809667,296.082377,-8350.440928,-740.205942
5655.809991,444.123565,-8580.269578,-370.102971
5655.810316,518.144159,-9576.193725,-296.082377
5655.810640,592.164754,-8427.050478,-518.144159
5655.810964,518.144159,-8733.488677,-370.102971
5655.811289,518.144159,-8273.831378,-518.144159
5655.811613,518.144159,-8503.660028,-148.041188
5655.811937,0.000000,-8273.831378,-370.102971
5655.812261,296.082377,-8580.269578,-296.082377
5655.812586,370.102971,-8503.660028,0.000000
5655.812910,296.082377,-8503.660028,-148.041188
5655.813234,74.020594,-8427.050478,-444.123565
5655.813559,296.082377,-8427.050478,-296.082377
5655.813883,518.144159,-8503.660028,-222.061783
5655.814207,296.082377,-8580.269578,-370.102971
5655.814531,370.102971,-8733.488677,-518.144159
5655.814856,222.061783,-8503.660028,-444.123565
5655.815180,74.020594,-8427.050478,-222.061783
5655.815504,222.061783,-8580.269578,0.000000
5655.815829,518.144159,-8580.269578,-296.082377
5655.816153,222.061783,-8350.440928,-444.123565
5655.816477,518.144159,-8427.050478,-370.102971
5655.816801,222.061783,-8733.488677,0.000000
5655.817126,370.102971,-8733.488677,-370.102971
5655.817450,444.123565,-8810.098227,-592.164754
5655.817774,296.082377,-8427.050478,-444.123565
5655.818099,666.185348,-8580.269578,-518.144159
5655.818423,444.123565,-8580.269578,-296.082377
5655.818747,666.185348,-8656.879127,-222.061783
5655.819071,444.123565,-8580.269578,-222.061783
5655.819396,370.102971,-8580.269578,-296.082377
5655.819720,222.061783,-8580.269578,-222.061783
5655.820044,296.082377,-8656.879127,-444.123565
5655.820369,740.205942,-8580.269578,-296.082377
5655.820693,444.123565,-8197.221829,0.000000
5655.821017,222.061783,-8733.488677,0.000000
5655.821341,518.144159,-8427.050478,-148.041188
5655.821666,518.144159,-9116.536426,0.000000
5655.821990,518.144159,-8503.660028,0.000000
5655.822314,296.082377,-8197.221829,0.000000
5655.822639,296.082377,-8580.269578,-148.041188
5655.822963,592.164754,-8350.440928,-296.082377
5655.823287,592.164754,-8810.098227,-148.041188
5655.823611,370.102971,-8580.269578,-296.082377
5655.823936,0.000000,-8427.050478,0.000000
5655.824260,518.144159,-8886.707777,-296.082377
5655.824584,666.185348,-8656.879127,0.000000
5655.824909,444.123565,-8886.707777,-222.061783
5655.825233,370.102971,-8810.098227,-518.144159
5655.825557,296.082377,-8273.831378,-296.082377
5655.825881,148.041188,-8963.317327,0.000000
5655.826206,370.102971,-8886.707777,0.000000
5655.826530,518.144159,-8427.050478,-444.123565
5655.826854,666.185348,-8656.879127,-518.144159
5655.827179,444.123565,-8350.440928,-370.102971
5655.827503,518.144159,-8427.050478,-222.061783
5655.827827,518.144159,-8350.440928,-222.061783
5655.828151,740.205942,-8503.660028,-592.164754
5655.828476,518.144159,-8963.317327,-518.144159
5655.828800,222.061783,-8580.269578,296.082377
5655.829124,444.123565,-8044.002729,-296.082377
5655.829449,296.082377,-8503.660028,-444.123565
5655.829773,370.102971,-8810.098227,-444.123565
5655.830097,518.144159,-9116.536426,-444.123565
5655.830421,518.144159,-8656.879127,-444.123565
5655.830746,518.144159,-8503.660028,-518.144159
5655.831070,666.185348,-8503.660028,-444.123565
5655.831394,518.144159,-8427.050478,-444.123565
5655.831719,296.082377,-8580.269578,-222.061783
5655.832043,444.123565,-8733.488677,-518.144159
5655.832367,592.164754,-8427.050478,-296.082377
5655.832691,444.123565,-8656.879127,-518.144159
5655.833016,74.020594,-8656.879127,148.041188
5655.833340,296.082377,-8580.269578,-370.102971
5655.833664,296.082377,-8503.660028,-370.102971
5655.833989,370.102971,-8503.660028,-518.144159
5655.834313,444.123565,-8350.440928,-296.082377
5655.834637,444.123565,-8580.269578,-296.082377
5655.834961,222.061783,-8656.879127,-222.061783
5655.835286,444.123565,-8503.660028,-370.102971
5655.835610,296.082377,-8810.098227,-518.144159
5655.835934,888.247130,-8733.488677,-296.082377
5655.836259,222.061783,-8580.269578,-222.061783
5655.836583,148.041188,-9039.926876,-296.082377
5655.836907,518.144159,-8733.488677,-518.144159
5655.837231,740.205942,-8963.317327,-518.144159
5655.837556,444.123565,-8503.660028,0.000000
5655.837880,148.041188,-8350.440928,-222.061783
5655.838204,592.164754,-8580.269578,-222.061783
5655.838529,222.061783,-8197.221829,-518.144159
5655.838853,740.205942,-9039.926876,-592.164754
5655.839177,444.123565,-8503.660028,-444.123565
5655.839501,370.102971,-8427.050478,0.000000
5655.839826,148.041188,-8427.050478,-370.102971
5655.840150,740.205942,-8120.612279,-296.082377
5655.840474,666.185348,-8580.269578,-592.164754
5655.840799,518.144159,-8656.879127,-444.123565
5655.841123,666.185348,-8503.660028,-296.082377
5655.841447,444.123565,-8427.050478,0.000000
5655.841771,518.144159,-8733.488677,-296.082377
5655.842096,296.082377,-8273.831378,0.000000
5655.842420,518.144159,-8886.707777,-148.041188
5655.842744,518.144159,-8810.098227,0.000000
5655.843069,592.164754,-8733.488677,0.000000
5655.843393,74.020594,-8656.879127,0.000000
5655.843717,518.144159,-8503.660028,-296.082377
5655.844042,444.123565,-8350.440928,-222.061783
5655.844366,518.144159,-8273.831378,222.061783
5655.844690,296.082377,-9039.926876,74.020594
5655.845014,592.164754,-8656.879127,-296.082377
5655.845339,444.123565,-8656.879127,-296.082377
5655.845663,444.123565,-8580.269578,148.041188
5655.845987,444.123565,-8963.317327,-370.102971
5655.846312,518.144159,-8350.440928,-148.041188
5655.846636,370.102971,-8656.879127,-296.082377
5655.846960,518.144159,-8427.050478,-444.123565
5655.847285,814.226536,-8810.098227,-222.061783
5655.847609,518.144159,-8656.879127,-592.164754
5655.847933,666.185348,-8656.879127,-370.102971
5655.848257,444.123565,-8656.879127,-370.102971
5655.848582,148.041188,-8580.269578,-148.041188
5655.848906,222.061783,-8580.269578,-592.164754
5655.849230,518.144159,-8733.488677,-444.123565
5655.849555,370.102971,-8733.488677,-666.185348
5655.849879,444.123565,-8427.050478,-370.102971
5655.850203,666.185348,-8733.488677,-518.144159
5655.850528,444.123565,-8427.050478,-666.185348
5655.850852,666.185348,-8963.317327,-592.164754
5655.851176,370.102971,-8503.660028,-666.185348
5655.851500,962.267725,-8656.879127,-592.164754
5655.851825,296.082377,-8350.440928,-740.205942
5655.852149,518.144159,-8580.269578,-222.061783
5655.852473,74.020594,-8580.269578,-666.185348
5655.852798,444.123565,-8733.488677,-370.102971
5655.853122,370.102971,-8656.879127,-444.123565
5655.853446,296.082377,-8656.879127,0.000000
5655.853770,296.082377,-8580.269578,-444.123565
5655.854095,444.123565,-8350.440928,-222.061783
5655.854419,518.144159,-8656.879127,-666.185348
5655.854743,444.123565,-8427.050478,-444.123565
5655.855068,222.061783,-8656.879127,-518.144159
5655.855392,222.061783,-8427.050478,-296.082377
5655.855716,740.205942,-7967.393179,0.000000
5655.856041,222.061783,-8427.050478,-666.185348
5655.856365,444.123565,-8810.098227,-444.123565
5655.856689,370.102971,-8273.831378,0.000000
5655.857013,370.102971,-8886.707777,-296.082377
5655.857338,222.061783,-8810.098227,-518.144159
5655.857662,740.205942,-8197.221829,-592.164754
5655.857986,518.144159,-8580.269578,-740.205942
5655.858311,740.205942,-8427.050478,-518.144159
5655.858635,444.123565,-8733.488677,-296.082377
5655.858959,444.123565,-8427.050478,-592.164754
5655.859284,444.123565,-8733.488677,-592.164754
5655.859608,444.123565,-8503.660028,-814.226536
5655.859932,444.123565,-8656.879127,-296.082377
5655.860256,222.061783,-8273.831378,-666.185348
5655.860581,592.164754,-8810.098227,-666.185348
5655.860905,370.102971,-8656.879127,-296.082377
5655.861229,814.226536,-8580.269578,-148.041188
5655.861554,296.082377,-8733.488677,-444.123565
5655.861878,296.082377,-8886.707777,0.000000
5655.862202,296.082377,-8656.879127,-444.123565
5655.862527,592.164754,-8810.098227,-370.102971
5655.862851,444.123565,-7660.954980,-370.102971
5655.863175,444.123565,-8810.098227,-370.102971
5655.863499,222.061783,-8503.660028,-592.164754
5655.863824,222.061783,-8733.488677,-296.082377
5655.864148,296.082377,-9116.536426,0.000000
5655.864472,222.061783,-8580.269578,-148.041188
5655.864797,592.164754,-8503.660028,-592.164754
5655.865121,222.061783,-8427.050478,-296.082377
5655.865445,666.185348,-8733.488677,-370.102971
5655.865770,148.041188,-8350.440928,-370.102971
5655.866094,592.164754,-8886.707777,-296.082377
5655.866418,148.041188,-8273.831378,-740.205942
5655.866742,444.123565,-9039.926876,-518.144159
5655.867067,740.205942,-8503.660028,-518.144159
5655.867391,518.144159,-8733.488677,-592.164754
5655.867715,296.082377,-8733.488677,-666.185348
5655.868040,518.144159,-8580.269578,-592.164754
5655.868364,666.185348,-8656.879127,-740.205942
5655.868688,296.082377,-8733.488677,-296.082377
5655.869013,444.123565,-8350.440928,-444.123565
5655.869337,296.082377,-8810.098227,-296.082377
5655.869661,740.205942,-8350.440928,-444.123565
5655.869985,518.144159,-8580.269578,0.000000
5655.870310,666.185348,-8656.879127,-592.164754
5655.870634,666.185348,-8503.660028,-296.082377
5655.870958,222.061783,-8810.098227,-296.082377
5655.871283,888.247130,-9269.755526,-148.041188
5655.871607,666.185348,-8656.879127,-296.082377
5655.871931,518.144159,-8733.488677,0.000000
5655.872255,592.164754,-8427.050478,0.000000
5655.872580,518.144159,-8733.488677,296.082377
5655.872904,592.164754,-8503.660028,-148.041188
5655.873228,370.102971,-8273.831378,0.000000
5655.873553,370.102971,-8580.269578,-222.061783
5655.873877,518.144159,-8580.269578,0.000000
5655.874201,444.123565,-8120.612279,0.000000
5655.874526,370.102971,-8503.660028,-148.041188
5655.874850,370.102971,-8733.488677,-74.020594
5655.875174,518.144159,-8580.269578,-370.102971
5655.875498,222.061783,-8197.221829,148.041188
5655.875823,370.102971,-8733.488677,-148.041188
5655.876147,222.061783,-8580.269578,-296.082377
5655.876471,296.082377,-8656.879127,0.000000
5655.876796,296.082377,-8733.488677,-444.123565
5655.877120,444.123565,-8733.488677,-740.205942
5655.877444,296.082377,-8273.831378,-74.020594
5655.877769,148.041188,-8273.831378,-444.123565
5655.878093,592.164754,-8580.269578,-296.082377
5655.878417,814.226536,-8656.879127,-370.102971
5655.878741,740.205942,-8580.269578,-444.123565
5655.879066,148.041188,-8580.269578,-370.102971
5655.879390,222.061783,-8810.098227,-296.082377
5655.879714,518.144159,-8120.612279,-296.082377
5655.880039,518.144159,-8503.660028,-444.123565
5655.880363,222.061783,-8503.660028,-740.205942
5655.880687,518.144159,-8733.488677,-592.164754
5655.881012,518.144159,-8656.879127,-148.041188
5655.881336,370.102971,-8273.831378,-370.102971
5655.881660,444.123565,-8580.269578,-222.061783
5655.881984,296.082377,-8427.050478,-370.102971
5655.882309,370.102971,-8810.098227,-518.144159
5655.882633,518.144159,-8580.269578,-962.267725
5655.882957,296.082377,-8810.098227,-222.061783
5655.883282,74.020594,-8580.269578,-222.061783
5655.883606,74.020594,-8350.440928,-370.102971
5655.883930,518.144159,-8120.612279,0.000000
5655.884255,444.123565,-8810.098227,-296.082377
5655.884579,444.123565,-8427.050478,-370.102971
5655.884903,518.144159,-8886.707777,-518.144159
5655.885227,740.205942,-8503.660028,-518.144159
5655.885552,444.123565,-8886.707777,-666.185348
5655.885876,444.123565,-8580.269578,-444.123565
5655.886200,148.041188,-8580.269578,-296.082377
5655.886525,444.123565,-8733.488677,-518.144159
5655.886849,666.185348,-8733.488677,-592.164754
5655.887173,444.123565,-8580.269578,-592.164754
5655.887497,296.082377,-8810.098227,-518.144159
5655.887822,814.226536,-8350.440928,-592.164754
5655.888146,962.267725,-8810.098227,-592.164754
5655.888470,592.164754,-8733.488677,-740.205942
5655.888795,444.123565,-8503.660028,-592.164754
5655.889119,370.102971,-8503.660028,-592.164754
5655.889443,370.102971,-8580.269578,-666.185348
5655.889768,444.123565,-8273.831378,-518.144159
5655.890092,296.082377,-8580.269578,-222.061783
5655.890416,444.123565,-8503.660028,-444.123565
5655.890740,592.164754,-8427.050478,-370.102971
5655.891065,666.185348,-8427.050478,-666.185348
5655.891389,444.123565,-8120.612279,0.000000
5655.891713,370.102971,-8503.660028,-370.102971
5655.892038,444.123565,-8427.050478,0.000000
5655.892362,518.144159,-7584.345430,0.000000
5655.892686,666.185348,-8427.050478,-296.082377
5655.893011,518.144159,-8427.050478,0.000000
5655.893335,444.123565,-8427.050478,0.000000
5655.893659,518.144159,-8427.050478,0.000000
5655.893983,370.102971,-8273.831378,-666.185348
5655.894308,296.082377,-8810.098227,0.000000
5655.894632,444.123565,-8273.831378,-296.082377
5655.894956,370.102971,-8273.831378,0.000000
5655.895281,296.082377,-8044.002729,0.000000
5655.895605,518.144159,-8580.269578,0.000000
5655.895929,592.164754,-8427.050478,-370.102971
5655.896254,370.102971,-8503.660028,-296.082377
5655.896578,296.082377,-8656.879127,-296.082377
5655.896902,296.082377,-8427.050478,0.000000
5655.897226,444.123565,-8886.707777,-296.082377
5655.897551,222.061783,-8656.879127,-444.123565
5655.897875,296.082377,-8656.879127,-370.102971
5655.898199,740.205942,-8427.050478,-666.185348
5655.898524,592.164754,-8656.879127,-222.061783
5655.898848,222.061783,-9039.926876,-296.082377
5655.899172,592.164754,-8656.879127,-444.123565
5655.899497,370.102971,-9499.584175,-518.144159
5655.899821,518.144159,-8733.488677,-370.102971
5655.900145,74.020594,-8656.879127,-444.123565
5655.900469,518.144159,-9193.145976,-370.102971
5655.900794,74.020594,-8656.879127,-518.144159
5655.901118,370.102971,-8810.098227,-74.020594
5655.901442,370.102971,-8656.879127,-444.123565
5655.901767,518.144159,-8503.660028,-296.082377
5655.902091,296.082377,-8427.050478,-444.123565
5655.902415,0.000000,-9193.145976,0.000000
5655.902740,296.082377,-8350.440928,-296.082377
5655.903064,370.102971,-8733.488677,-444.123565
5655.903388,518.144159,-8580.269578,-296.082377
5655.903712,296.082377,-9269.755526,0.000000
5655.904037,296.082377,-8503.660028,-222.061783
5655.904361,296.082377,-8810.098227,-148.041188
5655.904685,592.164754,-8810.098227,-370.102971
5655.905010,444.123565,-8350.440928,-222.061783
5655.905334,444.123565,-8503.660028,0.000000
5655.905658,444.123565,-8656.879127,-518.144159
5655.905982,370.102971,-8273.831378,-148.041188
5655.906307,592.164754,-8350.440928,-444.123565
5655.906631,666.185348,-9422.974625,0.000000
5655.906955,444.123565,-8350.440928,-222.061783
5655.907280,370.102971,-8503.660028,-296.082377
5655.907604,444.123565,-8273.831378,-296.082377
5655.907928,592.164754,-8273.831378,-444.123565
5655.908253,592.164754,-8733.488677,-370.102971
5655.908577,518.144159,-8197.221829,-74.020594
5655.908901,370.102971,-8197.221829,-444.123565
5655.909225,592.164754,-8580.269578,-296.082377
5655.909550,370.102971,-8044.002729,-222.061783
5655.909874,888.247130,-8350.440928,-518.144159
5655.910198,296.082377,-8503.660028,-370.102971
5655.910523,370.102971,-8580.269578,0.000000
5655.910847,592.164754,-7814.174080,0.000000
5655.911171,370.102971,-8656.879127,-148.041188
5655.911496,518.144159,-8427.050478,-222.061783
5655.911820,222.061783,-8580.269578,-370.102971
5655.912144,296.082377,-8886.707777,-148.041188
5655.912468,222.061783,-8197.221829,0.000000
5655.912793,296.082377,-8580.269578,-222.061783
5655.913117,222.061783,-8197.221829,-370.102971
5655.913441,518.144159,-8503.660028,-296.082377
5655.913766,74.020594,-8273.831378,74.020594
5655.914090,518.144159,-8350.440928,-296.082377
5655.914414,296.082377,-8427.050478,-296.082377
5655.914739,370.102971,-8503.660028,-370.102971
5655.915063,296.082377,-8963.317327,-296.082377
5655.915387,518.144159,-8503.660028,-444.123565
5655.915711,296.082377,-8120.612279,-222.061783
5655.916036,222.061783,-8733.488677,-222.061783
5655.916360,222.061783,-8503.660028,-370.102971
5655.916684,370.102971,-8503.660028,-370.102971
5655.917009,370.102971,-8810.098227,-296.082377
5655.917333,296.082377,-8733.488677,-518.144159
5655.917657,370.102971,-8656.879127,-296.082377
5655.917982,518.144159,-8733.488677,0.000000
5655.918306,814.226536,-8580.269578,-666.185348
5655.918630,518.144159,-8733.488677,-592.164754
5655.918954,666.185348,-8810.098227,-370.102971
5655.919279,666.185348,-8580.269578,-592.164754
5655.919603,444.123565,-8580.269578,-444.123565
5655.919927,592.164754,-8503.660028,-518.144159
5655.920252,814.226536,-8427.050478,0.000000
5655.920576,518.144159,-8503.660028,-740.205942
5655.920900,592.164754,-8810.098227,-296.082377
5655.921225,592.164754,-8580.269578,-222.061783
5655.921549,444.123565,-8656.879127,0.000000
5655.921873,592.164754,-8197.221829,-148.041188
5655.922197,592.164754,-9039.926876,-888.247130
5655.922522,666.185348,-8656.879127,0.000000
5655.922846,222.061783,-8427.050478,0.000000
5655.923170,518.144159,-8810.098227,0.000000
5655.923495,370.102971,-9346.365076,0.000000
5655.923819,666.185348,-8886.707777,-222.061783
5655.924143,74.020594,-8350.440928,-222.061783
5655.924467,444.123565,-8656.879127,0.000000
5655.924792,222.061783,-8963.317327,-148.041188
5655.925116,592.164754,-8810.098227,-370.102971
5655.925440,444.123565,-8886.707777,-222.061783
5655.925765,222.061783,-8503.660028,-222.061783
5655.926089,148.041188,-8580.269578,-148.041188
5655.926413,444.123565,-8656.879127,-518.144159
5655.926738,518.144159,-8886.707777,-222.061783
5655.927062,296.082377,-8427.050478,-444.123565
5655.927386,518.144159,-8810.098227,-222.061783
5655.927710,222.061783,-8656.879127,-370.102971
5655.928035,370.102971,-8580.269578,-148.041188
5655.928359,518.144159,-8580.269578,-444.123565
5655.928683,444.123565,-8503.660028,-296.082377
5655.929008,444.123565,-8273.831378,-592.164754
5655.929332,740.205942,-8886.707777,-666.185348
5655.929656,444.123565,-8350.440928,-370.102971
5655.929981,370.102971,-8427.050478,-444.123565
5655.930305,444.123565,-8503.660028,-296.082377
5655.930629,592.164754,-9039.926876,-370.102971
5655.930953,444.123565,-8656.879127,-444.123565
5655.931278,444.123565,-8503.660028,-592.164754
5655.931602,518.144159,-8580.269578,-222.061783
5655.931926,222.061783,-8350.440928,-296.082377
5655.932251,370.102971,-8350.440928,-296.082377
5655.932575,370.102971,-8580.269578,-444.123565
5655.932899,592.164754,-8427.050478,-148.041188
5655.933224,148.041188,-8427.050478,-518.144159
5655.933548,370.102971,-8810.098227,-148.041188
5655.933872,370.102971,-8197.221829,-444.123565
5655.934196,518.144159,-8656.879127,-444.123565
5655.934521,444.123565,-8427.050478,-296.082377
5655.934845,296.082377,-9116.536426,0.000000
5655.935169,518.144159,-8733.488677,-444.123565
5655.935494,296.082377,-8427.050478,-296.082377
5655.935818,296.082377,-8810.098227,-592.164754
5655.936142,296.082377,-8427.050478,-518.144159
5655.936467,444.123565,-8580.269578,-222.061783
5655.936791,222.061783,-8503.660028,-518.144159
5655.937115,296.082377,-8810.098227,-148.041188
5655.937439,296.082377,-8197.221829,-518.144159
5655.937764,592.164754,-9193.145976,296.082377
5655.938088,518.144159,-8580.269578,-444.123565
5655.938412,296.082377,-8580.269578,-222.061783
5655.938737,518.144159,-8656.879127,0.000000
5655.939061,296.082377,-9346.365076,-296.082377
5655.939385,518.144159,-8886.707777,-666.185348
5655.939709,222.061783,-8656.879127,-370.102971
5655.940034,370.102971,-8350.440928,0.000000
5655.940358,74.020594,-8656.879127,-296.082377
5655.940682,518.144159,-8810.098227,0.000000
5655.941007,296.082377,-8503.660028,-370.102971
5655.941331,444.123565,-8886.707777,-222.061783
5655.941655,74.020594,-8733.488677,-148.041188
5655.941980,148.041188,-9346.365076,148.041188
5655.942304,222.061783,-8656.879127,-296.082377
5655.942628,370.102971,-8656.879127,-222.061783
5655.942953,296.082377,-8886.707777,-296.082377
5655.943277,444.123565,-8503.660028,0.000000
5655.943601,148.041188,-8273.831378,-370.102971
5655.943926,296.082377,-8810.098227,-444.123565
5655.944250,296.082377,-8350.440928,-444.123565
5655.944574,518.144159,-8580.269578,-444.123565
5655.944899,814.226536,-8197.221829,-370.102971
5655.945223,518.144159,-8503.660028,-222.061783
5655.945547,444.123565,-8810.098227,-296.082377
5655.945872,222.061783,-8503.660028,-148.041188
5655.946196,592.164754,-8656.879127,-592.164754
5655.946520,814.226536,-8656.879127,-518.144159
5655.946845,666.185348,-8427.050478,-296.082377
5655.947169,222.061783,-8427.050478,-370.102971
5655.947493,296.082377,-8503.660028,-592.164754
5655.947818,666.185348,-8197.221829,-518.144159
5655.948142,666.185348,-8656.879127,-296.082377
5655.948466,740.205942,-8733.488677,-296.082377
5655.948791,518.144159,-8580.269578,-296.082377
5655.949115,888.247130,-8733.488677,-222.061783
5655.949439,592.164754,-8350.440928,-444.123565
5655.949764,518.144159,-8810.098227,-444.123565
5655.950088,814.226536,-8656.879127,-518.144159
5655.950412,518.144159,-8656.879127,-370.102971
5655.950737,444.123565,-8580.269578,-518.144159
5655.951061,296.082377,-8350.440928,-296.082377
5655.951385,296.082377,-8733.488677,-518.144159
5655.951710,296.082377,-8580.269578,-666.185348
5655.952034,444.123565,-8886.707777,0.000000
5655.952359,370.102971,-8580.269578,-222.061783
5655.952683,370.102971,-8580.269578,-222.061783
5655.953007,296.082377,-8427.050478,-444.123565
5655.953332,296.082377,-9422.974625,0.000000
5655.953656,444.123565,-8733.488677,-518.144159
5655.953980,444.123565,-8733.488677,-222.061783
5655.954305,74.020594,-8886.707777,0.000000
5655.954629,370.102971,-8963.317327,-222.061783
5655.954953,222.061783,-8503.660028,-370.102971
5655.955278,296.082377,-8427.050478,-370.102971
5655.955602,222.061783,-8580.269578,0.000000
5655.955926,444.123565,-8656.879127,-370.102971
5655.956251,296.082377,-8503.660028,-222.061783
5655.956575,222.061783,-8427.050478,-222.061783
5655.956899,296.082377,-8733.488677,-370.102971
5655.957224,370.102971,-8427.050478,-444.123565
5655.957548,148.041188,-8810.098227,-222.061783
5655.957872,370.102971,-8580.269578,-444.123565
5655.958197,518.144159,-8580.269578,-296.082377
5655.958521,592.164754,-8503.660028,-592.164754
5655.958845,592.164754,-9422.974625,-592.164754
5655.959170,666.185348,-8503.660028,-518.144159
5655.959494,296.082377,-8273.831378,-518.144159
5655.959818,592.164754,-8503.660028,-592.164754
5655.960143,592.164754,-8427.050478,-592.164754
5655.960467,592.164754,-8580.269578,-370.102971
5655.960791,592.164754,-8197.221829,-296.082377
5655.961116,296.082377,-8886.707777,-444.123565
5655.961440,666.185348,-8733.488677,-518.144159
5655.961764,592.164754,-8656.879127,74.020594
