#time,accel_x,accel_y,accel_z
4395.791671,666.185348,-8886.707777,-222.061783
4395.791995,592.164754,-8503.660028,-444.123565
4395.792319,666.185348,-8503.660028,-74.020594
4395.792644,518.144159,-8580.269578,-148.041188
4395.792968,370.102971,-8810.098227,-148.041188
4395.793292,518.144159,-8427.050478,-444.123565
4395.793616,370.102971,-8503.660028,0.000000
4395.793941,666.185348,-8656.879127,0.000000
4395.794265,370.102971,-8733.488677,296.082377
4395.794589,518.144159,-8733.488677,74.020594
4395.794914,444.123565,-8427.050478,222.061783
4395.795238,740.205942,-8350.440928,370.102971
4395.795562,444.123565,-8656.879127,814.226536
4395.795886,592.164754,-8197.221829,666.185348
4395.796211,444.123565,-8197.221829,592.164754
4395.796535,370.102971,-8427.050478,518.144159
4395.796859,222.061783,-8120.612279,740.205942
4395.797184,222.061783,-8733.488677,444.123565
4395.797508,148.041188,-8197.221829,666.185348
4395.797832,222.061783,-8810.098227,666.185348
4395.798156,0.000000,-8273.831378,518.144159
4395.798481,148.041188,-8273.831378,814.226536
4395.798805,370.102971,-8503.660028,740.205942
4395.799129,444.123565,-8810.098227,666.185348
4395.799454,296.082377,-7890.783629,888.247130
4395.799778,148.041188,-8350.440928,666.185348
4395.800102,296.082377,-8503.660028,444.123565
4395.800426,444.123565,-8503.660028,296.082377
4395.800751,592.164754,-8656.879127,148.041188
4395.801075,222.061783,-8273.831378,74.020594
4395.801399,296.082377,-8810.098227,296.082377
4395.801724,370.102971,-8503.660028,74.020594
4395.802048,296.082377,-8503.660028,370.102971
4395.802372,74.020594,-8273.831378,370.102971
4395.802696,444.123565,-8580.269578,74.020594
4395.803021,444.123565,-8197.221829,222.061783
4395.803345,296.082377,-8733.488677,148.041188
4395.803669,444.123565,-8350.440928,222.061783
4395.803994,518.144159,-8503.660028,444.123565
4395.804318,370.102971,-8427.050478,148.041188
4395.804642,370.102971,-8656.879127,0.000000
4395.804966,222.061783,-8580.269578,0.000000
4395.805290,444.123565,-8273.831378,296.082377
4395.805614,222.061783,-8273.831378,0.000000
4395.805939,222.061783,-8963.317327,-148.041188
4395.806263,444.123565,-8503.660028,0.000000
4395.806587,0.000000,-8120.612279,0.000000
4395.806911,296.082377,-8580.269578,-296.082377
4395.807235,592.164754,-8427.050478,-592.164754
4395.807559,518.144159,-8350.440928,-888.247130
4395.807883,814.226536,-8656.879127,-888.247130
4395.808208,518.144159,-8503.660028,-666.185348
4395.808532,814.226536,-8656.879127,-666.185348
4395.808856,296.082377,-8580.269578,-888.247130
4395.809180,666.185348,-8120.612279,-962.267725
4395.809504,0.000000,-8733.488677,-518.144159
4395.809828,666.185348,-8120.612279,-1184.329507
4395.810153,370.102971,-8733.488677,-740.205942
4395.810477,518.144159,-8580.269578,-1184.329507
4395.810801,814.226536,-8886.707777,-962.267725
4395.811125,518.144159,-8580.269578,-1036.288319
4395.811449,962.267725,-8886.707777,-1036.288319
4395.811773,370.102971,-8810.098227,-1258.350101
4395.812098,444.123565,-9039.926876,-592.164754
4395.812422,0.000000,-8886.707777,-1184.329507
4395.812746,296.082377,-8810.098227,-962.267725
4395.813070,444.123565,-8886.707777,-1036.288319
4395.813394,148.041188,-8963.317327,-814.226536
4395.813718,518.144159,-9422.974625,-666.185348
4395.814043,370.102971,-8656.879127,-814.226536
4395.814367,518.144159,-8886.707777,-814.226536
4395.814691,666.185348,-8733.488677,-888.247130
4395.815015,444.123565,-9499.584175,-296.082377
4395.815339,666.185348,-8810.098227,-814.226536
4395.815663,370.102971,-9039.926876,-518.144159
4395.815987,296.082377,-8656.879127,-740.205942
4395.816312,222.061783,-8810.098227,-592.164754
4395.816636,0.000000,-8963.317327,-222.061783
4395.816960,518.144159,-8810.098227,-370.102971
4395.817284,222.061783,-8886.707777,-592.164754
4395.817608,222.061783,-8963.317327,-592.164754
4395.817932,740.205942,-9652.803275,-592.164754
4395.818257,370.102971,-8963.317327,-666.185348
4395.818581,296.082377,-8963.317327,-370.102971
4395.818905,296.082377,-9116.536426,-666.185348
4395.819229,74.020594,-8810.098227,0.000000
4395.819553,222.061783,-8656.879127,-814.226536
4395.819877,148.041188,-8810.098227,-370.102971
4395.820202,444.123565,-8580.269578,-518.144159
4395.820526,444.123565,-8810.098227,0.000000
4395.820850,666.185348,-9116.536426,-296.082377
4395.821174,370.102971,-8580.269578,0.000000
4395.821498,592.164754,-8580.269578,-222.061783
4395.821822,592.164754,-8810.098227,0.000000
4395.822147,444.123565,-8273.831378,148.041188
4395.822471,444.123565,-8733.488677,222.061783
4395.822795,444.123565,-8810.098227,296.082377
4395.823119,518.144159,-8733.488677,0.000000
4395.823443,518.144159,-8580.269578,74.020594
4395.823767,592.164754,-8197.221829,518.144159
4395.824092,740.205942,-8656.879127,222.061783
4395.824416,740.205942,-8427.050478,296.082377
4395.824740,962.267725,-8503.660028,518.144159
4395.825064,592.164754,-8656.879127,592.164754
4395.825388,740.205942,-8810.098227,444.123565
4395.825712,592.164754,-9116.536426,518.144159
4395.826036,518.144159,-8810.098227,592.164754
4395.826361,666.185348,-8810.098227,0.000000
4395.826685,740.205942,-8886.707777,444.123565
4395.827009,814.226536,-8503.660028,370.102971
4395.827333,518.144159,-8427.050478,518.144159
4395.827657,592.164754,-8810.098227,370.102971
4395.827981,666.185348,-8503.660028,518.144159
4395.828306,666.185348,-8503.660028,222.061783
4395.828630,740.205942,-8656.879127,370.102971
4395.828954,370.102971,-8503.660028,666.185348
4395.829278,518.144159,-8580.269578,148.041188
4395.829602,592.164754,-8503.660028,444.123565
4395.829926,370.102971,-8427.050478,444.123565
4395.830251,296.082377,-8503.660028,222.061783
4395.830575,518.144159,-8580.269578,444.123565
4395.830899,592.164754,-8350.440928,296.082377
4395.831223,222.061783,-8427.050478,222.061783
4395.831547,222.061783,-8120.612279,444.123565
4395.831871,296.082377,-8427.050478,222.061783
4395.832196,74.020594,-8656.879127,296.082377
4395.832520,74.020594,-8273.831378,518.144159
4395.832844,222.061783,-8427.050478,370.102971
4395.833168,296.082377,-8273.831378,296.082377
4395.833492,0.000000,-9039.926876,370.102971
4395.833816,444.123565,-8580.269578,0.000000
4395.834140,444.123565,-7814.174080,296.082377
4395.834465,74.020594,-8503.660028,148.041188
4395.834789,296.082377,-8656.879127,74.020594
4395.835113,296.082377,-8273.831378,222.061783
4395.835437,444.123565,-8427.050478,-148.041188
4395.835761,296.082377,-8350.440928,0.000000
4395.836085,148.041188,-8273.831378,74.020594
4395.836410,148.041188,-8273.831378,0.000000
4395.836734,444.123565,-8197.221829,-296.082377
4395.837058,148.041188,-8733.488677,-148.041188
4395.837382,518.144159,-8580.269578,-148.041188
4395.837706,444.123565,-8273.831378,0.000000
4395.838030,148.041188,-8427.050478,-296.082377
4395.838355,74.020594,-8503.660028,0.000000
4395.838679,0.000000,-8350.440928,-148.041188
4395.839003,74.020594,-8886.707777,0.000000
4395.839327,74.020594,-8503.660028,0.000000
4395.839651,0.000000,-8656.879127,0.000000
4395.839975,222.061783,-8580.269578,0.000000
4395.840300,296.082377,-8580.269578,-296.082377
4395.840624,0.000000,-8120.612279,-148.041188
4395.840948,592.164754,-8656.879127,-222.061783
4395.841272,222.061783,-8427.050478,-296.082377
4395.841596,148.041188,-8810.098227,-296.082377
4395.841920,296.082377,-8273.831378,-222.061783
4395.842245,222.061783,-8503.660028,-296.082377
4395.842569,0.000000,-8656.879127,-666.185348
4395.842893,148.041188,-8656.879127,-222.061783
4395.843217,74.020594,-8886.707777,-370.102971
4395.843541,222.061783,-8810.098227,-370.102971
4395.843865,296.082377,-8580.269578,-444.123565
4395.844189,222.061783,-8733.488677,-518.144159
4395.844514,592.164754,-8810.098227,-740.205942
4395.844838,888.247130,-8503.660028,-888.247130
4395.845162,740.205942,-8963.317327,-740.205942
4395.845486,444.123565,-8427.050478,-592.164754
4395.845810,518.144159,-8733.488677,-814.226536
4395.846134,370.102971,-8503.660028,-740.205942
4395.846459,444.123565,-8656.879127,-444.123565
4395.846783,518.144159,-8656.879127,-592.164754
4395.847107,370.102971,-8427.050478,-592.164754
4395.847431,592.164754,-8427.050478,-518.144159
4395.847755,740.205942,-8656.879127,-518.144159
4395.848079,666.185348,-8427.050478,-222.061783
4395.848404,518.144159,-8580.269578,-148.041188
4395.848728,222.061783,-8963.317327,0.000000
4395.849052,740.205942,-8810.098227,-222.061783
4395.849376,444.123565,-8733.488677,-148.041188
4395.849700,296.082377,-8733.488677,148.041188
4395.850024,222.061783,-8810.098227,0.000000
4395.850349,296.082377,-8580.269578,-148.041188
4395.850673,518.144159,-8810.098227,0.000000
4395.850997,444.123565,-8810.098227,0.000000
4395.851321,592.164754,-8810.098227,0.000000
4395.851645,592.164754,-8350.440928,148.041188
4395.851969,148.041188,-8656.879127,-222.061783
4395.852294,370.102971,-8733.488677,0.000000
4395.852618,518.144159,-8963.317327,-74.020594
4395.852942,518.144159,-8656.879127,-296.082377
4395.853266,814.226536,-8580.269578,-370.102971
4395.853590,444.123565,-8656.879127,-148.041188
4395.853914,444.123565,-8503.660028,-222.061783
4395.854238,370.102971,-8733.488677,-296.082377
4395.854563,518.144159,-8580.269578,-222.061783
4395.854887,592.164754,-8810.098227,-296.082377
4395.855211,370.102971,-8197.221829,-370.102971
4395.855535,74.020594,-8503.660028,-370.102971
4395.855859,370.102971,-8273.831378,-370.102971
4395.856183,74.020594,-8810.098227,0.000000
4395.856508,222.061783,-8273.831378,-370.102971
4395.856832,222.061783,-8503.660028,-148.041188
4395.857156,148.041188,-8273.831378,-444.123565
4395.857480,0.000000,-8120.612279,0.000000
4395.857804,74.020594,-8273.831378,-444.123565
4395.858128,74.020594,-8656.879127,-518.144159
4395.858453,296.082377,-8350.440928,-592.164754
4395.858777,74.020594,-8656.879127,-222.061783
4395.859101,74.020594,-8503.660028,-740.205942
4395.859425,296.082377,-8580.269578,-222.061783
4395.859749,74.020594,-8503.660028,-592.164754
4395.860073,222.061783,-8656.879127,0.000000
4395.860398,74.020594,-7507.735880,-518.144159
4395.860722,518.144159,-8503.660028,-592.164754
4395.861046,370.102971,-8350.440928,-666.185348
4395.861370,296.082377,-8503.660028,-740.205942
4395.861694,296.082377,-8580.269578,-592.164754
4395.862018,296.082377,-8427.050478,-370.102971
4395.862342,370.102971,-8503.660028,-740.205942
4395.862667,222.061783,-8656.879127,-592.164754
4395.862991,296.082377,-8427.050478,-962.267725
4395.863315,592.164754,-8503.660028,-962.267725
4395.863639,444.123565,-8580.269578,-814.226536
4395.863963,222.061783,-8350.440928,-666.185348
4395.864287,296.082377,-8656.879127,-888.247130
4395.864612,74.020594,-7967.393179,-444.123565
4395.864936,222.061783,-8656.879127,-888.247130
4395.865260,296.082377,-8580.269578,-814.226536
4395.865584,296.082377,-8580.269578,-370.102971
4395.865908,296.082377,-8656.879127,-148.041188
4395.866232,222.061783,-8580.269578,-740.205942
4395.866557,444.123565,-8427.050478,-666.185348
4395.866881,518.144159,-8656.879127,-814.226536
4395.867205,296.082377,-8580.269578,-518.144159
4395.867529,296.082377,-8273.831378,-444.123565
4395.867853,592.164754,-8810.098227,-592.164754
4395.868177,148.041188,-8503.660028,-740.205942
4395.868502,518.144159,-8963.317327,-444.123565
4395.868826,518.144159,-8273.831378,-296.082377
4395.869150,444.123565,-8580.269578,-666.185348
4395.869474,370.102971,-8580.269578,-592.164754
4395.869798,444.123565,-8580.269578,-518.144159
4395.870122,518.144159,-8656.879127,-518.144159
4395.870447,740.205942,-8350.440928,-888.247130
4395.870771,370.102971,-8963.317327,-444.123565
4395.871095,222.061783,-8733.488677,-666.185348
4395.871419,444.123565,-8656.879127,-592.164754
4395.871743,370.102971,-8810.098227,-814.226536
4395.872067,444.123565,-8963.317327,-518.144159
4395.872391,740.205942,-8580.269578,-592.164754
4395.872716,740.205942,-9039.926876,-592.164754
4395.873040,814.226536,-8656.879127,-740.205942
4395.873364,666.185348,-8886.707777,-666.185348
4395.873688,370.102971,-8886.707777,-740.205942
4395.874012,296.082377,-8886.707777,-592.164754
4395.874336,592.164754,-9116.536426,-740.205942
4395.874661,592.164754,-9039.926876,-592.164754
4395.874985,444.123565,-8886.707777,-740.205942
4395.875309,592.164754,-8886.707777,-666.185348
4395.875633,888.247130,-9193.145976,-666.185348
4395.875957,888.247130,-8503.660028,-222.061783
4395.876281,444.123565,-8886.707777,-740.205942
4395.876606,592.164754,-9116.536426,-518.144159
4395.876930,888.247130,-9039.926876,-814.226536
4395.877254,888.247130,-8886.707777,-444.123565
4395.877578,592.164754,-8886.707777,-592.164754
4395.877902,666.185348,-8733.488677,-666.185348
4395.878226,814.226536,-8580.269578,-1036.288319
4395.878551,740.205942,-8733.488677,-962.267725
4395.878875,592.164754,-8656.879127,-888.247130
4395.879199,1184.329507,-8886.707777,-1036.288319
4395.879523,814.226536,-8733.488677,-888.247130
4395.879847,740.205942,-8886.707777,-1110.308913
4395.880171,740.205942,-8886.707777,-740.205942
4395.880495,814.226536,-8733.488677,-1332.370696
4395.880820,888.247130,-8810.098227,-1406.391290
4395.881144,740.205942,-8810.098227,-1036.288319
4395.881468,740.205942,-8886.707777,-1184.329507
4395.881792,666.185348,-8656.879127,-1184.329507
4395.882116,592.164754,-8733.488677,-1036.288319
4395.882440,518.144159,-8503.660028,-1036.288319
4395.882765,740.205942,-8810.098227,-962.267725
4395.883089,518.144159,-8886.707777,-814.226536
4395.883413,518.144159,-9039.926876,-888.247130
4395.883737,666.185348,-8427.050478,-1184.329507
4395.884061,444.123565,-8886.707777,-1036.288319
4395.884385,296.082377,-8273.831378,-666.185348
4395.884710,296.082377,-8656.879127,-888.247130
4395.885034,592.164754,-8503.660028,-1110.308913
4395.885358,592.164754,-8580.269578,-962.267725
4395.885682,592.164754,-8733.488677,-1110.308913
4395.886006,740.205942,-8733.488677,-1184.329507
4395.886330,518.144159,-8427.050478,-888.247130
4395.886655,518.144159,-8886.707777,-1036.288319
4395.886979,296.082377,-8503.660028,-1036.288319
4395.887303,296.082377,-8656.879127,-592.164754
4395.887627,370.102971,-8656.879127,-962.267725
4395.887951,518.144159,-8810.098227,-740.205942
4395.888275,370.102971,-8427.050478,-666.185348
4395.888600,592.164754,-8120.612279,-592.164754
4395.888924,370.102971,-8427.050478,-518.144159
4395.889248,222.061783,-8273.831378,-444.123565
4395.889572,370.102971,-8733.488677,-444.123565
4395.889896,370.102971,-8503.660028,-592.164754
4395.890220,148.041188,-8350.440928,-370.102971
4395.890544,222.061783,-8197.221829,-518.144159
4395.890869,518.144159,-8197.221829,-370.102971
4395.891193,444.123565,-8580.269578,-296.082377
4395.891517,518.144159,-8580.269578,-518.144159
4395.891841,444.123565,-8503.660028,-444.123565
4395.892165,518.144159,-8580.269578,-370.102971
4395.892489,148.041188,-8580.269578,-148.041188
4395.892814,666.185348,-9193.145976,-444.123565
4395.893138,444.123565,-8197.221829,-296.082377
4395.893462,518.144159,-8273.831378,-296.082377
4395.893786,592.164754,-8427.050478,-148.041188
4395.894110,222.061783,-8350.440928,-444.123565
4395.894434,592.164754,-8427.050478,-370.102971
4395.894759,444.123565,-8427.050478,-74.020594
4395.895083,518.144159,-8503.660028,0.000000
4395.895407,518.144159,-8427.050478,0.000000
4395.895731,148.041188,-8810.098227,370.102971
4395.896055,296.082377,-8350.440928,-370.102971
4395.896379,296.082377,-8810.098227,0.000000
4395.896704,592.164754,-8580.269578,0.000000
4395.897028,444.123565,-9116.536426,0.000000
4395.897352,296.082377,-8427.050478,-370.102971
4395.897676,296.082377,-8427.050478,0.000000
4395.898000,296.082377,-8656.879127,-148.041188
4395.898324,370.102971,-8733.488677,-296.082377
4395.898649,740.205942,-8580.269578,0.000000
4395.898973,518.144159,-8656.879127,0.000000
4395.899297,370.102971,-8427.050478,-74.020594
4395.899621,222.061783,-8427.050478,0.000000
4395.899945,592.164754,-8886.707777,74.020594
4395.900269,370.102971,-8273.831378,74.020594
4395.900593,296.082377,-8503.660028,0.000000
4395.900918,518.144159,-8810.098227,-296.082377
4395.901242,518.144159,-8427.050478,74.020594
4395.901566,370.102971,-8580.269578,0.000000
4395.901890,592.164754,-8580.269578,0.000000
4395.902214,222.061783,-8580.269578,0.000000
4395.902538,222.061783,-8733.488677,0.000000
4395.902863,740.205942,-8580.269578,222.061783
4395.903187,444.123565,-8427.050478,-222.061783
4395.903511,592.164754,-8656.879127,-222.061783
4395.903835,370.102971,-8580.269578,0.000000
4395.904159,222.061783,-9193.145976,518.144159
4395.904483,444.123565,-8656.879127,74.020594
4395.904808,592.164754,-8810.098227,0.000000
4395.905132,148.041188,-8580.269578,-222.061783
4395.905456,592.164754,-8503.660028,0.000000
4395.905780,222.061783,-8656.879127,0.000000
4395.906104,296.082377,-8656.879127,0.000000
4395.906428,296.082377,-8656.879127,-222.061783
4395.906753,370.102971,-8733.488677,0.000000
4395.907077,296.082377,-8810.098227,148.041188
4395.907401,296.082377,-8503.660028,-74.020594
4395.907725,444.123565,-8733.488677,-296.082377
4395.908049,518.144159,-8503.660028,-222.061783
4395.908374,444.123565,-9039.926876,0.000000
4395.908698,444.123565,-8733.488677,-592.164754
4395.909023,370.102971,-8963.317327,-222.061783
4395.909347,296.082377,-8733.488677,-296.082377
4395.909672,666.185348,-8733.488677,0.000000
4395.909996,518.144159,-8427.050478,-444.123565
4395.910320,444.123565,-8733.488677,-296.082377
4395.910645,296.082377,-8273.831378,-148.041188
4395.910969,296.082377,-8656.879127,-148.041188
4395.911294,74.020594,-8427.050478,0.000000
4395.911618,444.123565,-8580.269578,-296.082377
4395.911942,518.144159,-8733.488677,-814.226536
4395.912267,666.185348,-8350.440928,-592.164754
4395.912591,666.185348,-8733.488677,0.000000
4395.912916,370.102971,-8810.098227,-296.082377
4395.913240,518.144159,-8503.660028,-444.123565
4395.913565,370.102971,-8427.050478,-444.123565
4395.913889,592.164754,-8656.879127,-666.185348
4395.914213,222.061783,-8503.660028,0.000000
4395.914538,444.123565,-8656.879127,-444.123565
4395.914862,148.041188,-8427.050478,-148.041188
4395.915187,444.123565,-8503.660028,-296.082377
4395.915511,592.164754,-8427.050478,0.000000
4395.915836,518.144159,-8273.831378,-296.082377
4395.916160,222.061783,-8350.440928,-444.123565
4395.916484,296.082377,-8273.831378,-222.061783
4395.916809,592.164754,-8273.831378,222.061783
4395.917133,666.185348,-8427.050478,-592.164754
4395.917458,666.185348,-8886.707777,-370.102971
4395.917782,296.082377,-8044.002729,0.000000
4395.918106,148.041188,-8580.269578,0.000000
4395.918431,518.144159,-8580.269578,-296.082377
4395.918755,296.082377,-8503.660028,0.000000
4395.919080,222.061783,-8503.660028,-296.082377
4395.919404,74.020594,-8580.269578,0.000000
4395.919729,518.144159,-8120.612279,222.061783
4395.920053,0.000000,-8580.269578,0.000000
4395.920377,74.020594,-8273.831378,0.000000
4395.920702,370.102971,-8810.098227,0.000000
4395.921026,518.144159,-8733.488677,0.000000
4395.921351,518.144159,-8580.269578,0.000000
4395.921675,0.000000,-8427.050478,-296.082377
4395.921999,148.041188,-8273.831378,0.000000
4395.922324,148.041188,-8656.879127,-296.082377
4395.922648,370.102971,-8197.221829,-148.041188
4395.922973,0.000000,-8503.660028,0.000000
4395.923297,296.082377,-8427.050478,74.020594
4395.923622,0.000000,-8350.440928,0.000000
4395.923946,518.144159,-8273.831378,74.020594
4395.924270,296.082377,-8197.221829,-222.061783
4395.924595,296.082377,-8273.831378,0.000000
4395.924919,296.082377,-8427.050478,-148.041188
4395.925244,222.061783,-8963.317327,-148.041188
4395.925568,444.123565,-8503.660028,0.000000
4395.925893,444.123565,-8886.707777,-370.102971
4395.926217,444.123565,-8886.707777,-148.041188
4395.926541,370.102971,-8427.050478,-444.123565
4395.926866,814.226536,-9193.145976,-592.164754
4395.927190,444.123565,-8580.269578,-370.102971
4395.927515,592.164754,-8656.879127,-518.144159
4395.927839,740.205942,-8503.660028,-370.102971
4395.928163,1110.308913,-8810.098227,-444.123565
4395.928488,592.164754,-8810.098227,-592.164754
4395.928812,518.144159,-8886.707777,-370.102971
4395.929137,592.164754,-8656.879127,-444.123565
4395.929461,740.205942,-8963.317327,-518.144159
4395.929786,740.205942,-9193.145976,-444.123565
4395.930110,444.123565,-8503.660028,-296.082377
4395.930434,518.144159,-8810.098227,-296.082377
4395.930759,666.185348,-8580.269578,-592.164754
4395.931083,888.247130,-8503.660028,-296.082377
4395.931408,592.164754,-8810.098227,-444.123565
4395.931732,666.185348,-8427.050478,-666.185348
4395.932056,444.123565,-8810.098227,-444.123565
4395.932381,296.082377,-8503.660028,0.000000
4395.932705,518.144159,-8810.098227,-592.164754
4395.933030,444.123565,-8963.317327,-296.082377
4395.933354,518.144159,-8810.098227,-296.082377
4395.933679,592.164754,-9039.926876,-296.082377
4395.934003,740.205942,-8810.098227,-518.144159
4395.934327,592.164754,-8963.317327,-444.123565
4395.934652,518.144159,-8963.317327,-370.102971
4395.934976,740.205942,-8503.660028,-148.041188
4395.935301,518.144159,-8503.660028,0.000000
4395.935625,148.041188,-8580.269578,-148.041188
4395.935950,444.123565,-8503.660028,0.000000
4395.936274,444.123565,-8810.098227,-148.041188
4395.936598,222.061783,-8656.879127,0.000000
4395.936923,370.102971,-8656.879127,0.000000
4395.937247,592.164754,-8580.269578,-222.061783
4395.937572,74.020594,-8810.098227,74.020594
4395.937896,592.164754,-8656.879127,-296.082377
4395.938220,962.267725,-8810.098227,0.000000
4395.938545,370.102971,-8350.440928,74.020594
4395.938869,222.061783,-9039.926876,370.102971
4395.939194,296.082377,-8503.660028,0.000000
4395.939518,296.082377,-9116.536426,0.000000
4395.939843,592.164754,-8656.879127,0.000000
4395.940167,296.082377,-8273.831378,296.082377
4395.940491,444.123565,-8503.660028,222.061783
4395.940816,444.123565,-8886.707777,0.000000
4395.941140,370.102971,-8580.269578,148.041188
4395.941465,148.041188,-9039.926876,0.000000
4395.941789,370.102971,-8810.098227,0.000000
4395.942114,148.041188,-8427.050478,148.041188
4395.942438,148.041188,-8427.050478,0.000000
4395.942762,444.123565,-8810.098227,74.020594
4395.943087,370.102971,-8503.660028,74.020594
4395.943411,518.144159,-8810.098227,0.000000
4395.943736,518.144159,-8810.098227,-148.041188
4395.944060,444.123565,-8886.707777,0.000000
4395.944384,222.061783,-8580.269578,0.000000
4395.944709,222.061783,-8656.879127,0.000000
4395.945033,222.061783,-8580.269578,-222.061783
4395.945358,666.185348,-8273.831378,-222.061783
4395.945682,0.000000,-8427.050478,0.000000
4395.946007,296.082377,-8733.488677,-222.061783
4395.946331,518.144159,-8427.050478,-148.041188
4395.946655,814.226536,-8656.879127,-148.041188
4395.946980,370.102971,-8656.879127,-148.041188
4395.947304,370.102971,-8580.269578,-148.041188
4395.947629,222.061783,-8580.269578,0.000000
4395.947953,370.102971,-9269.755526,-518.144159
4395.948277,222.061783,-8503.660028,-222.061783
4395.948602,444.123565,-8580.269578,-296.082377
4395.948926,518.144159,-8503.660028,-444.123565
4395.949251,74.020594,-8580.269578,0.000000
4395.949575,148.041188,-9039.926876,-222.061783
4395.949900,518.144159,-8580.269578,-370.102971
4395.950224,370.102971,-8733.488677,-592.164754
4395.950548,222.061783,-8656.879127,-444.123565
4395.950873,0.000000,-8733.488677,370.102971
4395.951197,296.082377,-8580.269578,-370.102971
4395.951522,444.123565,-8886.707777,-444.123565
4395.951846,370.102971,-8810.098227,-740.205942
4395.952171,296.082377,-8733.488677,-370.102971
4395.952495,148.041188,-8580.269578,-518.144159
4395.952819,296.082377,-8733.488677,-370.102971
4395.953144,296.082377,-8733.488677,-444.123565
4395.953468,444.123565,-8580.269578,-444.123565
4395.953793,222.061783,-8733.488677,-370.102971
4395.954117,370.102971,-8733.488677,-296.082377
4395.954441,518.144159,-8656.879127,-370.102971
4395.954766,370.102971,-8656.879127,-444.123565
4395.955090,0.000000,-8733.488677,0.000000
4395.955415,74.020594,-8733.488677,-370.102971
4395.955739,370.102971,-8656.879127,-296.082377
4395.956064,296.082377,-8273.831378,-370.102971
4395.956388,296.082377,-8963.317327,-296.082377
4395.956712,296.082377,-8350.440928,-518.144159
4395.957037,296.082377,-8427.050478,-296.082377
4395.957361,518.144159,-8427.050478,-518.144159
4395.957686,444.123565,-8273.831378,-370.102971
4395.958010,370.102971,-8580.269578,-222.061783
4395.958335,74.020594,-8427.050478,-148.041188
4395.958659,296.082377,-8503.660028,-370.102971
4395.958983,222.061783,-8886.707777,-370.102971
4395.959308,222.061783,-8886.707777,0.000000
4395.959632,0.000000,-8350.440928,0.000000
4395.959957,222.061783,-8427.050478,-444.123565
4395.960281,444.123565,-8120.612279,-444.123565
4395.960605,740.205942,-8350.440928,-296.082377
4395.960930,592.164754,-8273.831378,-518.144159
4395.961254,444.123565,-8580.269578,-518.144159
4395.961579,370.102971,-8503.660028,-666.185348
4395.961903,222.061783,-8503.660028,-370.102971
4395.962228,74.020594,-7814.174080,-148.041188
4395.962552,296.082377,-8503.660028,-518.144159
4395.962876,740.205942,-8427.050478,-444.123565
4395.963201,296.082377,-8350.440928,0.000000
4395.963525,296.082377,-8350.440928,-740.205942
4395.963850,444.123565,-8503.660028,-370.102971
4395.964174,592.164754,-8427.050478,-592.164754
4395.964498,518.144159,-8503.660028,-370.102971
4395.964823,444.123565,-8427.050478,-370.102971
4395.965147,222.061783,-8580.269578,-222.061783
4395.965472,296.082377,-8580.269578,-296.082377
4395.965796,296.082377,-8656.879127,-370.102971
4395.966121,222.061783,-8580.269578,-222.061783
4395.966445,296.082377,-8197.221829,0.000000
4395.966769,518.144159,-8810.098227,-296.082377
4395.967094,296.082377,-8350.440928,-370.102971
4395.967418,370.102971,-8427.050478,-296.082377
4395.967743,518.144159,-8656.879127,0.000000
4395.968067,518.144159,-8427.050478,-296.082377
4395.968392,222.061783,-8580.269578,-296.082377
4395.968716,370.102971,-8733.488677,-444.123565
4395.969040,296.082377,-8503.660028,-370.102971
4395.969365,296.082377,-8503.660028,-370.102971
4395.969689,370.102971,-8810.098227,-370.102971
4395.970014,148.041188,-8580.269578,-296.082377
4395.970338,444.123565,-8350.440928,-370.102971
4395.970662,814.226536,-8656.879127,-740.205942
4395.970987,296.082377,-8503.660028,-518.144159
4395.971311,592.164754,-8580.269578,-740.205942
4395.971636,444.123565,-8503.660028,-222.061783
4395.971960,222.061783,-8963.317327,-518.144159
4395.972285,666.185348,-8503.660028,-296.082377
4395.972609,444.123565,-8580.269578,-370.102971
4395.972933,296.082377,-8963.317327,-518.144159
4395.973258,888.247130,-8427.050478,-370.102971
4395.973582,740.205942,-8427.050478,0.000000
4395.973907,592.164754,-8810.098227,-444.123565
4395.974231,592.164754,-8120.612279,-740.205942
4395.974555,666.185348,-8580.269578,-740.205942
4395.974880,296.082377,-8273.831378,-1184.329507
4395.975204,370.102971,-8580.269578,-592.164754
4395.975529,444.123565,-8580.269578,-370.102971
4395.975853,666.185348,-8273.831378,-296.082377
4395.976178,814.226536,-8580.269578,-370.102971
4395.976502,814.226536,-8656.879127,-444.123565
4395.976826,740.205942,-8273.831378,-444.123565
4395.977151,740.205942,-8656.879127,-222.061783
4395.977475,666.185348,-8427.050478,-518.144159
4395.977800,666.185348,-8503.660028,-814.226536
4395.978124,740.205942,-8427.050478,-370.102971
4395.978449,518.144159,-8350.440928,-370.102971
4395.978773,444.123565,-8503.660028,-222.061783
4395.979097,740.205942,-9422.974625,0.000000
4395.979422,518.144159,-8503.660028,-148.041188
4395.979746,962.267725,-8273.831378,-518.144159
4395.980071,888.247130,-8427.050478,-296.082377
4395.980395,666.185348,-8427.050478,-222.061783
4395.980719,444.123565,-8656.879127,-518.144159
4395.981044,592.164754,-8427.050478,-444.123565
4395.981368,814.226536,-8810.098227,-444.123565
4395.981693,814.226536,-8427.050478,-592.164754
4395.982017,444.123565,-8886.707777,-148.041188
4395.982342,666.185348,-8580.269578,-592.164754
4395.982666,592.164754,-8273.831378,-370.102971
4395.982990,592.164754,-8350.440928,-444.123565
4395.983315,296.082377,-8963.317327,-666.185348
4395.983639,740.205942,-8197.221829,-444.123565
4395.983964,444.123565,-8580.269578,-444.123565
4395.984288,444.123565,-8810.098227,-666.185348
4395.984613,518.144159,-8350.440928,-518.144159
4395.984937,666.185348,-8503.660028,-740.205942
4395.985261,518.144159,-8580.269578,-740.205942
4395.985586,222.061783,-8810.098227,-370.102971
4395.985910,222.061783,-8733.488677,-592.164754
4395.986235,518.144159,-8810.098227,-740.205942
4395.986559,592.164754,-8580.269578,-740.205942
4395.986883,518.144159,-8963.317327,-592.164754
4395.987208,518.144159,-8197.221829,-444.123565
4395.987532,444.123565,-8733.488677,-444.123565
4395.987857,666.185348,-8580.269578,-962.267725
4395.988181,666.185348,-8886.707777,-814.226536
4395.988506,740.205942,-8886.707777,-592.164754
4395.988830,370.102971,-8733.488677,-592.164754
4395.989154,592.164754,-9116.536426,-814.226536
4395.989479,518.144159,-8886.707777,-518.144159
4395.989803,518.144159,-8580.269578,-518.144159
4395.990128,444.123565,-9039.926876,-666.185348
4395.990452,296.082377,-8886.707777,-370.102971
4395.990776,518.144159,-8427.050478,-370.102971
4395.991101,518.144159,-8580.269578,-740.205942
4395.991425,370.102971,-8580.269578,-518.144159
4395.991750,518.144159,-8580.269578,-666.185348
4395.992074,592.164754,-8963.317327,-740.205942
4395.992399,296.082377,-8656.879127,-444.123565
4395.992723,370.102971,-8656.879127,-370.102971
4395.993047,518.144159,-8503.660028,-444.123565
4395.993372,296.082377,-8427.050478,-148.041188
4395.993696,814.226536,-8810.098227,-740.205942
4395.994021,740.205942,-8427.050478,-370.102971
4395.994345,444.123565,-8503.660028,-592.164754
4395.994670,0.000000,-9269.755526,0.000000
4395.994994,222.061783,-8427.050478,-592.164754
4395.995318,666.185348,-8656.879127,-592.164754
4395.995643,444.123565,-8503.660028,-666.185348
4395.995967,370.102971,-8656.879127,-370.102971
4395.996292,740.205942,-8733.488677,-444.123565
4395.996616,444.123565,-8503.660028,-370.102971
4395.996940,518.144159,-8580.269578,-444.123565
4395.997265,444.123565,-8350.440928,-518.144159
4395.997589,1184.329507,-8580.269578,-444.123565
4395.997914,444.123565,-8350.440928,-370.102971
4395.998238,370.102971,-8886.707777,-444.123565
4395.998563,296.082377,-8273.831378,-666.185348
4395.998887,370.102971,-9499.584175,444.123565
4395.999211,222.061783,-8733.488677,-444.123565
4395.999536,592.164754,-8810.098227,0.000000
4395.999860,370.102971,-8503.660028,-370.102971
4396.000185,148.041188,-8810.098227,0.000000
4396.000509,222.061783,-8656.879127,-74.020594
4396.000834,518.144159,-8886.707777,0.000000
4396.001158,148.041188,-8503.660028,-222.061783
4396.001482,74.020594,-8427.050478,-74.020594
4396.001807,148.041188,-8044.002729,148.041188
4396.002131,296.082377,-8656.879127,0.000000
4396.002456,370.102971,-8810.098227,-518.144159
4396.002780,296.082377,-8886.707777,-222.061783
4396.003104,444.123565,-9039.926876,-222.061783
4396.003429,296.082377,-8503.660028,-222.061783
4396.003753,518.144159,-8503.660028,-518.144159
4396.004078,444.123565,-8733.488677,-296.082377
4396.004402,666.185348,-8580.269578,-444.123565
4396.004727,296.082377,-8733.488677,-222.061783
4396.005051,74.020594,-8427.050478,-518.144159
4396.005374,296.082377,-8580.269578,-370.102971
4396.005698,370.102971,-8810.098227,-518.144159
4396.006022,148.041188,-8350.440928,74.020594
4396.006347,518.144159,-8503.660028,-444.123565
4396.006671,370.102971,-8656.879127,-222.061783
4396.006995,444.123565,-8503.660028,-444.123565
4396.007320,296.082377,-8810.098227,-518.144159
4396.007644,666.185348,-8580.269578,-666.185348
4396.007969,518.144159,-8733.488677,-518.144159
4396.008293,444.123565,-8350.440928,-666.185348
4396.008617,370.102971,-8580.269578,-222.061783
4396.008942,444.123565,-8273.831378,-296.082377
4396.009266,666.185348,-8427.050478,-518.144159
4396.009590,592.164754,-8503.660028,-592.164754
4396.009915,296.082377,-8427.050478,-296.082377
4396.010239,888.247130,-8580.269578,0.000000
4396.010563,444.123565,-8427.050478,-518.144159
4396.010888,370.102971,-8656.879127,-518.144159
4396.011212,222.061783,-8810.098227,-518.144159
4396.011536,296.082377,-8580.269578,-370.102971
4396.011861,296.082377,-8580.269578,-222.061783
4396.012185,370.102971,-8580.269578,-444.123565
4396.012510,444.123565,-8350.440928,-444.123565
4396.012834,518.144159,-8580.269578,-518.144159
4396.013158,592.164754,-9193.145976,-222.061783
4396.013483,444.123565,-8503.660028,-444.123565
4396.013807,444.123565,-8733.488677,-296.082377
4396.014131,296.082377,-8427.050478,-370.102971
4396.014456,518.144159,-8810.098227,-518.144159
4396.014780,444.123565,-9039.926876,-444.123565
4396.015104,222.061783,-8427.050478,-148.041188
4396.015429,444.123565,-8503.660028,-296.082377
4396.015753,296.082377,-8733.488677,-148.041188
4396.016077,444.123565,-8350.440928,-222.061783
4396.016402,148.041188,-8656.879127,-370.102971
4396.016726,222.061783,-8580.269578,74.020594
4396.017050,296.082377,-8886.707777,-296.082377
4396.017375,148.041188,-8580.269578,0.000000
4396.017699,74.020594,-8656.879127,-222.061783
4396.018024,222.061783,-8886.707777,-148.041188
4396.018348,148.041188,-8656.879127,0.000000
4396.018672,444.123565,-8580.269578,222.061783
4396.018997,74.020594,-8810.098227,0.000000
4396.019321,296.082377,-8810.098227,-296.082377
4396.019645,370.102971,-8886.707777,-222.061783
4396.019970,370.102971,-8810.098227,0.000000
4396.020294,444.123565,-8733.488677,0.000000
4396.020618,148.041188,-8733.488677,-148.041188
4396.020943,222.061783,-8580.269578,-296.082377
4396.021267,222.061783,-8580.269578,-222.061783
4396.021591,666.185348,-8580.269578,148.041188
4396.021916,518.144159,-8580.269578,-222.061783
4396.022240,444.123565,-8580.269578,-222.061783
4396.022565,296.082377,-8733.488677,-222.061783
4396.022889,444.123565,-7660.954980,-296.082377
4396.023213,592.164754,-8580.269578,-370.102971
4396.023538,518.144159,-8503.660028,-296.082377
4396.023862,518.144159,-8580.269578,-296.082377
4396.024186,518.144159,-8656.879127,-296.082377
4396.024511,444.123565,-8197.221829,-370.102971
4396.024835,518.144159,-8733.488677,-518.144159
4396.025159,592.164754,-8733.488677,-592.164754
4396.025484,592.164754,-8273.831378,-222.061783
4396.025808,370.102971,-8273.831378,-222.061783
4396.026132,666.185348,-8580.269578,-518.144159
4396.026457,444.123565,-8350.440928,-518.144159
4396.026781,518.144159,-8427.050478,-444.123565
4396.027106,740.205942,-8427.050478,-444.123565
4396.027430,518.144159,-8427.050478,-296.082377
4396.027754,592.164754,-8580.269578,-518.144159
4396.028079,592.164754,-8580.269578,-444.123565
4396.028403,666.185348,-8733.488677,-370.102971
4396.028727,740.205942,-8503.660028,-592.164754
4396.029052,444.123565,-8273.831378,-370.102971
4396.029376,370.102971,-8580.269578,-444.123565
4396.029700,296.082377,-8120.612279,-296.082377
4396.030025,592.164754,-9576.193725,-296.082377
4396.030349,592.164754,-8580.269578,-370.102971
4396.030673,370.102971,-8580.269578,-148.041188
4396.030998,444.123565,-8580.269578,-370.102971
4396.031322,518.144159,-8503.660028,-444.123565
4396.031646,444.123565,-8427.050478,-444.123565
4396.031971,592.164754,-8733.488677,-296.082377
4396.032295,518.144159,-8427.050478,0.000000
4396.032620,296.082377,-8503.660028,0.000000
4396.032944,-370.102971,-9193.145976,148.041188
4396.033268,0.000000,-8580.269578,-222.061783
4396.033593,74.020594,-8503.660028,-148.041188
4396.033917,296.082377,-8427.050478,-148.041188
4396.034241,148.041188,-8733.488677,74.020594
4396.034566,370.102971,-8733.488677,-148.041188
4396.034890,222.061783,-8580.269578,-222.061783
4396.035214,518.144159,-8733.488677,0.000000
4396.035539,296.082377,-8733.488677,-222.061783
4396.035863,296.082377,-8427.050478,-370.102971
4396.036187,74.020594,-8580.269578,-222.061783
4396.036512,0.000000,-8580.269578,-148.041188
4396.036836,222.061783,-8503.660028,-370.102971
4396.037161,148.041188,-8273.831378,-444.123565
4396.037485,370.102971,-8580.269578,-222.061783
4396.037809,148.041188,-8810.098227,0.000000
4396.038134,592.164754,-8886.707777,-222.061783
4396.038458,222.061783,-8044.002729,-296.082377
4396.038782,444.123565,-8580.269578,-444.123565
4396.039107,518.144159,-8810.098227,0.000000
4396.039431,370.102971,-8120.612279,0.000000
4396.039755,370.102971,-8733.488677,-296.082377
4396.040080,666.185348,-8656.879127,-74.020594
4396.040404,222.061783,-8580.269578,-148.041188
4396.040728,296.082377,-8427.050478,-370.102971
4396.041053,296.082377,-8350.440928,0.000000
4396.041377,444.123565,-8733.488677,-148.041188
4396.041702,518.144159,-8656.879127,0.000000
4396.042026,370.102971,-8503.660028,0.000000
4396.042350,666.185348,-8733.488677,-296.082377
4396.042675,518.144159,-8810.098227,0.000000
4396.042999,814.226536,-8427.050478,74.020594
4396.043323,370.102971,-8580.269578,0.000000
4396.043648,666.185348,-8656.879127,0.000000
4396.043972,370.102971,-8350.440928,-222.061783
4396.044296,592.164754,-8810.098227,-222.061783
4396.044621,370.102971,-8733.488677,0.000000
4396.044945,444.123565,-8733.488677,74.020594
4396.045269,444.123565,-9039.926876,74.020594
4396.045594,444.123565,-8810.098227,296.082377
4396.045918,666.185348,-8733.488677,0.000000
4396.046242,518.144159,-8580.269578,0.000000
4396.046567,518.144159,-8656.879127,0.000000
4396.046891,222.061783,-8733.488677,0.000000
4396.047216,74.020594,-8656.879127,0.000000
4396.047540,296.082377,-8810.098227,-222.061783
4396.047864,148.041188,-8733.488677,0.000000
4396.048189,148.041188,-8656.879127,148.041188
4396.048513,0.000000,-8656.879127,370.102971
4396.048837,222.061783,-8503.660028,0.000000
4396.049162,296.082377,-8733.488677,-222.061783
4396.049486,518.144159,-8580.269578,0.000000
4396.049810,370.102971,-8580.269578,-296.082377
4396.050135,370.102971,-8733.488677,74.020594
4396.050459,222.061783,-8656.879127,0.000000
4396.050783,296.082377,-8733.488677,0.000000
4396.051108,0.000000,-8273.831378,-148.041188
4396.051432,0.000000,-8810.098227,-222.061783
4396.051757,148.041188,-8427.050478,-222.061783
4396.052081,296.082377,-8503.660028,-148.041188
4396.052405,518.144159,-8197.221829,-296.082377
4396.052730,666.185348,-8580.269578,-666.185348
4396.053054,518.144159,-8503.660028,-222.061783
4396.053378,74.020594,-8120.612279,0.000000
4396.053703,296.082377,-8580.269578,0.000000
4396.054027,148.041188,-9116.536426,-444.123565
4396.054351,370.102971,-8427.050478,-148.041188
4396.054676,296.082377,-8656.879127,-666.185348
4396.055000,222.061783,-8656.879127,-148.041188
4396.055324,370.102971,-8273.831378,-370.102971
4396.055649,666.185348,-8503.660028,-444.123565
4396.055973,370.102971,-8350.440928,-296.082377
4396.056298,518.144159,-8656.879127,-444.123565
4396.056622,592.164754,-8503.660028,-296.082377
4396.056946,666.185348,-8733.488677,-370.102971
4396.057271,518.144159,-8503.660028,-222.061783
4396.057595,592.164754,-8503.660028,-370.102971
4396.057919,592.164754,-8580.269578,-296.082377
4396.058244,666.185348,-9193.145976,-444.123565
4396.058568,740.205942,-8503.660028,-370.102971
4396.058892,666.185348,-8810.098227,-222.061783
4396.059217,518.144159,-8503.660028,-370.102971
4396.059541,592.164754,-8580.269578,-370.102971
4396.059865,740.205942,-8810.098227,-370.102971
4396.060190,370.102971,-8350.440928,-222.061783
4396.060514,74.020594,-8120.612279,-370.102971
4396.060838,222.061783,-8810.098227,-370.102971
4396.061163,518.144159,-9039.926876,0.000000
4396.061487,518.144159,-8963.317327,-444.123565
4396.061812,518.144159,-8656.879127,-518.144159
4396.062136,592.164754,-8656.879127,-222.061783
4396.062460,518.144159,-8733.488677,-370.102971
4396.062785,444.123565,-8580.269578,0.000000
4396.063109,444.123565,-8580.269578,-666.185348
4396.063433,444.123565,-8886.707777,-222.061783
4396.063758,370.102971,-8427.050478,-148.041188
4396.064082,74.020594,-9116.536426,148.041188
4396.064406,222.061783,-8733.488677,-370.102971
4396.064731,444.123565,-8503.660028,-148.041188
4396.065055,296.082377,-8810.098227,-296.082377
4396.065379,0.000000,-9116.536426,666.185348
4396.065704,296.082377,-8810.098227,0.000000
4396.066028,370.102971,-8656.879127,-222.061783
4396.066353,296.082377,-8503.660028,-296.082377
4396.066677,74.020594,-8963.317327,0.000000
4396.067001,148.041188,-8810.098227,-148.041188
4396.067326,296.082377,-8350.440928,0.000000
4396.067650,0.000000,-8733.488677,-222.061783
4396.067974,444.123565,-8810.098227,0.000000
4396.068299,296.082377,-7890.783629,148.041188
4396.068623,444.123565,-8656.879127,0.000000
4396.068947,444.123565,-8656.879127,-222.061783
4396.069272,222.061783,-8886.707777,0.000000
4396.069596,444.123565,-9039.926876,0.000000
4396.069920,0.000000,-8656.879127,-222.061783
4396.070245,74.020594,-9039.926876,-444.123565
4396.070569,222.061783,-8503.660028,-222.061783
4396.070894,296.082377,-8886.707777,-222.061783
4396.071218,518.144159,-8580.269578,-370.102971
4396.071542,518.144159,-8733.488677,0.000000
4396.071867,814.226536,-8733.488677,-370.102971
4396.072191,592.164754,-8656.879127,-370.102971
4396.072515,222.061783,-8656.879127,148.041188
4396.072840,518.144159,-8656.879127,-444.123565
4396.073164,592.164754,-8503.660028,-296.082377
4396.073488,222.061783,-8580.269578,-296.082377
4396.073813,444.123565,-8503.660028,-296.082377
4396.074137,592.164754,-8580.269578,0.000000
4396.074461,370.102971,-8656.879127,-222.061783
4396.074786,592.164754,-8656.879127,-222.061783
4396.075110,666.185348,-8503.660028,-370.102971
4396.075434,518.144159,-8503.660028,0.000000
4396.075759,518.144159,-8427.050478,-444.123565
4396.076083,666.185348,-8503.660028,-518.144159
4396.076408,592.164754,-8733.488677,-444.123565
4396.076732,370.102971,-7890.783629,0.000000
4396.077056,666.185348,-8810.098227,-740.205942
4396.077381,518.144159,-8656.879127,-592.164754
4396.077705,592.164754,-8350.440928,-666.185348
4396.078029,518.144159,-8733.488677,-666.185348
4396.078354,444.123565,-8350.440928,-518.144159
4396.078678,592.164754,-8580.269578,-592.164754
4396.079002,666.185348,-8656.879127,-888.247130
4396.079327,444.123565,-8810.098227,-518.144159
4396.079651,370.102971,-8273.831378,-444.123565
4396.079975,370.102971,-8733.488677,-444.123565
4396.080300,370.102971,-8656.879127,-814.226536
4396.080624,370.102971,-8733.488677,-666.185348
4396.080949,888.247130,-8733.488677,-740.205942
4396.081273,518.144159,-8427.050478,-592.164754
4396.081597,222.061783,-8580.269578,-814.226536
4396.081922,370.102971,-8656.879127,-962.267725
4396.082246,370.102971,-8580.269578,-888.247130
4396.082570,592.164754,-8733.488677,-1036.288319
4396.082895,296.082377,-8580.269578,-888.247130
4396.083219,666.185348,-8733.488677,-740.205942
4396.083543,518.144159,-8810.098227,-666.185348
4396.083868,1036.288319,-9039.926876,-888.247130
4396.084192,518.144159,-8886.707777,-740.205942
4396.084516,666.185348,-8350.440928,-592.164754
4396.084841,518.144159,-8656.879127,-888.247130
4396.085165,592.164754,-8656.879127,-592.164754
4396.085490,222.061783,-8427.050478,-740.205942
4396.085814,222.061783,-8810.098227,-592.164754
4396.086138,444.123565,-8273.831378,-740.205942
4396.086463,444.123565,-8886.707777,-444.123565
4396.086787,592.164754,-8503.660028,-666.185348
4396.087111,666.185348,-8503.660028,-444.123565
4396.087436,444.123565,-8580.269578,-518.144159
4396.087760,814.226536,-8580.269578,-592.164754
4396.088084,666.185348,-8120.612279,0.000000
4396.088409,444.123565,-8656.879127,-444.123565
4396.088733,444.123565,-8580.269578,-666.185348
4396.089057,518.144159,-8580.269578,-592.164754
4396.089382,518.144159,-7660.954980,-370.102971
4396.089706,296.082377,-8350.440928,0.000000
4396.090031,444.123565,-8350.440928,0.000000
4396.090355,666.185348,-8580.269578,-444.123565
4396.090679,666.185348,-8427.050478,-444.123565
4396.091004,518.144159,-8427.050478,-370.102971
4396.091328,666.185348,-8580.269578,-444.123565
4396.091652,296.082377,-8350.440928,-444.123565
4396.091977,370.102971,-8810.098227,-148.041188
4396.092301,222.061783,-8120.612279,0.000000
4396.092625,370.102971,-8580.269578,-296.082377
4396.092950,370.102971,-8580.269578,-370.102971
4396.093274,444.123565,-8580.269578,0.000000
4396.093598,592.164754,-8503.660028,-370.102971
4396.093923,518.144159,-8656.879127,-370.102971
4396.094247,518.144159,-8580.269578,-222.061783
4396.094571,444.123565,-8886.707777,-370.102971
4396.094896,518.144159,-8580.269578,-370.102971
4396.095220,296.082377,-8580.269578,-518.144159
4396.095545,148.041188,-8580.269578,-296.082377
4396.095869,296.082377,-8580.269578,-518.144159
4396.096193,148.041188,-8656.879127,-518.144159
4396.096518,296.082377,-8273.831378,-222.061783
4396.096842,518.144159,-8656.879127,-518.144159
4396.097166,518.144159,-8733.488677,-444.123565
4396.097491,518.144159,-8503.660028,-370.102971
4396.097815,296.082377,-8810.098227,-370.102971
4396.098139,518.144159,-8733.488677,-444.123565
4396.098464,222.061783,-8427.050478,-444.123565
4396.098788,74.020594,-8580.269578,-740.205942
4396.099112,74.020594,-8810.098227,-592.164754
4396.099437,370.102971,-8197.221829,-814.226536
4396.099761,222.061783,-8886.707777,-444.123565
4396.100086,518.144159,-8580.269578,-518.144159
4396.100410,74.020594,-8810.098227,-370.102971
4396.100734,148.041188,-8350.440928,-518.144159
4396.101059,296.082377,-8580.269578,-592.164754
4396.101383,148.041188,-8503.660028,-740.205942
4396.101707,222.061783,-8733.488677,-518.144159
4396.102032,370.102971,-8273.831378,-592.164754
4396.102356,370.102971,-8503.660028,-444.123565
4396.102680,518.144159,-8580.269578,-666.185348
4396.103005,370.102971,-8503.660028,-592.164754
4396.103329,518.144159,-8503.660028,-888.247130
4396.103653,666.185348,-8120.612279,-518.144159
4396.103978,592.164754,-8427.050478,-518.144159
4396.104302,592.164754,-8580.269578,-666.185348
4396.104627,296.082377,-8427.050478,-666.185348
4396.104951,518.144159,-8427.050478,-666.185348
4396.105275,518.144159,-8580.269578,-592.164754
4396.105600,518.144159,-8503.660028,-444.123565
4396.105924,444.123565,-8273.831378,-592.164754
4396.106248,666.185348,-8197.221829,-740.205942
4396.106572,592.164754,-8656.879127,-444.123565
4396.106897,518.144159,-8656.879127,-592.164754
4396.107221,296.082377,-8580.269578,-592.164754
4396.107545,444.123565,-8427.050478,-666.185348
4396.107870,0.000000,-9116.536426,-148.041188
4396.108194,518.144159,-8580.269578,-296.082377
4396.108518,666.185348,-8580.269578,-666.185348
4396.108843,370.102971,-8350.440928,-222.061783
4396.109167,592.164754,-8503.660028,-222.061783
4396.109491,370.102971,-8733.488677,-444.123565
4396.109816,296.082377,-8273.831378,-74.020594
4396.110140,518.144159,-8656.879127,-518.144159
4396.110464,592.164754,-8580.269578,-592.164754
4396.110788,592.164754,-8503.660028,-370.102971
4396.111113,222.061783,-8427.050478,-296.082377
4396.111437,296.082377,-8656.879127,-74.020594
4396.111761,370.102971,-8350.440928,-222.061783
4396.112086,518.144159,-9269.755526,0.000000
4396.112410,370.102971,-8350.440928,-296.082377
4396.112734,444.123565,-8656.879127,0.000000
4396.113059,74.020594,-8733.488677,-148.041188
4396.113383,592.164754,-8427.050478,-222.061783
4396.113707,444.123565,-8963.317327,-518.144159
4396.114032,222.061783,-8580.269578,-222.061783
4396.114356,148.041188,-8656.879127,0.000000
4396.114680,222.061783,-8733.488677,0.000000
4396.115004,518.144159,-9193.145976,-518.144159
4396.115329,222.061783,-8656.879127,-222.061783
4396.115653,296.082377,-8656.879127,-296.082377
4396.115977,592.164754,-8580.269578,0.000000
4396.116302,444.123565,-9039.926876,-222.061783
4396.116626,370.102971,-8733.488677,-296.082377
4396.116950,592.164754,-8197.221829,-296.082377
4396.117275,444.123565,-8580.269578,-518.144159
4396.117599,296.082377,-8427.050478,-148.041188
4396.117923,74.020594,-8810.098227,-222.061783
4396.118248,370.102971,-8963.317327,-296.082377
4396.118572,370.102971,-8580.269578,-370.102971
4396.118896,222.061783,-8656.879127,-370.102971
4396.119220,962.267725,-8963.317327,0.000000
4396.119545,370.102971,-8273.831378,0.000000
4396.119869,444.123565,-8733.488677,-296.082377
4396.120193,370.102971,-8427.050478,-370.102971
4396.120518,444.123565,-8733.488677,-296.082377
4396.120842,592.164754,-8580.269578,-370.102971
4396.121166,444.123565,-8656.879127,-148.041188
4396.121491,296.082377,-8733.488677,-296.082377
4396.121815,592.164754,-8580.269578,-444.123565
4396.122139,222.061783,-8580.269578,-666.185348
4396.122464,518.144159,-8886.707777,-296.082377
4396.122788,666.185348,-8580.269578,-444.123565
4396.123112,666.185348,-8427.050478,-666.185348
4396.123436,148.041188,-8810.098227,-888.247130
4396.123761,370.102971,-8350.440928,-444.123565
4396.124085,518.144159,-8886.707777,-518.144159
4396.124409,592.164754,-8733.488677,-592.164754
4396.124734,518.144159,-8733.488677,-296.082377
4396.125058,296.082377,-8503.660028,-296.082377
4396.125382,444.123565,-8580.269578,-222.061783
4396.125707,740.205942,-8580.269578,-740.205942
4396.126031,518.144159,-8810.098227,-296.082377
4396.126355,444.123565,-7737.564530,-592.164754
4396.126680,444.123565,-8580.269578,-444.123565
4396.127004,444.123565,-8503.660028,-592.164754
4396.127328,518.144159,-8427.050478,-444.123565
4396.127652,518.144159,-8580.269578,-814.226536
4396.127977,296.082377,-8427.050478,-444.123565
4396.128301,370.102971,-8886.707777,-148.041188
4396.128625,370.102971,-8503.660028,-74.020594
4396.128950,296.082377,-8580.269578,-296.082377
4396.129274,222.061783,-8810.098227,-592.164754
4396.129598,444.123565,-8503.660028,-296.082377
4396.129923,0.000000,-8350.440928,-222.061783
4396.130247,296.082377,-8656.879127,-370.102971
4396.130571,0.000000,-8656.879127,0.000000
4396.130896,296.082377,-8733.488677,-370.102971
4396.131220,518.144159,-8503.660028,-666.185348
4396.131544,222.061783,-8810.098227,-296.082377
4396.131868,222.061783,-8580.269578,0.000000
4396.132193,444.123565,-8810.098227,-370.102971
4396.132517,444.123565,-8656.879127,-444.123565
4396.132841,444.123565,-8656.879127,-370.102971
4396.133166,592.164754,-8580.269578,-148.041188
4396.133490,222.061783,-8427.050478,-148.041188
4396.133814,74.020594,-8503.660028,-148.041188
4396.134139,296.082377,-8503.660028,-296.082377
4396.134463,518.144159,-8810.098227,-444.123565
4396.134787,74.020594,-8656.879127,-444.123565
4396.135112,444.123565,-8656.879127,-296.082377
4396.135436,518.144159,-8427.050478,-296.082377
4396.135760,370.102971,-8580.269578,0.000000
4396.136084,444.123565,-8503.660028,0.000000
4396.136409,814.226536,-8963.317327,-296.082377
4396.136733,666.185348,-8350.440928,-148.041188
4396.137057,518.144159,-8656.879127,-148.041188
4396.137382,444.123565,-8580.269578,-370.102971
4396.137706,740.205942,-8656.879127,-148.041188
4396.138030,518.144159,-8656.879127,0.000000
4396.138355,592.164754,-8810.098227,0.000000
4396.138679,296.082377,-8427.050478,74.020594
4396.139003,666.185348,-9346.365076,148.041188
4396.139328,370.102971,-8427.050478,74.020594
4396.139652,518.144159,-8810.098227,74.020594
4396.139976,296.082377,-8656.879127,0.000000
4396.140300,370.102971,-8580.269578,0.000000
4396.140625,222.061783,-8733.488677,-296.082377
4396.140949,518.144159,-8580.269578,0.000000
4396.141273,518.144159,-8810.098227,-222.061783
4396.141598,666.185348,-8580.269578,-222.061783
4396.141922,888.247130,-8580.269578,0.000000
4396.142246,222.061783,-8503.660028,0.000000
4396.142571,444.123565,-8580.269578,148.041188
4396.142895,518.144159,-8427.050478,0.000000
4396.143219,1332.370696,-9039.926876,-444.123565
4396.143543,666.185348,-8656.879127,0.000000
4396.143868,518.144159,-8580.269578,0.000000
4396.144192,444.123565,-8810.098227,0.000000
4396.144516,222.061783,-8427.050478,-370.102971
4396.144841,370.102971,-8886.707777,0.000000
4396.145165,0.000000,-8733.488677,74.020594
4396.145489,222.061783,-8886.707777,148.041188
4396.145814,148.041188,-8580.269578,0.000000
4396.146138,814.226536,-9193.145976,0.000000
4396.146462,370.102971,-8656.879127,-148.041188
4396.146787,148.041188,-8580.269578,-148.041188
4396.147111,370.102971,-8503.660028,-296.082377
4396.147435,444.123565,-8503.660028,0.000000
4396.147759,74.020594,-8733.488677,-296.082377
4396.148084,518.144159,-8656.879127,0.000000
4396.148408,296.082377,-8656.879127,-148.041188
4396.148732,296.082377,-8733.488677,-370.102971
4396.149057,518.144159,-8733.488677,-148.041188
4396.149381,370.102971,-8810.098227,-74.020594
4396.149705,592.164754,-8503.660028,-370.102971
4396.150030,444.123565,-8350.440928,-740.205942
4396.150354,888.247130,-8580.269578,-222.061783
4396.150678,518.144159,-8350.440928,-518.144159
4396.151003,222.061783,-8580.269578,-592.164754
4396.151327,222.061783,-8810.098227,-592.164754
4396.151651,370.102971,-8656.879127,0.000000
4396.151975,518.144159,-8580.269578,-518.144159
4396.152300,666.185348,-8503.660028,-518.144159
4396.152624,444.123565,-8273.831378,-222.061783
4396.152948,740.205942,-8503.660028,-444.123565
4396.153273,518.144159,-8810.098227,-666.185348
4396.153597,518.144159,-8503.660028,-518.144159
4396.153921,740.205942,-8350.440928,-370.102971
4396.154246,592.164754,-7890.783629,-148.041188
4396.154570,666.185348,-9039.926876,-592.164754
4396.154894,814.226536,-8503.660028,-740.205942
4396.155219,814.226536,-8503.660028,-592.164754
4396.155543,814.226536,-8656.879127,-518.144159
4396.155867,740.205942,-8580.269578,-592.164754
4396.156191,740.205942,-8733.488677,-370.102971
4396.156516,296.082377,-8656.879127,-370.102971
4396.156840,370.102971,-8503.660028,-296.082377
4396.157164,592.164754,-8503.660028,-518.144159
4396.157489,888.247130,-8427.050478,-666.185348
4396.157813,518.144159,-8273.831378,-370.102971
4396.158137,370.102971,-8503.660028,-370.102971
4396.158462,740.205942,-8810.098227,-296.082377
4396.158786,814.226536,-8810.098227,-518.144159
4396.159110,888.247130,-8656.879127,-296.082377
4396.159435,370.102971,-8656.879127,-296.082377
4396.159759,222.061783,-8886.707777,-370.102971
4396.160083,222.061783,-8580.269578,-296.082377
4396.160407,222.061783,-8810.098227,-370.102971
4396.160732,148.041188,-8503.660028,-592.164754
4396.161056,370.102971,-8580.269578,0.000000
4396.161380,74.020594,-8733.488677,0.000000
4396.161705,518.144159,-8656.879127,0.000000
4396.162029,370.102971,-8427.050478,-444.123565
4396.162353,222.061783,-8886.707777,-444.123565
4396.162678,296.082377,-8656.879127,0.000000
4396.163002,148.041188,-8273.831378,0.000000
4396.163326,0.000000,-8963.317327,-74.020594
4396.163651,222.061783,-8656.879127,-444.123565
4396.163975,296.082377,-8810.098227,0.000000
4396.164299,296.082377,-8886.707777,0.000000
4396.164623,444.123565,-8733.488677,0.000000
4396.164948,222.061783,-8733.488677,-222.061783
4396.165272,222.061783,-8656.879127,-222.061783
4396.165596,518.144159,-8580.269578,-148.041188
4396.165921,444.123565,-8580.269578,-370.102971
4396.166245,592.164754,-8273.831378,0.000000
4396.166569,444.123565,-8580.269578,-74.020594
4396.166894,370.102971,-8350.440928,-148.041188
4396.167218,296.082377,-8427.050478,0.000000
4396.167542,518.144159,-8810.098227,-222.061783
4396.167867,296.082377,-8427.050478,0.000000
4396.168191,444.123565,-8427.050478,0.000000
4396.168515,222.061783,-8580.269578,-148.041188
4396.168839,666.185348,-8427.050478,-296.082377
4396.169164,592.164754,-8733.488677,-444.123565
4396.169488,666.185348,-8656.879127,-444.123565
4396.169812,592.164754,-8503.660028,0.000000
4396.170137,592.164754,-9193.145976,-370.102971
4396.170461,518.144159,-8273.831378,-296.082377
4396.170785,444.123565,-8503.660028,-370.102971
4396.171110,518.144159,-8886.707777,0.000000
4396.171434,518.144159,-8733.488677,0.000000
4396.171758,592.164754,-8580.269578,-296.082377
4396.172083,444.123565,-8580.269578,-296.082377
4396.172407,740.205942,-8580.269578,-370.102971
4396.172731,518.144159,-8733.488677,-592.164754
4396.173055,444.123565,-8580.269578,0.000000
4396.173380,444.123565,-8656.879127,-296.082377
4396.173704,666.185348,-8656.879127,-518.144159
4396.174028,444.123565,-8580.269578,-296.082377
4396.174353,666.185348,-9729.412825,-222.061783
4396.174677,296.082377,-8886.707777,-148.041188
4396.175001,444.123565,-8503.660028,74.020594
4396.175326,296.082377,-8580.269578,-296.082377
4396.175650,444.123565,-8656.879127,-222.061783
4396.175974,592.164754,-8733.488677,-296.082377
4396.176299,444.123565,-8350.440928,-666.185348
4396.176623,222.061783,-8810.098227,-444.123565
4396.176947,0.000000,-8427.050478,-370.102971
4396.177271,0.000000,-8810.098227,-222.061783
4396.177596,0.000000,-8427.050478,-296.082377
4396.177920,0.000000,-8656.879127,-518.144159
4396.178244,370.102971,-8733.488677,-370.102971
4396.178569,518.144159,-9269.755526,-444.123565
4396.178893,222.061783,-8733.488677,-592.164754
4396.179217,296.082377,-8503.660028,-296.082377
4396.179542,296.082377,-8350.440928,-444.123565
4396.179866,296.082377,-8733.488677,-370.102971
4396.180190,222.061783,-8656.879127,-296.082377
4396.180515,74.020594,-8350.440928,-296.082377
4396.180839,148.041188,-8427.050478,-148.041188
4396.181163,74.020594,-8580.269578,-370.102971
4396.181487,370.102971,-8656.879127,0.000000
4396.181812,592.164754,-8350.440928,-592.164754
4396.182136,370.102971,-8656.879127,-370.102971
4396.182460,444.123565,-8503.660028,-740.205942
4396.182785,518.144159,-8963.317327,-296.082377
4396.183109,444.123565,-8350.440928,-296.082377
4396.183433,444.123565,-8503.660028,-592.164754
4396.183758,592.164754,-8503.660028,-444.123565
4396.184082,370.102971,-8580.269578,-370.102971
4396.184406,222.061783,-8427.050478,-444.123565
4396.184730,518.144159,-8503.660028,-296.082377
4396.185055,518.144159,-8580.269578,-296.082377
4396.185379,666.185348,-8273.831378,-370.102971
4396.185703,592.164754,-8810.098227,-666.185348
4396.186028,296.082377,-8810.098227,-370.102971
4396.186352,518.144159,-8656.879127,-370.102971
4396.186676,592.164754,-8733.488677,-518.144159
4396.187001,592.164754,-9729.412825,0.000000
4396.187325,740.205942,-8427.050478,-444.123565
4396.187649,666.185348,-8656.879127,-222.061783
4396.187974,444.123565,-8580.269578,-222.061783
4396.188298,518.144159,-8503.660028,-518.144159
4396.188622,888.247130,-8733.488677,-370.102971
4396.188946,444.123565,-8503.660028,-370.102971
4396.189271,370.102971,-8656.879127,-296.082377
4396.189595,592.164754,-8580.269578,-370.102971
4396.189919,592.164754,-9269.755526,-592.164754
4396.190244,592.164754,-8733.488677,-444.123565
4396.190568,370.102971,-8580.269578,-370.102971
4396.190892,222.061783,-8656.879127,-444.123565
4396.191217,518.144159,-9039.926876,-370.102971
4396.191541,444.123565,-8350.440928,-518.144159
4396.191865,592.164754,-8886.707777,-444.123565
4396.192190,444.123565,-8580.269578,-444.123565
4396.192514,592.164754,-8580.269578,-518.144159
4396.192838,148.041188,-9116.536426,-296.082377
4396.193162,370.102971,-8580.269578,-592.164754
4396.193487,296.082377,-8427.050478,-814.226536
4396.193811,296.082377,-8733.488677,-592.164754
4396.194135,370.102971,-9269.755526,0.000000
4396.194460,0.000000,-8656.879127,-370.102971
4396.194784,148.041188,-8886.707777,-370.102971
4396.195108,222.061783,-8733.488677,-518.144159
4396.195433,296.082377,-8886.707777,-592.164754
4396.195757,444.123565,-8580.269578,-592.164754
4396.196081,370.102971,-8656.879127,-444.123565
4396.196406,370.102971,-8886.707777,-666.185348
4396.196730,370.102971,-8580.269578,-592.164754
4396.197054,74.020594,-8273.831378,-444.123565
4396.197378,222.061783,-8656.879127,-518.144159
4396.197703,296.082377,-8197.221829,-444.123565
4396.198027,296.082377,-8886.707777,-444.123565
4396.198351,444.123565,-9116.536426,-888.247130
4396.198676,518.144159,-8503.660028,-592.164754
4396.199000,518.144159,-8580.269578,-592.164754
4396.199324,296.082377,-8120.612279,-222.061783
4396.199649,370.102971,-8273.831378,-666.185348
4396.199973,-222.061783,-8656.879127,-666.185348
4396.200297,518.144159,-8580.269578,-444.123565
4396.200622,222.061783,-8580.269578,-444.123565
4396.200946,296.082377,-8427.050478,-518.144159
4396.201270,222.061783,-8580.269578,-222.061783
4396.201594,222.061783,-8580.269578,-370.102971
4396.201919,666.185348,-8503.660028,-740.205942
4396.202243,740.205942,-8503.660028,-518.144159
4396.202567,814.226536,-9039.926876,-444.123565
4396.202892,592.164754,-8120.612279,-518.144159
4396.203216,592.164754,-8350.440928,-296.082377
4396.203540,592.164754,-8503.660028,-444.123565
4396.203865,518.144159,-8273.831378,-370.102971
4396.204189,370.102971,-8273.831378,-370.102971
4396.204513,592.164754,-8427.050478,-370.102971
4396.204838,666.185348,-8580.269578,-222.061783
4396.205162,666.185348,-8350.440928,-518.144159
4396.205486,148.041188,-8273.831378,-592.164754
4396.205810,444.123565,-8810.098227,-444.123565
4396.206135,592.164754,-8503.660028,-370.102971
4396.206459,370.102971,-8273.831378,-370.102971
4396.206784,370.102971,-8886.707777,-444.123565
4396.207108,370.102971,-8733.488677,-222.061783
4396.207432,0.000000,-8656.879127,-444.123565
4396.207757,370.102971,-8503.660028,-666.185348
4396.208081,444.123565,-8580.269578,-296.082377
4396.208406,518.144159,-8733.488677,-148.041188
4396.208730,666.185348,-8580.269578,-444.123565
4396.209054,370.102971,-8503.660028,-444.123565
4396.209379,592.164754,-9039.926876,-888.247130
4396.209703,148.041188,-8656.879127,296.082377
4396.210028,222.061783,-8656.879127,-370.102971
4396.210352,74.020594,-8886.707777,-296.082377
4396.210676,148.041188,-8580.269578,-518.144159
4396.211001,444.123565,-8810.098227,-444.123565
4396.211325,222.061783,-8886.707777,-370.102971
4396.211650,444.123565,-8810.098227,-222.061783
4396.211974,370.102971,-8810.098227,-296.082377
4396.212299,222.061783,-8580.269578,-222.061783
4396.212623,222.061783,-8350.440928,0.000000
4396.212947,740.205942,-8656.879127,-518.144159
4396.213272,518.144159,-8810.098227,-222.061783
4396.213596,0.000000,-8656.879127,-296.082377
4396.213921,0.000000,-8503.660028,0.000000
4396.214245,296.082377,-8733.488677,-370.102971
4396.214569,370.102971,-8810.098227,-296.082377
4396.214894,518.144159,-8810.098227,-148.041188
4396.215218,296.082377,-8733.488677,-296.082377
4396.215543,592.164754,-8656.879127,-222.061783
4396.215867,444.123565,-8503.660028,-296.082377
4396.216191,444.123565,-8886.707777,-148.041188
4396.216516,444.123565,-8427.050478,-444.123565
4396.216840,1110.308913,-8503.660028,-518.144159
4396.217165,444.123565,-8810.098227,-518.144159
4396.217489,592.164754,-8427.050478,-518.144159
4396.217813,518.144159,-8656.879127,-370.102971
4396.218138,592.164754,-8656.879127,-222.061783
4396.218462,444.123565,-8810.098227,0.000000
4396.218787,592.164754,-8350.440928,-296.082377
4396.219111,666.185348,-8656.879127,-296.082377
4396.219435,666.185348,-8273.831378,-296.082377
4396.219760,444.123565,-8273.831378,0.000000
4396.220084,518.144159,-8350.440928,-370.102971
4396.220409,370.102971,-8427.050478,-222.061783
4396.220733,370.102971,-8656.879127,-518.144159
4396.221058,370.102971,-7890.783629,-222.061783
4396.221382,444.123565,-8656.879127,-518.144159
4396.221706,444.123565,-8273.831378,-444.123565
4396.222031,444.123565,-8427.050478,-222.061783
4396.222355,444.123565,-8580.269578,148.041188
4396.222680,222.061783,-8427.050478,-74.020594
4396.223004,370.102971,-8427.050478,-592.164754
4396.223328,518.144159,-8733.488677,-592.164754
4396.223653,518.144159,-8350.440928,-444.123565
4396.223977,518.144159,-8427.050478,-222.061783
4396.224302,222.061783,-8733.488677,-370.102971
4396.224626,296.082377,-8580.269578,-444.123565
4396.224950,222.061783,-8656.879127,-444.123565
4396.225275,592.164754,-7967.393179,-296.082377
4396.225599,444.123565,-8810.098227,-370.102971
4396.225924,518.144159,-8503.660028,-666.185348
4396.226248,296.082377,-8733.488677,-444.123565
4396.226572,222.061783,-8733.488677,-962.267725
4396.226897,444.123565,-8963.317327,-814.226536
4396.227221,296.082377,-8427.050478,-518.144159
4396.227546,148.041188,-8733.488677,-592.164754
4396.227870,74.020594,-8580.269578,-666.185348
4396.228194,814.226536,-8810.098227,-592.164754
4396.228519,518.144159,-8733.488677,-814.226536
4396.228843,518.144159,-8733.488677,-888.247130
4396.229168,370.102971,-8580.269578,-814.226536
4396.229492,888.247130,-8427.050478,0.000000
4396.229817,444.123565,-8427.050478,-740.205942
4396.230141,296.082377,-9269.755526,-1036.288319
4396.230465,444.123565,-8580.269578,-518.144159
4396.230790,444.123565,-8733.488677,-370.102971
4396.231114,518.144159,-8810.098227,-518.144159
4396.231439,444.123565,-8350.440928,-518.144159
4396.231763,518.144159,-8427.050478,-592.164754
4396.232087,592.164754,-8580.269578,-370.102971
4396.232412,962.267725,-8733.488677,0.000000
4396.232736,666.185348,-8733.488677,-370.102971
4396.233061,518.144159,-8656.879127,-370.102971
4396.233385,518.144159,-8733.488677,-222.061783
4396.233709,592.164754,-8963.317327,-222.061783
4396.234034,592.164754,-8656.879127,0.000000
4396.234358,518.144159,-8503.660028,-296.082377
4396.234683,444.123565,-8580.269578,0.000000
4396.235007,518.144159,-8503.660028,-296.082377
4396.235331,666.185348,-8656.879127,0.000000
4396.235656,814.226536,-8580.269578,0.000000
4396.235980,444.123565,-8427.050478,0.000000
4396.236305,592.164754,-8733.488677,-148.041188
4396.236629,444.123565,-8427.050478,0.000000
4396.236954,518.144159,-8656.879127,0.000000
4396.237278,592.164754,-8733.488677,-148.041188
4396.237602,518.144159,-8503.660028,0.000000
4396.237927,444.123565,-8810.098227,74.020594
4396.238251,592.164754,-8197.221829,-222.061783
4396.238576,592.164754,-8350.440928,0.000000
4396.238900,592.164754,-8503.660028,-148.041188
4396.239224,444.123565,-8656.879127,148.041188
4396.239549,296.082377,-8503.660028,-296.082377
4396.239873,296.082377,-8656.879127,0.000000
4396.240198,148.041188,-8120.612279,-74.020594
4396.240522,296.082377,-8733.488677,0.000000
4396.240846,518.144159,-9116.536426,0.000000
4396.241171,370.102971,-8273.831378,444.123565
4396.241495,222.061783,-8963.317327,0.000000
4396.241820,222.061783,-8580.269578,74.020594
4396.242144,222.061783,-8733.488677,0.000000
4396.242468,296.082377,-8580.269578,-222.061783
4396.242793,370.102971,-8656.879127,0.000000
4396.243117,0.000000,-8733.488677,-74.020594
4396.243442,296.082377,-8580.269578,-148.041188
4396.243766,0.000000,-8580.269578,222.061783
4396.244090,370.102971,-8963.317327,-148.041188
4396.244415,444.123565,-8427.050478,-296.082377
4396.244739,444.123565,-8503.660028,-370.102971
4396.245064,296.082377,-9193.145976,-296.082377
4396.245388,296.082377,-8580.269578,-444.123565
4396.245713,444.123565,-8580.269578,-444.123565
4396.246037,0.000000,-8580.269578,-444.123565
4396.246361,296.082377,-8503.660028,-518.144159
4396.246686,222.061783,-8580.269578,-296.082377
4396.247010,0.000000,-8656.879127,-444.123565
4396.247335,444.123565,-8733.488677,-444.123565
4396.247659,444.123565,-8580.269578,-518.144159
4396.247983,592.164754,-8044.002729,0.000000
4396.248308,444.123565,-8656.879127,-296.082377
4396.248632,444.123565,-8503.660028,-518.144159
4396.248957,592.164754,-8503.660028,-592.164754
4396.249281,592.164754,-8886.707777,-1110.308913
4396.249605,518.144159,-8733.488677,-740.205942
4396.249930,518.144159,-8580.269578,-518.144159
4396.250254,444.123565,-8733.488677,-518.144159
4396.250579,370.102971,-8427.050478,-370.102971
4396.250903,592.164754,-8810.098227,-370.102971
4396.251227,666.185348,-8733.488677,-370.102971
4396.251552,740.205942,-8273.831378,-518.144159
4396.251876,592.164754,-8656.879127,-370.102971
4396.252201,814.226536,-8810.098227,-370.102971
4396.252525,592.164754,-8580.269578,-370.102971
4396.252849,666.185348,-8656.879127,-592.164754
4396.253174,518.144159,-8503.660028,-296.082377
4396.253498,592.164754,-8656.879127,-222.061783
4396.253823,518.144159,-8810.098227,-296.082377
4396.254147,444.123565,-8656.879127,-444.123565
4396.254472,370.102971,-9116.536426,-370.102971
4396.254796,592.164754,-8656.879127,0.000000
4396.255120,444.123565,-8810.098227,-222.061783
4396.255445,296.082377,-8886.707777,-296.082377
4396.255769,370.102971,-8656.879127,-222.061783
4396.256094,518.144159,-8733.488677,-370.102971
4396.256418,148.041188,-9269.755526,370.102971
4396.256742,222.061783,-8580.269578,-222.061783
4396.257067,222.061783,-8733.488677,0.000000
4396.257391,0.000000,-8733.488677,0.000000
4396.257716,74.020594,-9269.755526,0.000000
4396.258040,74.020594,-8810.098227,-296.082377
4396.258364,370.102971,-8733.488677,0.000000
4396.258689,148.041188,-8503.660028,-148.041188
4396.259013,0.000000,-8656.879127,-148.041188
4396.259338,0.000000,-8503.660028,0.000000
4396.259662,222.061783,-8733.488677,-222.061783
4396.259986,296.082377,-8810.098227,-296.082377
4396.260311,370.102971,-8886.707777,-296.082377
4396.260635,0.000000,-8886.707777,74.020594
4396.260960,296.082377,-8656.879127,-296.082377
4396.261284,148.041188,-8197.221829,-296.082377
4396.261608,296.082377,-8656.879127,-222.061783
4396.261933,222.061783,-8427.050478,0.000000
4396.262257,296.082377,-8656.879127,-296.082377
4396.262582,296.082377,-8503.660028,-370.102971
4396.262906,296.082377,-8580.269578,-370.102971
4396.263231,222.061783,-8350.440928,-444.123565
4396.263555,0.000000,-8120.612279,222.061783
4396.263879,444.123565,-8350.440928,-222.061783
4396.264204,518.144159,-8656.879127,0.000000
4396.264528,592.164754,-8427.050478,-518.144159
4396.264853,888.247130,-8963.317327,148.041188
4396.265177,592.164754,-8350.440928,-296.082377
4396.265501,592.164754,-8580.269578,-222.061783
4396.265826,370.102971,-8580.269578,-148.041188
4396.266150,518.144159,-8503.660028,0.000000
4396.266475,592.164754,-8427.050478,-370.102971
4396.266799,740.205942,-8503.660028,-296.082377
4396.267123,592.164754,-8733.488677,222.061783
4396.267448,740.205942,-8503.660028,-296.082377
4396.267772,592.164754,-8120.612279,222.061783
4396.268097,370.102971,-8197.221829,-296.082377
4396.268421,518.144159,-8656.879127,-222.061783
4396.268745,592.164754,-8656.879127,-444.123565
4396.269070,814.226536,-8273.831378,-592.164754
4396.269394,814.226536,-8427.050478,-444.123565
4396.269719,666.185348,-8656.879127,-370.102971
4396.270043,592.164754,-8427.050478,-370.102971
4396.270368,518.144159,-8503.660028,-444.123565
4396.270692,518.144159,-8350.440928,-370.102971
4396.271016,444.123565,-8656.879127,0.000000
4396.271341,592.164754,-8656.879127,-518.144159
4396.271665,296.082377,-8273.831378,-296.082377
4396.271990,1110.308913,-8886.707777,-666.185348
4396.272314,444.123565,-8350.440928,-296.082377
4396.272638,148.041188,-8273.831378,-148.041188
4396.272963,74.020594,-8810.098227,-592.164754
4396.273287,0.000000,-8810.098227,-222.061783
4396.273612,148.041188,-8656.879127,-444.123565
4396.273936,148.041188,-8810.098227,-222.061783
4396.274260,222.061783,-8810.098227,-296.082377
4396.274585,222.061783,-8810.098227,-148.041188
4396.274909,0.000000,-8197.221829,-444.123565
4396.275234,148.041188,-8733.488677,-370.102971
4396.275558,296.082377,-8733.488677,-296.082377
4396.275882,444.123565,-8273.831378,-444.123565
4396.276207,0.000000,-8503.660028,-370.102971
4396.276531,222.061783,-8886.707777,-444.123565
4396.276856,148.041188,-8733.488677,-296.082377
4396.277180,148.041188,-8656.879127,-518.144159
4396.277504,296.082377,-8963.317327,-370.102971
4396.277829,370.102971,-8197.221829,-296.082377
4396.278153,370.102971,-8733.488677,-296.082377
4396.278478,296.082377,-8580.269578,-444.123565
4396.278802,444.123565,-8810.098227,-518.144159
4396.279127,666.185348,-8273.831378,-888.247130
4396.279451,814.226536,-8733.488677,-148.041188
4396.279775,370.102971,-8656.879127,-370.102971
4396.280100,518.144159,-8580.269578,-370.102971
4396.280424,444.123565,-8120.612279,-296.082377
4396.280749,518.144159,-8963.317327,-222.061783
4396.281073,666.185348,-8350.440928,-370.102971
4396.281397,444.123565,-8580.269578,-370.102971
4396.281722,518.144159,-8580.269578,0.000000
4396.282046,518.144159,-8656.879127,-370.102971
4396.282371,592.164754,-8580.269578,-444.123565
4396.282695,666.185348,-8580.269578,-370.102971
4396.283019,666.185348,-8503.660028,-370.102971
4396.283344,740.205942,-8427.050478,-148.041188
4396.283668,592.164754,-8580.269578,-518.144159
4396.283993,814.226536,-8503.660028,-296.082377
4396.284317,518.144159,-8733.488677,-444.123565
4396.284641,666.185348,-9116.536426,-222.061783
4396.284966,296.082377,-8503.660028,-370.102971
4396.285290,370.102971,-8580.269578,-296.082377
4396.285615,592.164754,-8656.879127,-740.205942
4396.285939,592.164754,-8810.098227,-518.144159
4396.286263,592.164754,-8427.050478,-148.041188
4396.286588,296.082377,-8656.879127,-148.041188
4396.286912,592.164754,-8427.050478,-592.164754
4396.287237,444.123565,-8580.269578,-148.041188
4396.287561,222.061783,-9039.926876,-222.061783
4396.287886,666.185348,-8733.488677,-370.102971
4396.288210,296.082377,-8810.098227,-296.082377
4396.288534,222.061783,-8886.707777,-296.082377
4396.288859,74.020594,-8886.707777,-296.082377
4396.289183,148.041188,-8656.879127,-148.041188
4396.289508,222.061783,-8580.269578,-370.102971
4396.289832,296.082377,-8580.269578,-296.082377
4396.290156,370.102971,-8733.488677,-518.144159
4396.290481,148.041188,-8580.269578,-296.082377
4396.290805,296.082377,-8733.488677,-444.123565
4396.291130,296.082377,-8733.488677,-444.123565
4396.291454,222.061783,-8580.269578,-296.082377
4396.291778,592.164754,-8656.879127,-370.102971
4396.292103,518.144159,-8886.707777,-444.123565
4396.292427,296.082377,-8350.440928,-296.082377
4396.292752,518.144159,-8810.098227,-666.185348
4396.293076,518.144159,-9039.926876,-518.144159
4396.293400,518.144159,-8656.879127,-296.082377
4396.293725,518.144159,-8656.879127,-370.102971
4396.294049,444.123565,-8656.879127,-592.164754
4396.294374,370.102971,-8810.098227,-666.185348
4396.294698,592.164754,-8656.879127,-518.144159
4396.295022,444.123565,-8580.269578,-518.144159
4396.295347,296.082377,-8503.660028,-296.082377
4396.295671,444.123565,-8580.269578,-370.102971
4396.295996,370.102971,-8656.879127,0.000000
4396.296320,222.061783,-8733.488677,-666.185348
4396.296645,518.144159,-8273.831378,-370.102971
4396.296969,370.102971,-8197.221829,-148.041188
4396.297293,444.123565,-8427.050478,-666.185348
4396.297618,222.061783,-8963.317327,-666.185348
4396.297942,518.144159,-8427.050478,-592.164754
4396.298267,444.123565,-8503.660028,-518.144159
4396.298591,518.144159,-8580.269578,-444.123565
4396.298915,666.185348,-8427.050478,0.000000
4396.299240,296.082377,-8273.831378,-222.061783
4396.299564,518.144159,-8656.879127,-444.123565
4396.299889,444.123565,-8350.440928,-222.061783
4396.300213,74.020594,-8810.098227,-148.041188
4396.300537,370.102971,-8503.660028,-592.164754
4396.300862,296.082377,-8810.098227,-518.144159
4396.301186,222.061783,-8503.660028,-444.123565
4396.301511,666.185348,-8580.269578,-444.123565
4396.301835,148.041188,-8120.612279,-370.102971
4396.302159,444.123565,-8580.269578,-222.061783
4396.302484,296.082377,-8580.269578,-444.123565
4396.302808,444.123565,-8656.879127,-222.061783
4396.303133,222.061783,-8810.098227,0.000000
4396.303457,518.144159,-8810.098227,-444.123565
4396.303782,148.041188,-8503.660028,-296.082377
4396.304106,370.102971,-8810.098227,-444.123565
4396.304430,296.082377,-8503.660028,-518.144159
4396.304755,296.082377,-8503.660028,-222.061783
4396.305079,592.164754,-8733.488677,-296.082377
4396.305404,666.185348,-8580.269578,-518.144159
4396.305728,666.185348,-8733.488677,-444.123565
4396.306052,592.164754,-8427.050478,-222.061783
4396.306377,444.123565,-8350.440928,-444.123565
4396.306701,222.061783,-9039.926876,-444.123565
4396.307025,222.061783,-8580.269578,-370.102971
4396.307350,740.205942,-9193.145976,-296.082377
4396.307674,148.041188,-8886.707777,-370.102971
4396.307998,370.102971,-8656.879127,-518.144159
4396.308323,444.123565,-8427.050478,-444.123565
4396.308647,444.123565,-8886.707777,-296.082377
4396.308971,296.082377,-8350.440928,-592.164754
4396.309296,296.082377,-8503.660028,-222.061783
4396.309620,148.041188,-8580.269578,-518.144159
4396.309944,222.061783,-8503.660028,-444.123565
4396.310268,222.061783,-9116.536426,-296.082377
4396.310593,518.144159,-8350.440928,-296.082377
4396.310917,518.144159,-8503.660028,-296.082377
4396.311241,370.102971,-8886.707777,-518.144159
4396.311566,222.061783,-8733.488677,-148.041188
4396.311890,740.205942,-8503.660028,-592.164754
4396.312214,592.164754,-8427.050478,-592.164754
4396.312539,518.144159,-8503.660028,-370.102971
4396.312863,592.164754,-8656.879127,-444.123565
4396.313187,444.123565,-8580.269578,-370.102971
4396.313511,592.164754,-8580.269578,-814.226536
4396.313836,666.185348,-8350.440928,-370.102971
4396.314160,444.123565,-8120.612279,-74.020594
4396.314484,592.164754,-8273.831378,-370.102971
4396.314809,666.185348,-8427.050478,-370.102971
4396.315133,592.164754,-8427.050478,-148.041188
4396.315457,666.185348,-8427.050478,-444.123565
4396.315782,518.144159,-8963.317327,148.041188
4396.316106,296.082377,-8733.488677,-148.041188
4396.316430,518.144159,-8580.269578,-148.041188
4396.316754,444.123565,-8350.440928,-370.102971
4396.317079,518.144159,-8580.269578,-148.041188
4396.317403,518.144159,-8273.831378,-444.123565
4396.317727,444.123565,-8350.440928,0.000000
4396.318052,370.102971,-8733.488677,-296.082377
4396.318376,370.102971,-8580.269578,-148.041188
4396.318700,962.267725,-8656.879127,-296.082377
4396.319025,296.082377,-8427.050478,-222.061783
4396.319349,222.061783,-8580.269578,0.000000
4396.319673,296.082377,-8580.269578,-222.061783
4396.319997,518.144159,-8656.879127,-222.061783
4396.320322,296.082377,-8810.098227,-518.144159
4396.320646,296.082377,-9039.926876,-222.061783
4396.320970,222.061783,-8580.269578,-296.082377
4396.321295,370.102971,-8810.098227,-296.082377
4396.321619,592.164754,-8733.488677,-444.123565
4396.321943,370.102971,-8656.879127,-222.061783
4396.322268,444.123565,-8503.660028,-444.123565
4396.322592,74.020594,-8733.488677,-444.123565
4396.322916,518.144159,-8350.440928,148.041188
4396.323240,222.061783,-8733.488677,-222.061783
4396.323565,74.020594,-8580.269578,-370.102971
4396.323889,0.000000,-8810.098227,-518.144159
4396.324213,148.041188,-8733.488677,0.000000
4396.324538,296.082377,-8427.050478,-148.041188
4396.324862,296.082377,-8733.488677,-592.164754
4396.325186,222.061783,-8580.269578,-444.123565
4396.325511,222.061783,-8656.879127,-370.102971
4396.325835,148.041188,-8733.488677,-370.102971
4396.326159,296.082377,-8503.660028,-592.164754
4396.326483,370.102971,-8733.488677,-370.102971
4396.326808,444.123565,-8580.269578,-592.164754
4396.327132,222.061783,-8273.831378,-296.082377
4396.327456,444.123565,-8580.269578,-666.185348
4396.327781,370.102971,-8427.050478,-518.144159
4396.328105,444.123565,-8427.050478,-592.164754
4396.328429,370.102971,-8963.317327,-666.185348
4396.328754,444.123565,-8350.440928,-740.205942
4396.329078,814.226536,-8580.269578,-518.144159
4396.329402,592.164754,-8580.269578,-518.144159
4396.329726,666.185348,-8427.050478,-518.144159
4396.330051,814.226536,-8733.488677,0.000000
4396.330375,666.185348,-8503.660028,-444.123565
4396.330699,592.164754,-8197.221829,-740.205942
4396.331024,518.144159,-8656.879127,-370.102971
4396.331348,740.205942,-8810.098227,0.000000
4396.331672,740.205942,-8273.831378,-444.123565
4396.331997,666.185348,-8733.488677,-592.164754
4396.332321,592.164754,-8656.879127,-370.102971
4396.332645,666.185348,-8656.879127,-370.102971
4396.332969,370.102971,-8503.660028,-296.082377
4396.333294,592.164754,-8503.660028,-370.102971
4396.333618,518.144159,-8656.879127,-148.041188
4396.333942,518.144159,-8427.050478,-518.144159
4396.334267,592.164754,-8656.879127,0.000000
4396.334591,296.082377,-8580.269578,-74.020594
4396.334915,296.082377,-8427.050478,0.000000
4396.335239,222.061783,-8503.660028,-296.082377
4396.335564,740.205942,-8810.098227,-148.041188
4396.335888,296.082377,-8580.269578,-370.102971
4396.336212,592.164754,-8886.707777,-518.144159
4396.336537,666.185348,-8580.269578,-666.185348
4396.336861,444.123565,-8810.098227,0.000000
4396.337185,444.123565,-8503.660028,-296.082377
4396.337510,444.123565,-8733.488677,0.000000
4396.337834,222.061783,-8580.269578,-370.102971
4396.338158,222.061783,-8733.488677,-296.082377
4396.338482,296.082377,-7967.393179,-444.123565
4396.338807,222.061783,-8503.660028,-148.041188
4396.339131,444.123565,-8503.660028,-370.102971
4396.339455,592.164754,-8273.831378,-370.102971
4396.339780,74.020594,-8197.221829,-222.061783
4396.340104,296.082377,-8886.707777,-222.061783
4396.340428,222.061783,-8656.879127,0.000000
4396.340753,148.041188,-8503.660028,-222.061783
4396.341077,296.082377,-8580.269578,-296.082377
4396.341401,370.102971,-8733.488677,0.000000
4396.341725,370.102971,-8656.879127,-148.041188
4396.342050,444.123565,-8427.050478,-296.082377
4396.342374,370.102971,-8733.488677,-296.082377
4396.342698,740.205942,-7890.783629,-296.082377
4396.343023,592.164754,-8733.488677,-296.082377
4396.343347,370.102971,-8580.269578,-370.102971
4396.343671,444.123565,-8733.488677,-370.102971
4396.343996,814.226536,-8580.269578,-370.102971
4396.344320,518.144159,-8427.050478,-444.123565
4396.344644,296.082377,-8656.879127,-370.102971
4396.344968,370.102971,-8810.098227,-296.082377
4396.345293,592.164754,-8810.098227,-370.102971
4396.345617,740.205942,-8580.269578,-518.144159
4396.345941,666.185348,-8733.488677,-296.082377
4396.346266,518.144159,-8350.440928,-148.041188
4396.346590,592.164754,-8580.269578,-296.082377
4396.346914,740.205942,-9116.536426,-666.185348
4396.347239,444.123565,-8503.660028,-148.041188
4396.347563,74.020594,-8427.050478,0.000000
4396.347887,444.123565,-8656.879127,-222.061783
4396.348211,592.164754,-8656.879127,-370.102971
4396.348536,814.226536,-8810.098227,-296.082377
4396.348860,592.164754,-8350.440928,-222.061783
4396.349184,444.123565,-8580.269578,-222.061783
4396.349509,592.164754,-8427.050478,-296.082377
4396.349833,592.164754,-8656.879127,0.000000
4396.350157,518.144159,-8733.488677,-444.123565
4396.350482,370.102971,-8733.488677,0.000000
4396.350806,148.041188,-8350.440928,0.000000
4396.351130,0.000000,-9269.755526,222.061783
4396.351454,74.020594,-8350.440928,-296.082377
4396.351779,370.102971,-8886.707777,-148.041188
4396.352103,444.123565,-8733.488677,0.000000
4396.352427,444.123565,-8503.660028,0.000000
4396.352752,518.144159,-8656.879127,-296.082377
4396.353076,296.082377,-8580.269578,-222.061783
4396.353400,296.082377,-8656.879127,-370.102971
4396.353725,296.082377,-8427.050478,-148.041188
4396.354049,-148.041188,-8503.660028,148.041188
4396.354373,0.000000,-8656.879127,0.000000
4396.354697,74.020594,-8733.488677,-148.041188
4396.355022,222.061783,-8197.221829,-148.041188
4396.355346,666.185348,-8273.831378,-148.041188
4396.355670,444.123565,-8427.050478,-444.123565
4396.355995,370.102971,-8733.488677,-148.041188
4396.356319,222.061783,-8656.879127,-222.061783
4396.356643,222.061783,-8503.660028,-370.102971
4396.356968,296.082377,-8580.269578,-518.144159
4396.357292,148.041188,-8273.831378,-370.102971
4396.357616,222.061783,-8427.050478,-296.082377
4396.357940,518.144159,-8580.269578,-444.123565
4396.358265,222.061783,-8580.269578,-666.185348
4396.358589,518.144159,-8427.050478,-444.123565
4396.358913,592.164754,-8886.707777,-148.041188
4396.359238,296.082377,-8197.221829,-666.185348
4396.359562,222.061783,-8273.831378,-370.102971
4396.359886,444.123565,-8580.269578,-592.164754
4396.360211,370.102971,-8427.050478,-444.123565
4396.360535,370.102971,-8503.660028,-518.144159
4396.360859,592.164754,-8427.050478,-222.061783
4396.361183,592.164754,-8580.269578,-592.164754
4396.361508,592.164754,-8656.879127,-444.123565
4396.361832,592.164754,-8273.831378,-518.144159
4396.362156,740.205942,-8733.488677,-518.144159
4396.362481,1110.308913,-9346.365076,-444.123565
4396.362805,518.144159,-8350.440928,-592.164754
4396.363129,592.164754,-8656.879127,-444.123565
4396.363454,296.082377,-8656.879127,-370.102971
4396.363778,592.164754,-9576.193725,-592.164754
4396.364102,666.185348,-8503.660028,-814.226536
4396.364426,592.164754,-8886.707777,0.000000
4396.364751,444.123565,-8580.269578,-148.041188
4396.365075,740.205942,-8580.269578,-444.123565
4396.365399,592.164754,-8580.269578,-296.082377
4396.365724,444.123565,-8580.269578,-222.061783
4396.366048,740.205942,-8503.660028,-518.144159
4396.366372,370.102971,-8503.660028,-148.041188
4396.366696,74.020594,-9116.536426,0.000000
4396.367021,296.082377,-8503.660028,-148.041188
4396.367345,148.041188,-8427.050478,-444.123565
4396.367669,370.102971,-8886.707777,-370.102971
4396.367994,148.041188,-8886.707777,0.000000
4396.368318,148.041188,-8963.317327,0.000000
4396.368642,222.061783,-8580.269578,-148.041188
4396.368967,444.123565,-8503.660028,0.000000
4396.369291,666.185348,-8733.488677,-444.123565
4396.369615,740.205942,-8580.269578,0.000000
4396.369939,74.020594,-8810.098227,-148.041188
4396.370264,222.061783,-8656.879127,-444.123565
4396.370588,148.041188,-8656.879127,-222.061783
4396.370912,296.082377,-9269.755526,370.102971
4396.371237,148.041188,-8503.660028,0.000000
4396.371561,370.102971,-8963.317327,0.000000
4396.371885,148.041188,-8886.707777,-148.041188
4396.372210,370.102971,-8503.660028,0.000000
4396.372534,0.000000,-8350.440928,-518.144159
4396.372858,296.082377,-8963.317327,-222.061783
4396.373182,444.123565,-8273.831378,-222.061783
4396.373507,370.102971,-8503.660028,-222.061783
4396.373831,666.185348,-8580.269578,-222.061783
4396.374155,370.102971,-8580.269578,0.000000
4396.374480,296.082377,-8656.879127,-296.082377
4396.374804,518.144159,-8503.660028,0.000000
4396.375128,370.102971,-8810.098227,0.000000
4396.375453,296.082377,-8733.488677,0.000000
4396.375777,518.144159,-8273.831378,-296.082377
4396.376101,592.164754,-8580.269578,-518.144159
4396.376425,518.144159,-8427.050478,-296.082377
4396.376750,888.247130,-8350.440928,148.041188
4396.377074,666.185348,-8656.879127,-444.123565
4396.377398,518.144159,-8580.269578,-444.123565
4396.377723,592.164754,-8427.050478,-222.061783
4396.378047,1258.350101,-8733.488677,-370.102971
4396.378371,518.144159,-8427.050478,0.000000
4396.378696,666.185348,-8427.050478,0.000000
4396.379020,518.144159,-8503.660028,0.000000
4396.379344,222.061783,-8427.050478,0.000000
4396.379668,518.144159,-8580.269578,-370.102971
4396.379993,666.185348,-8350.440928,-296.082377
4396.380317,740.205942,-8427.050478,0.000000
4396.380641,222.061783,-8503.660028,-370.102971
4396.380966,0.000000,-7967.393179,-222.061783
4396.381290,666.185348,-8580.269578,-222.061783
4396.381614,592.164754,-8350.440928,-592.164754
4396.381939,444.123565,-8503.660028,-222.061783
4396.382263,592.164754,-7890.783629,0.000000
4396.382587,518.144159,-8427.050478,-222.061783
4396.382911,444.123565,-8273.831378,-518.144159
4396.383236,518.144159,-8810.098227,-592.164754
4396.383560,296.082377,-8580.269578,-222.061783
4396.383884,370.102971,-8350.440928,-296.082377
4396.384209,222.061783,-8733.488677,-296.082377
4396.384533,222.061783,-8503.660028,-370.102971
4396.384857,296.082377,-8810.098227,-444.123565
4396.385182,666.185348,-8963.317327,-296.082377
4396.385506,296.082377,-8733.488677,-296.082377
4396.385830,370.102971,-8886.707777,-444.123565
4396.386154,518.144159,-8580.269578,-518.144159
4396.386479,296.082377,-9422.974625,0.000000
4396.386803,444.123565,-8810.098227,-370.102971
4396.387127,222.061783,-8580.269578,-370.102971
4396.387452,74.020594,-8656.879127,-370.102971
4396.387776,222.061783,-8656.879127,-592.164754
4396.388100,518.144159,-8273.831378,-296.082377
4396.388425,296.082377,-8580.269578,-666.185348
4396.388749,444.123565,-8733.488677,-370.102971
4396.389073,296.082377,-8656.879127,-444.123565
4396.389397,740.205942,-9116.536426,-296.082377
4396.389722,370.102971,-8350.440928,-444.123565
4396.390046,148.041188,-8656.879127,-222.061783
4396.390370,370.102971,-8503.660028,-740.205942
4396.390695,888.247130,-8197.221829,-296.082377
4396.391019,518.144159,-8810.098227,-592.164754
4396.391343,518.144159,-8963.317327,-296.082377
4396.391668,444.123565,-8427.050478,-518.144159
4396.391992,296.082377,-8733.488677,-518.144159
4396.392316,222.061783,-8656.879127,-296.082377
4396.392640,444.123565,-8503.660028,-370.102971
4396.392965,518.144159,-8580.269578,-444.123565
4396.393289,666.185348,-8503.660028,-444.123565
4396.393613,888.247130,-8273.831378,-222.061783
4396.393938,592.164754,-8350.440928,-148.041188
4396.394262,592.164754,-8044.002729,-370.102971
4396.394586,592.164754,-8656.879127,-518.144159
4396.394911,592.164754,-7737.564530,-370.102971
4396.395235,592.164754,-8580.269578,-592.164754
4396.395559,518.144159,-8427.050478,-518.144159
4396.395883,518.144159,-8580.269578,-296.082377
4396.396208,592.164754,-8580.269578,-296.082377
4396.396532,74.020594,-8656.879127,-74.020594
4396.396856,814.226536,-8580.269578,-370.102971
4396.397181,666.185348,-8427.050478,-444.123565
4396.397505,592.164754,-8503.660028,74.020594
4396.397829,666.185348,-9193.145976,0.000000
4396.398153,296.082377,-8580.269578,-444.123565
4396.398478,518.144159,-8580.269578,-444.123565
4396.398802,296.082377,-8656.879127,-444.123565
4396.399126,296.082377,-9039.926876,-148.041188
4396.399451,222.061783,-8580.269578,-222.061783
4396.399775,370.102971,-8963.317327,0.000000
4396.400099,222.061783,-8656.879127,-296.082377
4396.400424,296.082377,-8963.317327,-296.082377
4396.400748,148.041188,-8886.707777,0.000000
4396.401072,222.061783,-8350.440928,0.000000
4396.401396,148.041188,-8810.098227,-592.164754
4396.401721,222.061783,-8580.269578,-370.102971
4396.402045,740.205942,-8273.831378,-518.144159
4396.402369,296.082377,-8810.098227,-444.123565
4396.402694,444.123565,-8580.269578,-222.061783
4396.403018,74.020594,-8580.269578,-296.082377
4396.403342,222.061783,-8733.488677,-148.041188
4396.403667,296.082377,-8427.050478,-666.185348
4396.403991,444.123565,-8886.707777,-518.144159
4396.404315,518.144159,-8503.660028,-518.144159
4396.404639,296.082377,-8580.269578,-592.164754
4396.404964,148.041188,-8656.879127,-592.164754
4396.405288,296.082377,-8656.879127,-666.185348
4396.405612,296.082377,-8810.098227,-592.164754
4396.405937,296.082377,-8580.269578,-518.144159
4396.406261,444.123565,-9346.365076,-518.144159
4396.406585,370.102971,-8656.879127,-518.144159
4396.406910,296.082377,-8810.098227,-296.082377
4396.407234,518.144159,-8350.440928,-518.144159
4396.407558,518.144159,-8810.098227,-444.123565
4396.407882,444.123565,-8197.221829,-370.102971
4396.408207,370.102971,-8350.440928,-370.102971
4396.408531,370.102971,-8810.098227,-666.185348
4396.408855,592.164754,-8273.831378,-592.164754
4396.409180,148.041188,-8656.879127,74.020594
4396.409504,296.082377,-8427.050478,-444.123565
4396.409828,444.123565,-8427.050478,-296.082377
4396.410152,666.185348,-8350.440928,-296.082377
4396.410477,666.185348,-9116.536426,0.000000
4396.410801,666.185348,-8656.879127,-518.144159
4396.411125,666.185348,-8580.269578,-444.123565
4396.411450,666.185348,-8427.050478,-148.041188
4396.411774,222.061783,-8963.317327,-222.061783
4396.412098,148.041188,-8197.221829,-444.123565
4396.412422,222.061783,-8656.879127,-222.061783
4396.412747,666.185348,-8580.269578,-592.164754
4396.413071,370.102971,-8656.879127,-296.082377
4396.413395,296.082377,-8656.879127,-296.082377
4396.413720,814.226536,-8580.269578,-370.102971
4396.414044,518.144159,-8350.440928,-444.123565
4396.414368,518.144159,-8656.879127,-296.082377
4396.414692,444.123565,-8656.879127,-222.061783
4396.415017,444.123565,-8427.050478,-444.123565
4396.415341,148.041188,-8580.269578,-370.102971
4396.415665,370.102971,-8580.269578,-370.102971
4396.415990,444.123565,-8580.269578,-296.082377
4396.416314,370.102971,-8427.050478,-370.102971
4396.416638,296.082377,-8656.879127,-370.102971
4396.416962,148.041188,-8427.050478,-370.102971
4396.417287,444.123565,-8580.269578,-296.082377
4396.417611,296.082377,-9116.536426,-296.082377
4396.417935,370.102971,-8886.707777,-370.102971
4396.418260,222.061783,-8503.660028,-74.020594
4396.418584,222.061783,-8503.660028,-370.102971
4396.418908,222.061783,-8733.488677,-444.123565
4396.419232,0.000000,-8427.050478,-222.061783
4396.419557,370.102971,-8733.488677,-222.061783
4396.419881,222.061783,-8656.879127,-296.082377
4396.420205,518.144159,-8963.317327,-296.082377
4396.420530,518.144159,-8580.269578,-592.164754
4396.420854,518.144159,-8580.269578,-444.123565
4396.421178,296.082377,-8810.098227,-370.102971
4396.421502,296.082377,-8580.269578,-296.082377
4396.421827,148.041188,-8273.831378,-222.061783
4396.422151,222.061783,-8503.660028,-518.144159
4396.422475,222.061783,-8810.098227,-444.123565
4396.422800,222.061783,-8273.831378,-296.082377
4396.423124,296.082377,-8656.879127,-370.102971
4396.423448,148.041188,-8350.440928,-666.185348
4396.423772,518.144159,-8580.269578,-148.041188
4396.424097,370.102971,-8427.050478,-444.123565
4396.424421,592.164754,-8503.660028,-444.123565
4396.424745,740.205942,-7967.393179,-518.144159
4396.425070,888.247130,-8886.707777,-444.123565
4396.425394,666.185348,-8197.221829,-370.102971
4396.425718,518.144159,-8580.269578,0.000000
4396.426042,296.082377,-8810.098227,-444.123565
4396.426367,666.185348,-8886.707777,-444.123565
4396.426691,740.205942,-8580.269578,-518.144159
4396.427015,592.164754,-8427.050478,-518.144159
4396.427339,518.144159,-8503.660028,-444.123565
4396.427664,740.205942,-8810.098227,-296.082377
4396.427988,592.164754,-8580.269578,-370.102971
4396.428312,962.267725,-8580.269578,-592.164754
4396.428637,518.144159,-8273.831378,-222.061783
4396.428961,666.185348,-8273.831378,0.000000
4396.429285,370.102971,-8656.879127,-592.164754
4396.429609,444.123565,-8580.269578,-518.144159
4396.429934,518.144159,-8197.221829,-296.082377
4396.430258,370.102971,-8656.879127,0.000000
4396.430582,444.123565,-8580.269578,-518.144159
4396.430907,444.123565,-8733.488677,-518.144159
4396.431231,444.123565,-8810.098227,-296.082377
4396.431555,444.123565,-8350.440928,-592.164754
4396.431879,740.205942,-8503.660028,-814.226536
4396.432204,666.185348,-8580.269578,-592.164754
4396.432528,296.082377,-8733.488677,-444.123565
4396.432852,370.102971,-8810.098227,-740.205942
4396.433177,370.102971,-8197.221829,-444.123565
4396.433501,148.041188,-8886.707777,-592.164754
4396.433825,222.061783,-8656.879127,-518.144159
4396.434149,148.041188,-8733.488677,-518.144159
4396.434474,222.061783,-8886.707777,-444.123565
4396.434798,370.102971,-8656.879127,-444.123565
4396.435122,148.041188,-8580.269578,-592.164754
4396.435447,296.082377,-9039.926876,-296.082377
4396.435771,296.082377,-8580.269578,-296.082377
4396.436095,444.123565,-8886.707777,-518.144159
4396.436419,222.061783,-8580.269578,-740.205942
4396.436744,74.020594,-8580.269578,-370.102971
4396.437068,222.061783,-8733.488677,-740.205942
4396.437392,518.144159,-8886.707777,0.000000
4396.437717,222.061783,-8580.269578,-370.102971
4396.438041,148.041188,-8810.098227,-296.082377
4396.438365,296.082377,-8427.050478,-444.123565
4396.438689,444.123565,-8503.660028,-518.144159
4396.439014,740.205942,-8503.660028,-222.061783
4396.439338,444.123565,-8427.050478,-666.185348
4396.439662,370.102971,-8963.317327,-222.061783
4396.439987,222.061783,-8733.488677,-296.082377
4396.440311,296.082377,-8427.050478,-962.267725
4396.440635,592.164754,-8733.488677,-370.102971
4396.440959,444.123565,-8427.050478,-222.061783
4396.441284,444.123565,-8503.660028,-222.061783
4396.441608,888.247130,-8427.050478,0.000000
4396.441932,444.123565,-8350.440928,0.000000
4396.442257,814.226536,-8427.050478,-444.123565
4396.442581,666.185348,-8273.831378,0.000000
4396.442905,666.185348,-8350.440928,-296.082377
4396.443229,74.020594,-8580.269578,-222.061783
4396.443554,296.082377,-8656.879127,-370.102971
4396.443878,518.144159,-8810.098227,-222.061783
4396.444202,518.144159,-8656.879127,-296.082377
4396.444527,740.205942,-8656.879127,0.000000
4396.444851,740.205942,-8503.660028,-222.061783
4396.445175,592.164754,-8350.440928,0.000000
4396.445499,740.205942,-8350.440928,-518.144159
4396.445824,666.185348,-7584.345430,-370.102971
4396.446148,740.205942,-8273.831378,-148.041188
4396.446472,666.185348,-8120.612279,-296.082377
4396.446797,148.041188,-8656.879127,-222.061783
4396.447121,370.102971,-8580.269578,-148.041188
4396.447445,444.123565,-8503.660028,-444.123565
4396.447769,444.123565,-8580.269578,-222.061783
4396.448094,444.123565,-8350.440928,0.000000
4396.448418,666.185348,-8733.488677,0.000000
4396.448742,370.102971,-8350.440928,0.000000
4396.449067,592.164754,-8656.879127,-222.061783
4396.449391,740.205942,-8810.098227,-222.061783
4396.449715,444.123565,-8580.269578,-222.061783
4396.450039,222.061783,-9116.536426,-148.041188
4396.450364,296.082377,-8733.488677,-222.061783
4396.450688,370.102971,-8886.707777,-370.102971
4396.451012,74.020594,-8733.488677,-296.082377
4396.451337,370.102971,-8580.269578,-148.041188
4396.451661,0.000000,-8886.707777,0.000000
4396.451985,222.061783,-8656.879127,-370.102971
4396.452309,296.082377,-8580.269578,-148.041188
4396.452634,296.082377,-8886.707777,-148.041188
4396.452958,222.061783,-8810.098227,-370.102971
4396.453282,296.082377,-8273.831378,-296.082377
4396.453607,370.102971,-8963.317327,-148.041188
4396.453931,296.082377,-8503.660028,-444.123565
4396.454255,222.061783,-8580.269578,0.000000
4396.454579,74.020594,-8503.660028,-444.123565
4396.454904,296.082377,-8886.707777,0.000000
4396.455228,518.144159,-8580.269578,-370.102971
4396.455552,222.061783,-8350.440928,-222.061783
4396.455877,148.041188,-8197.221829,-666.185348
4396.456201,518.144159,-8963.317327,-444.123565
4396.456525,592.164754,-8733.488677,-296.082377
4396.456849,370.102971,-8503.660028,-222.061783
4396.457174,444.123565,-8503.660028,-296.082377
4396.457498,666.185348,-8427.050478,-222.061783
4396.457822,518.144159,-8503.660028,-370.102971
4396.458147,592.164754,-8656.879127,-370.102971
4396.458471,592.164754,-8656.879127,-370.102971
4396.458795,296.082377,-8503.660028,-296.082377
4396.459119,370.102971,-8273.831378,-370.102971
4396.459444,666.185348,-8503.660028,-370.102971
4396.459768,740.205942,-8273.831378,-444.123565
4396.460092,592.164754,-8656.879127,-296.082377
4396.460416,444.123565,-8350.440928,-296.082377
4396.460741,592.164754,-8656.879127,-370.102971
4396.461065,592.164754,-8197.221829,-444.123565
4396.461389,740.205942,-9193.145976,-444.123565
4396.461714,444.123565,-8503.660028,-296.082377
4396.462038,296.082377,-8733.488677,-296.082377
4396.462362,518.144159,-8886.707777,-592.164754
4396.462686,370.102971,-8580.269578,-370.102971
4396.463011,296.082377,-8733.488677,-666.185348
4396.463335,518.144159,-8427.050478,-592.164754
4396.463659,666.185348,-8580.269578,-222.061783
4396.463984,592.164754,-8427.050478,-518.144159
4396.464308,74.020594,-8886.707777,-222.061783
4396.464632,444.123565,-8580.269578,-444.123565
4396.464956,444.123565,-8886.707777,-444.123565
4396.465281,444.123565,-8503.660028,-518.144159
4396.465605,370.102971,-8810.098227,-148.041188
4396.465929,222.061783,-8427.050478,-592.164754
4396.466254,148.041188,-8656.879127,-296.082377
4396.466578,148.041188,-8733.488677,-518.144159
4396.466902,518.144159,-8810.098227,-444.123565
4396.467226,0.000000,-8273.831378,-148.041188
4396.467551,148.041188,-8886.707777,-296.082377
4396.467875,148.041188,-8656.879127,-518.144159
4396.468199,0.000000,-8503.660028,-592.164754
4396.468524,370.102971,-9422.974625,-222.061783
4396.468848,148.041188,-8580.269578,-370.102971
4396.469172,444.123565,-8963.317327,-444.123565
4396.469496,148.041188,-8580.269578,-592.164754
4396.469821,222.061783,-8656.879127,-444.123565
4396.470145,148.041188,-8580.269578,-518.144159
4396.470469,296.082377,-8350.440928,-296.082377
4396.470794,0.000000,-8580.269578,-222.061783
4396.471118,0.000000,-8580.269578,-444.123565
4396.471442,74.020594,-8273.831378,-592.164754
4396.471766,222.061783,-8503.660028,-296.082377
4396.472091,518.144159,-8810.098227,-444.123565
4396.472415,592.164754,-8656.879127,-296.082377
4396.472739,814.226536,-8733.488677,-444.123565
4396.473064,666.185348,-8427.050478,-444.123565
4396.473388,814.226536,-8733.488677,-296.082377
4396.473712,740.205942,-8503.660028,-222.061783
4396.474036,592.164754,-8427.050478,0.000000
4396.474361,296.082377,-8580.269578,0.000000
4396.474685,370.102971,-8580.269578,0.000000
4396.475009,370.102971,-8503.660028,-222.061783
4396.475334,592.164754,-8503.660028,0.000000
4396.475658,666.185348,-8580.269578,370.102971
4396.475982,814.226536,-8656.879127,0.000000
4396.476306,1036.288319,-8503.660028,0.000000
4396.476631,888.247130,-8350.440928,-222.061783
4396.476955,666.185348,-9193.145976,0.000000
4396.477279,592.164754,-8503.660028,0.000000
4396.477604,592.164754,-8503.660028,0.000000
4396.477928,444.123565,-8580.269578,-296.082377
4396.478252,296.082377,-8427.050478,-148.041188
4396.478576,296.082377,-8350.440928,0.000000
4396.478901,444.123565,-8580.269578,-148.041188
4396.479225,518.144159,-8427.050478,0.000000
4396.479549,592.164754,-8733.488677,0.000000
4396.479874,370.102971,-8503.660028,0.000000
4396.480198,666.185348,-8503.660028,-296.082377
4396.480522,444.123565,-8580.269578,-592.164754
4396.480846,518.144159,-8503.660028,-222.061783
4396.481171,222.061783,-9039.926876,0.000000
4396.481495,0.000000,-8963.317327,-296.082377
4396.481819,296.082377,-8733.488677,-296.082377
4396.482144,296.082377,-8810.098227,-370.102971
4396.482468,222.061783,-8580.269578,-370.102971
4396.482792,444.123565,-8350.440928,-370.102971
4396.483116,222.061783,-8580.269578,-222.061783
4396.483441,222.061783,-8733.488677,-370.102971
4396.483765,370.102971,-8656.879127,-518.144159
4396.484089,592.164754,-9039.926876,-518.144159
4396.484414,296.082377,-8733.488677,-518.144159
4396.484738,0.000000,-8656.879127,-444.123565
4396.485062,74.020594,-8886.707777,-518.144159
4396.485386,296.082377,-8580.269578,-666.185348
4396.485711,296.082377,-8810.098227,-370.102971
4396.486035,296.082377,-8733.488677,-666.185348
4396.486359,370.102971,-8580.269578,-370.102971
4396.486684,444.123565,-8656.879127,-518.144159
4396.487008,740.205942,-8503.660028,-148.041188
4396.487332,444.123565,-8810.098227,-740.205942
4396.487656,518.144159,-8810.098227,-370.102971
4396.487981,666.185348,-8503.660028,-592.164754
4396.488305,444.123565,-9039.926876,0.000000
4396.488629,444.123565,-8503.660028,-518.144159
4396.488954,444.123565,-8273.831378,-740.205942
4396.489278,666.185348,-8580.269578,-666.185348
4396.489602,518.144159,-8580.269578,-518.144159
4396.489926,444.123565,-8427.050478,0.000000
4396.490251,518.144159,-8503.660028,-444.123565
4396.490575,444.123565,-8503.660028,-296.082377
4396.490899,518.144159,-8580.269578,-518.144159
4396.491224,444.123565,-8197.221829,370.102971
4396.491548,666.185348,-8273.831378,-444.123565
4396.491872,666.185348,-8503.660028,-518.144159
4396.492196,296.082377,-8580.269578,-222.061783
4396.492521,740.205942,-8656.879127,0.000000
4396.492845,444.123565,-8427.050478,-148.041188
4396.493169,370.102971,-8503.660028,-148.041188
4396.493493,666.185348,-8656.879127,-370.102971
4396.493818,444.123565,-8580.269578,-370.102971
4396.494142,370.102971,-8810.098227,0.000000
4396.494466,592.164754,-8503.660028,-518.144159
4396.494791,370.102971,-8427.050478,148.041188
4396.495115,370.102971,-8503.660028,-296.082377
4396.495439,296.082377,-8044.002729,0.000000
4396.495763,370.102971,-8656.879127,-444.123565
4396.496088,296.082377,-8656.879127,-296.082377
4396.496412,370.102971,-8810.098227,-148.041188
4396.496736,370.102971,-8273.831378,-222.061783
4396.497061,370.102971,-8733.488677,-222.061783
4396.497385,444.123565,-8503.660028,-296.082377
4396.497709,592.164754,-8963.317327,-444.123565
4396.498033,518.144159,-8810.098227,-444.123565
4396.498358,74.020594,-8580.269578,74.020594
4396.498682,296.082377,-8733.488677,-370.102971
4396.499006,148.041188,-8810.098227,-296.082377
4396.499331,222.061783,-8580.269578,-370.102971
4396.499655,74.020594,-7890.783629,-148.041188
4396.499979,296.082377,-8350.440928,-518.144159
4396.500303,740.205942,-8733.488677,-296.082377
4396.500628,444.123565,-8656.879127,-444.123565
4396.500952,518.144159,-9039.926876,-370.102971
4396.501276,370.102971,-8733.488677,-592.164754
4396.501601,814.226536,-8886.707777,-444.123565
4396.501925,296.082377,-8580.269578,-370.102971
4396.502249,296.082377,-8656.879127,-518.144159
4396.502573,444.123565,-8120.612279,-518.144159
4396.502898,222.061783,-8580.269578,-296.082377
4396.503222,296.082377,-8503.660028,-444.123565
4396.503546,592.164754,-8580.269578,-296.082377
4396.503871,666.185348,-8580.269578,-148.041188
4396.504195,444.123565,-8810.098227,-444.123565
4396.504519,296.082377,-8503.660028,-592.164754
4396.504843,814.226536,-8810.098227,-518.144159
4396.505168,740.205942,-8503.660028,-518.144159
4396.505492,814.226536,-8427.050478,-222.061783
4396.505816,444.123565,-8733.488677,-518.144159
4396.506141,296.082377,-8350.440928,-296.082377
4396.506465,740.205942,-8273.831378,-592.164754
4396.506789,370.102971,-8273.831378,-370.102971
4396.507113,592.164754,-8503.660028,-222.061783
4396.507438,666.185348,-8656.879127,-148.041188
4396.507762,740.205942,-8350.440928,-222.061783
4396.508086,518.144159,-7737.564530,-222.061783
4396.508411,444.123565,-8656.879127,-148.041188
4396.508735,518.144159,-8273.831378,0.000000
4396.509059,296.082377,-8427.050478,0.000000
4396.509383,296.082377,-8733.488677,-444.123565
4396.509708,518.144159,-8273.831378,0.000000
4396.510032,444.123565,-8656.879127,-444.123565
4396.510356,222.061783,-8580.269578,0.000000
4396.510681,444.123565,-8503.660028,-296.082377
4396.511005,296.082377,-8273.831378,74.020594
4396.511329,296.082377,-8427.050478,0.000000
4396.511653,444.123565,-8350.440928,-296.082377
4396.511978,444.123565,-8503.660028,0.000000
4396.512302,592.164754,-8503.660028,0.000000
4396.512626,592.164754,-8350.440928,-444.123565
4396.512951,296.082377,-8733.488677,-296.082377
4396.513275,296.082377,-8580.269578,-444.123565
4396.513599,444.123565,-8580.269578,-222.061783
4396.513923,296.082377,-8733.488677,-296.082377
4396.514248,370.102971,-8656.879127,-148.041188
4396.514572,148.041188,-8733.488677,-222.061783
4396.514896,0.000000,-8427.050478,-148.041188
4396.515221,370.102971,-8810.098227,-444.123565
4396.515545,296.082377,-8733.488677,-222.061783
4396.515869,0.000000,-8350.440928,-296.082377
4396.516193,222.061783,-8810.098227,-296.082377
4396.516518,148.041188,-8886.707777,-222.061783
4396.516842,222.061783,-8580.269578,-518.144159
4396.517166,222.061783,-8656.879127,-444.123565
4396.517491,222.061783,-8580.269578,-296.082377
4396.517815,148.041188,-8733.488677,-444.123565
4396.518139,370.102971,-8656.879127,-666.185348
4396.518463,370.102971,-8503.660028,-296.082377
4396.518788,370.102971,-8810.098227,-518.144159
4396.519112,444.123565,-8503.660028,-444.123565
4396.519436,444.123565,-8580.269578,-888.247130
4396.519761,74.020594,-8963.317327,-518.144159
4396.520085,370.102971,-8580.269578,-370.102971
4396.520409,740.205942,-8580.269578,-444.123565
4396.520733,444.123565,-8503.660028,-592.164754
4396.521058,740.205942,-8656.879127,-444.123565
4396.521382,666.185348,-8810.098227,-592.164754
4396.521706,444.123565,-8427.050478,-370.102971
4396.522031,592.164754,-8656.879127,-518.144159
4396.522355,592.164754,-8580.269578,-888.247130
4396.522679,740.205942,-8273.831378,-444.123565
4396.523003,444.123565,-8503.660028,-518.144159
4396.523328,518.144159,-8580.269578,-370.102971
4396.523652,518.144159,-8503.660028,-222.061783
4396.523976,740.205942,-8427.050478,-444.123565
4396.524301,592.164754,-8580.269578,-296.082377
4396.524625,666.185348,-8656.879127,-518.144159
4396.524949,444.123565,-8580.269578,-518.144159
4396.525273,666.185348,-8580.269578,-444.123565
4396.525598,444.123565,-8580.269578,-370.102971
4396.525922,518.144159,-8580.269578,-370.102971
4396.526246,444.123565,-7967.393179,-444.123565
4396.526571,296.082377,-8886.707777,0.000000
4396.526895,296.082377,-8197.221829,-296.082377
4396.527219,592.164754,-8350.440928,-370.102971
4396.527543,518.144159,-8503.660028,0.000000
4396.527868,592.164754,-8963.317327,-222.061783
4396.528192,370.102971,-8733.488677,-370.102971
4396.528516,148.041188,-9116.536426,-222.061783
4396.528841,296.082377,-8580.269578,0.000000
4396.529165,222.061783,-8886.707777,-370.102971
4396.529489,518.144159,-8886.707777,-518.144159
4396.529813,296.082377,-8427.050478,-370.102971
4396.530138,0.000000,-8810.098227,-296.082377
4396.530462,370.102971,-8656.879127,-444.123565
4396.530786,444.123565,-8886.707777,74.020594
4396.531111,444.123565,-8503.660028,-370.102971
4396.531435,592.164754,-8580.269578,-148.041188
4396.531759,296.082377,-8733.488677,-370.102971
4396.532083,222.061783,-9116.536426,-370.102971
4396.532408,74.020594,-8580.269578,-74.020594
4396.532732,370.102971,-9039.926876,-444.123565
4396.533056,444.123565,-8810.098227,-222.061783
4396.533381,296.082377,-8427.050478,-370.102971
4396.533705,74.020594,-8886.707777,-370.102971
4396.534029,370.102971,-8427.050478,-592.164754
4396.534353,592.164754,-8580.269578,-888.247130
4396.534678,370.102971,-8427.050478,-222.061783
4396.535002,0.000000,-8886.707777,0.000000
4396.535326,222.061783,-8580.269578,-444.123565
4396.535651,444.123565,-8733.488677,-444.123565
4396.535975,370.102971,-8810.098227,-444.123565
4396.536299,296.082377,-8810.098227,-518.144159
4396.536623,222.061783,-8580.269578,0.000000
4396.536948,518.144159,-8503.660028,-296.082377
4396.537272,370.102971,-8656.879127,-518.144159
4396.537596,296.082377,-8427.050478,-370.102971
4396.537920,370.102971,-8273.831378,-370.102971
4396.538245,740.205942,-8350.440928,-518.144159
4396.538569,518.144159,-8733.488677,-370.102971
4396.538893,592.164754,-8810.098227,-666.185348
4396.539218,296.082377,-8580.269578,-222.061783
4396.539542,814.226536,-8810.098227,-592.164754
4396.539866,518.144159,-8733.488677,-370.102971
4396.540190,814.226536,-8273.831378,-296.082377
4396.540515,740.205942,-8427.050478,-444.123565
4396.540839,740.205942,-8733.488677,-444.123565
4396.541163,666.185348,-8810.098227,-370.102971
4396.541488,592.164754,-8886.707777,-592.164754
4396.541812,518.144159,-8733.488677,-518.144159
4396.542136,1258.350101,-8886.707777,-222.061783
4396.542460,518.144159,-8580.269578,-296.082377
4396.542785,370.102971,-8656.879127,-370.102971
4396.543109,148.041188,-9039.926876,-296.082377
4396.543433,518.144159,-8580.269578,-222.061783
4396.543758,222.061783,-8656.879127,0.000000
4396.544082,222.061783,-8656.879127,-148.041188
4396.544406,666.185348,-8580.269578,-444.123565
4396.544730,592.164754,-8733.488677,-444.123565
4396.545055,666.185348,-8503.660028,-222.061783
4396.545379,370.102971,-8503.660028,-148.041188
4396.545703,518.144159,-8733.488677,-296.082377
4396.546028,296.082377,-8810.098227,-370.102971
4396.546352,148.041188,-8580.269578,-444.123565
4396.546676,0.000000,-8656.879127,-370.102971
4396.547000,296.082377,-8350.440928,0.000000
4396.547325,148.041188,-8580.269578,0.000000
4396.547649,296.082377,-9039.926876,-222.061783
4396.547973,518.144159,-8503.660028,-370.102971
4396.548298,518.144159,-8733.488677,-370.102971
4396.548622,222.061783,-8656.879127,-296.082377
4396.548946,0.000000,-8656.879127,0.000000
4396.549270,0.000000,-9039.926876,0.000000
4396.549595,148.041188,-8350.440928,0.000000
4396.549919,370.102971,-8656.879127,-518.144159
4396.550243,222.061783,-8733.488677,-370.102971
4396.550568,148.041188,-8580.269578,148.041188
4396.550892,296.082377,-8503.660028,-444.123565
4396.551216,296.082377,-8656.879127,-296.082377
4396.551540,444.123565,-8580.269578,-518.144159
4396.551865,666.185348,-9269.755526,-370.102971
4396.552189,296.082377,-8580.269578,-74.020594
4396.552513,222.061783,-8656.879127,-222.061783
4396.552838,370.102971,-8350.440928,-296.082377
4396.553162,370.102971,-8733.488677,-148.041188
4396.553486,222.061783,-8503.660028,-222.061783
4396.553810,370.102971,-8503.660028,-296.082377
4396.554135,444.123565,-8580.269578,0.000000
4396.554459,666.185348,-8810.098227,-296.082377
4396.554783,370.102971,-8503.660028,-148.041188
4396.555108,592.164754,-8580.269578,-370.102971
4396.555432,888.247130,-8656.879127,-444.123565
4396.555756,888.247130,-8656.879127,-296.082377
4396.556080,518.144159,-8733.488677,-592.164754
4396.556405,666.185348,-8733.488677,-592.164754
4396.556729,296.082377,-8580.269578,-592.164754
4396.557053,592.164754,-8733.488677,-666.185348
4396.557378,592.164754,-8503.660028,-296.082377
4396.557702,370.102971,-8120.612279,-296.082377
4396.558026,518.144159,-8810.098227,-370.102971
4396.558350,592.164754,-8503.660028,-444.123565
4396.558675,518.144159,-8810.098227,-518.144159
4396.558999,888.247130,-8656.879127,0.000000
4396.559323,370.102971,-8810.098227,-444.123565
4396.559648,222.061783,-8963.317327,-592.164754
4396.559972,370.102971,-8503.660028,-296.082377
4396.560296,370.102971,-8810.098227,-222.061783
4396.560620,296.082377,-8963.317327,-370.102971
4396.560945,518.144159,-8273.831378,-296.082377
4396.561269,296.082377,-8427.050478,-222.061783
4396.561593,222.061783,-8810.098227,-444.123565
4396.561918,296.082377,-8350.440928,0.000000
4396.562242,296.082377,-8580.269578,-222.061783
4396.562566,444.123565,-9116.536426,-296.082377
4396.562890,296.082377,-8733.488677,-222.061783
4396.563215,518.144159,-9039.926876,222.061783
4396.563539,296.082377,-8656.879127,-222.061783
4396.563863,222.061783,-8886.707777,-370.102971
4396.564188,148.041188,-8580.269578,-222.061783
4396.564512,370.102971,-8273.831378,222.061783
4396.564836,148.041188,-8427.050478,-222.061783
4396.565160,444.123565,-8656.879127,-222.061783
4396.565485,222.061783,-8350.440928,-222.061783
4396.565809,296.082377,-8733.488677,-370.102971
4396.566133,370.102971,-8350.440928,0.000000
4396.566458,296.082377,-8810.098227,-296.082377
4396.566782,296.082377,-8580.269578,-518.144159
4396.567106,222.061783,-8580.269578,-370.102971
4396.567430,518.144159,-8733.488677,-592.164754
4396.567755,296.082377,-8503.660028,-148.041188
4396.568079,518.144159,-8273.831378,-222.061783
4396.568403,370.102971,-8656.879127,-592.164754
4396.568728,666.185348,-8350.440928,-296.082377
4396.569052,888.247130,-8810.098227,-296.082377
4396.569376,740.205942,-8580.269578,-444.123565
4396.569700,666.185348,-8656.879127,-296.082377
4396.570025,518.144159,-8733.488677,-296.082377
4396.570349,814.226536,-8810.098227,0.000000
4396.570673,370.102971,-8120.612279,-370.102971
4396.570998,518.144159,-8810.098227,-296.082377
4396.571322,444.123565,-8120.612279,0.000000
4396.571646,518.144159,-8120.612279,-296.082377
4396.571970,444.123565,-8733.488677,-296.082377
4396.572295,666.185348,-8350.440928,-370.102971
4396.572619,518.144159,-8503.660028,-296.082377
4396.572943,444.123565,-8656.879127,-296.082377
4396.573268,666.185348,-8427.050478,-444.123565
4396.573592,518.144159,-8580.269578,-444.123565
4396.573916,518.144159,-8427.050478,-148.041188
4396.574240,518.144159,-8503.660028,-296.082377
4396.574565,1110.308913,-8963.317327,-370.102971
4396.574889,592.164754,-8656.879127,-296.082377
4396.575213,74.020594,-8503.660028,-222.061783
4396.575538,74.020594,-8580.269578,-370.102971
4396.575862,222.061783,-8733.488677,-444.123565
4396.576186,370.102971,-9039.926876,-592.164754
4396.576510,296.082377,-8733.488677,-222.061783
4396.576835,296.082377,-8656.879127,0.000000
4396.577159,444.123565,-8656.879127,-444.123565
4396.577483,666.185348,-9116.536426,-296.082377
4396.577808,592.164754,-8963.317327,-518.144159
4396.578132,592.164754,-8733.488677,-222.061783
4396.578456,518.144159,-8656.879127,0.000000
4396.578780,0.000000,-8656.879127,-296.082377
4396.579105,296.082377,-8503.660028,-370.102971
4396.579429,74.020594,-8580.269578,-444.123565
4396.579753,74.020594,-8580.269578,-518.144159
4396.580078,296.082377,-8503.660028,-296.082377
4396.580402,666.185348,-8810.098227,-444.123565
4396.580726,592.164754,-8656.879127,-592.164754
4396.581050,518.144159,-8733.488677,-370.102971
4396.581375,444.123565,-8963.317327,-444.123565
4396.581699,814.226536,-9116.536426,-148.041188
4396.582023,444.123565,-8503.660028,-222.061783
4396.582348,148.041188,-8810.098227,-222.061783
4396.582672,296.082377,-8503.660028,-444.123565
4396.582996,148.041188,-9116.536426,-370.102971
4396.583320,148.041188,-8503.660028,-370.102971
4396.583645,518.144159,-8580.269578,-296.082377
4396.583969,592.164754,-8733.488677,-296.082377
4396.584293,592.164754,-8427.050478,-444.123565
4396.584618,666.185348,-8656.879127,-296.082377
4396.584942,740.205942,-8886.707777,-444.123565
4396.585266,740.205942,-8427.050478,-222.061783
4396.585590,518.144159,-8427.050478,-592.164754
4396.585915,592.164754,-9116.536426,-370.102971
4396.586239,518.144159,-8273.831378,-370.102971
4396.586563,444.123565,-8656.879127,-444.123565
4396.586888,296.082377,-8503.660028,0.000000
4396.587212,592.164754,-8503.660028,-222.061783
4396.587536,666.185348,-8656.879127,-296.082377
4396.587860,740.205942,-8427.050478,-296.082377
4396.588185,296.082377,-8656.879127,-148.041188
4396.588509,592.164754,-8580.269578,0.000000
4396.588833,444.123565,-8580.269578,148.041188
4396.589158,444.123565,-8350.440928,-222.061783
4396.589482,148.041188,-8580.269578,-74.020594
4396.589806,444.123565,-8350.440928,-370.102971
4396.590130,296.082377,-9193.145976,0.000000
4396.590455,444.123565,-8733.488677,0.000000
4396.590779,222.061783,-8503.660028,-148.041188
4396.591103,666.185348,-8503.660028,-296.082377
4396.591428,518.144159,-8580.269578,-518.144159
4396.591752,444.123565,-8810.098227,-296.082377
4396.592076,296.082377,-8733.488677,-222.061783
4396.592400,222.061783,-8427.050478,0.000000
4396.592725,74.020594,-8886.707777,-222.061783
4396.593049,370.102971,-8273.831378,0.000000
4396.593373,296.082377,-8656.879127,-518.144159
4396.593697,74.020594,-8810.098227,-370.102971
4396.594022,370.102971,-8580.269578,-370.102971
4396.594346,444.123565,-8886.707777,-296.082377
4396.594670,444.123565,-8810.098227,-592.164754
4396.594995,370.102971,-8656.879127,-370.102971
4396.595319,444.123565,-8733.488677,-370.102971
4396.595643,296.082377,-8656.879127,-518.144159
4396.595967,444.123565,-8810.098227,-148.041188
4396.596292,444.123565,-8810.098227,-296.082377
4396.596616,148.041188,-8656.879127,-296.082377
4396.596940,296.082377,-8810.098227,-444.123565
4396.597265,444.123565,-8886.707777,148.041188
4396.597589,370.102971,-8733.488677,-444.123565
4396.597913,222.061783,-8580.269578,-296.082377
4396.598237,444.123565,-8503.660028,-296.082377
4396.598562,444.123565,-8886.707777,-444.123565
4396.598886,518.144159,-8886.707777,-444.123565
4396.599210,444.123565,-8427.050478,-518.144159
4396.599535,444.123565,-8580.269578,-518.144159
4396.599859,666.185348,-8427.050478,-444.123565
4396.600183,814.226536,-8580.269578,-222.061783
4396.600507,666.185348,-8503.660028,-666.185348
4396.600832,666.185348,-8350.440928,-296.082377
4396.601156,518.144159,-8580.269578,-666.185348
4396.601480,370.102971,-9116.536426,0.000000
4396.601805,592.164754,-8350.440928,-370.102971
4396.602129,592.164754,-8656.879127,-370.102971
4396.602453,592.164754,-8350.440928,-444.123565
4396.602777,370.102971,-8120.612279,-444.123565
4396.603102,518.144159,-8273.831378,-592.164754
4396.603426,222.061783,-8503.660028,-370.102971
4396.603750,518.144159,-8503.660028,-592.164754
4396.604075,888.247130,-8580.269578,-370.102971
4396.604399,814.226536,-8350.440928,-592.164754
4396.604723,370.102971,-8656.879127,-222.061783
4396.605047,518.144159,-8427.050478,-370.102971
4396.605372,370.102971,-8580.269578,-222.061783
4396.605696,888.247130,-8656.879127,-296.082377
4396.606020,814.226536,-8580.269578,-296.082377
4396.606345,518.144159,-8427.050478,-296.082377
4396.606669,148.041188,-8580.269578,-148.041188
4396.606993,296.082377,-8580.269578,-296.082377
4396.607317,444.123565,-8656.879127,-148.041188
4396.607642,296.082377,-8733.488677,-222.061783
4396.607966,296.082377,-8656.879127,-222.061783
4396.608290,296.082377,-8733.488677,-518.144159
4396.608615,666.185348,-8656.879127,-296.082377
4396.608939,222.061783,-8656.879127,-370.102971
4396.609263,222.061783,-8886.707777,-518.144159
4396.609588,370.102971,-8427.050478,0.000000
4396.609912,370.102971,-9116.536426,222.061783
4396.610236,74.020594,-9039.926876,-444.123565
4396.610561,74.020594,-8733.488677,-296.082377
4396.610885,0.000000,-8656.879127,-148.041188
4396.611209,370.102971,-8503.660028,-592.164754
4396.611534,370.102971,-8886.707777,-222.061783
