#time,accel_x,accel_y,accel_z
4461.278307,74.020594,-8580.269578,-370.102971
4461.278632,444.123565,-9039.926876,-148.041188
4461.278956,296.082377,-8120.612279,-148.041188
4461.279280,148.041188,-8503.660028,0.000000
4461.279605,222.061783,-8580.269578,-222.061783
4461.279929,888.247130,-7967.393179,148.041188
4461.280253,296.082377,-8810.098227,0.000000
4461.280578,444.123565,-8197.221829,74.020594
4461.280902,370.102971,-8503.660028,296.082377
4461.281226,222.061783,-8580.269578,444.123565
4461.281551,296.082377,-8503.660028,740.205942
4461.281875,296.082377,-8733.488677,592.164754
4461.282199,518.144159,-8580.269578,888.247130
4461.282524,370.102971,-8197.221829,740.205942
4461.282848,518.144159,-8580.269578,296.082377
4461.283172,296.082377,-8197.221829,518.144159
4461.283497,296.082377,-8197.221829,962.267725
4461.283821,518.144159,-8197.221829,592.164754
4461.284145,370.102971,-9193.145976,1036.288319
4461.284469,296.082377,-8580.269578,370.102971
4461.284794,222.061783,-8427.050478,666.185348
4461.285118,518.144159,-8580.269578,518.144159
4461.285442,518.144159,-8580.269578,814.226536
4461.285767,592.164754,-8580.269578,888.247130
4461.286091,370.102971,-8733.488677,592.164754
4461.286415,222.061783,-8580.269578,370.102971
4461.286740,444.123565,-9039.926876,296.082377
4461.287064,74.020594,-8886.707777,592.164754
4461.287388,444.123565,-8810.098227,518.144159
4461.287713,74.020594,-8427.050478,296.082377
4461.288037,444.123565,-8580.269578,370.102971
4461.288361,592.164754,-8733.488677,222.061783
4461.288686,518.144159,-8886.707777,148.041188
4461.289010,666.185348,-8656.879127,148.041188
4461.289335,592.164754,-8427.050478,444.123565
4461.289659,518.144159,-8427.050478,74.020594
4461.289983,296.082377,-8656.879127,222.061783
4461.290308,740.205942,-8427.050478,74.020594
4461.290632,666.185348,-8886.707777,-222.061783
4461.290957,296.082377,-8733.488677,0.000000
4461.291281,222.061783,-8044.002729,0.000000
4461.291605,222.061783,-8503.660028,0.000000
4461.291930,296.082377,-8503.660028,-148.041188
4461.292254,592.164754,-8580.269578,-148.041188
4461.292579,518.144159,-8120.612279,0.000000
4461.292903,666.185348,-8427.050478,-370.102971
4461.293227,370.102971,-8503.660028,-370.102971
4461.293552,592.164754,-8580.269578,-444.123565
4461.293876,444.123565,-8503.660028,-370.102971
4461.294201,592.164754,-8810.098227,-518.144159
4461.294525,370.102971,-8503.660028,-518.144159
4461.294849,222.061783,-8733.488677,-444.123565
4461.295174,444.123565,-8656.879127,-666.185348
4461.295498,444.123565,-8886.707777,-962.267725
4461.295823,518.144159,-8733.488677,-962.267725
4461.296147,518.144159,-8273.831378,-888.247130
4461.296471,370.102971,-8273.831378,-814.226536
4461.296796,444.123565,-8810.098227,-1036.288319
4461.297120,222.061783,-8656.879127,-888.247130
4461.297445,370.102971,-8810.098227,-1184.329507
4461.297769,370.102971,-8810.098227,-1110.308913
4461.298093,296.082377,-8810.098227,-888.247130
4461.298418,296.082377,-9039.926876,-962.267725
4461.298742,444.123565,-8656.879127,-1036.288319
4461.299067,296.082377,-8580.269578,-1110.308913
4461.299391,518.144159,-8886.707777,-1258.350101
4461.299715,888.247130,-8580.269578,-962.267725
4461.300040,888.247130,-8427.050478,-1110.308913
4461.300364,518.144159,-8886.707777,-1332.370696
4461.300689,370.102971,-8810.098227,-1036.288319
4461.301013,148.041188,-8810.098227,-1036.288319
4461.301337,148.041188,-8733.488677,-888.247130
4461.301662,370.102971,-9039.926876,-888.247130
4461.301986,74.020594,-8886.707777,-814.226536
4461.302311,444.123565,-8810.098227,-1110.308913
4461.302635,148.041188,-8810.098227,-962.267725
4461.302960,518.144159,-9039.926876,-1258.350101
4461.303284,518.144159,-8350.440928,-1036.288319
4461.303608,370.102971,-9346.365076,-1110.308913
4461.303933,592.164754,-9269.755526,-1036.288319
4461.304257,222.061783,-8733.488677,-888.247130
4461.304582,74.020594,-8810.098227,-888.247130
4461.304906,148.041188,-8733.488677,-814.226536
4461.305230,296.082377,-8656.879127,-1036.288319
4461.305555,222.061783,-8886.707777,-1036.288319
4461.305879,592.164754,-8580.269578,-814.226536
4461.306204,518.144159,-8963.317327,-888.247130
4461.306528,888.247130,-8427.050478,-962.267725
4461.306852,740.205942,-8120.612279,-370.102971
4461.307177,888.247130,-8810.098227,-888.247130
4461.307501,740.205942,-8580.269578,-444.123565
4461.307826,888.247130,-8733.488677,-666.185348
4461.308150,592.164754,-9269.755526,-370.102971
4461.308474,74.020594,-8810.098227,-444.123565
4461.308799,296.082377,-8810.098227,-296.082377
4461.309123,444.123565,-8733.488677,-444.123565
4461.309448,296.082377,-8810.098227,-370.102971
4461.309772,444.123565,-8810.098227,0.000000
4461.310096,592.164754,-8273.831378,0.000000
4461.310421,888.247130,-8886.707777,0.000000
4461.310745,1036.288319,-8580.269578,0.000000
4461.311070,888.247130,-8963.317327,740.205942
4461.311394,888.247130,-8656.879127,148.041188
4461.311718,888.247130,-9039.926876,370.102971
4461.312043,592.164754,-8733.488677,370.102971
4461.312367,518.144159,-8656.879127,592.164754
4461.312692,222.061783,-8427.050478,592.164754
4461.313016,666.185348,-8810.098227,518.144159
4461.313340,518.144159,-8427.050478,592.164754
4461.313665,740.205942,-8503.660028,814.226536
4461.313989,444.123565,-8656.879127,1110.308913
4461.314314,666.185348,-8656.879127,1036.288319
4461.314638,666.185348,-8580.269578,888.247130
4461.314962,518.144159,-8810.098227,1110.308913
4461.315287,370.102971,-8656.879127,888.247130
4461.315611,518.144159,-8810.098227,888.247130
4461.315936,296.082377,-8656.879127,1110.308913
4461.316260,0.000000,-8427.050478,1036.288319
4461.316584,222.061783,-8733.488677,888.247130
4461.316909,148.041188,-8656.879127,1628.453072
4461.317233,296.082377,-8350.440928,1332.370696
4461.317558,222.061783,-8350.440928,1110.308913
4461.317882,666.185348,-8427.050478,1184.329507
4461.318207,518.144159,-8197.221829,1332.370696
4461.318531,666.185348,-8580.269578,1110.308913
4461.318855,370.102971,-8503.660028,1184.329507
4461.319180,222.061783,-8503.660028,1036.288319
4461.319504,222.061783,-7507.735880,1184.329507
4461.319829,0.000000,-8350.440928,814.226536
4461.320153,0.000000,-8427.050478,740.205942
4461.320477,0.000000,-7967.393179,666.185348
4461.320802,0.000000,-8273.831378,888.247130
4461.321126,0.000000,-8503.660028,1036.288319
4461.321451,296.082377,-8350.440928,740.205942
4461.321775,370.102971,-8197.221829,592.164754
4461.322099,444.123565,-8503.660028,888.247130
4461.322424,0.000000,-7967.393179,740.205942
4461.322748,518.144159,-8273.831378,740.205942
4461.323073,444.123565,-8044.002729,592.164754
4461.323397,0.000000,-9652.803275,814.226536
4461.323721,296.082377,-8273.831378,0.000000
4461.324046,888.247130,-7354.516781,444.123565
4461.324370,-222.061783,-9116.536426,518.144159
4461.324695,592.164754,-9422.974625,-666.185348
4461.325019,74.020594,-7967.393179,74.020594
4461.325343,148.041188,-8886.707777,444.123565
4461.325668,518.144159,-7967.393179,-666.185348
4461.325992,0.000000,-9039.926876,0.000000
4461.326317,1110.308913,-9039.926876,370.102971
4461.326641,592.164754,-7584.345430,0.000000
4461.326965,0.000000,-8503.660028,0.000000
4461.327290,1036.288319,-8733.488677,-222.061783
4461.327614,296.082377,-8350.440928,-1036.288319
4461.327939,-222.061783,-9346.365076,-888.247130
4461.328263,740.205942,-8427.050478,-444.123565
4461.328587,74.020594,-8350.440928,-444.123565
4461.328912,148.041188,-9422.974625,-740.205942
4461.329236,666.185348,-7814.174080,0.000000
4461.329561,0.000000,-8810.098227,-296.082377
4461.329885,370.102971,-9116.536426,-962.267725
4461.330209,1184.329507,-7890.783629,-370.102971
4461.330534,148.041188,-8733.488677,-1258.350101
4461.330858,222.061783,-7967.393179,-296.082377
4461.331183,666.185348,-7584.345430,-962.267725
4461.331507,296.082377,-8963.317327,-1332.370696
4461.331831,370.102971,-8273.831378,-962.267725
4461.332156,444.123565,-8886.707777,-592.164754
4461.332480,148.041188,-8427.050478,-962.267725
4461.332805,740.205942,-8197.221829,-296.082377
4461.333129,370.102971,-8886.707777,-1258.350101
4461.333454,148.041188,-8733.488677,-962.267725
4461.333778,518.144159,-8197.221829,-962.267725
4461.334102,444.123565,-9039.926876,-962.267725
4461.334427,592.164754,-7967.393179,-962.267725
4461.334751,518.144159,-8810.098227,-666.185348
4461.335076,74.020594,-8427.050478,-296.082377
4461.335400,518.144159,-8427.050478,-740.205942
4461.335724,444.123565,-8733.488677,-1036.288319
4461.336049,74.020594,-8810.098227,-148.041188
4461.336373,148.041188,-8886.707777,-592.164754
4461.336698,222.061783,-8503.660028,-666.185348
4461.337022,296.082377,-8656.879127,-740.205942
4461.337346,518.144159,-8886.707777,-518.144159
4461.337671,518.144159,-8963.317327,0.000000
4461.337995,370.102971,-8733.488677,-1110.308913
4461.338320,370.102971,-8656.879127,-444.123565
4461.338644,296.082377,-8656.879127,-518.144159
4461.338968,148.041188,-8810.098227,-740.205942
4461.339293,296.082377,-8886.707777,-666.185348
4461.339617,74.020594,-8810.098227,-222.061783
4461.339942,0.000000,-8810.098227,-592.164754
4461.340266,740.205942,-8656.879127,-592.164754
4461.340590,222.061783,-8197.221829,0.000000
4461.340915,0.000000,-8810.098227,-814.226536
4461.341239,296.082377,-8503.660028,-222.061783
4461.341564,296.082377,-8044.002729,-444.123565
4461.341888,222.061783,-8886.707777,-148.041188
4461.342212,518.144159,-8656.879127,-370.102971
4461.342537,148.041188,-8810.098227,-370.102971
4461.342861,296.082377,-8656.879127,-814.226536
4461.343186,296.082377,-8580.269578,-74.020594
4461.343510,518.144159,-8503.660028,-148.041188
4461.343834,370.102971,-8273.831378,-296.082377
4461.344159,370.102971,-8580.269578,-666.185348
4461.344483,666.185348,-8656.879127,-222.061783
4461.344808,222.061783,-8197.221829,-296.082377
4461.345132,74.020594,-8503.660028,-592.164754
4461.345456,296.082377,-8503.660028,-518.144159
4461.345781,370.102971,-8503.660028,-666.185348
4461.346105,666.185348,-8656.879127,-666.185348
4461.346430,296.082377,-8044.002729,-518.144159
4461.346754,296.082377,-8427.050478,74.020594
4461.347078,296.082377,-8503.660028,0.000000
4461.347403,518.144159,-8580.269578,-518.144159
4461.347727,666.185348,-8886.707777,-148.041188
4461.348052,592.164754,-8197.221829,-296.082377
4461.348376,74.020594,-8350.440928,-444.123565
4461.348701,148.041188,-8273.831378,-296.082377
4461.349025,296.082377,-8580.269578,-370.102971
4461.349349,518.144159,-8810.098227,-444.123565
4461.349674,592.164754,-8656.879127,-444.123565
4461.349998,296.082377,-8503.660028,0.000000
4461.350323,592.164754,-8656.879127,0.000000
4461.350647,444.123565,-9116.536426,296.082377
4461.350971,74.020594,-8580.269578,74.020594
4461.351296,370.102971,-8580.269578,-148.041188
4461.351620,296.082377,-8350.440928,-296.082377
4461.351945,296.082377,-8503.660028,0.000000
4461.352269,74.020594,-8503.660028,-296.082377
4461.352593,0.000000,-8580.269578,-222.061783
4461.352918,222.061783,-8733.488677,-296.082377
4461.353242,222.061783,-8580.269578,-222.061783
4461.353567,592.164754,-8733.488677,-148.041188
4461.353891,518.144159,-8503.660028,-148.041188
4461.354215,592.164754,-8656.879127,-222.061783
4461.354540,518.144159,-8427.050478,0.000000
4461.354864,814.226536,-9116.536426,-444.123565
4461.355189,518.144159,-8350.440928,-296.082377
4461.355513,518.144159,-8503.660028,-444.123565
4461.355837,222.061783,-8273.831378,-222.061783
4461.356162,370.102971,-8427.050478,-296.082377
4461.356486,222.061783,-8886.707777,-370.102971
4461.356811,74.020594,-8580.269578,-222.061783
4461.357135,0.000000,-8427.050478,-222.061783
4461.357459,222.061783,-8656.879127,-296.082377
4461.357784,444.123565,-8273.831378,-222.061783
4461.358108,592.164754,-8503.660028,-592.164754
4461.358433,814.226536,-8733.488677,-518.144159
4461.358757,370.102971,-8427.050478,-518.144159
4461.359081,370.102971,-9193.145976,-592.164754
4461.359406,444.123565,-8810.098227,-518.144159
4461.359730,592.164754,-8886.707777,-592.164754
4461.360055,222.061783,-8580.269578,-814.226536
4461.360379,518.144159,-8580.269578,-740.205942
4461.360703,296.082377,-8733.488677,-1036.288319
4461.361028,370.102971,-8963.317327,-740.205942
4461.361352,518.144159,-8656.879127,-740.205942
4461.361677,518.144159,-9039.926876,-666.185348
4461.362001,1184.329507,-8733.488677,-518.144159
4461.362325,592.164754,-8810.098227,-814.226536
4461.362650,592.164754,-9116.536426,-740.205942
4461.362974,740.205942,-8656.879127,-962.267725
4461.363299,592.164754,-9116.536426,-592.164754
4461.363623,518.144159,-9116.536426,-888.247130
4461.363948,518.144159,-9039.926876,-814.226536
4461.364272,370.102971,-8886.707777,-1036.288319
4461.364596,296.082377,-8733.488677,-1110.308913
4461.364921,444.123565,-8580.269578,-888.247130
4461.365245,814.226536,-8963.317327,-1110.308913
4461.365570,740.205942,-8427.050478,-888.247130
4461.365894,666.185348,-8963.317327,-1110.308913
4461.366218,1110.308913,-8350.440928,-1184.329507
4461.366543,888.247130,-8733.488677,-1258.350101
4461.366867,592.164754,-8963.317327,-1554.432478
4461.367192,518.144159,-8886.707777,-1406.391290
4461.367516,444.123565,-8886.707777,-1258.350101
4461.367840,740.205942,-8733.488677,-1406.391290
4461.368165,370.102971,-8503.660028,-1406.391290
4461.368489,370.102971,-9039.926876,-1332.370696
4461.368814,592.164754,-8886.707777,-1332.370696
4461.369138,814.226536,-8810.098227,-1184.329507
4461.369462,592.164754,-9116.536426,-1480.411884
4461.369787,666.185348,-8810.098227,-1258.350101
4461.370111,296.082377,-8656.879127,-1332.370696
4461.370436,1036.288319,-9116.536426,-1184.329507
4461.370760,444.123565,-8733.488677,-1258.350101
4461.371084,370.102971,-8963.317327,-1184.329507
4461.371409,222.061783,-8733.488677,-1258.350101
4461.371733,222.061783,-8810.098227,-1184.329507
4461.372058,666.185348,-9116.536426,-1480.411884
4461.372382,666.185348,-8733.488677,-962.267725
4461.372706,296.082377,-8580.269578,-1036.288319
4461.373031,592.164754,-8963.317327,-1036.288319
4461.373355,814.226536,-8580.269578,-740.205942
4461.373680,666.185348,-8656.879127,-888.247130
4461.374004,592.164754,-8656.879127,-1332.370696
4461.374328,296.082377,-8963.317327,-888.247130
4461.374653,444.123565,-8656.879127,-740.205942
4461.374977,222.061783,-8580.269578,-1110.308913
4461.375302,444.123565,-8656.879127,-1110.308913
4461.375626,592.164754,-8503.660028,-962.267725
4461.375950,888.247130,-8120.612279,-1258.350101
4461.376275,444.123565,-8273.831378,-814.226536
4461.376599,592.164754,-8503.660028,-888.247130
4461.376924,740.205942,-8350.440928,-814.226536
4461.377248,444.123565,-8580.269578,-1036.288319
4461.377572,518.144159,-8810.098227,0.000000
4461.377897,296.082377,-8273.831378,-518.144159
4461.378221,222.061783,-8503.660028,-740.205942
4461.378546,370.102971,-8044.002729,-666.185348
4461.378870,592.164754,-8197.221829,-888.247130
4461.379195,518.144159,-8656.879127,-518.144159
4461.379519,518.144159,-8120.612279,-592.164754
4461.379843,592.164754,-8427.050478,-592.164754
4461.380168,666.185348,-7967.393179,-444.123565
4461.380492,444.123565,-8810.098227,-888.247130
4461.380817,592.164754,-8273.831378,-518.144159
4461.381141,222.061783,-8427.050478,-222.061783
4461.381465,148.041188,-8733.488677,-222.061783
4461.381790,296.082377,-7890.783629,-148.041188
4461.382114,222.061783,-8503.660028,-518.144159
4461.382439,296.082377,-8733.488677,0.000000
4461.382763,666.185348,-8503.660028,-370.102971
4461.383087,592.164754,-8427.050478,0.000000
4461.383412,740.205942,-8733.488677,-592.164754
4461.383736,518.144159,-8503.660028,0.000000
4461.384061,592.164754,-8580.269578,-370.102971
4461.384385,222.061783,-8427.050478,74.020594
4461.384709,0.000000,-8120.612279,518.144159
4461.385034,74.020594,-8427.050478,296.082377
4461.385358,148.041188,-8427.050478,74.020594
4461.385683,74.020594,-8656.879127,74.020594
4461.386007,148.041188,-8580.269578,-592.164754
4461.386331,370.102971,-8350.440928,74.020594
4461.386656,444.123565,-8427.050478,74.020594
4461.386980,518.144159,-8427.050478,148.041188
4461.387305,518.144159,-8350.440928,148.041188
4461.387629,592.164754,-8503.660028,0.000000
4461.387953,148.041188,-8656.879127,222.061783
4461.388278,74.020594,-8350.440928,148.041188
4461.388602,148.041188,-8350.440928,74.020594
4461.388927,296.082377,-8197.221829,0.000000
4461.389251,222.061783,-8427.050478,-222.061783
4461.389575,518.144159,-8427.050478,148.041188
4461.389900,518.144159,-8273.831378,74.020594
4461.390224,740.205942,-9269.755526,74.020594
4461.390549,518.144159,-8350.440928,74.020594
4461.390873,666.185348,-8350.440928,0.000000
4461.391198,592.164754,-9193.145976,0.000000
4461.391522,740.205942,-8427.050478,222.061783
4461.391846,444.123565,-8350.440928,0.000000
4461.392171,518.144159,-8580.269578,0.000000
4461.392495,444.123565,-8810.098227,0.000000
4461.392820,444.123565,-8656.879127,-222.061783
4461.393144,666.185348,-9039.926876,0.000000
4461.393468,444.123565,-8427.050478,0.000000
4461.393793,592.164754,-9039.926876,-296.082377
4461.394117,518.144159,-8656.879127,-370.102971
4461.394442,814.226536,-9346.365076,-148.041188
4461.394766,592.164754,-8733.488677,0.000000
4461.395090,592.164754,-8810.098227,0.000000
4461.395415,518.144159,-8580.269578,-148.041188
4461.395739,296.082377,-8656.879127,-444.123565
4461.396064,814.226536,-8810.098227,-444.123565
4461.396388,518.144159,-8656.879127,-592.164754
4461.396713,592.164754,-8733.488677,-296.082377
4461.397037,444.123565,-8733.488677,-592.164754
4461.397361,296.082377,-8503.660028,-296.082377
4461.397686,666.185348,-8580.269578,-740.205942
4461.398010,518.144159,-8810.098227,-592.164754
4461.398335,666.185348,-8810.098227,-444.123565
4461.398659,518.144159,-8810.098227,-444.123565
4461.398983,296.082377,-8350.440928,-592.164754
4461.399308,296.082377,-8503.660028,-444.123565
4461.399632,444.123565,-8656.879127,-666.185348
4461.399957,370.102971,-8733.488677,-592.164754
4461.400281,888.247130,-8580.269578,-518.144159
4461.400605,222.061783,-9039.926876,-814.226536
4461.400930,518.144159,-8656.879127,-592.164754
4461.401254,444.123565,-8273.831378,-444.123565
4461.401579,74.020594,-8273.831378,-888.247130
4461.401903,296.082377,-8580.269578,-370.102971
4461.402228,370.102971,-8580.269578,-518.144159
4461.402552,222.061783,-8273.831378,-518.144159
4461.402876,296.082377,-8427.050478,-444.123565
4461.403201,370.102971,-8427.050478,-518.144159
4461.403525,444.123565,-8197.221829,-444.123565
4461.403850,370.102971,-8427.050478,-444.123565
4461.404174,148.041188,-8580.269578,-518.144159
4461.404498,518.144159,-8427.050478,-444.123565
4461.404823,370.102971,-8503.660028,-518.144159
4461.405147,592.164754,-8503.660028,-444.123565
4461.405472,222.061783,-8427.050478,-296.082377
4461.405796,814.226536,-8733.488677,-444.123565
4461.406121,444.123565,-8120.612279,-296.082377
4461.406445,222.061783,-8503.660028,-148.041188
4461.406769,370.102971,-8273.831378,-296.082377
4461.407094,222.061783,-8273.831378,-296.082377
4461.407418,148.041188,-8120.612279,-370.102971
4461.407743,518.144159,-8350.440928,-370.102971
4461.408067,370.102971,-8120.612279,0.000000
4461.408391,444.123565,-8580.269578,0.000000
4461.408716,814.226536,-8503.660028,-296.082377
4461.409040,444.123565,-8733.488677,0.000000
4461.409365,740.205942,-8503.660028,-148.041188
4461.409689,518.144159,-8197.221829,0.000000
4461.410013,518.144159,-8503.660028,-444.123565
4461.410338,518.144159,-8580.269578,-222.061783
4461.410662,222.061783,-7967.393179,0.000000
4461.410987,74.020594,-8733.488677,-296.082377
4461.411311,370.102971,-8273.831378,-296.082377
4461.411636,592.164754,-8733.488677,-74.020594
4461.411960,592.164754,-8580.269578,-370.102971
4461.412284,518.144159,-8580.269578,0.000000
4461.412609,740.205942,-8350.440928,-444.123565
4461.412933,888.247130,-9193.145976,-148.041188
4461.413258,370.102971,-8427.050478,-370.102971
4461.413582,222.061783,-9346.365076,-444.123565
4461.413906,222.061783,-8503.660028,-296.082377
4461.414231,148.041188,-8656.879127,-222.061783
4461.414555,222.061783,-8810.098227,-518.144159
4461.414880,370.102971,-8963.317327,-222.061783
4461.415204,518.144159,-8580.269578,-518.144159
4461.415528,518.144159,-8733.488677,-296.082377
4461.415853,370.102971,-9193.145976,0.000000
4461.416177,444.123565,-8810.098227,0.000000
4461.416502,444.123565,-8503.660028,-148.041188
4461.416826,370.102971,-8656.879127,0.000000
4461.417151,518.144159,-8427.050478,-296.082377
4461.417475,148.041188,-8963.317327,222.061783
4461.417799,148.041188,-8503.660028,-222.061783
4461.418124,0.000000,-8963.317327,0.000000
4461.418448,222.061783,-8886.707777,0.000000
4461.418773,444.123565,-8886.707777,0.000000
4461.419097,666.185348,-8810.098227,0.000000
4461.419421,518.144159,-8810.098227,370.102971
4461.419746,740.205942,-8733.488677,0.000000
4461.420070,592.164754,-8503.660028,0.000000
4461.420395,518.144159,-8810.098227,296.082377
4461.420719,740.205942,-8656.879127,296.082377
4461.421043,740.205942,-8273.831378,148.041188
4461.421368,962.267725,-8733.488677,0.000000
4461.421692,740.205942,-8427.050478,148.041188
4461.422017,444.123565,-8810.098227,370.102971
4461.422341,370.102971,-8733.488677,222.061783
4461.422666,444.123565,-8733.488677,148.041188
4461.422990,518.144159,-8810.098227,296.082377
4461.423314,444.123565,-8580.269578,222.061783
4461.423639,518.144159,-8503.660028,370.102971
4461.423963,370.102971,-8427.050478,148.041188
4461.424288,1036.288319,-8656.879127,296.082377
4461.424612,296.082377,-8350.440928,222.061783
4461.424936,444.123565,-8810.098227,0.000000
4461.425261,296.082377,-8427.050478,0.000000
4461.425585,518.144159,-7814.174080,222.061783
4461.425910,370.102971,-8503.660028,-148.041188
4461.426234,296.082377,-8580.269578,222.061783
4461.426559,740.205942,-8886.707777,0.000000
4461.426883,296.082377,-8503.660028,0.000000
4461.427207,444.123565,-8580.269578,0.000000
4461.427532,666.185348,-8656.879127,148.041188
4461.427856,444.123565,-8273.831378,148.041188
4461.428181,296.082377,-8427.050478,74.020594
4461.428505,296.082377,-8580.269578,296.082377
4461.428829,148.041188,-8656.879127,148.041188
4461.429154,222.061783,-8886.707777,-222.061783
4461.429478,74.020594,-8733.488677,0.000000
4461.429803,-296.082377,-8810.098227,296.082377
4461.430127,222.061783,-8656.879127,222.061783
4461.430451,222.061783,-8503.660028,0.000000
4461.430776,222.061783,-8886.707777,74.020594
4461.431100,592.164754,-8656.879127,-222.061783
4461.431425,518.144159,-8427.050478,148.041188
4461.431749,444.123565,-8810.098227,-444.123565
4461.432074,148.041188,-8656.879127,0.000000
4461.432398,296.082377,-8963.317327,-444.123565
4461.432722,222.061783,-8963.317327,-592.164754
4461.433047,222.061783,-8350.440928,-370.102971
4461.433371,148.041188,-8810.098227,-148.041188
4461.433696,296.082377,-8656.879127,-592.164754
4461.434020,296.082377,-8886.707777,-518.144159
4461.434344,444.123565,-8810.098227,-518.144159
4461.434669,592.164754,-8733.488677,-296.082377
4461.434993,592.164754,-8733.488677,-592.164754
4461.435318,444.123565,-9039.926876,-592.164754
4461.435642,592.164754,-8427.050478,-888.247130
4461.435966,296.082377,-8733.488677,-740.205942
4461.436291,222.061783,-8810.098227,-740.205942
4461.436615,74.020594,-8810.098227,-518.144159
4461.436940,518.144159,-8810.098227,-592.164754
4461.437264,518.144159,-8580.269578,-518.144159
4461.437589,296.082377,-8427.050478,-518.144159
4461.437913,666.185348,-9039.926876,-222.061783
4461.438237,592.164754,-8273.831378,-370.102971
4461.438562,518.144159,-8350.440928,0.000000
4461.438886,296.082377,-8733.488677,-296.082377
4461.439211,370.102971,-8427.050478,-148.041188
4461.439535,148.041188,-8350.440928,-592.164754
4461.439859,222.061783,-8503.660028,-740.205942
4461.440184,0.000000,-8656.879127,-370.102971
4461.440508,0.000000,-8503.660028,-370.102971
4461.440833,222.061783,-8197.221829,-370.102971
4461.441157,296.082377,-8733.488677,-222.061783
4461.441482,518.144159,-8427.050478,-518.144159
4461.441806,592.164754,-8197.221829,-296.082377
4461.442130,444.123565,-8580.269578,-222.061783
4461.442455,518.144159,-8427.050478,-296.082377
4461.442779,296.082377,-8197.221829,-518.144159
4461.443104,222.061783,-8427.050478,-296.082377
4461.443428,74.020594,-8733.488677,-444.123565
4461.443752,148.041188,-8580.269578,-222.061783
4461.444077,148.041188,-8810.098227,-370.102971
4461.444401,296.082377,-8427.050478,-444.123565
4461.444726,296.082377,-9039.926876,-222.061783
4461.445050,592.164754,-8503.660028,-148.041188
4461.445374,370.102971,-8427.050478,222.061783
4461.445699,222.061783,-8733.488677,-74.020594
4461.446023,296.082377,-8810.098227,-222.061783
4461.446348,370.102971,-8350.440928,-592.164754
4461.446672,148.041188,-8810.098227,-370.102971
4461.446997,74.020594,-8427.050478,-592.164754
4461.447321,74.020594,-8656.879127,-296.082377
4461.447645,74.020594,-8503.660028,-666.185348
4461.447970,148.041188,-8656.879127,-518.144159
4461.448294,518.144159,-9193.145976,-962.267725
4461.448619,0.000000,-8503.660028,0.000000
4461.448943,370.102971,-8350.440928,-222.061783
4461.449267,222.061783,-8810.098227,-370.102971
4461.449592,148.041188,-8580.269578,-296.082377
4461.449916,296.082377,-8656.879127,-296.082377
4461.450241,370.102971,-8503.660028,-222.061783
4461.450565,222.061783,-8810.098227,-370.102971
4461.450889,296.082377,-8886.707777,-518.144159
4461.451214,370.102971,-8503.660028,-370.102971
4461.451538,74.020594,-8733.488677,-296.082377
4461.451863,444.123565,-8810.098227,-222.061783
4461.452187,444.123565,-8427.050478,-444.123565
4461.452512,666.185348,-8350.440928,0.000000
4461.452836,518.144159,-8273.831378,-148.041188
4461.453160,814.226536,-8580.269578,-222.061783
4461.453485,592.164754,-8427.050478,-296.082377
4461.453809,1036.288319,-8580.269578,-444.123565
4461.454134,740.205942,-8580.269578,-592.164754
4461.454458,592.164754,-8656.879127,-592.164754
4461.454782,370.102971,-8656.879127,-592.164754
4461.455107,296.082377,-8733.488677,-814.226536
4461.455431,1110.308913,-8733.488677,-370.102971
4461.455756,370.102971,-8350.440928,-518.144159
4461.456080,740.205942,-8733.488677,-592.164754
4461.456404,666.185348,-8503.660028,-518.144159
4461.456729,888.247130,-8427.050478,-666.185348
4461.457053,592.164754,-8580.269578,-370.102971
4461.457378,444.123565,-8350.440928,-370.102971
4461.457702,444.123565,-8580.269578,-592.164754
4461.458027,0.000000,-8733.488677,-370.102971
4461.458351,370.102971,-8963.317327,-296.082377
4461.458675,296.082377,-8580.269578,-518.144159
4461.459000,148.041188,-8273.831378,-222.061783
4461.459324,370.102971,-8503.660028,-444.123565
4461.459649,518.144159,-9116.536426,74.020594
4461.459973,444.123565,-8273.831378,0.000000
4461.460297,666.185348,-8350.440928,-296.082377
4461.460622,888.247130,-8580.269578,-444.123565
4461.460946,444.123565,-8963.317327,296.082377
4461.461271,222.061783,-8580.269578,-370.102971
4461.461595,222.061783,-8350.440928,-592.164754
4461.461920,296.082377,-8810.098227,-370.102971
4461.462244,296.082377,-8580.269578,-444.123565
4461.462568,296.082377,-8120.612279,-296.082377
4461.462893,222.061783,-8656.879127,-222.061783
4461.463217,740.205942,-8350.440928,-296.082377
4461.463542,666.185348,-8427.050478,-444.123565
4461.463866,1036.288319,-8503.660028,-370.102971
4461.464190,370.102971,-8427.050478,0.000000
4461.464515,592.164754,-8197.221829,0.000000
4461.464839,222.061783,-8427.050478,-518.144159
4461.465164,222.061783,-8963.317327,-296.082377
4461.465488,148.041188,-8656.879127,-592.164754
4461.465812,296.082377,-8503.660028,-296.082377
4461.466137,222.061783,-8273.831378,-296.082377
4461.466461,444.123565,-8810.098227,-370.102971
4461.466786,444.123565,-8580.269578,-296.082377
4461.467110,740.205942,-8273.831378,-444.123565
4461.467435,666.185348,-8503.660028,-370.102971
4461.467759,888.247130,-8427.050478,-222.061783
4461.468083,592.164754,-8656.879127,0.000000
4461.468408,592.164754,-8656.879127,-444.123565
4461.468732,592.164754,-8733.488677,-666.185348
4461.469057,444.123565,-8886.707777,-592.164754
4461.469381,444.123565,-8503.660028,-518.144159
4461.469705,518.144159,-8427.050478,-592.164754
4461.470030,444.123565,-8503.660028,-518.144159
4461.470354,814.226536,-8580.269578,-666.185348
4461.470679,1110.308913,-8580.269578,-592.164754
4461.471003,888.247130,-8580.269578,-148.041188
4461.471327,666.185348,-8656.879127,-518.144159
4461.471652,592.164754,-8503.660028,-370.102971
4461.471976,814.226536,-8580.269578,-518.144159
4461.472301,962.267725,-8733.488677,-740.205942
4461.472625,518.144159,-9193.145976,-666.185348
4461.472950,592.164754,-8503.660028,-592.164754
4461.473274,444.123565,-8580.269578,-888.247130
4461.473598,518.144159,-8886.707777,-592.164754
4461.473923,592.164754,-8580.269578,-666.185348
4461.474247,740.205942,-8963.317327,-888.247130
4461.474572,814.226536,-8656.879127,-666.185348
4461.474896,666.185348,-8656.879127,-814.226536
4461.475220,592.164754,-8810.098227,-740.205942
4461.475545,444.123565,-8580.269578,-666.185348
4461.475869,518.144159,-8963.317327,-1036.288319
4461.476194,666.185348,-8886.707777,-1036.288319
4461.476518,444.123565,-8580.269578,-1184.329507
4461.476842,296.082377,-8963.317327,-962.267725
4461.477167,370.102971,-8733.488677,-1110.308913
4461.477491,296.082377,-8580.269578,-962.267725
4461.477816,592.164754,-8580.269578,-888.247130
4461.478140,666.185348,-8656.879127,-592.164754
4461.478465,444.123565,-8656.879127,-888.247130
4461.478789,666.185348,-8886.707777,-740.205942
4461.479113,296.082377,-8656.879127,-888.247130
4461.479438,666.185348,-8810.098227,-518.144159
4461.479762,296.082377,-8273.831378,-888.247130
4461.480087,222.061783,-8733.488677,-666.185348
4461.480411,74.020594,-8810.098227,-740.205942
4461.480735,444.123565,-8886.707777,0.000000
4461.481060,370.102971,-8350.440928,-666.185348
4461.481384,592.164754,-8656.879127,-518.144159
4461.481709,444.123565,-8350.440928,-592.164754
4461.482033,444.123565,-8580.269578,-370.102971
4461.482358,296.082377,-8273.831378,-296.082377
4461.482682,444.123565,-8733.488677,-666.185348
4461.483006,296.082377,-8656.879127,-518.144159
4461.483331,74.020594,-8503.660028,-370.102971
4461.483655,0.000000,-8273.831378,-444.123565
4461.483980,222.061783,-8733.488677,-592.164754
4461.484304,296.082377,-8733.488677,-666.185348
4461.484628,740.205942,-8427.050478,-740.205942
4461.484953,592.164754,-8273.831378,0.000000
4461.485277,592.164754,-8580.269578,-518.144159
4461.485602,518.144159,-8350.440928,-370.102971
4461.485926,740.205942,-8503.660028,-444.123565
4461.486250,592.164754,-8503.660028,-740.205942
4461.486575,814.226536,-8197.221829,-370.102971
4461.486899,444.123565,-8197.221829,-444.123565
4461.487224,148.041188,-8733.488677,-518.144159
4461.487548,296.082377,-8427.050478,-370.102971
4461.487873,518.144159,-8503.660028,-222.061783
4461.488197,444.123565,-8580.269578,-740.205942
4461.488521,592.164754,-8503.660028,-222.061783
4461.488846,444.123565,-8580.269578,-148.041188
4461.489170,592.164754,-8580.269578,-148.041188
4461.489495,518.144159,-8427.050478,-592.164754
4461.489819,518.144159,-8733.488677,-296.082377
4461.490143,814.226536,-8580.269578,0.000000
4461.490467,222.061783,-8580.269578,-296.082377
4461.490792,518.144159,-8886.707777,-888.247130
4461.491116,296.082377,-8580.269578,-296.082377
4461.491440,444.123565,-8733.488677,-370.102971
4461.491764,518.144159,-8580.269578,-222.061783
4461.492089,740.205942,-8197.221829,0.000000
4461.492413,740.205942,-8810.098227,0.000000
4461.492737,444.123565,-8733.488677,-370.102971
4461.493061,222.061783,-8580.269578,-222.061783
4461.493386,592.164754,-8810.098227,-222.061783
4461.493710,518.144159,-8733.488677,0.000000
4461.494034,296.082377,-8886.707777,-148.041188
4461.494359,296.082377,-8350.440928,-370.102971
4461.494683,518.144159,-8656.879127,-296.082377
4461.495007,296.082377,-8503.660028,-148.041188
4461.495331,296.082377,-8733.488677,-370.102971
4461.495656,518.144159,-8656.879127,-444.123565
4461.495980,518.144159,-8656.879127,-148.041188
4461.496304,666.185348,-8580.269578,0.000000
4461.496628,518.144159,-9116.536426,-518.144159
4461.496953,592.164754,-8810.098227,-518.144159
4461.497277,148.041188,-8273.831378,-148.041188
4461.497601,222.061783,-8580.269578,-518.144159
4461.497925,444.123565,-8656.879127,-592.164754
4461.498250,74.020594,-8580.269578,-370.102971
4461.498574,444.123565,-8503.660028,-518.144159
4461.498898,518.144159,-8656.879127,-370.102971
4461.499222,814.226536,-9193.145976,-370.102971
4461.499547,444.123565,-8733.488677,-444.123565
4461.499871,518.144159,-8503.660028,-444.123565
4461.500195,518.144159,-8733.488677,-444.123565
4461.500519,814.226536,-8503.660028,-296.082377
4461.500844,592.164754,-8656.879127,-222.061783
4461.501168,148.041188,-8580.269578,-444.123565
4461.501492,444.123565,-8733.488677,-370.102971
4461.501817,370.102971,-8963.317327,-296.082377
4461.502141,814.226536,-9039.926876,-370.102971
4461.502465,444.123565,-8656.879127,-296.082377
4461.502789,592.164754,-8886.707777,-74.020594
4461.503114,518.144159,-8427.050478,-222.061783
4461.503438,814.226536,-8886.707777,-370.102971
4461.503762,518.144159,-8810.098227,-518.144159
4461.504086,518.144159,-8580.269578,-518.144159
4461.504411,370.102971,-8656.879127,-666.185348
4461.504735,592.164754,-8886.707777,-518.144159
4461.505059,592.164754,-8427.050478,-666.185348
4461.505383,518.144159,-8656.879127,-814.226536
4461.505708,370.102971,-8886.707777,-740.205942
4461.506032,444.123565,-8810.098227,-814.226536
4461.506356,444.123565,-8656.879127,-962.267725
4461.506680,518.144159,-8427.050478,-592.164754
4461.507005,592.164754,-8886.707777,-666.185348
4461.507329,666.185348,-8886.707777,-740.205942
4461.507653,666.185348,-8656.879127,-296.082377
4461.507977,444.123565,-9039.926876,-518.144159
4461.508302,296.082377,-8427.050478,-666.185348
4461.508626,222.061783,-8886.707777,-888.247130
4461.508950,666.185348,-8580.269578,-740.205942
4461.509275,444.123565,-8656.879127,-444.123565
4461.509599,296.082377,-8580.269578,-518.144159
4461.509923,444.123565,-8733.488677,-592.164754
4461.510247,444.123565,-8503.660028,-962.267725
4461.510572,666.185348,-9039.926876,-666.185348
4461.510896,814.226536,-8427.050478,-444.123565
4461.511220,592.164754,-8427.050478,-444.123565
4461.511544,370.102971,-8810.098227,-444.123565
4461.511869,296.082377,-7737.564530,-370.102971
4461.512193,148.041188,-8886.707777,-518.144159
4461.512517,222.061783,-8656.879127,-592.164754
4461.512841,148.041188,-8580.269578,-370.102971
4461.513166,296.082377,-8656.879127,-518.144159
4461.513490,370.102971,-8886.707777,-740.205942
4461.513814,666.185348,-8580.269578,-444.123565
4461.514138,666.185348,-8580.269578,-148.041188
4461.514463,888.247130,-8656.879127,0.000000
4461.514787,518.144159,-9039.926876,0.000000
4461.515111,592.164754,-8656.879127,-222.061783
4461.515436,592.164754,-8503.660028,-296.082377
4461.515760,444.123565,-9039.926876,0.000000
4461.516084,74.020594,-8503.660028,-222.061783
4461.516408,148.041188,-8580.269578,0.000000
4461.516733,222.061783,-8580.269578,-148.041188
4461.517057,444.123565,-8580.269578,0.000000
4461.517381,666.185348,-8503.660028,0.000000
4461.517705,0.000000,-8656.879127,444.123565
4461.518030,740.205942,-8427.050478,222.061783
4461.518354,148.041188,-8810.098227,74.020594
4461.518678,666.185348,-8503.660028,0.000000
4461.519002,518.144159,-8427.050478,-222.061783
4461.519327,444.123565,-8503.660028,-222.061783
4461.519651,148.041188,-8120.612279,74.020594
4461.519975,0.000000,-8427.050478,0.000000
4461.520299,296.082377,-8733.488677,0.000000
4461.520624,444.123565,-8197.221829,0.000000
4461.520948,296.082377,-8580.269578,-296.082377
4461.521272,518.144159,-8350.440928,0.000000
4461.521596,592.164754,-8350.440928,0.000000
4461.521921,296.082377,-8733.488677,-296.082377
4461.522245,370.102971,-8427.050478,0.000000
4461.522569,444.123565,-8733.488677,-370.102971
4461.522894,444.123565,-8886.707777,-296.082377
4461.523218,296.082377,-9576.193725,74.020594
4461.523542,74.020594,-8656.879127,-148.041188
4461.523866,0.000000,-8273.831378,0.000000
4461.524191,296.082377,-8580.269578,0.000000
4461.524515,444.123565,-8733.488677,-370.102971
4461.524839,740.205942,-8656.879127,-148.041188
4461.525163,592.164754,-8503.660028,-296.082377
4461.525488,296.082377,-8810.098227,0.000000
4461.525812,444.123565,-8503.660028,0.000000
4461.526136,0.000000,-9269.755526,148.041188
4461.526460,222.061783,-8580.269578,0.000000
4461.526785,222.061783,-8733.488677,0.000000
4461.527109,148.041188,-8886.707777,0.000000
4461.527433,0.000000,-8886.707777,-74.020594
4461.527757,444.123565,-8810.098227,-370.102971
4461.528082,592.164754,-8580.269578,0.000000
4461.528406,666.185348,-8197.221829,-370.102971
4461.528730,518.144159,-8580.269578,-296.082377
4461.529054,814.226536,-8350.440928,-296.082377
4461.529379,740.205942,-8427.050478,-296.082377
4461.529703,666.185348,-8963.317327,-370.102971
4461.530027,296.082377,-8350.440928,-222.061783
4461.530352,814.226536,-8886.707777,0.000000
4461.530676,222.061783,-8580.269578,-296.082377
4461.531000,222.061783,-8503.660028,-296.082377
4461.531324,296.082377,-8656.879127,-296.082377
4461.531649,592.164754,-8656.879127,0.000000
4461.531973,444.123565,-8886.707777,-222.061783
4461.532297,222.061783,-8733.488677,0.000000
4461.532621,518.144159,-8273.831378,-296.082377
4461.532946,444.123565,-8580.269578,-296.082377
4461.533270,518.144159,-8580.269578,0.000000
4461.533594,444.123565,-8427.050478,-296.082377
4461.533918,296.082377,-8733.488677,74.020594
4461.534243,296.082377,-8963.317327,-148.041188
4461.534567,296.082377,-8886.707777,-444.123565
4461.534891,370.102971,-8733.488677,0.000000
4461.535215,444.123565,-8273.831378,-296.082377
4461.535540,518.144159,-8580.269578,0.000000
4461.535864,592.164754,-8350.440928,-148.041188
4461.536188,666.185348,-8350.440928,222.061783
4461.536512,592.164754,-8427.050478,0.000000
4461.536837,666.185348,-8580.269578,-148.041188
4461.537161,296.082377,-8273.831378,-296.082377
4461.537485,370.102971,-9116.536426,444.123565
4461.537810,370.102971,-8350.440928,-222.061783
4461.538134,370.102971,-8963.317327,0.000000
4461.538458,296.082377,-8503.660028,-370.102971
4461.538782,0.000000,-9039.926876,148.041188
4461.539107,148.041188,-8503.660028,-444.123565
4461.539431,370.102971,-8656.879127,0.000000
4461.539755,518.144159,-8503.660028,-222.061783
4461.540079,444.123565,-8580.269578,0.000000
4461.540404,444.123565,-8503.660028,0.000000
4461.540728,518.144159,-8656.879127,-370.102971
4461.541052,222.061783,-8810.098227,-148.041188
4461.541376,0.000000,-8503.660028,-518.144159
4461.541701,814.226536,-8427.050478,0.000000
4461.542025,296.082377,-8503.660028,0.000000
4461.542349,296.082377,-8580.269578,-296.082377
4461.542673,296.082377,-8656.879127,-444.123565
4461.542998,370.102971,-8810.098227,296.082377
4461.543322,666.185348,-8656.879127,-370.102971
4461.543646,370.102971,-8810.098227,-148.041188
4461.543971,222.061783,-8963.317327,0.000000
4461.544295,370.102971,-8810.098227,74.020594
4461.544619,296.082377,-8810.098227,0.000000
4461.544943,148.041188,-8656.879127,-222.061783
4461.545268,296.082377,-8963.317327,-148.041188
4461.545592,222.061783,-8580.269578,-296.082377
4461.545916,0.000000,-8886.707777,74.020594
4461.546240,370.102971,-8810.098227,-444.123565
4461.546565,518.144159,-8656.879127,-370.102971
4461.546889,518.144159,-8810.098227,-370.102971
4461.547213,296.082377,-8580.269578,370.102971
4461.547537,296.082377,-8580.269578,0.000000
4461.547862,518.144159,-8580.269578,-518.144159
4461.548186,370.102971,-8580.269578,-296.082377
4461.548510,370.102971,-8580.269578,-444.123565
4461.548834,1036.288319,-8656.879127,-592.164754
4461.549159,296.082377,-8810.098227,-370.102971
4461.549483,74.020594,-8733.488677,-370.102971
4461.549807,148.041188,-8503.660028,-222.061783
4461.550131,1036.288319,-8656.879127,-296.082377
4461.550456,740.205942,-8503.660028,-222.061783
4461.550780,666.185348,-8810.098227,0.000000
4461.551104,518.144159,-8580.269578,0.000000
4461.551429,370.102971,-8733.488677,148.041188
4461.551753,222.061783,-8350.440928,148.041188
4461.552077,148.041188,-8503.660028,-148.041188
4461.552401,444.123565,-8350.440928,0.000000
4461.552726,0.000000,-8197.221829,-222.061783
4461.553050,222.061783,-8886.707777,-222.061783
4461.553374,296.082377,-8350.440928,-444.123565
4461.553698,370.102971,-8886.707777,74.020594
4461.554023,296.082377,-8273.831378,0.000000
4461.554347,370.102971,-8120.612279,222.061783
4461.554671,444.123565,-8886.707777,0.000000
4461.554995,666.185348,-8503.660028,-444.123565
4461.555320,222.061783,-8503.660028,-222.061783
4461.555644,592.164754,-8886.707777,-444.123565
4461.555968,370.102971,-8120.612279,-222.061783
4461.556292,296.082377,-8733.488677,-518.144159
4461.556617,74.020594,-8580.269578,-592.164754
4461.556941,370.102971,-8656.879127,-444.123565
4461.557265,518.144159,-8580.269578,-814.226536
4461.557589,296.082377,-8273.831378,-222.061783
4461.557914,444.123565,-8733.488677,0.000000
4461.558238,444.123565,-8810.098227,-222.061783
4461.558562,1036.288319,-8886.707777,-296.082377
4461.558887,592.164754,-8886.707777,-370.102971
4461.559211,518.144159,-8656.879127,0.000000
4461.559535,518.144159,-8427.050478,-370.102971
4461.559859,0.000000,-8503.660028,0.000000
4461.560184,222.061783,-8656.879127,-296.082377
4461.560508,148.041188,-8427.050478,-296.082377
4461.560832,296.082377,-8886.707777,0.000000
4461.561156,296.082377,-8580.269578,74.020594
4461.561481,814.226536,-8273.831378,0.000000
4461.561805,814.226536,-8580.269578,-148.041188
4461.562129,740.205942,-8656.879127,-222.061783
4461.562453,666.185348,-8733.488677,-222.061783
4461.562778,666.185348,-8044.002729,-296.082377
4461.563102,518.144159,-8273.831378,-444.123565
4461.563426,370.102971,-8810.098227,-592.164754
4461.563750,148.041188,-8350.440928,-740.205942
4461.564075,444.123565,-8810.098227,-370.102971
4461.564399,296.082377,-8580.269578,-888.247130
4461.564723,592.164754,-8886.707777,-370.102971
4461.565048,814.226536,-8273.831378,-740.205942
4461.565372,814.226536,-8733.488677,-444.123565
4461.565696,740.205942,-7814.174080,-370.102971
4461.566020,740.205942,-8580.269578,-296.082377
4461.566345,518.144159,-8810.098227,-444.123565
4461.566669,296.082377,-8656.879127,-444.123565
4461.566993,74.020594,-8810.098227,-592.164754
4461.567317,148.041188,-8580.269578,-666.185348
4461.567642,296.082377,-8886.707777,-592.164754
4461.567966,296.082377,-8656.879127,-444.123565
4461.568290,592.164754,-8580.269578,0.000000
4461.568614,1110.308913,-8810.098227,0.000000
4461.568939,814.226536,-8503.660028,0.000000
4461.569263,518.144159,-8656.879127,-444.123565
4461.569587,592.164754,-8656.879127,-148.041188
4461.569911,666.185348,-8656.879127,-518.144159
4461.570236,592.164754,-8886.707777,-370.102971
4461.570560,148.041188,-8580.269578,-370.102971
4461.570884,444.123565,-8963.317327,-444.123565
4461.571208,518.144159,-8733.488677,-666.185348
4461.571533,296.082377,-9039.926876,-518.144159
4461.571857,222.061783,-8656.879127,-444.123565
4461.572181,370.102971,-8656.879127,-518.144159
4461.572506,518.144159,-8580.269578,-444.123565
4461.572830,148.041188,-8044.002729,-666.185348
4461.573154,888.247130,-8810.098227,-666.185348
4461.573478,592.164754,-8427.050478,-666.185348
4461.573803,222.061783,-8733.488677,-666.185348
4461.574127,518.144159,-8656.879127,-1110.308913
4461.574451,592.164754,-8656.879127,-814.226536
4461.574775,222.061783,-8733.488677,-962.267725
4461.575100,370.102971,-8810.098227,-666.185348
4461.575424,370.102971,-8733.488677,-592.164754
4461.575748,518.144159,-8656.879127,-592.164754
4461.576072,518.144159,-8350.440928,-740.205942
4461.576397,592.164754,-8580.269578,-370.102971
4461.576721,740.205942,-8197.221829,-370.102971
4461.577045,740.205942,-8733.488677,-592.164754
4461.577369,296.082377,-8886.707777,-296.082377
4461.577694,222.061783,-8273.831378,-518.144159
4461.578018,592.164754,-9039.926876,-592.164754
4461.578342,444.123565,-8886.707777,-1184.329507
4461.578666,666.185348,-8733.488677,-518.144159
4461.578991,592.164754,-8733.488677,-740.205942
4461.579315,518.144159,-8580.269578,-518.144159
4461.579639,888.247130,-8656.879127,-740.205942
4461.579964,1036.288319,-8886.707777,-592.164754
4461.580288,1036.288319,-8197.221829,-296.082377
4461.580612,444.123565,-8503.660028,-592.164754
4461.580936,296.082377,-8427.050478,-518.144159
4461.581261,296.082377,-8810.098227,0.000000
4461.581585,222.061783,-8810.098227,-592.164754
4461.581909,222.061783,-8503.660028,-740.205942
4461.582233,296.082377,-8580.269578,-666.185348
4461.582558,370.102971,-8427.050478,-518.144159
4461.582882,518.144159,-8656.879127,-592.164754
4461.583206,370.102971,-9116.536426,-444.123565
4461.583530,666.185348,-8656.879127,-370.102971
4461.583855,592.164754,-8503.660028,-296.082377
4461.584179,666.185348,-8886.707777,-592.164754
4461.584503,444.123565,-8656.879127,-444.123565
4461.584827,296.082377,-8733.488677,-518.144159
4461.585152,518.144159,-8503.660028,-592.164754
4461.585476,518.144159,-8810.098227,-740.205942
4461.585800,370.102971,-8656.879127,-518.144159
4461.586125,222.061783,-8580.269578,-666.185348
4461.586449,370.102971,-8580.269578,-518.144159
4461.586773,518.144159,-8503.660028,-518.144159
4461.587097,666.185348,-8656.879127,-592.164754
4461.587422,592.164754,-8427.050478,-370.102971
4461.587746,592.164754,-8810.098227,-518.144159
4461.588070,592.164754,-8503.660028,-740.205942
4461.588394,666.185348,-8733.488677,-444.123565
4461.588719,222.061783,-8503.660028,-370.102971
4461.589043,222.061783,-8733.488677,-518.144159
4461.589367,74.020594,-8656.879127,-666.185348
4461.589691,740.205942,-8656.879127,-370.102971
4461.590016,296.082377,-8580.269578,-814.226536
4461.590340,444.123565,-8656.879127,-370.102971
4461.590664,518.144159,-8733.488677,-370.102971
4461.590989,296.082377,-8503.660028,-592.164754
4461.591313,444.123565,-8427.050478,-296.082377
4461.591637,592.164754,-8503.660028,-740.205942
4461.591961,666.185348,-8656.879127,-518.144159
4461.592286,370.102971,-8427.050478,-444.123565
4461.592610,666.185348,-8273.831378,-296.082377
4461.592934,0.000000,-8656.879127,-592.164754
4461.593259,222.061783,-8580.269578,-592.164754
4461.593583,592.164754,-8810.098227,-666.185348
4461.593907,666.185348,-8810.098227,0.000000
4461.594232,518.144159,-8427.050478,-296.082377
4461.594556,518.144159,-8963.317327,-444.123565
4461.594880,740.205942,-8350.440928,-370.102971
4461.595204,592.164754,-8810.098227,-592.164754
4461.595529,814.226536,-8733.488677,-444.123565
4461.595853,444.123565,-8427.050478,-666.185348
4461.596177,148.041188,-8810.098227,-370.102971
4461.596502,518.144159,-8503.660028,-518.144159
4461.596826,666.185348,-8580.269578,-370.102971
4461.597150,370.102971,-8733.488677,-518.144159
4461.597475,518.144159,-8427.050478,-222.061783
4461.597799,444.123565,-8350.440928,-370.102971
4461.598123,148.041188,-8580.269578,222.061783
4461.598447,518.144159,-8580.269578,-444.123565
4461.598772,592.164754,-8273.831378,-518.144159
4461.599096,592.164754,-8656.879127,-592.164754
4461.599420,296.082377,-8503.660028,-444.123565
4461.599745,370.102971,-8350.440928,-296.082377
4461.600069,222.061783,-8656.879127,-592.164754
4461.600393,222.061783,-8810.098227,-740.205942
4461.600718,740.205942,-8580.269578,-444.123565
4461.601042,518.144159,-7890.783629,-222.061783
4461.601366,444.123565,-8580.269578,-518.144159
4461.601690,666.185348,-8733.488677,-444.123565
4461.602015,666.185348,-8503.660028,0.000000
4461.602339,814.226536,-8733.488677,-518.144159
4461.602663,222.061783,-8273.831378,0.000000
4461.602988,370.102971,-8580.269578,-222.061783
4461.603312,222.061783,-8580.269578,-444.123565
4461.603636,296.082377,-8733.488677,-444.123565
4461.603961,74.020594,-8656.879127,0.000000
4461.604285,296.082377,-8580.269578,-148.041188
4461.604609,518.144159,-8427.050478,-148.041188
4461.604933,518.144159,-8427.050478,-222.061783
4461.605258,814.226536,-9039.926876,-148.041188
4461.605582,740.205942,-8580.269578,-370.102971
4461.605906,592.164754,-8810.098227,-296.082377
4461.606231,370.102971,-8733.488677,-370.102971
4461.606555,444.123565,-8733.488677,-444.123565
4461.606879,148.041188,-8350.440928,-148.041188
4461.607204,148.041188,-8580.269578,-444.123565
4461.607528,222.061783,-8503.660028,-592.164754
4461.607852,370.102971,-8350.440928,-370.102971
4461.608176,592.164754,-8120.612279,-222.061783
4461.608501,592.164754,-8580.269578,-370.102971
4461.608825,740.205942,-8503.660028,-444.123565
4461.609149,592.164754,-8580.269578,-444.123565
4461.609474,518.144159,-8273.831378,0.000000
4461.609798,74.020594,-8427.050478,-222.061783
4461.610122,222.061783,-8580.269578,0.000000
4461.610447,296.082377,-8273.831378,-518.144159
4461.610771,222.061783,-8886.707777,-444.123565
4461.611095,222.061783,-8656.879127,-740.205942
4461.611419,518.144159,-8197.221829,-222.061783
4461.611744,296.082377,-8580.269578,-370.102971
4461.612068,370.102971,-8580.269578,-296.082377
4461.612392,740.205942,-8350.440928,-592.164754
4461.612717,518.144159,-8810.098227,-518.144159
4461.613041,444.123565,-8503.660028,-296.082377
4461.613365,222.061783,-8580.269578,-222.061783
4461.613690,518.144159,-8580.269578,-444.123565
4461.614014,148.041188,-8656.879127,-296.082377
4461.614338,518.144159,-8733.488677,-444.123565
4461.614662,222.061783,-8503.660028,-296.082377
4461.614987,518.144159,-8503.660028,-444.123565
4461.615311,444.123565,-8656.879127,-592.164754
4461.615635,296.082377,-8427.050478,-296.082377
4461.615960,518.144159,-8810.098227,-592.164754
4461.616284,296.082377,-8427.050478,-370.102971
4461.616608,666.185348,-9269.755526,370.102971
4461.616933,296.082377,-8503.660028,-370.102971
4461.617257,296.082377,-8503.660028,-296.082377
4461.617581,296.082377,-8120.612279,-444.123565
4461.617905,222.061783,-9193.145976,-296.082377
4461.618230,444.123565,-8580.269578,-370.102971
4461.618554,148.041188,-8427.050478,-444.123565
4461.618878,222.061783,-8810.098227,-518.144159
4461.619203,370.102971,-8427.050478,-296.082377
4461.619527,148.041188,-8810.098227,-370.102971
4461.619851,592.164754,-8656.879127,-296.082377
4461.620176,444.123565,-8656.879127,-222.061783
4461.620500,222.061783,-8733.488677,-148.041188
4461.620824,296.082377,-8733.488677,-814.226536
4461.621148,444.123565,-8810.098227,-370.102971
4461.621473,518.144159,-8503.660028,-444.123565
4461.621797,370.102971,-8580.269578,-518.144159
4461.622121,592.164754,-8503.660028,-370.102971
4461.622446,518.144159,-8503.660028,-444.123565
4461.622770,592.164754,-8197.221829,-444.123565
4461.623094,592.164754,-8810.098227,-296.082377
4461.623419,370.102971,-8580.269578,-296.082377
4461.623743,518.144159,-8350.440928,-148.041188
4461.624067,370.102971,-8503.660028,0.000000
4461.624391,666.185348,-8733.488677,-370.102971
4461.624716,74.020594,-8733.488677,-444.123565
4461.625040,592.164754,-8656.879127,-518.144159
4461.625364,370.102971,-8656.879127,0.000000
4461.625689,74.020594,-9116.536426,0.000000
4461.626013,222.061783,-8656.879127,-222.061783
4461.626337,370.102971,-8656.879127,-222.061783
4461.626662,148.041188,-8503.660028,0.000000
4461.626986,222.061783,-8580.269578,0.000000
4461.627310,148.041188,-8427.050478,0.000000
4461.627634,518.144159,-8503.660028,-296.082377
4461.627959,296.082377,-8503.660028,148.041188
4461.628283,444.123565,-8810.098227,-370.102971
4461.628607,296.082377,-8197.221829,-148.041188
4461.628932,222.061783,-9039.926876,-296.082377
4461.629256,222.061783,-8503.660028,-296.082377
4461.629580,296.082377,-8427.050478,-370.102971
4461.629905,296.082377,-8427.050478,-518.144159
4461.630229,444.123565,-8580.269578,-222.061783
4461.630553,296.082377,-8656.879127,0.000000
4461.630877,444.123565,-8733.488677,0.000000
4461.631202,740.205942,-8427.050478,0.000000
4461.631526,444.123565,-8733.488677,0.000000
4461.631850,296.082377,-8810.098227,0.000000
4461.632175,222.061783,-8197.221829,-222.061783
4461.632499,518.144159,-8656.879127,-370.102971
4461.632823,370.102971,-8580.269578,-296.082377
4461.633148,370.102971,-8273.831378,-370.102971
4461.633472,296.082377,-8580.269578,0.000000
4461.633796,518.144159,-8810.098227,-148.041188
4461.634120,518.144159,-8580.269578,-222.061783
4461.634445,518.144159,-8350.440928,-148.041188
4461.634769,592.164754,-8427.050478,0.000000
4461.635093,888.247130,-8886.707777,-518.144159
4461.635418,814.226536,-8273.831378,-296.082377
4461.635742,666.185348,-8503.660028,0.000000
4461.636066,592.164754,-8810.098227,-444.123565
4461.636391,444.123565,-8963.317327,-74.020594
4461.636715,444.123565,-8580.269578,-518.144159
4461.637039,296.082377,-8427.050478,-74.020594
4461.637363,296.082377,-8580.269578,0.000000
4461.637688,666.185348,-8580.269578,0.000000
4461.638012,518.144159,-8273.831378,0.000000
4461.638336,740.205942,-8503.660028,-444.123565
4461.638661,666.185348,-8656.879127,-222.061783
4461.638985,666.185348,-8273.831378,0.000000
4461.639309,666.185348,-8427.050478,-148.041188
4461.639634,74.020594,-8810.098227,-444.123565
4461.639958,444.123565,-8810.098227,0.000000
4461.640282,74.020594,-8733.488677,0.000000
4461.640607,592.164754,-8810.098227,148.041188
4461.640931,296.082377,-8503.660028,0.000000
4461.641255,296.082377,-8656.879127,0.000000
4461.641579,296.082377,-8427.050478,0.000000
4461.641904,444.123565,-8810.098227,0.000000
4461.642228,444.123565,-8656.879127,0.000000
4461.642552,444.123565,-8503.660028,0.000000
4461.642877,222.061783,-8810.098227,-148.041188
4461.643201,148.041188,-8656.879127,-518.144159
4461.643525,518.144159,-8197.221829,-666.185348
4461.643850,296.082377,-8656.879127,-518.144159
4461.644174,296.082377,-8580.269578,-518.144159
4461.644498,370.102971,-8580.269578,-296.082377
4461.644822,592.164754,-8503.660028,-666.185348
4461.645147,518.144159,-8350.440928,-296.082377
4461.645471,444.123565,-8656.879127,-370.102971
4461.645795,814.226536,-8580.269578,-148.041188
4461.646120,518.144159,-8427.050478,-222.061783
4461.646444,370.102971,-8656.879127,-296.082377
4461.646768,296.082377,-8580.269578,-296.082377
4461.647093,148.041188,-8350.440928,-222.061783
4461.647417,592.164754,-8503.660028,-370.102971
4461.647741,814.226536,-8810.098227,0.000000
4461.648065,296.082377,-8656.879127,0.000000
4461.648390,296.082377,-8810.098227,0.000000
4461.648714,518.144159,-8656.879127,-296.082377
4461.649038,296.082377,-8733.488677,444.123565
4461.649363,444.123565,-8350.440928,0.000000
4461.649687,370.102971,-8273.831378,0.000000
4461.650011,222.061783,-8810.098227,0.000000
4461.650336,740.205942,-8656.879127,-444.123565
4461.650660,740.205942,-8656.879127,-518.144159
4461.650984,740.205942,-8503.660028,0.000000
4461.651308,518.144159,-8503.660028,-370.102971
4461.651633,296.082377,-8733.488677,-592.164754
4461.651957,1036.288319,-8656.879127,-518.144159
4461.652281,518.144159,-8580.269578,-444.123565
4461.652606,814.226536,-8810.098227,-296.082377
4461.652930,740.205942,-8044.002729,-148.041188
4461.653254,740.205942,-8733.488677,-370.102971
4461.653579,666.185348,-8733.488677,-518.144159
4461.653903,666.185348,-8273.831378,-370.102971
4461.654227,444.123565,-8580.269578,-444.123565
4461.654551,518.144159,-8656.879127,-296.082377
4461.654876,444.123565,-8580.269578,-296.082377
4461.655200,148.041188,-8656.879127,-370.102971
4461.655524,296.082377,-8503.660028,-370.102971
4461.655849,370.102971,-8733.488677,-222.061783
4461.656173,814.226536,-8656.879127,0.000000
4461.656497,370.102971,-8886.707777,148.041188
4461.656822,444.123565,-8656.879127,0.000000
4461.657146,444.123565,-8656.879127,0.000000
4461.657470,666.185348,-8580.269578,-222.061783
4461.657794,444.123565,-8963.317327,-222.061783
4461.658119,0.000000,-8733.488677,0.000000
4461.658443,222.061783,-8580.269578,-148.041188
4461.658767,0.000000,-8656.879127,-222.061783
4461.659092,444.123565,-8580.269578,0.000000
4461.659416,148.041188,-8656.879127,-222.061783
4461.659740,444.123565,-8427.050478,148.041188
4461.660065,444.123565,-8273.831378,-296.082377
4461.660389,444.123565,-8503.660028,-222.061783
4461.660713,518.144159,-8120.612279,-370.102971
4461.661037,444.123565,-8580.269578,-518.144159
4461.661362,444.123565,-8810.098227,-518.144159
4461.661686,222.061783,-8733.488677,-370.102971
4461.662010,74.020594,-8886.707777,-444.123565
4461.662335,148.041188,-8427.050478,-370.102971
4461.662659,444.123565,-8733.488677,-592.164754
4461.662983,518.144159,-8656.879127,-296.082377
4461.663308,666.185348,-8120.612279,-666.185348
4461.663632,518.144159,-8350.440928,-444.123565
4461.663956,740.205942,-8886.707777,-296.082377
4461.664280,592.164754,-8350.440928,-148.041188
4461.664605,370.102971,-8427.050478,-296.082377
4461.664929,222.061783,-8350.440928,-222.061783
4461.665253,296.082377,-8580.269578,0.000000
4461.665578,296.082377,-8656.879127,-148.041188
4461.665902,518.144159,-8503.660028,-296.082377
4461.666226,518.144159,-8503.660028,-666.185348
4461.666551,814.226536,-8656.879127,0.000000
4461.666875,592.164754,-8120.612279,0.000000
4461.667199,740.205942,-8656.879127,0.000000
4461.667523,814.226536,-8427.050478,-666.185348
4461.667848,592.164754,-8580.269578,-222.061783
4461.668172,666.185348,-8656.879127,-296.082377
4461.668496,370.102971,-8350.440928,-444.123565
4461.668821,222.061783,-8120.612279,-222.061783
4461.669145,296.082377,-8503.660028,-296.082377
4461.669469,518.144159,-8427.050478,-370.102971
4461.669794,296.082377,-8656.879127,-518.144159
4461.670118,814.226536,-8427.050478,-296.082377
4461.670442,592.164754,-8427.050478,-370.102971
4461.670766,370.102971,-8733.488677,-370.102971
4461.671091,592.164754,-8427.050478,-370.102971
4461.671415,370.102971,-8350.440928,-444.123565
4461.671739,518.144159,-9422.974625,-222.061783
4461.672064,222.061783,-8886.707777,0.000000
4461.672388,296.082377,-8733.488677,-74.020594
4461.672712,74.020594,-8810.098227,0.000000
4461.673037,222.061783,-8886.707777,-296.082377
4461.673361,592.164754,-9116.536426,-444.123565
4461.673685,370.102971,-8350.440928,0.000000
4461.674009,518.144159,-8273.831378,-296.082377
4461.674334,444.123565,-8503.660028,-444.123565
4461.674658,296.082377,-8580.269578,74.020594
4461.674982,518.144159,-8963.317327,-444.123565
4461.675307,518.144159,-8963.317327,-296.082377
4461.675631,370.102971,-8810.098227,-222.061783
4461.675955,592.164754,-9729.412825,-370.102971
4461.676280,444.123565,-8810.098227,-296.082377
4461.676604,666.185348,-8580.269578,-888.247130
4461.676928,740.205942,-8886.707777,-592.164754
4461.677252,518.144159,-8503.660028,-518.144159
4461.677577,444.123565,-8656.879127,-518.144159
4461.677901,518.144159,-8810.098227,-592.164754
4461.678225,518.144159,-8810.098227,-370.102971
4461.678550,222.061783,-8886.707777,-518.144159
4461.678874,370.102971,-8580.269578,0.000000
4461.679198,592.164754,-8810.098227,-592.164754
4461.679523,148.041188,-8810.098227,-518.144159
4461.679847,148.041188,-8733.488677,-518.144159
4461.680171,518.144159,-9193.145976,-592.164754
4461.680495,296.082377,-8503.660028,-592.164754
4461.680820,444.123565,-8580.269578,-518.144159
4461.681144,444.123565,-8733.488677,-740.205942
4461.681468,518.144159,-8656.879127,-518.144159
4461.681793,592.164754,-8580.269578,-814.226536
4461.682117,370.102971,-8733.488677,-518.144159
4461.682441,666.185348,-8810.098227,-296.082377
4461.682766,370.102971,-8656.879127,-518.144159
4461.683090,666.185348,-9039.926876,-592.164754
4461.683414,370.102971,-8656.879127,-888.247130
4461.683738,370.102971,-8810.098227,-740.205942
4461.684063,370.102971,-8427.050478,-518.144159
4461.684387,518.144159,-9269.755526,-296.082377
4461.684711,592.164754,-8733.488677,-518.144159
4461.685036,444.123565,-8120.612279,-370.102971
4461.685360,666.185348,-8503.660028,-518.144159
4461.685684,444.123565,-8120.612279,-370.102971
4461.686009,444.123565,-8886.707777,0.000000
4461.686333,518.144159,-8656.879127,-370.102971
4461.686657,518.144159,-8427.050478,-444.123565
4461.686981,370.102971,-8656.879127,-444.123565
4461.687306,0.000000,-9116.536426,-222.061783
4461.687630,296.082377,-8044.002729,-592.164754
4461.687954,518.144159,-8810.098227,-666.185348
4461.688279,518.144159,-8044.002729,-666.185348
4461.688603,814.226536,-8580.269578,-592.164754
4461.688927,370.102971,-8427.050478,-222.061783
4461.689252,518.144159,-8810.098227,-296.082377
4461.689576,592.164754,-8273.831378,-518.144159
4461.689900,592.164754,-8580.269578,-296.082377
4461.690224,74.020594,-8656.879127,-296.082377
4461.690549,444.123565,-8656.879127,-518.144159
4461.690873,592.164754,-8503.660028,-444.123565
4461.691197,370.102971,-8580.269578,-444.123565
4461.691522,296.082377,-8810.098227,0.000000
4461.691846,370.102971,-8656.879127,-370.102971
4461.692170,518.144159,-8810.098227,-296.082377
4461.692494,370.102971,-8656.879127,-296.082377
4461.692819,222.061783,-8733.488677,0.000000
4461.693143,148.041188,-8656.879127,0.000000
4461.693467,148.041188,-8503.660028,-296.082377
4461.693791,222.061783,-8733.488677,-296.082377
4461.694116,222.061783,-8580.269578,-518.144159
4461.694440,0.000000,-8197.221829,-370.102971
4461.694764,74.020594,-8810.098227,-666.185348
4461.695088,222.061783,-8810.098227,-592.164754
4461.695413,666.185348,-8273.831378,-592.164754
4461.695737,444.123565,-9269.755526,-666.185348
4461.696061,296.082377,-8503.660028,-518.144159
4461.696385,740.205942,-8656.879127,-222.061783
4461.696710,592.164754,-8656.879127,-444.123565
4461.697034,518.144159,-9039.926876,-444.123565
4461.697358,518.144159,-8580.269578,-888.247130
4461.697682,370.102971,-8733.488677,-518.144159
4461.698007,148.041188,-8427.050478,-444.123565
4461.698331,370.102971,-8733.488677,-518.144159
4461.698655,370.102971,-8273.831378,-814.226536
4461.698979,518.144159,-8810.098227,-444.123565
4461.699304,592.164754,-8580.269578,-740.205942
4461.699628,444.123565,-8656.879127,-444.123565
4461.699952,444.123565,-8120.612279,-296.082377
4461.700276,666.185348,-8810.098227,-444.123565
4461.700601,814.226536,-8656.879127,-666.185348
4461.700925,444.123565,-8503.660028,-370.102971
4461.701249,518.144159,-8427.050478,-518.144159
4461.701573,370.102971,-8120.612279,-592.164754
4461.701898,296.082377,-8733.488677,-814.226536
4461.702222,370.102971,-8580.269578,-518.144159
4461.702546,518.144159,-8350.440928,-592.164754
4461.702870,222.061783,-8503.660028,-518.144159
4461.703195,740.205942,-8350.440928,-592.164754
4461.703519,592.164754,-8733.488677,-370.102971
4461.703843,444.123565,-8503.660028,-518.144159
4461.704167,592.164754,-8503.660028,-222.061783
4461.704492,296.082377,-8656.879127,-444.123565
4461.704816,370.102971,-8273.831378,-370.102971
4461.705140,444.123565,-8656.879127,-518.144159
4461.705464,222.061783,-8580.269578,-592.164754
4461.705789,148.041188,-8580.269578,-222.061783
4461.706113,444.123565,-8733.488677,-666.185348
4461.706437,222.061783,-8350.440928,-444.123565
4461.706762,0.000000,-8580.269578,0.000000
4461.707086,222.061783,-8197.221829,296.082377
4461.707410,222.061783,-8350.440928,-592.164754
4461.707734,518.144159,-8733.488677,-444.123565
4461.708059,444.123565,-8733.488677,-444.123565
4461.708383,370.102971,-8120.612279,-222.061783
4461.708707,296.082377,-8350.440928,-444.123565
4461.709031,148.041188,-8810.098227,-592.164754
4461.709356,370.102971,-8733.488677,-518.144159
4461.709680,444.123565,-8656.879127,-814.226536
4461.710004,296.082377,-8580.269578,-222.061783
4461.710328,222.061783,-8273.831378,-370.102971
4461.710653,740.205942,-8810.098227,-370.102971
4461.710977,444.123565,-8197.221829,-592.164754
4461.711301,148.041188,-8733.488677,0.000000
4461.711625,444.123565,-8427.050478,-296.082377
4461.711950,296.082377,-8580.269578,-148.041188
4461.712274,296.082377,-8580.269578,-518.144159
4461.712598,222.061783,-8503.660028,-518.144159
4461.712922,296.082377,-8656.879127,-592.164754
4461.713247,222.061783,-8733.488677,-370.102971
4461.713571,296.082377,-8273.831378,-444.123565
4461.713895,518.144159,-8580.269578,0.000000
4461.714219,740.205942,-8427.050478,-814.226536
4461.714544,740.205942,-8580.269578,-592.164754
4461.714868,666.185348,-8656.879127,-444.123565
4461.715192,740.205942,-8350.440928,-222.061783
4461.715516,592.164754,-8733.488677,-444.123565
4461.715841,370.102971,-8810.098227,-370.102971
4461.716165,518.144159,-8733.488677,-666.185348
4461.716489,296.082377,-8580.269578,-592.164754
4461.716813,444.123565,-8656.879127,-592.164754
4461.717138,296.082377,-8580.269578,0.000000
4461.717462,592.164754,-8733.488677,-444.123565
4461.717786,444.123565,-8656.879127,-370.102971
4461.718110,740.205942,-8580.269578,-444.123565
4461.718435,1036.288319,-8733.488677,222.061783
4461.718759,592.164754,-8503.660028,0.000000
4461.719083,518.144159,-8810.098227,0.000000
4461.719407,444.123565,-8810.098227,-370.102971
4461.719732,296.082377,-9039.926876,74.020594
4461.720056,148.041188,-8886.707777,-296.082377
4461.720380,74.020594,-8733.488677,-518.144159
4461.720704,222.061783,-8810.098227,-444.123565
4461.721029,148.041188,-8580.269578,-222.061783
4461.721353,0.000000,-8044.002729,0.000000
4461.721677,592.164754,-8810.098227,-296.082377
4461.722001,592.164754,-8503.660028,-222.061783
4461.722326,592.164754,-8656.879127,0.000000
4461.722650,592.164754,-7814.174080,-222.061783
4461.722974,592.164754,-8656.879127,-222.061783
4461.723299,444.123565,-8350.440928,-518.144159
4461.723623,74.020594,-8427.050478,-444.123565
4461.723947,0.000000,-8350.440928,-222.061783
4461.724271,0.000000,-8656.879127,-148.041188
4461.724596,74.020594,-8656.879127,-444.123565
4461.724920,370.102971,-8580.269578,-296.082377
4461.725244,222.061783,-8427.050478,0.000000
4461.725568,592.164754,-7967.393179,0.000000
4461.725893,222.061783,-8427.050478,-296.082377
4461.726217,518.144159,-8810.098227,0.000000
4461.726541,296.082377,-8197.221829,-222.061783
4461.726865,814.226536,-8503.660028,-222.061783
4461.727190,148.041188,-8580.269578,-370.102971
4461.727514,0.000000,-8656.879127,74.020594
4461.727838,148.041188,-8427.050478,-444.123565
4461.728162,296.082377,-8656.879127,0.000000
4461.728487,74.020594,-8273.831378,0.000000
4461.728811,444.123565,-8733.488677,0.000000
4461.729135,592.164754,-8273.831378,-296.082377
4461.729459,518.144159,-8656.879127,0.000000
4461.729784,444.123565,-8273.831378,-814.226536
4461.730108,444.123565,-8350.440928,-296.082377
4461.730432,518.144159,-8427.050478,-592.164754
4461.730756,518.144159,-8580.269578,-370.102971
4461.731081,222.061783,-7967.393179,-222.061783
4461.731405,444.123565,-8580.269578,-296.082377
4461.731729,370.102971,-8350.440928,-444.123565
4461.732053,370.102971,-8503.660028,-444.123565
4461.732378,592.164754,-8503.660028,-296.082377
4461.732702,518.144159,-8427.050478,0.000000
4461.733026,518.144159,-8810.098227,-370.102971
4461.733350,592.164754,-8503.660028,-296.082377
4461.733675,296.082377,-8580.269578,-444.123565
4461.733999,370.102971,-8656.879127,-296.082377
4461.734323,74.020594,-8503.660028,-222.061783
4461.734647,370.102971,-8656.879127,-296.082377
4461.734972,370.102971,-8733.488677,-444.123565
4461.735296,370.102971,-7660.954980,-370.102971
4461.735620,296.082377,-8733.488677,-296.082377
4461.735944,666.185348,-8350.440928,-148.041188
4461.736269,444.123565,-8503.660028,-222.061783
4461.736593,370.102971,-8886.707777,-296.082377
4461.736917,740.205942,-8810.098227,-518.144159
4461.737241,518.144159,-8427.050478,-296.082377
4461.737566,148.041188,-8580.269578,-296.082377
4461.737890,148.041188,-8427.050478,-370.102971
4461.738214,592.164754,-9806.022374,-222.061783
4461.738539,222.061783,-8427.050478,-592.164754
4461.738863,518.144159,-8963.317327,-444.123565
4461.739187,592.164754,-8503.660028,-370.102971
4461.739511,666.185348,-8273.831378,-444.123565
4461.739836,444.123565,-8503.660028,-444.123565
4461.740160,592.164754,-8733.488677,-444.123565
4461.740484,592.164754,-8580.269578,-296.082377
4461.740808,296.082377,-8580.269578,-518.144159
4461.741133,0.000000,-8580.269578,74.020594
4461.741457,222.061783,-8580.269578,-444.123565
4461.741781,370.102971,-8733.488677,-370.102971
4461.742105,296.082377,-8656.879127,-296.082377
4461.742430,518.144159,-8810.098227,-222.061783
4461.742754,518.144159,-8733.488677,0.000000
4461.743078,444.123565,-8427.050478,0.000000
4461.743402,370.102971,-8733.488677,0.000000
4461.743727,296.082377,-8273.831378,0.000000
4461.744051,444.123565,-8580.269578,74.020594
4461.744375,370.102971,-8733.488677,0.000000
4461.744699,296.082377,-8580.269578,0.000000
4461.745024,74.020594,-8503.660028,0.000000
4461.745348,444.123565,-8503.660028,222.061783
4461.745672,296.082377,-8350.440928,-296.082377
4461.745996,444.123565,-8963.317327,0.000000
4461.746321,444.123565,-7967.393179,74.020594
4461.746645,370.102971,-8120.612279,296.082377
4461.746969,370.102971,-8273.831378,-148.041188
4461.747293,592.164754,-8273.831378,222.061783
4461.747618,518.144159,-8273.831378,-222.061783
4461.747942,518.144159,-8580.269578,0.000000
4461.748266,370.102971,-8427.050478,-296.082377
4461.748590,0.000000,-8886.707777,222.061783
4461.748915,74.020594,-8580.269578,-222.061783
4461.749239,148.041188,-8503.660028,0.000000
4461.749563,296.082377,-8350.440928,-148.041188
4461.749887,592.164754,-8273.831378,0.000000
4461.750212,444.123565,-8886.707777,0.000000
4461.750536,370.102971,-8580.269578,0.000000
4461.750860,444.123565,-8120.612279,74.020594
4461.751184,222.061783,-8733.488677,74.020594
4461.751509,222.061783,-8580.269578,0.000000
4461.751833,370.102971,-8580.269578,-222.061783
4461.752157,296.082377,-8886.707777,0.000000
4461.752481,222.061783,-8427.050478,-296.082377
4461.752806,370.102971,-8810.098227,-518.144159
4461.753130,296.082377,-8810.098227,-370.102971
4461.753454,370.102971,-8197.221829,-370.102971
4461.753778,518.144159,-8273.831378,-222.061783
4461.754103,518.144159,-8580.269578,-444.123565
4461.754427,592.164754,-8733.488677,-518.144159
4461.754751,592.164754,-8886.707777,-666.185348
4461.755076,296.082377,-8503.660028,-518.144159
4461.755400,518.144159,-8580.269578,-370.102971
4461.755724,444.123565,-8503.660028,-740.205942
4461.756048,444.123565,-8656.879127,-592.164754
4461.756373,740.205942,-8656.879127,-666.185348
4461.756697,518.144159,-8503.660028,-592.164754
4461.757021,222.061783,-8656.879127,-592.164754
4461.757345,296.082377,-8810.098227,-592.164754
4461.757670,444.123565,-8656.879127,-444.123565
4461.757994,592.164754,-8580.269578,-962.267725
4461.758318,666.185348,-8503.660028,-370.102971
4461.758642,444.123565,-8580.269578,-370.102971
4461.758967,370.102971,-8733.488677,-592.164754
4461.759291,370.102971,-8580.269578,-444.123565
4461.759615,444.123565,-8580.269578,-592.164754
4461.759939,296.082377,-8580.269578,-518.144159
4461.760264,518.144159,-8427.050478,-518.144159
4461.760588,518.144159,-8427.050478,-666.185348
4461.760912,444.123565,-8503.660028,-222.061783
4461.761236,740.205942,-8273.831378,-518.144159
4461.761561,740.205942,-8580.269578,-518.144159
4461.761885,592.164754,-8503.660028,-296.082377
4461.762209,666.185348,-8273.831378,-296.082377
4461.762533,444.123565,-8503.660028,-296.082377
4461.762858,592.164754,-8350.440928,-444.123565
4461.763182,370.102971,-8580.269578,-222.061783
4461.763506,518.144159,-8656.879127,-296.082377
4461.763830,370.102971,-8273.831378,-222.061783
4461.764155,518.144159,-8427.050478,-148.041188
4461.764479,222.061783,-8503.660028,0.000000
4461.764803,444.123565,-8350.440928,-296.082377
4461.765127,814.226536,-8427.050478,-148.041188
4461.765452,296.082377,-8580.269578,74.020594
4461.765776,222.061783,-8656.879127,0.000000
4461.766100,148.041188,-8503.660028,0.000000
4461.766424,222.061783,-8886.707777,-370.102971
4461.766749,222.061783,-8580.269578,-444.123565
4461.767073,370.102971,-8503.660028,0.000000
4461.767397,148.041188,-8427.050478,-148.041188
4461.767721,148.041188,-8656.879127,0.000000
4461.768046,518.144159,-8273.831378,-296.082377
4461.768370,444.123565,-8733.488677,0.000000
4461.768694,370.102971,-8963.317327,0.000000
4461.769018,592.164754,-8656.879127,-148.041188
4461.769343,518.144159,-8963.317327,-148.041188
4461.769667,296.082377,-8503.660028,-222.061783
4461.769991,148.041188,-8810.098227,-222.061783
4461.770315,74.020594,-9039.926876,-148.041188
4461.770640,148.041188,-8886.707777,0.000000
4461.770964,222.061783,-8733.488677,-296.082377
4461.771288,296.082377,-8427.050478,-296.082377
4461.771613,148.041188,-8656.879127,-370.102971
4461.771937,518.144159,-8427.050478,-370.102971
4461.772261,518.144159,-8656.879127,-296.082377
4461.772585,518.144159,-8733.488677,-370.102971
4461.772910,370.102971,-8886.707777,-370.102971
4461.773234,518.144159,-8427.050478,-592.164754
4461.773558,666.185348,-8733.488677,-444.123565
4461.773882,518.144159,-8427.050478,-666.185348
4461.774207,518.144159,-8503.660028,-444.123565
4461.774531,148.041188,-8656.879127,-592.164754
4461.774855,518.144159,-8503.660028,-814.226536
4461.775179,444.123565,-8427.050478,-740.205942
4461.775504,888.247130,-8503.660028,-370.102971
4461.775828,666.185348,-8503.660028,-444.123565
4461.776152,888.247130,-8810.098227,-518.144159
4461.776476,888.247130,-8273.831378,-296.082377
4461.776801,666.185348,-8580.269578,-592.164754
4461.777125,666.185348,-8503.660028,-518.144159
4461.777449,592.164754,-8733.488677,-370.102971
4461.777773,296.082377,-8350.440928,-370.102971
4461.778098,296.082377,-9116.536426,-518.144159
4461.778422,148.041188,-8580.269578,-518.144159
4461.778746,222.061783,-8733.488677,-518.144159
4461.779070,296.082377,-8273.831378,-444.123565
4461.779395,518.144159,-8656.879127,-296.082377
4461.779719,740.205942,-8427.050478,-444.123565
4461.780043,592.164754,-8656.879127,-370.102971
4461.780367,666.185348,-8503.660028,-370.102971
4461.780692,1184.329507,-8580.269578,-666.185348
4461.781016,518.144159,-8197.221829,-444.123565
4461.781340,74.020594,-8503.660028,-296.082377
4461.781664,296.082377,-8503.660028,-296.082377
4461.781989,518.144159,-8350.440928,-518.144159
4461.782313,74.020594,-8810.098227,-518.144159
4461.782637,296.082377,-8503.660028,-370.102971
4461.782961,444.123565,-8503.660028,-370.102971
4461.783286,740.205942,-8503.660028,-296.082377
4461.783610,444.123565,-8503.660028,0.000000
4461.783934,370.102971,-8733.488677,-370.102971
4461.784258,518.144159,-8656.879127,-666.185348
4461.784583,222.061783,-8427.050478,-518.144159
4461.784907,0.000000,-8427.050478,0.000000
4461.785231,0.000000,-8350.440928,-444.123565
4461.785555,444.123565,-8656.879127,-518.144159
4461.785880,296.082377,-8273.831378,-518.144159
4461.786204,518.144159,-8580.269578,-296.082377
4461.786528,74.020594,-8273.831378,-518.144159
4461.786852,370.102971,-8503.660028,-296.082377
4461.787177,370.102971,-8580.269578,-592.164754
4461.787501,518.144159,-8886.707777,-592.164754
4461.787825,370.102971,-8273.831378,-370.102971
4461.788150,296.082377,-8580.269578,-296.082377
4461.788474,222.061783,-8886.707777,-592.164754
4461.788798,296.082377,-8733.488677,-444.123565
4461.789122,666.185348,-8656.879127,-814.226536
4461.789447,296.082377,-8656.879127,-518.144159
4461.789771,296.082377,-8656.879127,-666.185348
4461.790095,518.144159,-8580.269578,-370.102971
4461.790419,444.123565,-8580.269578,-666.185348
4461.790744,444.123565,-8503.660028,-518.144159
4461.791068,592.164754,-8503.660028,-370.102971
4461.791392,666.185348,-8656.879127,-222.061783
4461.791716,592.164754,-8810.098227,-370.102971
4461.792041,740.205942,-8963.317327,-592.164754
4461.792365,592.164754,-8656.879127,-370.102971
4461.792689,444.123565,-8733.488677,-370.102971
4461.793014,370.102971,-8503.660028,-148.041188
4461.793338,888.247130,-8120.612279,0.000000
4461.793662,444.123565,-8350.440928,-666.185348
4461.793987,518.144159,-8503.660028,-518.144159
4461.794311,814.226536,-8503.660028,-666.185348
4461.794635,592.164754,-8886.707777,-370.102971
4461.794960,592.164754,-8427.050478,-296.082377
4461.795284,370.102971,-8580.269578,-296.082377
4461.795608,666.185348,-8503.660028,-518.144159
4461.795933,592.164754,-8656.879127,-518.144159
4461.796257,666.185348,-8427.050478,-814.226536
4461.796581,518.144159,-8350.440928,-518.144159
4461.796906,444.123565,-8656.879127,-518.144159
4461.797230,370.102971,-8503.660028,-518.144159
4461.797554,592.164754,-7967.393179,-222.061783
4461.797879,592.164754,-8886.707777,-592.164754
4461.798203,592.164754,-8580.269578,-148.041188
4461.798527,666.185348,-8503.660028,-296.082377
4461.798852,666.185348,-8810.098227,-444.123565
4461.799176,370.102971,-8503.660028,-518.144159
4461.799500,296.082377,-8810.098227,-370.102971
4461.799824,370.102971,-8580.269578,-592.164754
4461.800149,518.144159,-8580.269578,-296.082377
4461.800473,814.226536,-8733.488677,-592.164754
4461.800797,148.041188,-8656.879127,-444.123565
4461.801122,370.102971,-8656.879127,-666.185348
4461.801446,444.123565,-8580.269578,-222.061783
4461.801770,1110.308913,-8273.831378,0.000000
4461.802095,222.061783,-8503.660028,-222.061783
4461.802419,222.061783,-8656.879127,-148.041188
4461.802743,444.123565,-8350.440928,-370.102971
4461.803068,666.185348,-8503.660028,-666.185348
4461.803392,296.082377,-8733.488677,0.000000
4461.803716,370.102971,-8427.050478,-296.082377
4461.804041,296.082377,-8733.488677,-518.144159
4461.804365,296.082377,-8350.440928,-592.164754
4461.804689,222.061783,-8656.879127,-296.082377
4461.805014,592.164754,-8580.269578,-592.164754
4461.805338,740.205942,-8503.660028,-296.082377
4461.805662,444.123565,-8503.660028,-518.144159
4461.805987,370.102971,-7814.174080,-296.082377
4461.806311,444.123565,-8427.050478,-296.082377
4461.806635,370.102971,-8886.707777,-370.102971
4461.806960,296.082377,-8350.440928,-370.102971
4461.807284,444.123565,-8580.269578,-518.144159
4461.807608,444.123565,-8197.221829,-888.247130
4461.807933,444.123565,-8427.050478,-370.102971
4461.808257,592.164754,-8580.269578,-666.185348
4461.808581,444.123565,-8503.660028,-296.082377
4461.808905,296.082377,-8120.612279,0.000000
4461.809230,518.144159,-8580.269578,-592.164754
4461.809554,740.205942,-8580.269578,-518.144159
4461.809878,518.144159,-8350.440928,-296.082377
4461.810203,444.123565,-8810.098227,-296.082377
4461.810527,444.123565,-8350.440928,-592.164754
4461.810851,222.061783,-8810.098227,-370.102971
4461.811176,296.082377,-8350.440928,-444.123565
4461.811500,444.123565,-9039.926876,-370.102971
4461.811824,888.247130,-8886.707777,-666.185348
4461.812149,666.185348,-8503.660028,0.000000
4461.812473,296.082377,-8733.488677,-444.123565
4461.812797,518.144159,-8963.317327,-148.041188
4461.813122,740.205942,-9576.193725,-148.041188
4461.813446,592.164754,-8733.488677,-222.061783
4461.813770,370.102971,-8656.879127,-222.061783
4461.814095,148.041188,-8580.269578,-444.123565
4461.814419,148.041188,-8810.098227,-148.041188
4461.814743,0.000000,-8273.831378,-296.082377
4461.815068,444.123565,-8810.098227,-444.123565
4461.815392,814.226536,-8733.488677,-370.102971
4461.815716,518.144159,-8580.269578,-222.061783
4461.816041,888.247130,-8503.660028,-518.144159
4461.816365,518.144159,-8503.660028,-296.082377
4461.816689,592.164754,-8733.488677,-370.102971
4461.817013,592.164754,-8503.660028,-444.123565
4461.817338,370.102971,-9422.974625,-518.144159
4461.817662,444.123565,-8733.488677,-370.102971
4461.817986,148.041188,-8656.879127,-370.102971
4461.818311,370.102971,-8503.660028,-444.123565
4461.818635,518.144159,-9116.536426,-518.144159
4461.818959,592.164754,-8503.660028,-370.102971
4461.819284,518.144159,-8503.660028,-444.123565
4461.819608,518.144159,-8733.488677,-444.123565
4461.819932,444.123565,-8656.879127,-222.061783
4461.820257,370.102971,-9039.926876,296.082377
4461.820581,518.144159,-8733.488677,-370.102971
4461.820905,370.102971,-8580.269578,-148.041188
4461.821230,222.061783,-8886.707777,-222.061783
4461.821554,222.061783,-9116.536426,-296.082377
4461.821878,74.020594,-8580.269578,-370.102971
4461.822203,296.082377,-8580.269578,-444.123565
4461.822527,370.102971,-8503.660028,0.000000
4461.822851,296.082377,-8503.660028,-296.082377
4461.823176,444.123565,-8503.660028,-444.123565
4461.823500,444.123565,-8503.660028,-296.082377
4461.823824,518.144159,-8733.488677,-518.144159
4461.824149,296.082377,-8656.879127,-296.082377
4461.824473,148.041188,-8656.879127,-370.102971
4461.824797,444.123565,-8580.269578,-444.123565
4461.825122,296.082377,-8427.050478,-222.061783
4461.825446,296.082377,-8503.660028,-518.144159
4461.825770,814.226536,-8503.660028,-370.102971
4461.826094,370.102971,-8273.831378,-592.164754
4461.826419,370.102971,-8656.879127,-370.102971
4461.826743,444.123565,-8503.660028,-296.082377
4461.827067,740.205942,-8580.269578,0.000000
4461.827392,444.123565,-8733.488677,-444.123565
4461.827716,814.226536,-8580.269578,-370.102971
4461.828040,444.123565,-8273.831378,-296.082377
4461.828365,370.102971,-8733.488677,-518.144159
4461.828689,0.000000,-8580.269578,0.000000
4461.829013,148.041188,-8810.098227,-518.144159
4461.829338,370.102971,-8503.660028,-370.102971
4461.829662,370.102971,-8427.050478,-740.205942
4461.829986,592.164754,-8963.317327,-444.123565
4461.830311,444.123565,-8273.831378,-518.144159
4461.830635,444.123565,-8810.098227,-444.123565
4461.830959,518.144159,-8810.098227,-518.144159
4461.831284,222.061783,-8656.879127,-370.102971
4461.831608,0.000000,-8427.050478,0.000000
4461.831932,296.082377,-8810.098227,-296.082377
4461.832257,74.020594,-8580.269578,-444.123565
4461.832581,518.144159,-8580.269578,-370.102971
4461.832905,592.164754,-8886.707777,0.000000
4461.833230,222.061783,-8580.269578,-444.123565
4461.833554,296.082377,-8810.098227,-592.164754
4461.833878,370.102971,-8810.098227,-222.061783
4461.834202,666.185348,-8886.707777,-444.123565
4461.834527,518.144159,-8733.488677,-444.123565
4461.834851,370.102971,-8963.317327,0.000000
4461.835175,296.082377,-8656.879127,-222.061783
4461.835500,148.041188,-8810.098227,-296.082377
4461.835824,592.164754,-8886.707777,-296.082377
4461.836148,518.144159,-8733.488677,-444.123565
4461.836473,370.102971,-8427.050478,-296.082377
4461.836797,148.041188,-8656.879127,-370.102971
4461.837121,444.123565,-8503.660028,-370.102971
4461.837446,740.205942,-8580.269578,-444.123565
4461.837770,444.123565,-8656.879127,-370.102971
4461.838094,148.041188,-8580.269578,0.000000
4461.838419,592.164754,-8580.269578,-222.061783
4461.838743,518.144159,-8580.269578,0.000000
4461.839067,518.144159,-8656.879127,-296.082377
4461.839392,518.144159,-8886.707777,-592.164754
4461.839716,370.102971,-8503.660028,-222.061783
4461.840040,666.185348,-8733.488677,-296.082377
4461.840365,444.123565,-8733.488677,-518.144159
4461.840689,370.102971,-8427.050478,-444.123565
4461.841013,518.144159,-8503.660028,-592.164754
4461.841338,888.247130,-8963.317327,-370.102971
4461.841662,888.247130,-8427.050478,0.000000
4461.841986,518.144159,-8580.269578,-148.041188
4461.842311,518.144159,-8503.660028,74.020594
4461.842635,518.144159,-8580.269578,0.000000
4461.842959,666.185348,-8886.707777,-74.020594
4461.843283,296.082377,-8733.488677,-222.061783
4461.843608,74.020594,-8733.488677,-222.061783
4461.843932,74.020594,-8810.098227,-296.082377
4461.844256,740.205942,-7967.393179,0.000000
4461.844581,444.123565,-8810.098227,-296.082377
4461.844905,370.102971,-8656.879127,0.000000
4461.845229,444.123565,-8656.879127,74.020594
4461.845554,518.144159,-8580.269578,-222.061783
4461.845878,518.144159,-8427.050478,74.020594
4461.846202,444.123565,-8656.879127,-296.082377
4461.846527,444.123565,-8733.488677,-370.102971
4461.846851,148.041188,-8273.831378,-296.082377
4461.847175,148.041188,-8580.269578,-518.144159
4461.847500,74.020594,-8580.269578,-444.123565
4461.847824,444.123565,-8427.050478,-444.123565
4461.848148,518.144159,-8656.879127,-592.164754
4461.848473,518.144159,-8733.488677,-222.061783
4461.848797,592.164754,-8350.440928,-370.102971
4461.849121,518.144159,-8503.660028,-148.041188
4461.849446,518.144159,-8733.488677,-370.102971
4461.849770,592.164754,-8427.050478,-444.123565
4461.850094,740.205942,-8580.269578,-296.082377
4461.850419,370.102971,-8656.879127,-370.102971
4461.850743,148.041188,-8886.707777,-296.082377
4461.851067,222.061783,-8503.660028,-370.102971
4461.851392,518.144159,-9193.145976,-370.102971
4461.851716,148.041188,-8733.488677,0.000000
4461.852040,444.123565,-8733.488677,-296.082377
4461.852364,370.102971,-8580.269578,0.000000
4461.852689,296.082377,-8810.098227,-148.041188
4461.853013,296.082377,-8503.660028,0.000000
4461.853337,370.102971,-8886.707777,-222.061783
4461.853662,814.226536,-8733.488677,0.000000
4461.853986,370.102971,-8656.879127,-370.102971
4461.854310,0.000000,-9039.926876,0.000000
4461.854635,370.102971,-8656.879127,-518.144159
4461.854959,296.082377,-8963.317327,-370.102971
4461.855283,444.123565,-8580.269578,-444.123565
4461.855608,814.226536,-8273.831378,0.000000
4461.855932,444.123565,-8503.660028,-296.082377
4461.856256,592.164754,-8886.707777,-370.102971
4461.856581,592.164754,-8580.269578,-592.164754
4461.856905,666.185348,-8810.098227,-222.061783
4461.857229,518.144159,-8427.050478,-370.102971
4461.857554,518.144159,-8963.317327,0.000000
4461.857878,222.061783,-8656.879127,-222.061783
4461.858202,370.102971,-8886.707777,-296.082377
4461.858527,370.102971,-8580.269578,-518.144159
4461.858851,222.061783,-8810.098227,0.000000
4461.859175,296.082377,-8503.660028,-370.102971
4461.859500,222.061783,-8886.707777,74.020594
4461.859824,444.123565,-8810.098227,-444.123565
4461.860148,296.082377,-8503.660028,0.000000
4461.860472,814.226536,-8503.660028,-222.061783
4461.860797,296.082377,-8350.440928,0.000000
4461.861121,740.205942,-9116.536426,-296.082377
4461.861445,148.041188,-8350.440928,-518.144159
4461.861770,518.144159,-8733.488677,-666.185348
4461.862094,222.061783,-8580.269578,-444.123565
4461.862418,74.020594,-8656.879127,-296.082377
4461.862743,444.123565,-8886.707777,-666.185348
4461.863067,370.102971,-8580.269578,-518.144159
4461.863391,444.123565,-8580.269578,-444.123565
4461.863716,444.123565,-8886.707777,-592.164754
4461.864040,814.226536,-9039.926876,0.000000
4461.864364,370.102971,-8656.879127,-592.164754
4461.864689,444.123565,-8733.488677,-592.164754
4461.865013,222.061783,-8350.440928,-592.164754
4461.865337,370.102971,-8656.879127,-592.164754
4461.865662,0.000000,-8580.269578,-370.102971
4461.865986,148.041188,-8886.707777,-518.144159
4461.866310,74.020594,-8503.660028,-518.144159
4461.866635,296.082377,-8503.660028,-222.061783
4461.866959,148.041188,-8427.050478,296.082377
4461.867283,518.144159,-8503.660028,0.000000
4461.867608,592.164754,-8044.002729,-222.061783
4461.867932,666.185348,-8656.879127,0.000000
4461.868256,518.144159,-9269.755526,74.020594
4461.868581,444.123565,-8350.440928,-444.123565
4461.868905,444.123565,-8656.879127,-592.164754
4461.869229,518.144159,-8427.050478,-222.061783
4461.869553,148.041188,-8350.440928,-370.102971
4461.869878,370.102971,-8656.879127,-296.082377
4461.870202,592.164754,-8350.440928,-222.061783
4461.870526,666.185348,-8503.660028,-444.123565
4461.870851,888.247130,-8120.612279,-296.082377
4461.871175,814.226536,-8427.050478,-296.082377
4461.871499,666.185348,-8580.269578,-296.082377
4461.871824,518.144159,-8350.440928,-444.123565
4461.872148,518.144159,-8656.879127,-592.164754
4461.872472,296.082377,-8810.098227,-370.102971
4461.872797,222.061783,-8580.269578,-222.061783
4461.873121,148.041188,-8350.440928,-296.082377
4461.873445,222.061783,-8810.098227,-296.082377
4461.873770,370.102971,-8197.221829,-518.144159
4461.874094,222.061783,-8733.488677,0.000000
4461.874418,592.164754,-8350.440928,-296.082377
4461.874743,592.164754,-8580.269578,-222.061783
4461.875067,592.164754,-8580.269578,-444.123565
4461.875391,148.041188,-9039.926876,370.102971
4461.875716,296.082377,-8733.488677,-296.082377
4461.876040,148.041188,-9039.926876,-148.041188
4461.876364,74.020594,-8656.879127,-222.061783
4461.876689,74.020594,-9269.755526,74.020594
4461.877013,74.020594,-8503.660028,-222.061783
4461.877337,370.102971,-8656.879127,0.000000
4461.877662,592.164754,-8656.879127,-74.020594
4461.877986,666.185348,-8350.440928,0.000000
4461.878310,296.082377,-8503.660028,0.000000
4461.878634,518.144159,-8963.317327,148.041188
4461.878959,296.082377,-8656.879127,0.000000
4461.879283,222.061783,-8886.707777,0.000000
4461.879607,-148.041188,-8350.440928,222.061783
4461.879932,0.000000,-9116.536426,-222.061783
4461.880256,148.041188,-8810.098227,-370.102971
4461.880580,444.123565,-8427.050478,-222.061783
4461.880905,518.144159,-8656.879127,-888.247130
4461.881229,592.164754,-8733.488677,0.000000
4461.881553,666.185348,-8120.612279,-370.102971
4461.881878,666.185348,-8733.488677,-222.061783
4461.882202,592.164754,-8273.831378,-666.185348
4461.882526,518.144159,-8503.660028,-296.082377
4461.882851,370.102971,-8733.488677,-444.123565
4461.883175,222.061783,-8580.269578,-296.082377
4461.883499,444.123565,-8886.707777,-518.144159
4461.883824,518.144159,-7354.516781,-518.144159
4461.884148,592.164754,-8427.050478,-740.205942
4461.884472,370.102971,-8886.707777,-518.144159
4461.884797,222.061783,-8044.002729,-296.082377
4461.885121,444.123565,-8197.221829,-296.082377
4461.885445,444.123565,-8427.050478,-296.082377
4461.885770,518.144159,-8350.440928,0.000000
4461.886094,814.226536,-8656.879127,-222.061783
4461.886418,740.205942,-8580.269578,-296.082377
4461.886742,222.061783,-7890.783629,0.000000
4461.887067,370.102971,-8656.879127,-370.102971
4461.887391,74.020594,-8427.050478,-148.041188
4461.887715,296.082377,-8580.269578,-370.102971
4461.888040,296.082377,-8810.098227,0.000000
4461.888364,592.164754,-8427.050478,0.000000
4461.888688,444.123565,-8427.050478,-444.123565
4461.889013,592.164754,-8963.317327,-444.123565
4461.889337,666.185348,-8427.050478,-370.102971
4461.889661,518.144159,-8350.440928,-592.164754
4461.889986,370.102971,-8580.269578,-296.082377
4461.890310,222.061783,-8656.879127,-296.082377
4461.890634,444.123565,-8580.269578,-444.123565
4461.890959,740.205942,-8733.488677,-518.144159
4461.891283,296.082377,-8580.269578,-814.226536
4461.891607,444.123565,-8503.660028,-518.144159
4461.891932,222.061783,-8273.831378,-592.164754
4461.892256,74.020594,-8886.707777,-296.082377
4461.892580,0.000000,-8350.440928,-518.144159
4461.892904,296.082377,-8656.879127,-518.144159
4461.893229,518.144159,-8580.269578,-592.164754
4461.893553,444.123565,-8656.879127,-222.061783
4461.893877,296.082377,-8350.440928,-444.123565
4461.894201,222.061783,-8733.488677,-296.082377
4461.894526,148.041188,-8427.050478,-444.123565
4461.894850,370.102971,-8886.707777,-518.144159
4461.895174,1036.288319,-8503.660028,-592.164754
4461.895498,148.041188,-8656.879127,-518.144159
4461.895823,222.061783,-8503.660028,-592.164754
4461.896147,666.185348,-8503.660028,-370.102971
4461.896471,296.082377,-8503.660028,-518.144159
4461.896795,666.185348,-8350.440928,-370.102971
4461.897120,666.185348,-8656.879127,-370.102971
4461.897444,518.144159,-8733.488677,-370.102971
4461.897768,592.164754,-8427.050478,-444.123565
4461.898092,888.247130,-8886.707777,-592.164754
4461.898417,296.082377,-8656.879127,-592.164754
4461.898741,444.123565,-8350.440928,-222.061783
4461.899065,518.144159,-8580.269578,-666.185348
4461.899389,740.205942,-8427.050478,-370.102971
4461.899714,814.226536,-8656.879127,-666.185348
4461.900038,666.185348,-8963.317327,-518.144159
4461.900362,444.123565,-8656.879127,-370.102971
4461.900686,296.082377,-8503.660028,-222.061783
4461.901011,444.123565,-8503.660028,-370.102971
4461.901335,370.102971,-8580.269578,-370.102971
4461.901659,296.082377,-8656.879127,-444.123565
4461.901983,518.144159,-8810.098227,-370.102971
4461.902308,370.102971,-8273.831378,74.020594
4461.902632,666.185348,-8810.098227,-444.123565
4461.902956,518.144159,-8733.488677,-370.102971
4461.903280,518.144159,-8580.269578,-370.102971
4461.903605,518.144159,-8350.440928,-148.041188
4461.903929,444.123565,-8580.269578,0.000000
4461.904253,370.102971,-8427.050478,-148.041188
4461.904577,518.144159,-8427.050478,-296.082377
4461.904902,296.082377,-8580.269578,-370.102971
4461.905226,444.123565,-8963.317327,0.000000
4461.905550,296.082377,-8273.831378,-222.061783
4461.905875,296.082377,-8580.269578,-148.041188
4461.906199,222.061783,-8733.488677,-370.102971
4461.906523,296.082377,-8580.269578,-370.102971
4461.906847,518.144159,-8580.269578,-592.164754
4461.907172,444.123565,-8656.879127,-444.123565
4461.907496,370.102971,-8503.660028,-518.144159
4461.907820,74.020594,-8886.707777,-370.102971
4461.908144,296.082377,-8580.269578,-370.102971
4461.908469,296.082377,-8580.269578,-296.082377
4461.908793,370.102971,-8733.488677,-592.164754
4461.909117,518.144159,-8580.269578,-296.082377
4461.909441,148.041188,-8044.002729,-222.061783
4461.909766,222.061783,-8656.879127,-444.123565
4461.910090,148.041188,-8656.879127,-592.164754
4461.910414,296.082377,-8580.269578,-444.123565
4461.910738,518.144159,-8656.879127,222.061783
4461.911063,592.164754,-8427.050478,-296.082377
4461.911387,518.144159,-8733.488677,-370.102971
4461.911711,518.144159,-8350.440928,-296.082377
4461.912035,370.102971,-9039.926876,-444.123565
4461.912360,592.164754,-8427.050478,-296.082377
4461.912684,370.102971,-8580.269578,-222.061783
4461.913008,296.082377,-8733.488677,-296.082377
4461.913332,370.102971,-8350.440928,-370.102971
4461.913657,296.082377,-8044.002729,0.000000
4461.913981,444.123565,-8427.050478,-296.082377
4461.914305,296.082377,-8580.269578,-296.082377
4461.914629,518.144159,-8427.050478,-370.102971
4461.914954,592.164754,-8350.440928,-296.082377
4461.915278,666.185348,-8197.221829,-296.082377
4461.915602,444.123565,-8733.488677,-518.144159
4461.915926,444.123565,-8273.831378,-444.123565
4461.916251,296.082377,-8427.050478,-444.123565
4461.916575,0.000000,-8810.098227,-444.123565
4461.916899,0.000000,-8503.660028,-518.144159
4461.917223,518.144159,-8503.660028,-592.164754
4461.917548,444.123565,-8273.831378,-740.205942
4461.917872,518.144159,-8427.050478,0.000000
4461.918196,296.082377,-8427.050478,-444.123565
4461.918520,444.123565,-8656.879127,-370.102971
4461.918845,444.123565,-8503.660028,-666.185348
4461.919169,962.267725,-8810.098227,-666.185348
4461.919493,666.185348,-8503.660028,-518.144159
4461.919817,444.123565,-8656.879127,-444.123565
4461.920142,222.061783,-8810.098227,-370.102971
4461.920466,296.082377,-8503.660028,-592.164754
4461.920790,814.226536,-8963.317327,-518.144159
4461.921114,444.123565,-8733.488677,-222.061783
4461.921439,592.164754,-8580.269578,-518.144159
4461.921763,592.164754,-8886.707777,-296.082377
4461.922087,888.247130,-9729.412825,-296.082377
4461.922412,518.144159,-8656.879127,-592.164754
4461.922736,518.144159,-8580.269578,-370.102971
4461.923060,444.123565,-8350.440928,-444.123565
4461.923384,370.102971,-9193.145976,-444.123565
4461.923709,222.061783,-8427.050478,-296.082377
4461.924033,444.123565,-8886.707777,-444.123565
4461.924357,148.041188,-9039.926876,-370.102971
4461.924681,592.164754,-8733.488677,-296.082377
4461.925006,222.061783,-8350.440928,-666.185348
4461.925330,444.123565,-8580.269578,0.000000
4461.925654,370.102971,-8656.879127,-444.123565
4461.925978,296.082377,-8580.269578,-592.164754
4461.926303,518.144159,-8963.317327,-592.164754
4461.926627,296.082377,-8580.269578,-296.082377
4461.926951,148.041188,-8886.707777,-666.185348
4461.927275,296.082377,-8733.488677,-592.164754
4461.927600,370.102971,-8886.707777,-592.164754
4461.927924,518.144159,-8580.269578,-296.082377
4461.928248,592.164754,-8810.098227,-444.123565
4461.928572,222.061783,-8427.050478,-444.123565
4461.928897,740.205942,-8503.660028,-370.102971
4461.929221,148.041188,-8733.488677,0.000000
4461.929545,518.144159,-8580.269578,-370.102971
4461.929869,444.123565,-8273.831378,-148.041188
4461.930194,148.041188,-8580.269578,-222.061783
4461.930518,148.041188,-9499.584175,-222.061783
4461.930842,370.102971,-8273.831378,-296.082377
4461.931166,518.144159,-8656.879127,-518.144159
4461.931491,296.082377,-8580.269578,-296.082377
4461.931815,370.102971,-8273.831378,0.000000
4461.932139,370.102971,-8503.660028,-444.123565
4461.932463,518.144159,-8120.612279,0.000000
4461.932788,296.082377,-8580.269578,-296.082377
4461.933112,518.144159,-8580.269578,-74.020594
4461.933436,148.041188,-7967.393179,0.000000
4461.933760,518.144159,-8656.879127,-370.102971
4461.934085,518.144159,-8580.269578,-518.144159
4461.934409,370.102971,-8503.660028,-370.102971
4461.934733,296.082377,-8886.707777,-962.267725
4461.935057,370.102971,-8733.488677,-444.123565
4461.935382,592.164754,-8580.269578,-444.123565
4461.935706,444.123565,-8427.050478,-518.144159
4461.936030,666.185348,-8733.488677,-444.123565
4461.936354,666.185348,-8810.098227,-296.082377
4461.936679,666.185348,-8503.660028,-148.041188
4461.937003,370.102971,-8503.660028,-296.082377
4461.937327,148.041188,-8886.707777,-296.082377
4461.937651,370.102971,-9193.145976,74.020594
4461.937976,444.123565,-8656.879127,-444.123565
4461.938300,370.102971,-8733.488677,-222.061783
4461.938624,592.164754,-8503.660028,-370.102971
4461.938948,222.061783,-8656.879127,-148.041188
4461.939273,296.082377,-8580.269578,-222.061783
4461.939597,444.123565,-8427.050478,-296.082377
4461.939921,444.123565,-9039.926876,0.000000
4461.940246,592.164754,-8427.050478,0.000000
4461.940570,296.082377,-8810.098227,-222.061783
4461.940894,370.102971,-8733.488677,-370.102971
4461.941218,74.020594,-8503.660028,-222.061783
4461.941543,518.144159,-8886.707777,-296.082377
4461.941867,0.000000,-8733.488677,148.041188
4461.942191,74.020594,-9039.926876,-518.144159
4461.942515,370.102971,-8427.050478,-888.247130
4461.942840,518.144159,-8503.660028,-666.185348
4461.943164,666.185348,-8350.440928,-518.144159
4461.943488,518.144159,-8733.488677,-296.082377
4461.943812,666.185348,-8350.440928,-370.102971
4461.944137,296.082377,-8503.660028,-444.123565
4461.944461,296.082377,-8810.098227,-444.123565
4461.944785,444.123565,-8197.221829,-296.082377
4461.945109,518.144159,-8886.707777,-370.102971
4461.945434,222.061783,-8427.050478,-296.082377
4461.945758,222.061783,-8503.660028,-296.082377
4461.946082,0.000000,-9269.755526,0.000000
4461.946406,296.082377,-8120.612279,-222.061783
4461.946731,518.144159,-8733.488677,-222.061783
4461.947055,814.226536,-8273.831378,-370.102971
4461.947379,888.247130,-8580.269578,-148.041188
4461.947703,222.061783,-8963.317327,-296.082377
4461.948028,666.185348,-8733.488677,-296.082377
4461.948352,444.123565,-8656.879127,-370.102971
4461.948676,518.144159,-8810.098227,-296.082377
4461.949000,0.000000,-8273.831378,74.020594
4461.949325,296.082377,-8656.879127,-370.102971
4461.949649,444.123565,-8503.660028,-296.082377
4461.949973,370.102971,-8580.269578,-370.102971
4461.950297,518.144159,-8963.317327,0.000000
4461.950622,666.185348,-8197.221829,0.000000
4461.950946,518.144159,-8656.879127,-296.082377
4461.951270,518.144159,-8733.488677,-222.061783
4461.951594,444.123565,-8503.660028,-222.061783
4461.951919,296.082377,-8656.879127,0.000000
4461.952243,0.000000,-8580.269578,0.000000
4461.952567,74.020594,-8733.488677,-444.123565
4461.952891,0.000000,-8503.660028,-222.061783
4461.953216,74.020594,-8044.002729,222.061783
4461.953540,518.144159,-8580.269578,-222.061783
4461.953864,222.061783,-8810.098227,0.000000
4461.954188,740.205942,-8273.831378,0.000000
4461.954513,592.164754,-8886.707777,0.000000
4461.954837,518.144159,-8503.660028,-296.082377
4461.955161,518.144159,-8350.440928,0.000000
4461.955485,296.082377,-8580.269578,-370.102971
4461.955810,74.020594,-8733.488677,-148.041188
4461.956134,592.164754,-8580.269578,-518.144159
4461.956458,296.082377,-8503.660028,-148.041188
4461.956783,222.061783,-8273.831378,-444.123565
4461.957107,592.164754,-8733.488677,-518.144159
4461.957431,1258.350101,-8656.879127,-444.123565
4461.957755,518.144159,-8273.831378,-296.082377
4461.958080,444.123565,-8427.050478,-370.102971
4461.958404,592.164754,-8427.050478,-222.061783
4461.958728,592.164754,-8580.269578,-518.144159
4461.959052,592.164754,-8886.707777,-444.123565
4461.959377,74.020594,-8503.660028,-370.102971
4461.959701,296.082377,-8733.488677,-148.041188
4461.960025,148.041188,-8580.269578,-222.061783
4461.960349,740.205942,-8810.098227,-666.185348
4461.960674,518.144159,-8656.879127,-814.226536
4461.960998,814.226536,-8427.050478,-296.082377
4461.961322,592.164754,-8350.440928,-444.123565
4461.961646,592.164754,-8350.440928,-148.041188
4461.961971,666.185348,-8503.660028,-518.144159
4461.962295,444.123565,-8810.098227,-370.102971
4461.962619,518.144159,-8503.660028,-444.123565
4461.962943,444.123565,-8503.660028,-370.102971
4461.963268,666.185348,-8963.317327,-444.123565
4461.963592,518.144159,-8427.050478,-518.144159
4461.963916,444.123565,-8656.879127,-370.102971
4461.964240,444.123565,-8733.488677,-666.185348
4461.964565,592.164754,-8427.050478,-888.247130
4461.964889,370.102971,-8503.660028,-370.102971
4461.965213,444.123565,-8656.879127,-148.041188
4461.965537,592.164754,-8197.221829,-370.102971
4461.965862,740.205942,-8197.221829,0.000000
4461.966186,444.123565,-8427.050478,-296.082377
4461.966510,296.082377,-8427.050478,74.020594
4461.966834,296.082377,-8733.488677,0.000000
4461.967159,222.061783,-8503.660028,-370.102971
4461.967483,518.144159,-9269.755526,-518.144159
4461.967807,296.082377,-8503.660028,-222.061783
4461.968131,222.061783,-8503.660028,-222.061783
4461.968456,148.041188,-8503.660028,-370.102971
4461.968780,518.144159,-8810.098227,-296.082377
4461.969104,444.123565,-8350.440928,-148.041188
4461.969428,444.123565,-8580.269578,-148.041188
4461.969753,296.082377,-8503.660028,-148.041188
4461.970077,814.226536,-8580.269578,-222.061783
4461.970401,518.144159,-8580.269578,-444.123565
4461.970725,222.061783,-8427.050478,-740.205942
4461.971050,370.102971,-8810.098227,-592.164754
4461.971374,444.123565,-8350.440928,-444.123565
4461.971698,592.164754,-8503.660028,-666.185348
4461.972022,518.144159,-8886.707777,-592.164754
4461.972347,592.164754,-8656.879127,-444.123565
4461.972671,666.185348,-8810.098227,-518.144159
4461.972995,888.247130,-9422.974625,-370.102971
4461.973319,592.164754,-8810.098227,0.000000
4461.973644,296.082377,-8427.050478,-296.082377
4461.973968,296.082377,-8656.879127,-370.102971
4461.974292,222.061783,-8580.269578,-518.144159
4461.974617,148.041188,-8733.488677,-296.082377
4461.974941,222.061783,-8427.050478,-444.123565
4461.975265,74.020594,-8810.098227,-148.041188
4461.975589,518.144159,-8733.488677,-148.041188
4461.975914,296.082377,-8580.269578,74.020594
4461.976238,444.123565,-8580.269578,-444.123565
4461.976562,222.061783,-8656.879127,0.000000
4461.976886,518.144159,-8580.269578,-370.102971
4461.977211,888.247130,-8350.440928,-148.041188
4461.977535,222.061783,-8350.440928,-148.041188
4461.977859,148.041188,-8580.269578,-148.041188
4461.978183,740.205942,-8656.879127,-444.123565
4461.978508,518.144159,-8197.221829,-296.082377
4461.978832,444.123565,-8427.050478,-444.123565
4461.979156,518.144159,-8350.440928,-370.102971
4461.979480,666.185348,-8886.707777,-296.082377
4461.979805,814.226536,-8503.660028,-444.123565
4461.980129,1110.308913,-8427.050478,-518.144159
4461.980453,444.123565,-8427.050478,-296.082377
4461.980777,592.164754,-8427.050478,-370.102971
4461.981102,370.102971,-8580.269578,0.000000
4461.981426,370.102971,-9499.584175,-444.123565
4461.981750,370.102971,-8580.269578,-370.102971
4461.982074,148.041188,-8810.098227,-222.061783
4461.982399,0.000000,-8810.098227,0.000000
4461.982723,296.082377,-8350.440928,-148.041188
4461.983047,444.123565,-8733.488677,-222.061783
4461.983371,296.082377,-8810.098227,0.000000
4461.983696,370.102971,-8427.050478,0.000000
4461.984020,518.144159,-8733.488677,-222.061783
4461.984344,0.000000,-8427.050478,296.082377
4461.984668,296.082377,-8656.879127,-370.102971
4461.984993,296.082377,-8810.098227,-518.144159
4461.985317,444.123565,-8503.660028,0.000000
4461.985641,148.041188,-9269.755526,-148.041188
4461.985965,222.061783,-8733.488677,-222.061783
4461.986290,518.144159,-8503.660028,-444.123565
4461.986614,444.123565,-9039.926876,-296.082377
4461.986938,444.123565,-8810.098227,-370.102971
4461.987262,222.061783,-8503.660028,0.000000
4461.987587,222.061783,-8580.269578,-148.041188
4461.987911,222.061783,-8580.269578,0.000000
4461.988235,444.123565,-8580.269578,-370.102971
4461.988559,0.000000,-8503.660028,296.082377
4461.988884,148.041188,-8197.221829,-148.041188
4461.989208,0.000000,-8656.879127,-370.102971
4461.989532,296.082377,-8733.488677,-296.082377
4461.989856,518.144159,-8197.221829,-148.041188
4461.990181,444.123565,-8427.050478,-370.102971
4461.990505,296.082377,-8656.879127,-370.102971
4461.990829,296.082377,-8503.660028,-370.102971
4461.991154,518.144159,-8580.269578,-370.102971
4461.991478,592.164754,-8120.612279,-592.164754
4461.991802,444.123565,-8427.050478,-518.144159
4461.992126,888.247130,-8273.831378,-518.144159
4461.992451,740.205942,-8503.660028,-518.144159
4461.992775,814.226536,-8810.098227,-740.205942
4461.993099,666.185348,-8580.269578,-370.102971
4461.993423,666.185348,-8427.050478,-592.164754
4461.993748,814.226536,-8580.269578,-444.123565
4461.994072,518.144159,-9193.145976,-370.102971
4461.994396,814.226536,-8580.269578,-148.041188
4461.994721,592.164754,-8197.221829,-296.082377
4461.995045,814.226536,-8427.050478,-370.102971
4461.995369,814.226536,-8273.831378,-296.082377
4461.995693,518.144159,-8733.488677,74.020594
4461.996018,518.144159,-8503.660028,-518.144159
4461.996342,370.102971,-8580.269578,-592.164754
4461.996666,518.144159,-8580.269578,-370.102971
4461.996991,666.185348,-8886.707777,-592.164754
4461.997315,592.164754,-8427.050478,-296.082377
4461.997639,370.102971,-8503.660028,-74.020594
4461.997964,370.102971,-8810.098227,-222.061783
4461.998288,296.082377,-8503.660028,-222.061783
4461.998612,370.102971,-8963.317327,-518.144159
4461.998936,592.164754,-8656.879127,-296.082377
4461.999261,370.102971,-8350.440928,-222.061783
4461.999585,296.082377,-8810.098227,-592.164754
4461.999909,444.123565,-8656.879127,-370.102971
4462.000234,74.020594,-8733.488677,-296.082377
4462.000558,0.000000,-8503.660028,-592.164754
4462.000882,222.061783,-8656.879127,-296.082377
4462.001206,222.061783,-9116.536426,148.041188
4462.001531,148.041188,-8580.269578,-370.102971
4462.001855,296.082377,-8656.879127,-518.144159
4462.002179,74.020594,-8733.488677,-296.082377
4462.002504,518.144159,-8503.660028,-370.102971
4462.002828,0.000000,-8273.831378,0.000000
4462.003152,74.020594,-8503.660028,-518.144159
4462.003477,444.123565,-8503.660028,-592.164754
4462.003801,0.000000,-8656.879127,-592.164754
4462.004125,296.082377,-8810.098227,-592.164754
4462.004449,222.061783,-8580.269578,-740.205942
4462.004774,444.123565,-8427.050478,-370.102971
4462.005098,370.102971,-8427.050478,-296.082377
4462.005422,666.185348,-8427.050478,-592.164754
4462.005747,518.144159,-8886.707777,-296.082377
4462.006071,592.164754,-8580.269578,-370.102971
4462.006395,370.102971,-8656.879127,-370.102971
4462.006719,296.082377,-8273.831378,-592.164754
4462.007044,518.144159,-8810.098227,-666.185348
4462.007368,592.164754,-8656.879127,-592.164754
4462.007692,296.082377,-8503.660028,-518.144159
4462.008017,296.082377,-8656.879127,-296.082377
4462.008341,962.267725,-8580.269578,-148.041188
4462.008665,518.144159,-8503.660028,-148.041188
4462.008990,814.226536,-8503.660028,-370.102971
4462.009314,888.247130,-8810.098227,0.000000
4462.009638,592.164754,-8427.050478,222.061783
4462.009962,814.226536,-8656.879127,0.000000
4462.010287,666.185348,-8350.440928,-370.102971
4462.010611,592.164754,-8810.098227,-296.082377
4462.010935,370.102971,-8503.660028,-592.164754
4462.011260,740.205942,-8733.488677,0.000000
4462.011584,370.102971,-8580.269578,-296.082377
4462.011908,592.164754,-8810.098227,-444.123565
4462.012232,592.164754,-8503.660028,-444.123565
4462.012557,1036.288319,-8120.612279,74.020594
4462.012881,962.267725,-8273.831378,-444.123565
4462.013205,666.185348,-8273.831378,-370.102971
4462.013530,592.164754,-8810.098227,-444.123565
4462.013854,518.144159,-8350.440928,-740.205942
4462.014178,814.226536,-8886.707777,-666.185348
4462.014503,74.020594,-8580.269578,-370.102971
4462.014827,148.041188,-8963.317327,-148.041188
4462.015151,74.020594,-8427.050478,-518.144159
4462.015475,518.144159,-8810.098227,-74.020594
4462.015800,592.164754,-8503.660028,-592.164754
4462.016124,592.164754,-8810.098227,-370.102971
4462.016448,518.144159,-8580.269578,0.000000
4462.016773,370.102971,-8886.707777,0.000000
4462.017097,518.144159,-8427.050478,-444.123565
4462.017421,148.041188,-8733.488677,-592.164754
4462.017745,296.082377,-8733.488677,-518.144159
4462.018070,74.020594,-8733.488677,-518.144159
4462.018394,74.020594,-8733.488677,-148.041188
4462.018718,444.123565,-8580.269578,-444.123565
4462.019043,222.061783,-8733.488677,-370.102971
4462.019367,370.102971,-8886.707777,-370.102971
4462.019691,592.164754,-8810.098227,0.000000
4462.020016,592.164754,-8733.488677,0.000000
4462.020340,444.123565,-8580.269578,-444.123565
4462.020664,370.102971,-8503.660028,-296.082377
4462.020988,740.205942,-8810.098227,-296.082377
4462.021313,296.082377,-8886.707777,-370.102971
4462.021637,74.020594,-8733.488677,-444.123565
4462.021961,148.041188,-8580.269578,-370.102971
4462.022286,222.061783,-8580.269578,-444.123565
4462.022610,370.102971,-8503.660028,-222.061783
4462.022934,666.185348,-8580.269578,-888.247130
4462.023258,740.205942,-8503.660028,-444.123565
4462.023583,740.205942,-8427.050478,-296.082377
4462.023907,592.164754,-8427.050478,-740.205942
4462.024231,592.164754,-8427.050478,-296.082377
4462.024556,592.164754,-8656.879127,-222.061783
4462.024880,444.123565,-8350.440928,-74.020594
4462.025204,666.185348,-7890.783629,0.000000
4462.025528,444.123565,-8656.879127,-222.061783
4462.025853,296.082377,-8427.050478,-296.082377
4462.026177,444.123565,-8350.440928,0.000000
4462.026501,592.164754,-8580.269578,-222.061783
4462.026826,518.144159,-8273.831378,148.041188
4462.027150,518.144159,-8503.660028,0.000000
4462.027474,296.082377,-8273.831378,-296.082377
4462.027799,444.123565,-8656.879127,-222.061783
4462.028123,592.164754,-7890.783629,-148.041188
4462.028447,518.144159,-8580.269578,0.000000
4462.028771,222.061783,-8656.879127,-296.082377
4462.029096,222.061783,-8733.488677,-296.082377
4462.029420,370.102971,-8580.269578,-222.061783
4462.029744,518.144159,-8733.488677,-592.164754
4462.030069,740.205942,-8656.879127,-444.123565
4462.030393,592.164754,-8503.660028,-222.061783
4462.030717,444.123565,-8656.879127,-296.082377
4462.031041,222.061783,-8503.660028,-592.164754
4462.031366,666.185348,-8273.831378,-592.164754
4462.031690,666.185348,-8810.098227,-518.144159
4462.032014,370.102971,-8733.488677,-444.123565
4462.032339,370.102971,-8810.098227,-666.185348
4462.032663,444.123565,-8810.098227,-370.102971
4462.032987,592.164754,-8580.269578,-370.102971
4462.033312,148.041188,-8886.707777,-666.185348
4462.033636,518.144159,-9039.926876,-666.185348
4462.033960,222.061783,-8273.831378,-666.185348
4462.034284,222.061783,-9039.926876,-444.123565
4462.034609,74.020594,-8810.098227,-296.082377
4462.034933,444.123565,-8810.098227,-370.102971
4462.035257,296.082377,-8963.317327,-592.164754
4462.035582,296.082377,-9193.145976,-370.102971
4462.035906,296.082377,-8733.488677,-740.205942
4462.036230,74.020594,-8656.879127,-296.082377
4462.036554,74.020594,-9039.926876,-222.061783
4462.036879,518.144159,-8886.707777,-518.144159
4462.037203,370.102971,-8350.440928,-518.144159
4462.037527,518.144159,-8810.098227,-592.164754
4462.037852,444.123565,-8810.098227,-666.185348
4462.038176,962.267725,-8503.660028,-740.205942
4462.038500,518.144159,-8580.269578,-592.164754
4462.038825,518.144159,-8503.660028,-370.102971
4462.039149,518.144159,-8503.660028,-518.144159
4462.039473,222.061783,-8273.831378,148.041188
4462.039797,296.082377,-8350.440928,-518.144159
4462.040122,74.020594,-8580.269578,-444.123565
4462.040446,592.164754,-8580.269578,-518.144159
4462.040770,370.102971,-8044.002729,-148.041188
4462.041095,222.061783,-8427.050478,-444.123565
4462.041419,518.144159,-8656.879127,-444.123565
4462.041743,666.185348,-8427.050478,-296.082377
4462.042067,666.185348,-8656.879127,-370.102971
4462.042392,814.226536,-8503.660028,74.020594
4462.042716,296.082377,-8273.831378,0.000000
4462.043040,592.164754,-8656.879127,-222.061783
4462.043365,370.102971,-8503.660028,-296.082377
4462.043689,814.226536,-8733.488677,-518.144159
4462.044013,518.144159,-8503.660028,-444.123565
4462.044338,518.144159,-8350.440928,-296.082377
4462.044662,370.102971,-8656.879127,-444.123565
4462.044986,740.205942,-9116.536426,-444.123565
4462.045310,888.247130,-8733.488677,-444.123565
4462.045635,814.226536,-8656.879127,-296.082377
4462.045959,518.144159,-8580.269578,-222.061783
4462.046283,666.185348,-8503.660028,-444.123565
4462.046608,444.123565,-8733.488677,0.000000
4462.046932,518.144159,-8656.879127,-444.123565
4462.047256,148.041188,-8963.317327,-814.226536
4462.047580,444.123565,-8503.660028,-370.102971
4462.047905,0.000000,-8886.707777,222.061783
4462.048229,74.020594,-9116.536426,-666.185348
4462.048553,74.020594,-8427.050478,-370.102971
4462.048878,444.123565,-8656.879127,-296.082377
4462.049202,592.164754,-8656.879127,-296.082377
4462.049526,444.123565,-8580.269578,-592.164754
4462.049851,370.102971,-8886.707777,-444.123565
4462.050175,370.102971,-8503.660028,-518.144159
4462.050499,444.123565,-8886.707777,-592.164754
4462.050823,444.123565,-8427.050478,-222.061783
4462.051148,0.000000,-8350.440928,0.000000
4462.051472,0.000000,-8656.879127,-814.226536
4462.051796,222.061783,-8580.269578,-518.144159
4462.052121,740.205942,-9116.536426,0.000000
4462.052445,740.205942,-8810.098227,-444.123565
4462.052769,518.144159,-8503.660028,-222.061783
4462.053093,518.144159,-8733.488677,0.000000
4462.053418,296.082377,-8810.098227,-370.102971
4462.053742,148.041188,-8427.050478,-370.102971
4462.054066,148.041188,-8733.488677,-518.144159
4462.054391,370.102971,-8503.660028,-518.144159
4462.054715,296.082377,-8350.440928,-296.082377
4462.055039,74.020594,-9039.926876,0.000000
4462.055363,444.123565,-8503.660028,0.000000
4462.055688,518.144159,-8350.440928,-222.061783
4462.056012,666.185348,-8733.488677,-148.041188
4462.056336,666.185348,-8580.269578,222.061783
4462.056661,370.102971,-8503.660028,74.020594
4462.056985,444.123565,-8197.221829,-74.020594
4462.057309,518.144159,-8427.050478,0.000000
4462.057634,296.082377,-8810.098227,-370.102971
4462.057958,666.185348,-8197.221829,-222.061783
4462.058282,222.061783,-8427.050478,148.041188
4462.058606,518.144159,-8656.879127,-148.041188
4462.058931,444.123565,-8350.440928,-296.082377
4462.059255,888.247130,-8656.879127,0.000000
4462.059579,592.164754,-8503.660028,-148.041188
4462.059904,740.205942,-8580.269578,0.000000
4462.060228,518.144159,-8427.050478,0.000000
4462.060552,592.164754,-7737.564530,0.000000
4462.060876,296.082377,-8427.050478,0.000000
4462.061201,592.164754,-8810.098227,0.000000
4462.061525,444.123565,-8350.440928,-148.041188
4462.061849,518.144159,-8580.269578,-296.082377
4462.062174,0.000000,-8427.050478,0.000000
4462.062498,370.102971,-8580.269578,148.041188
4462.062822,370.102971,-8503.660028,-222.061783
4462.063147,370.102971,-8503.660028,0.000000
4462.063471,296.082377,-8044.002729,0.000000
4462.063795,444.123565,-8580.269578,-222.061783
4462.064119,370.102971,-8427.050478,-444.123565
4462.064444,296.082377,-8733.488677,-296.082377
4462.064768,518.144159,-8733.488677,-592.164754
4462.065092,222.061783,-8350.440928,-444.123565
4462.065417,222.061783,-8580.269578,-518.144159
4462.065741,296.082377,-8733.488677,-296.082377
4462.066065,296.082377,-8580.269578,-518.144159
4462.066389,518.144159,-8580.269578,-518.144159
4462.066714,444.123565,-8580.269578,-222.061783
4462.067038,592.164754,-8580.269578,-592.164754
4462.067362,444.123565,-8733.488677,-592.164754
4462.067687,518.144159,-8427.050478,-296.082377
4462.068011,222.061783,-8810.098227,-370.102971
4462.068335,444.123565,-8656.879127,-444.123565
4462.068660,0.000000,-8656.879127,-296.082377
4462.068984,222.061783,-8656.879127,-740.205942
4462.069308,444.123565,-8733.488677,-740.205942
4462.069632,370.102971,-8503.660028,-592.164754
4462.069957,592.164754,-8733.488677,-370.102971
4462.070281,444.123565,-8350.440928,-518.144159
4462.070605,814.226536,-8810.098227,0.000000
4462.070930,370.102971,-8503.660028,-222.061783
4462.071254,740.205942,-8810.098227,-740.205942
4462.071578,370.102971,-8810.098227,-518.144159
4462.071902,592.164754,-8503.660028,-592.164754
4462.072227,222.061783,-8733.488677,-296.082377
4462.072551,444.123565,-8503.660028,-888.247130
4462.072875,518.144159,-8733.488677,-444.123565
4462.073200,518.144159,-8656.879127,-518.144159
4462.073524,740.205942,-8886.707777,-296.082377
4462.073848,666.185348,-8273.831378,-518.144159
4462.074173,444.123565,-8733.488677,-296.082377
4462.074497,370.102971,-8350.440928,-296.082377
4462.074821,592.164754,-9039.926876,222.061783
4462.075145,592.164754,-8656.879127,-222.061783
4462.075470,370.102971,-8503.660028,0.000000
4462.075794,518.144159,-8656.879127,-370.102971
4462.076118,148.041188,-8733.488677,74.020594
4462.076443,222.061783,-8656.879127,0.000000
4462.076767,370.102971,-8427.050478,-296.082377
4462.077091,444.123565,-8427.050478,0.000000
4462.077415,444.123565,-8350.440928,-370.102971
4462.077740,370.102971,-8427.050478,148.041188
4462.078064,370.102971,-8503.660028,-148.041188
4462.078388,370.102971,-8810.098227,-222.061783
4462.078713,518.144159,-8273.831378,0.000000
4462.079037,222.061783,-8350.440928,-370.102971
4462.079361,222.061783,-8886.707777,-296.082377
4462.079686,222.061783,-8503.660028,-296.082377
4462.080010,296.082377,-8656.879127,-666.185348
4462.080334,222.061783,-8886.707777,-148.041188
4462.080658,444.123565,-8810.098227,0.000000
4462.080983,296.082377,-8656.879127,-518.144159
4462.081307,296.082377,-8580.269578,0.000000
4462.081631,370.102971,-8886.707777,-370.102971
4462.081956,370.102971,-9116.536426,-296.082377
4462.082280,518.144159,-8503.660028,0.000000
4462.082604,518.144159,-8733.488677,-518.144159
4462.082928,0.000000,-8580.269578,-444.123565
4462.083253,296.082377,-8503.660028,-296.082377
4462.083577,0.000000,-8427.050478,-444.123565
4462.083901,74.020594,-8580.269578,-370.102971
4462.084226,296.082377,-8656.879127,-444.123565
4462.084550,518.144159,-8656.879127,-222.061783
4462.084874,296.082377,-8273.831378,-222.061783
4462.085198,888.247130,-8963.317327,-296.082377
4462.085523,888.247130,-8273.831378,-296.082377
4462.085847,592.164754,-8273.831378,-148.041188
4462.086171,518.144159,-8197.221829,-666.185348
4462.086496,518.144159,-8503.660028,-444.123565
4462.086820,444.123565,-8733.488677,-444.123565
4462.087144,444.123565,-8733.488677,-592.164754
4462.087469,370.102971,-8273.831378,-888.247130
4462.087793,518.144159,-8580.269578,-592.164754
4462.088117,444.123565,-8580.269578,-518.144159
4462.088441,518.144159,-8427.050478,-296.082377
4462.088766,814.226536,-8580.269578,-518.144159
4462.089090,1036.288319,-8273.831378,-222.061783
4462.089414,592.164754,-8580.269578,0.000000
4462.089739,296.082377,-8733.488677,-444.123565
4462.090063,222.061783,-8273.831378,-518.144159
4462.090387,592.164754,-8503.660028,-444.123565
4462.090711,74.020594,-8503.660028,-444.123565
4462.091036,0.000000,-8427.050478,-74.020594
4462.091360,222.061783,-8427.050478,-444.123565
4462.091684,296.082377,-8886.707777,-74.020594
4462.092009,296.082377,-8427.050478,-296.082377
4462.092333,666.185348,-8733.488677,-222.061783
4462.092657,518.144159,-8350.440928,0.000000
4462.092982,370.102971,-8580.269578,0.000000
4462.093306,222.061783,-8427.050478,-222.061783
4462.093630,296.082377,-8503.660028,-296.082377
4462.093955,222.061783,-8580.269578,-370.102971
4462.094279,370.102971,-8503.660028,-296.082377
4462.094603,296.082377,-9116.536426,0.000000
4462.094928,74.020594,-8503.660028,-222.061783
4462.095252,370.102971,-8273.831378,-296.082377
4462.095576,148.041188,-8810.098227,-296.082377
4462.095901,592.164754,-9039.926876,-296.082377
4462.096225,444.123565,-8273.831378,0.000000
4462.096549,296.082377,-8656.879127,0.000000
4462.096874,666.185348,-8427.050478,-148.041188
4462.097198,296.082377,-8503.660028,-370.102971
4462.097522,370.102971,-8733.488677,-222.061783
4462.097847,148.041188,-8580.269578,-148.041188
4462.098171,222.061783,-8503.660028,-222.061783
