#time,accel_x,accel_y,accel_z
4065.271519,-592.164754,-8656.879127,-1258.350101
4065.271844,-444.123565,-8503.660028,-1184.329507
4065.272168,0.000000,-8503.660028,-1258.350101
4065.272493,148.041188,-9269.755526,-1184.329507
4065.272817,962.267725,-8656.879127,-1776.494261
4065.273142,888.247130,-8656.879127,-1258.350101
4065.273466,1036.288319,-8886.707777,-1480.411884
4065.273790,740.205942,-8886.707777,-1332.370696
4065.274115,148.041188,-9806.022374,-1628.453072
4065.274439,-740.205942,-9422.974625,-1184.329507
4065.274764,-1702.473667,-9346.365076,-962.267725
4065.275088,-2368.659014,-9499.584175,-1110.308913
4065.275412,-2738.761985,-10495.508323,-444.123565
4065.275737,-2738.761985,-9806.022374,-592.164754
4065.276061,-2886.803174,-9729.412825,-814.226536
4065.276386,-3034.844362,-9652.803275,-444.123565
4065.276710,-3034.844362,-9652.803275,-518.144159
4065.277035,-2516.700203,-9346.365076,-740.205942
4065.277359,-2738.761985,-9499.584175,-814.226536
4065.277683,-3330.926739,-9193.145976,-666.185348
4065.278008,-3330.926739,-9193.145976,-370.102971
4065.278332,-3849.070898,-9652.803275,-518.144159
4065.278657,-4219.173869,-9116.536426,-740.205942
4065.278981,-4367.215058,-8810.098227,-444.123565
4065.279305,-5033.400406,-8350.440928,-592.164754
4065.279630,-4885.359217,-8580.269578,0.000000
4065.279954,-4737.318029,-8197.221829,-740.205942
4065.280279,-3849.070898,-8273.831378,-222.061783
4065.280603,-3478.967927,-8120.612279,-148.041188
4065.280928,-2960.823768,-7967.393179,74.020594
4065.281252,-2220.617826,-7967.393179,148.041188
4065.281576,-1998.556043,-7814.174080,-148.041188
4065.281901,-1628.453072,-8120.612279,222.061783
4065.282225,-2146.597232,-7814.174080,148.041188
4065.282550,-1702.473667,-9116.536426,1110.308913
4065.282874,-3552.988522,-8044.002729,370.102971
4065.283199,-1850.514855,-8963.317327,1110.308913
4065.283523,-2442.679609,-7814.174080,370.102971
4065.283847,-1628.453072,-9346.365076,1332.370696
4065.284172,-1258.350101,-7507.735880,518.144159
4065.284496,-666.185348,-8273.831378,1110.308913
4065.284821,-148.041188,-8120.612279,370.102971
4065.285145,0.000000,-7890.783629,444.123565
4065.285470,74.020594,-8120.612279,962.267725
4065.285794,-296.082377,-8044.002729,666.185348
4065.286118,-518.144159,-8427.050478,222.061783
4065.286443,-740.205942,-8273.831378,148.041188
4065.286767,-1628.453072,-8733.488677,444.123565
4065.287092,-2146.597232,-8503.660028,222.061783
4065.287416,-1554.432478,-8427.050478,444.123565
4065.287741,-1628.453072,-7967.393179,0.000000
4065.288065,-1406.391290,-8427.050478,0.000000
4065.288390,-1480.411884,-7967.393179,0.000000
4065.288714,-1406.391290,-8273.831378,-518.144159
4065.289039,-1258.350101,-7967.393179,-1184.329507
4065.289363,-1036.288319,-8044.002729,-666.185348
4065.289687,-1036.288319,-8273.831378,-1184.329507
4065.290012,-1406.391290,-8427.050478,-1036.288319
4065.290336,-1258.350101,-8656.879127,-1110.308913
4065.290661,-666.185348,-8810.098227,-1036.288319
4065.290985,0.000000,-8886.707777,-1628.453072
4065.291310,148.041188,-9039.926876,-1480.411884
4065.291634,518.144159,-8886.707777,-1480.411884
4065.291959,814.226536,-9039.926876,-1702.473667
4065.292283,962.267725,-9039.926876,-1702.473667
4065.292607,370.102971,-8733.488677,-1406.391290
4065.292932,444.123565,-9193.145976,-1332.370696
4065.293256,0.000000,-9193.145976,-1406.391290
4065.293581,0.000000,-9269.755526,-1110.308913
4065.293905,814.226536,-8963.317327,-1850.514855
4065.294230,592.164754,-10035.851024,-1332.370696
4065.294554,148.041188,-9652.803275,-1480.411884
4065.294879,296.082377,-9882.631924,-1554.432478
4065.295203,-148.041188,-9806.022374,-1702.473667
4065.295528,-444.123565,-10112.460574,-1702.473667
4065.295852,-1110.308913,-10112.460574,-1258.350101
4065.296176,-2146.597232,-9576.193725,-1332.370696
4065.296501,-2960.823768,-9729.412825,-962.267725
4065.296825,-3182.885551,-9193.145976,-1184.329507
4065.297150,-3478.967927,-9116.536426,-888.247130
4065.297474,-3478.967927,-8886.707777,-888.247130
4065.297799,-2960.823768,-8580.269578,-296.082377
4065.298123,-2738.761985,-8580.269578,-740.205942
4065.298448,-2146.597232,-8886.707777,-666.185348
4065.298772,-1406.391290,-8810.098227,-370.102971
4065.299096,-592.164754,-8656.879127,0.000000
4065.299421,0.000000,-8350.440928,-148.041188
4065.299745,0.000000,-8963.317327,296.082377
4065.300070,296.082377,-8580.269578,518.144159
4065.300394,666.185348,-8120.612279,370.102971
4065.300719,1184.329507,-8427.050478,740.205942
4065.301043,1184.329507,-7814.174080,1332.370696
4065.301368,1850.514855,-7354.516781,740.205942
4065.301692,2590.720797,-7737.564530,1258.350101
4065.302017,2516.700203,-7814.174080,740.205942
4065.302341,2960.823768,-7201.297681,1184.329507
4065.302665,2960.823768,-7890.783629,740.205942
4065.302990,2442.679609,-8503.660028,962.267725
4065.303314,1628.453072,-8273.831378,962.267725
4065.303639,888.247130,-8810.098227,1332.370696
4065.303963,0.000000,-8350.440928,962.267725
4065.304288,-370.102971,-8120.612279,888.247130
4065.304612,-296.082377,-7967.393179,814.226536
4065.304937,148.041188,-7814.174080,888.247130
4065.305261,888.247130,-7814.174080,666.185348
4065.305585,1036.288319,-7890.783629,740.205942
4065.305910,1850.514855,-7431.126331,740.205942
4065.306234,1406.391290,-7354.516781,444.123565
4065.306559,2294.638420,-7967.393179,370.102971
4065.306883,1406.391290,-7814.174080,296.082377
4065.307208,1110.308913,-8580.269578,148.041188
4065.307532,518.144159,-7814.174080,0.000000
4065.307857,444.123565,-8656.879127,-444.123565
4065.308181,888.247130,-8427.050478,-222.061783
4065.308506,1702.473667,-7967.393179,-814.226536
4065.308830,2220.617826,-8503.660028,-1184.329507
4065.309154,2738.761985,-8273.831378,-1258.350101
4065.309479,3997.112087,-8580.269578,-1110.308913
4065.309803,3923.091493,-8656.879127,-1776.494261
4065.310128,3478.967927,-9039.926876,-888.247130
4065.310452,3182.885551,-8810.098227,-1554.432478
4065.310777,1998.556043,-8810.098227,-888.247130
4065.311101,148.041188,-9039.926876,-1554.432478
4065.311426,-518.144159,-10189.070123,-1554.432478
4065.311750,-1406.391290,-9729.412825,-1702.473667
4065.312075,-1998.556043,-9806.022374,-1628.453072
4065.312399,-1924.535449,-9346.365076,-1702.473667
4065.312723,-1480.411884,-8810.098227,-1924.535449
4065.313048,-592.164754,-9346.365076,-2146.597232
4065.313372,0.000000,-9499.584175,-1998.556043
4065.313697,296.082377,-9116.536426,-1480.411884
4065.314021,444.123565,-9576.193725,-2072.576638
4065.314346,-222.061783,-9806.022374,-1850.514855
4065.314670,-888.247130,-9576.193725,-1628.453072
4065.314995,-1702.473667,-10035.851024,-814.226536
4065.315319,-1776.494261,-9806.022374,-1258.350101
4065.315643,-2146.597232,-9806.022374,-1110.308913
4065.315968,-2294.638420,-9422.974625,-1258.350101
4065.316292,-1332.370696,-8810.098227,-1036.288319
4065.316617,-370.102971,-8503.660028,-1110.308913
4065.316941,592.164754,-8503.660028,-962.267725
4065.317266,1332.370696,-8503.660028,-814.226536
4065.317590,1110.308913,-8503.660028,-370.102971
4065.317915,1184.329507,-8503.660028,0.000000
4065.318239,592.164754,-8580.269578,-296.082377
4065.318564,-148.041188,-9039.926876,296.082377
4065.318888,-814.226536,-8656.879127,592.164754
4065.319212,-1776.494261,-8810.098227,814.226536
4065.319537,-2146.597232,-8044.002729,740.205942
4065.319861,-1702.473667,-7967.393179,888.247130
4065.320186,-666.185348,-7660.954980,888.247130
4065.320510,0.000000,-7201.297681,888.247130
4065.320835,888.247130,-6971.469032,592.164754
4065.321159,1332.370696,-7201.297681,1184.329507
4065.321484,1406.391290,-7354.516781,962.267725
4065.321808,1554.432478,-7660.954980,1554.432478
4065.322132,1480.411884,-7431.126331,1628.453072
4065.322457,814.226536,-8273.831378,1406.391290
4065.322781,222.061783,-8197.221829,1406.391290
4065.323106,888.247130,-8273.831378,1406.391290
4065.323430,1406.391290,-7890.783629,1036.288319
4065.323755,2072.576638,-7967.393179,666.185348
4065.324079,2368.659014,-7354.516781,1036.288319
4065.324404,2886.803174,-7584.345430,592.164754
4065.324728,2664.741391,-7660.954980,1110.308913
4065.325053,2886.803174,-7584.345430,1036.288319
4065.325377,1628.453072,-7967.393179,592.164754
4065.325701,666.185348,-7354.516781,296.082377
4065.326026,-148.041188,-8580.269578,296.082377
4065.326350,-296.082377,-7814.174080,0.000000
4065.326675,-518.144159,-8427.050478,-148.041188
4065.326999,-370.102971,-8197.221829,-222.061783
4065.327324,0.000000,-8656.879127,-444.123565
4065.327648,888.247130,-8810.098227,-370.102971
4065.327973,1184.329507,-8427.050478,-888.247130
4065.328297,1924.535449,-8886.707777,-962.267725
4065.328621,1702.473667,-8656.879127,-1184.329507
4065.328946,1702.473667,-9116.536426,-814.226536
4065.329270,1036.288319,-8503.660028,-1332.370696
4065.329595,962.267725,-9346.365076,-1184.329507
4065.329919,888.247130,-9193.145976,-1480.411884
4065.330244,1110.308913,-9499.584175,-1702.473667
4065.330568,444.123565,-9193.145976,-1850.514855
4065.330893,962.267725,-9346.365076,-1702.473667
4065.331217,1258.350101,-9346.365076,-1998.556043
4065.331542,1258.350101,-9882.631924,-1924.535449
4065.331866,1184.329507,-9576.193725,-1850.514855
4065.332190,962.267725,-9959.241474,-1924.535449
4065.332515,740.205942,-9652.803275,-2146.597232
4065.332839,74.020594,-9576.193725,-1850.514855
4065.333164,-518.144159,-9806.022374,-1776.494261
4065.333488,-1258.350101,-9346.365076,-1702.473667
4065.333813,-666.185348,-9652.803275,-1184.329507
4065.334137,-1036.288319,-8886.707777,-1480.411884
4065.334462,-592.164754,-9269.755526,-1110.308913
4065.334786,-148.041188,-9039.926876,-1406.391290
4065.335110,296.082377,-9193.145976,-888.247130
4065.335435,0.000000,-9039.926876,-1258.350101
4065.335759,222.061783,-9193.145976,-814.226536
4065.336084,-518.144159,-9039.926876,0.000000
4065.336408,-962.267725,-8656.879127,0.000000
4065.336733,-518.144159,-8886.707777,74.020594
4065.337057,-1036.288319,-8733.488677,222.061783
4065.337382,-296.082377,-8580.269578,222.061783
4065.337706,222.061783,-8044.002729,296.082377
4065.338031,444.123565,-8273.831378,518.144159
4065.338355,962.267725,-7431.126331,148.041188
4065.338679,888.247130,-7890.783629,740.205942
4065.339004,1184.329507,-7277.907231,666.185348
4065.339328,1850.514855,-7890.783629,666.185348
4065.339653,1628.453072,-7584.345430,814.226536
4065.339977,1258.350101,-8197.221829,1184.329507
4065.340302,444.123565,-7890.783629,814.226536
4065.340626,-222.061783,-7814.174080,1184.329507
4065.340951,0.000000,-7814.174080,1036.288319
4065.341275,-666.185348,-7737.564530,962.267725
4065.341599,-592.164754,-7431.126331,444.123565
4065.341924,-814.226536,-8197.221829,740.205942
4065.342248,-148.041188,-7277.907231,1036.288319
4065.342573,-148.041188,-7354.516781,888.247130
4065.342897,370.102971,-7814.174080,888.247130
4065.343222,518.144159,-7967.393179,962.267725
4065.343546,370.102971,-8427.050478,592.164754
4065.343871,444.123565,-7967.393179,518.144159
4065.344195,592.164754,-8503.660028,592.164754
4065.344520,740.205942,-8656.879127,592.164754
4065.344844,740.205942,-8120.612279,740.205942
4065.345168,1924.535449,-8733.488677,74.020594
4065.345493,1554.432478,-8044.002729,0.000000
4065.345817,1702.473667,-8120.612279,-296.082377
4065.346142,1924.535449,-8503.660028,-1110.308913
4065.346466,2072.576638,-8427.050478,-518.144159
4065.346791,1702.473667,-8580.269578,-370.102971
4065.347115,1036.288319,-8963.317327,-740.205942
4065.347440,740.205942,-9346.365076,-666.185348
4065.347764,444.123565,-9499.584175,-1184.329507
4065.348088,296.082377,-9499.584175,-1110.308913
4065.348413,0.000000,-9346.365076,-1036.288319
4065.348737,74.020594,-9193.145976,-1480.411884
4065.349062,0.000000,-9039.926876,-888.247130
4065.349386,444.123565,-9039.926876,-2368.659014
4065.349711,888.247130,-9422.974625,-1480.411884
4065.350035,592.164754,-8733.488677,-2146.597232
4065.350360,444.123565,-9116.536426,-1850.514855
4065.350684,74.020594,-9039.926876,-1850.514855
4065.351009,-888.247130,-9576.193725,-1554.432478
4065.351333,-444.123565,-9422.974625,-1702.473667
4065.351657,-296.082377,-9806.022374,-1036.288319
4065.351982,-148.041188,-9346.365076,-1628.453072
4065.352306,740.205942,-9422.974625,-814.226536
4065.352631,1184.329507,-9193.145976,-1110.308913
4065.352955,2220.617826,-9193.145976,-1258.350101
4065.353280,2516.700203,-8810.098227,-1036.288319
4065.353604,2812.782580,-8656.879127,-1184.329507
4065.353929,2442.679609,-8963.317327,-740.205942
4065.354253,962.267725,-8810.098227,-814.226536
4065.354577,222.061783,-9269.755526,-444.123565
4065.354902,-666.185348,-8733.488677,-740.205942
4065.355226,-1554.432478,-9422.974625,-148.041188
4065.355551,-2516.700203,-8656.879127,-222.061783
4065.355875,-1998.556043,-8580.269578,74.020594
4065.356200,-2294.638420,-7967.393179,-222.061783
4065.356524,-1258.350101,-8120.612279,0.000000
4065.356849,74.020594,-7967.393179,0.000000
4065.357173,444.123565,-7660.954980,0.000000
4065.357498,1110.308913,-8350.440928,666.185348
4065.357822,814.226536,-7890.783629,592.164754
4065.358146,740.205942,-8197.221829,888.247130
4065.358471,222.061783,-7737.564530,592.164754
4065.358795,962.267725,-8733.488677,1406.391290
4065.359120,-370.102971,-7737.564530,444.123565
4065.359444,-296.082377,-8733.488677,1554.432478
4065.359769,74.020594,-7737.564530,740.205942
4065.360093,370.102971,-8197.221829,1036.288319
4065.360418,1480.411884,-6971.469032,592.164754
4065.360742,1702.473667,-7354.516781,592.164754
4065.361066,1998.556043,-7584.345430,444.123565
4065.361391,1998.556043,-8120.612279,444.123565
4065.361715,1554.432478,-8273.831378,1036.288319
4065.362040,222.061783,-7890.783629,518.144159
4065.362364,0.000000,-8350.440928,962.267725
4065.362689,-1110.308913,-8044.002729,444.123565
4065.363013,-888.247130,-8810.098227,814.226536
4065.363338,-1332.370696,-7890.783629,74.020594
4065.363662,-1036.288319,-8427.050478,370.102971
4065.363987,-592.164754,-7431.126331,0.000000
4065.364311,296.082377,-8044.002729,0.000000
4065.364635,370.102971,-7507.735880,-296.082377
4065.364960,962.267725,-8350.440928,-444.123565
4065.365284,814.226536,-8273.831378,-666.185348
4065.365609,518.144159,-8733.488677,-518.144159
4065.365933,666.185348,-8963.317327,-518.144159
4065.366258,740.205942,-9499.584175,-666.185348
4065.366582,888.247130,-9039.926876,-1258.350101
4065.366907,1110.308913,-9652.803275,-1184.329507
4065.367231,1184.329507,-9346.365076,-1332.370696
4065.367555,1776.494261,-9039.926876,-1480.411884
4065.367880,1480.411884,-8810.098227,-1406.391290
4065.368204,1998.556043,-8733.488677,-1184.329507
4065.368529,1850.514855,-8503.660028,-1406.391290
4065.368853,1850.514855,-8963.317327,-1924.535449
4065.369178,592.164754,-9269.755526,-2072.576638
4065.369502,0.000000,-9346.365076,-1184.329507
4065.369827,-592.164754,-9039.926876,-1776.494261
4065.370151,-1036.288319,-9499.584175,-1480.411884
4065.370476,-888.247130,-9346.365076,-1776.494261
4065.370800,-1184.329507,-9499.584175,-1702.473667
4065.371124,-74.020594,-9193.145976,-1850.514855
4065.371449,-296.082377,-9193.145976,-1480.411884
4065.371773,592.164754,-8963.317327,-1628.453072
4065.372098,518.144159,-9422.974625,-1036.288319
4065.372422,740.205942,-9193.145976,-1184.329507
4065.372747,518.144159,-8733.488677,-814.226536
4065.373071,888.247130,-9193.145976,-370.102971
4065.373396,222.061783,-9499.584175,-666.185348
4065.373720,0.000000,-8886.707777,-370.102971
4065.374044,518.144159,-8886.707777,-296.082377
4065.374369,222.061783,-8656.879127,0.000000
4065.374693,1110.308913,-8656.879127,0.000000
4065.375018,1332.370696,-7967.393179,-222.061783
4065.375342,1776.494261,-8273.831378,-148.041188
4065.375667,1998.556043,-7967.393179,-222.061783
4065.375991,1850.514855,-8733.488677,74.020594
4065.376316,1036.288319,-8120.612279,222.061783
4065.376640,518.144159,-8273.831378,222.061783
4065.376965,0.000000,-8427.050478,814.226536
4065.377289,-740.205942,-8503.660028,222.061783
4065.377613,-666.185348,-8503.660028,814.226536
4065.377938,-592.164754,-7967.393179,666.185348
4065.378262,-222.061783,-7584.345430,444.123565
4065.378587,0.000000,-7660.954980,666.185348
4065.378911,666.185348,-7584.345430,666.185348
4065.379236,444.123565,-7354.516781,296.082377
4065.379560,1036.288319,-7890.783629,888.247130
4065.379885,222.061783,-7737.564530,888.247130
4065.380209,296.082377,-7814.174080,962.267725
4065.380533,74.020594,-8350.440928,962.267725
4065.380858,74.020594,-8273.831378,666.185348
4065.381182,0.000000,-8120.612279,444.123565
4065.381507,814.226536,-8197.221829,370.102971
4065.381831,444.123565,-8197.221829,666.185348
4065.382156,1406.391290,-8120.612279,74.020594
4065.382480,1628.453072,-7890.783629,222.061783
4065.382805,1702.473667,-7890.783629,0.000000
4065.383129,1554.432478,-8350.440928,74.020594
4065.383454,1258.350101,-8350.440928,-444.123565
4065.383778,592.164754,-8503.660028,-148.041188
4065.384102,-370.102971,-8503.660028,-444.123565
4065.384427,-1036.288319,-9193.145976,-518.144159
4065.384751,-1702.473667,-8886.707777,-296.082377
4065.385076,-1702.473667,-8810.098227,-518.144159
4065.385400,-1258.350101,-8580.269578,-1184.329507
4065.385725,-518.144159,-8427.050478,-1110.308913
4065.386049,-370.102971,-8503.660028,-1110.308913
4065.386374,148.041188,-8810.098227,-1628.453072
4065.386698,592.164754,-8733.488677,-888.247130
4065.387022,370.102971,-9499.584175,-1036.288319
4065.387347,1036.288319,-9576.193725,-1480.411884
4065.387671,444.123565,-9576.193725,-1036.288319
4065.387996,0.000000,-9499.584175,-1184.329507
4065.388320,-296.082377,-9346.365076,-888.247130
4065.388645,-222.061783,-9959.241474,-1554.432478
4065.388969,-370.102971,-9499.584175,-1184.329507
4065.389294,148.041188,-9039.926876,-1258.350101
4065.389618,518.144159,-9039.926876,-1554.432478
4065.389942,1480.411884,-9039.926876,-1184.329507
4065.390267,1184.329507,-8427.050478,-1406.391290
4065.390591,1702.473667,-8963.317327,-814.226536
4065.390916,1184.329507,-8733.488677,-1110.308913
4065.391240,444.123565,-9039.926876,-1036.288319
4065.391565,0.000000,-8656.879127,-222.061783
4065.391889,-222.061783,-9116.536426,-370.102971
4065.392213,-666.185348,-9193.145976,-444.123565
4065.392538,-592.164754,-8580.269578,-592.164754
4065.392862,148.041188,-8427.050478,-518.144159
4065.393187,0.000000,-8120.612279,-666.185348
4065.393511,888.247130,-8427.050478,-592.164754
4065.393836,1110.308913,-8273.831378,-370.102971
4065.394160,1110.308913,-8044.002729,-518.144159
4065.394484,814.226536,-8197.221829,0.000000
4065.394809,740.205942,-7967.393179,-148.041188
4065.395133,666.185348,-8503.660028,370.102971
4065.395458,444.123565,-8427.050478,0.000000
4065.395782,740.205942,-8580.269578,444.123565
4065.396107,888.247130,-7890.783629,0.000000
4065.396431,1110.308913,-8197.221829,0.000000
4065.396755,2146.597232,-8044.002729,296.082377
4065.397080,2368.659014,-7584.345430,518.144159
4065.397404,2812.782580,-7660.954980,296.082377
4065.397729,2516.700203,-7737.564530,222.061783
4065.398053,2590.720797,-7584.345430,0.000000
4065.398378,1332.370696,-8044.002729,0.000000
4065.398702,740.205942,-8427.050478,370.102971
4065.399027,-666.185348,-8580.269578,148.041188
4065.399351,-1776.494261,-8427.050478,444.123565
4065.399675,-1924.535449,-8350.440928,296.082377
4065.400000,-888.247130,-8503.660028,-296.082377
4065.400324,-1110.308913,-8120.612279,-296.082377
4065.400649,-444.123565,-8273.831378,74.020594
4065.400973,222.061783,-8273.831378,0.000000
4065.401298,222.061783,-8580.269578,0.000000
4065.401622,962.267725,-8580.269578,370.102971
4065.401946,1332.370696,-8886.707777,0.000000
4065.402271,814.226536,-8886.707777,222.061783
4065.402595,962.267725,-9039.926876,-148.041188
4065.402920,74.020594,-9116.536426,-148.041188
4065.403244,74.020594,-9193.145976,0.000000
4065.403569,148.041188,-9039.926876,-296.082377
4065.403893,370.102971,-8963.317327,-444.123565
4065.404217,666.185348,-8197.221829,0.000000
4065.404542,1184.329507,-8580.269578,-592.164754
4065.404866,888.247130,-8656.879127,-666.185348
4065.405191,1184.329507,-8963.317327,-1258.350101
4065.405515,962.267725,-9039.926876,-592.164754
4065.405840,222.061783,-8580.269578,-370.102971
4065.406164,-1184.329507,-9422.974625,-666.185348
4065.406488,-1554.432478,-9652.803275,-222.061783
4065.406813,-1776.494261,-9193.145976,-592.164754
4065.407137,-888.247130,-9039.926876,-1406.391290
4065.407462,-370.102971,-8427.050478,-1184.329507
4065.407786,-296.082377,-8886.707777,-740.205942
4065.408111,592.164754,-8427.050478,-1332.370696
4065.408435,814.226536,-8656.879127,-962.267725
4065.408759,370.102971,-8580.269578,-666.185348
4065.409084,518.144159,-8656.879127,-370.102971
4065.409408,666.185348,-8733.488677,-814.226536
4065.409733,222.061783,-9039.926876,-888.247130
4065.410057,814.226536,-9193.145976,-592.164754
4065.410382,518.144159,-9116.536426,-370.102971
4065.410706,1258.350101,-9193.145976,-444.123565
4065.411030,1332.370696,-8580.269578,-666.185348
4065.411355,1850.514855,-8733.488677,0.000000
4065.411679,1998.556043,-8503.660028,-666.185348
4065.412004,2368.659014,-8656.879127,0.000000
4065.412328,2072.576638,-8120.612279,-370.102971
4065.412653,2072.576638,-8427.050478,-370.102971
4065.412977,962.267725,-8120.612279,-592.164754
4065.413302,444.123565,-8656.879127,-222.061783
4065.413626,-444.123565,-8197.221829,-518.144159
4065.413950,-888.247130,-8656.879127,74.020594
4065.414275,-1036.288319,-8427.050478,0.000000
4065.414599,-592.164754,-8120.612279,0.000000
4065.414924,-296.082377,-7967.393179,74.020594
4065.415248,666.185348,-7967.393179,-222.061783
4065.415573,1184.329507,-8350.440928,-518.144159
4065.415897,1332.370696,-8427.050478,-148.041188
4065.416221,1406.391290,-8656.879127,0.000000
4065.416546,1258.350101,-8197.221829,0.000000
4065.416870,1110.308913,-8733.488677,518.144159
4065.417195,1554.432478,-8580.269578,0.000000
4065.417519,1258.350101,-8580.269578,222.061783
4065.417844,592.164754,-8580.269578,296.082377
4065.418168,1184.329507,-8580.269578,0.000000
4065.418492,1332.370696,-8427.050478,-148.041188
4065.418817,1554.432478,-8580.269578,0.000000
4065.419141,1480.411884,-8427.050478,0.000000
4065.419466,1258.350101,-8503.660028,0.000000
4065.419790,962.267725,-9039.926876,-518.144159
4065.420115,518.144159,-8656.879127,-444.123565
4065.420439,-74.020594,-8427.050478,-296.082377
4065.420763,-518.144159,-8427.050478,-148.041188
4065.421088,-444.123565,-8580.269578,-222.061783
4065.421412,-1184.329507,-8733.488677,296.082377
4065.421737,-666.185348,-8656.879127,0.000000
4065.422061,-370.102971,-7967.393179,-962.267725
4065.422386,0.000000,-8350.440928,-444.123565
4065.422710,518.144159,-8810.098227,-666.185348
4065.423034,370.102971,-8427.050478,-444.123565
4065.423359,518.144159,-8733.488677,-444.123565
4065.423683,0.000000,-8656.879127,-518.144159
4065.424008,0.000000,-9806.022374,0.000000
4065.424332,0.000000,-8886.707777,-444.123565
4065.424657,740.205942,-9346.365076,-296.082377
4065.424981,74.020594,-8580.269578,-222.061783
4065.425306,962.267725,-9116.536426,-518.144159
4065.425630,1036.288319,-8580.269578,-666.185348
4065.425954,1480.411884,-8886.707777,-518.144159
4065.426279,1702.473667,-8810.098227,-666.185348
4065.426603,1480.411884,-8733.488677,-518.144159
4065.426928,1110.308913,-9346.365076,-296.082377
4065.427252,74.020594,-8886.707777,-1036.288319
4065.427577,-740.205942,-8886.707777,-666.185348
4065.427901,-1480.411884,-8886.707777,-740.205942
4065.428225,-1702.473667,-9652.803275,-740.205942
4065.428550,-1628.453072,-8656.879127,-444.123565
4065.428874,-962.267725,-8810.098227,-444.123565
4065.429199,-444.123565,-7967.393179,-592.164754
4065.429523,666.185348,-8656.879127,-592.164754
4065.429848,1628.453072,-8503.660028,-888.247130
4065.430172,1924.535449,-8810.098227,-370.102971
4065.430496,1406.391290,-8886.707777,-518.144159
4065.430821,1406.391290,-8810.098227,-148.041188
4065.431145,444.123565,-9116.536426,74.020594
4065.431470,740.205942,-9039.926876,0.000000
4065.431794,296.082377,-9269.755526,74.020594
4065.432119,0.000000,-8810.098227,0.000000
4065.432443,296.082377,-9499.584175,0.000000
4065.432767,444.123565,-8427.050478,-222.061783
4065.433092,814.226536,-8427.050478,0.000000
4065.433416,1628.453072,-7967.393179,-148.041188
4065.433741,2146.597232,-8580.269578,0.000000
4065.434065,1554.432478,-8197.221829,-370.102971
4065.434390,1776.494261,-8580.269578,-296.082377
4065.434714,888.247130,-8656.879127,74.020594
4065.435038,370.102971,-8733.488677,296.082377
4065.435363,-222.061783,-8886.707777,0.000000
4065.435687,-666.185348,-8963.317327,0.000000
4065.436012,-1110.308913,-8580.269578,0.000000
4065.436336,-592.164754,-8044.002729,0.000000
4065.436661,296.082377,-7890.783629,-592.164754
4065.436985,1036.288319,-8044.002729,148.041188
4065.437310,1110.308913,-7660.954980,-370.102971
4065.437634,1184.329507,-7967.393179,-444.123565
4065.437958,1184.329507,-8197.221829,0.000000
4065.438283,1184.329507,-8427.050478,-370.102971
4065.438607,592.164754,-8810.098227,74.020594
4065.438932,74.020594,-8963.317327,0.000000
4065.439256,148.041188,-9039.926876,0.000000
4065.439581,518.144159,-9346.365076,-296.082377
4065.439905,666.185348,-8886.707777,-518.144159
4065.440229,592.164754,-8580.269578,-222.061783
4065.440554,1332.370696,-8350.440928,-148.041188
4065.440878,2072.576638,-8580.269578,-518.144159
4065.441203,2368.659014,-8350.440928,-370.102971
4065.441527,2072.576638,-8503.660028,-666.185348
4065.441852,1554.432478,-8886.707777,-666.185348
4065.442176,444.123565,-8733.488677,-370.102971
4065.442500,0.000000,-8886.707777,0.000000
4065.442825,-1184.329507,-9116.536426,-444.123565
4065.443149,-1480.411884,-8886.707777,-444.123565
4065.443474,-1998.556043,-9116.536426,-814.226536
4065.443798,-1036.288319,-8810.098227,-296.082377
4065.444123,-814.226536,-8503.660028,-666.185348
4065.444447,-296.082377,-8886.707777,-1036.288319
4065.444771,296.082377,-8810.098227,-814.226536
4065.445096,592.164754,-8656.879127,-962.267725
4065.445420,592.164754,-8810.098227,-666.185348
4065.445745,444.123565,-8656.879127,-370.102971
4065.446069,0.000000,-9576.193725,0.000000
4065.446394,-148.041188,-8886.707777,-814.226536
4065.446718,-74.020594,-8656.879127,0.000000
4065.447042,-222.061783,-8810.098227,-370.102971
4065.447367,222.061783,-8427.050478,-444.123565
4065.447691,444.123565,-8656.879127,-296.082377
4065.448016,370.102971,-8427.050478,-518.144159
4065.448340,1406.391290,-8656.879127,-296.082377
4065.448665,1332.370696,-8656.879127,-814.226536
4065.448989,1406.391290,-8810.098227,-222.061783
4065.449314,148.041188,-8503.660028,0.000000
4065.449638,222.061783,-9193.145976,296.082377
4065.449962,-740.205942,-8656.879127,-666.185348
4065.450287,-740.205942,-8656.879127,0.000000
4065.450611,-814.226536,-8580.269578,-370.102971
4065.450936,-814.226536,-7431.126331,222.061783
4065.451260,-296.082377,-7967.393179,-666.185348
4065.451585,370.102971,-7737.564530,-148.041188
4065.451909,888.247130,-8044.002729,-518.144159
4065.452233,666.185348,-8044.002729,-222.061783
4065.452558,666.185348,-7967.393179,0.000000
4065.452882,592.164754,-7814.174080,-444.123565
4065.453207,1036.288319,-8733.488677,-148.041188
4065.453531,-296.082377,-9116.536426,74.020594
4065.453856,1702.473667,-8197.221829,0.000000
4065.454180,666.185348,-8044.002729,0.000000
4065.454504,1480.411884,-8273.831378,-296.082377
4065.454829,1702.473667,-8120.612279,0.000000
4065.455153,2146.597232,-8350.440928,0.000000
4065.455478,2812.782580,-8350.440928,0.000000
4065.455802,2664.741391,-8197.221829,-370.102971
4065.456127,1924.535449,-8886.707777,0.000000
4065.456451,1110.308913,-8044.002729,-740.205942
4065.456775,444.123565,-9193.145976,0.000000
4065.457100,-592.164754,-8503.660028,-592.164754
4065.457424,-814.226536,-8733.488677,-518.144159
4065.457749,-1332.370696,-8503.660028,-592.164754
4065.458073,-1776.494261,-8427.050478,-518.144159
4065.458398,-592.164754,-8580.269578,-740.205942
4065.458722,-148.041188,-8197.221829,-1036.288319
4065.459046,592.164754,-8427.050478,-814.226536
4065.459371,1110.308913,-7584.345430,-444.123565
4065.459695,1184.329507,-8886.707777,-296.082377
4065.460020,518.144159,-8963.317327,-666.185348
4065.460344,370.102971,-9039.926876,-666.185348
4065.460669,0.000000,-9116.536426,-444.123565
4065.460993,-444.123565,-9039.926876,-518.144159
4065.461317,0.000000,-8886.707777,-666.185348
4065.461642,222.061783,-8886.707777,-592.164754
4065.461966,740.205942,-8733.488677,-444.123565
4065.462291,814.226536,-8197.221829,-518.144159
4065.462615,1702.473667,-8503.660028,-592.164754
4065.462940,1110.308913,-8963.317327,-518.144159
4065.463264,1554.432478,-9116.536426,-222.061783
4065.463589,814.226536,-9269.755526,0.000000
4065.463913,222.061783,-9193.145976,-592.164754
4065.464237,-222.061783,-9193.145976,-296.082377
4065.464562,-962.267725,-9499.584175,-444.123565
4065.464886,-1258.350101,-9346.365076,0.000000
4065.465211,-1480.411884,-8197.221829,-222.061783
4065.465535,-592.164754,-8580.269578,-296.082377
4065.465860,-370.102971,-8350.440928,-888.247130
4065.466184,740.205942,-7967.393179,-592.164754
4065.466508,518.144159,-7890.783629,-296.082377
4065.466833,296.082377,-8273.831378,-370.102971
4065.467157,148.041188,-8427.050478,-296.082377
4065.467482,0.000000,-8656.879127,-370.102971
4065.467806,-222.061783,-9039.926876,0.000000
4065.468131,-296.082377,-8580.269578,0.000000
4065.468455,148.041188,-8963.317327,-148.041188
4065.468779,296.082377,-8503.660028,-370.102971
4065.469104,1554.432478,-8273.831378,0.000000
4065.469428,1702.473667,-7507.735880,0.000000
4065.469753,2368.659014,-7814.174080,-444.123565
4065.470077,2368.659014,-8427.050478,296.082377
4065.470402,1628.453072,-7967.393179,-222.061783
4065.470726,2516.700203,-8273.831378,0.000000
4065.471050,1184.329507,-8963.317327,-296.082377
4065.471375,-444.123565,-8963.317327,0.000000
4065.471699,0.000000,-8427.050478,0.000000
4065.472024,-1184.329507,-8580.269578,0.000000
4065.472348,-1480.411884,-7814.174080,0.000000
4065.472673,-1110.308913,-8044.002729,0.000000
4065.472997,0.000000,-8350.440928,-444.123565
4065.473321,444.123565,-7890.783629,-444.123565
4065.473646,1036.288319,-8197.221829,-148.041188
4065.473970,962.267725,-8733.488677,-148.041188
4065.474295,888.247130,-8503.660028,-148.041188
4065.474619,740.205942,-8810.098227,-370.102971
4065.474944,370.102971,-8580.269578,0.000000
4065.475268,-148.041188,-8810.098227,0.000000
4065.475593,-222.061783,-8427.050478,-444.123565
4065.475917,-444.123565,-9039.926876,0.000000
4065.476241,666.185348,-8273.831378,-444.123565
4065.476566,1554.432478,-8580.269578,-962.267725
4065.476890,1702.473667,-8503.660028,-740.205942
4065.477215,1850.514855,-8273.831378,-666.185348
4065.477539,2072.576638,-8427.050478,-740.205942
4065.477864,1628.453072,-8810.098227,-592.164754
4065.478188,1406.391290,-9116.536426,-740.205942
4065.478512,370.102971,-9116.536426,-518.144159
4065.478837,222.061783,-9346.365076,-222.061783
4065.479161,-1258.350101,-9193.145976,-814.226536
4065.479486,-962.267725,-9346.365076,-518.144159
4065.479810,-592.164754,-8503.660028,-888.247130
4065.480135,-370.102971,-8656.879127,-962.267725
4065.480459,0.000000,-7967.393179,-962.267725
4065.480783,370.102971,-8427.050478,-666.185348
4065.481108,666.185348,-8044.002729,-1258.350101
4065.481432,962.267725,-8963.317327,-592.164754
4065.481757,370.102971,-8580.269578,-592.164754
4065.482081,0.000000,-8886.707777,-740.205942
4065.482406,0.000000,-9116.536426,-666.185348
4065.482730,0.000000,-9499.584175,-444.123565
4065.483054,296.082377,-8810.098227,-962.267725
4065.483379,740.205942,-9116.536426,-444.123565
4065.483703,888.247130,-8427.050478,-518.144159
4065.484028,1702.473667,-8580.269578,-592.164754
4065.484352,1850.514855,-8350.440928,-444.123565
4065.484677,2072.576638,-8733.488677,-148.041188
4065.485001,1628.453072,-8197.221829,-148.041188
4065.485325,1406.391290,-8503.660028,-296.082377
4065.485650,740.205942,-8580.269578,-296.082377
4065.485974,74.020594,-9116.536426,0.000000
4065.486299,-888.247130,-8886.707777,-222.061783
4065.486623,-1480.411884,-8427.050478,-148.041188
4065.486948,-1184.329507,-8656.879127,-148.041188
4065.487272,-1258.350101,-8120.612279,0.000000
4065.487597,-370.102971,-8273.831378,0.000000
4065.487921,-296.082377,-7967.393179,0.000000
4065.488245,148.041188,-8350.440928,0.000000
4065.488570,74.020594,-8350.440928,-222.061783
4065.488895,888.247130,-8733.488677,0.000000
4065.489219,814.226536,-8733.488677,0.000000
4065.489543,0.000000,-8656.879127,0.000000
4065.489867,222.061783,-8810.098227,444.123565
4065.490191,148.041188,-8427.050478,-148.041188
4065.490516,296.082377,-8963.317327,518.144159
4065.490840,1036.288319,-8503.660028,0.000000
4065.491164,814.226536,-8044.002729,-222.061783
4065.491488,1776.494261,-8120.612279,0.000000
4065.491813,1702.473667,-7967.393179,0.000000
4065.492137,1702.473667,-8656.879127,0.000000
4065.492461,1628.453072,-8656.879127,74.020594
4065.492785,888.247130,-8886.707777,370.102971
4065.493110,0.000000,-9039.926876,-296.082377
4065.493434,-296.082377,-8656.879127,148.041188
4065.493758,-814.226536,-8733.488677,0.000000
4065.494082,-740.205942,-8350.440928,0.000000
4065.494406,0.000000,-8656.879127,-370.102971
4065.494731,74.020594,-8427.050478,-148.041188
4065.495055,222.061783,-7431.126331,-296.082377
4065.495379,666.185348,-7967.393179,-518.144159
4065.495703,740.205942,-8120.612279,-814.226536
4065.496028,814.226536,-8197.221829,-296.082377
4065.496352,444.123565,-8656.879127,-370.102971
4065.496676,0.000000,-8656.879127,-740.205942
4065.497000,74.020594,-8810.098227,-148.041188
4065.497324,-222.061783,-8656.879127,-814.226536
4065.497649,222.061783,-8580.269578,-962.267725
4065.497973,740.205942,-8197.221829,-888.247130
4065.498297,1184.329507,-8503.660028,-444.123565
4065.498621,1998.556043,-8273.831378,-1036.288319
4065.498946,2442.679609,-8656.879127,-444.123565
4065.499270,2738.761985,-8503.660028,-740.205942
4065.499594,2220.617826,-8656.879127,-444.123565
4065.499918,1998.556043,-9269.755526,-1184.329507
4065.500243,666.185348,-9193.145976,-518.144159
4065.500567,222.061783,-9806.022374,-592.164754
4065.500891,-1184.329507,-8886.707777,-592.164754
4065.501215,-1110.308913,-8810.098227,-370.102971
4065.501539,-1332.370696,-8580.269578,-740.205942
4065.501864,-740.205942,-9116.536426,-518.144159
4065.502188,-296.082377,-8120.612279,-666.185348
4065.502512,592.164754,-8273.831378,-888.247130
4065.502836,1036.288319,-8427.050478,-518.144159
4065.503161,1406.391290,-8810.098227,-592.164754
4065.503485,1258.350101,-9422.974625,-444.123565
4065.503809,296.082377,-8963.317327,-222.061783
4065.504133,222.061783,-9193.145976,-296.082377
4065.504458,-444.123565,-9116.536426,-592.164754
4065.504782,-814.226536,-9422.974625,0.000000
4065.505106,-666.185348,-8733.488677,-370.102971
4065.505430,0.000000,-8273.831378,-222.061783
4065.505754,296.082377,-7967.393179,-666.185348
4065.506079,1184.329507,-8503.660028,-74.020594
4065.506403,1850.514855,-7967.393179,0.000000
4065.506727,1850.514855,-8580.269578,222.061783
4065.507051,1332.370696,-8197.221829,74.020594
4065.507376,1480.411884,-8733.488677,296.082377
4065.507700,888.247130,-8810.098227,148.041188
4065.508024,222.061783,-9193.145976,370.102971
4065.508348,-666.185348,-8963.317327,148.041188
4065.508672,-1036.288319,-8656.879127,370.102971
4065.508997,-370.102971,-8963.317327,592.164754
4065.509321,-222.061783,-7967.393179,-148.041188
4065.509645,370.102971,-8044.002729,74.020594
4065.509969,592.164754,-7354.516781,0.000000
4065.510294,592.164754,-8733.488677,148.041188
4065.510618,518.144159,-8120.612279,-74.020594
4065.510942,666.185348,-8503.660028,444.123565
4065.511266,592.164754,-8273.831378,-370.102971
4065.511591,666.185348,-8810.098227,222.061783
4065.511915,518.144159,-8120.612279,-444.123565
4065.512239,74.020594,-8963.317327,518.144159
4065.512563,148.041188,-8197.221829,-222.061783
4065.512887,814.226536,-8656.879127,-148.041188
4065.513212,1924.535449,-8503.660028,-370.102971
4065.513536,1332.370696,-7890.783629,-296.082377
4065.513860,1924.535449,-8197.221829,0.000000
4065.514184,1776.494261,-8197.221829,-222.061783
4065.514509,1998.556043,-8733.488677,-222.061783
4065.514833,666.185348,-8656.879127,-444.123565
4065.515157,296.082377,-9346.365076,0.000000
4065.515481,-666.185348,-8656.879127,-444.123565
4065.515806,-592.164754,-9039.926876,0.000000
4065.516130,-444.123565,-8733.488677,-888.247130
4065.516454,-666.185348,-8656.879127,-592.164754
4065.516778,0.000000,-8656.879127,-518.144159
4065.517102,148.041188,-8503.660028,-518.144159
4065.517427,1184.329507,-8656.879127,-444.123565
4065.517751,222.061783,-8580.269578,-518.144159
4065.518075,1036.288319,-8963.317327,-518.144159
4065.518399,370.102971,-8810.098227,-888.247130
4065.518724,444.123565,-9422.974625,-370.102971
4065.519048,444.123565,-8656.879127,-1036.288319
4065.519372,518.144159,-9193.145976,-222.061783
4065.519696,740.205942,-8810.098227,-1258.350101
4065.520020,740.205942,-8503.660028,-740.205942
4065.520345,1480.411884,-8197.221829,-592.164754
4065.520669,1110.308913,-8427.050478,-962.267725
4065.520993,1406.391290,-9116.536426,-666.185348
4065.521317,1332.370696,-8810.098227,-962.267725
4065.521642,1776.494261,-9576.193725,-444.123565
4065.521966,518.144159,-8733.488677,-518.144159
4065.522290,296.082377,-9499.584175,-222.061783
4065.522614,-370.102971,-9116.536426,-444.123565
4065.522939,-518.144159,-8886.707777,-518.144159
4065.523263,-1036.288319,-8733.488677,-296.082377
4065.523587,-740.205942,-8503.660028,-592.164754
4065.523911,0.000000,-7890.783629,-740.205942
4065.524235,-222.061783,-8427.050478,-296.082377
4065.524560,518.144159,-7890.783629,-592.164754
4065.524884,148.041188,-8197.221829,-370.102971
4065.525208,518.144159,-8044.002729,-296.082377
4065.525532,222.061783,-8350.440928,-296.082377
4065.525857,74.020594,-8044.002729,-296.082377
4065.526181,222.061783,-8733.488677,148.041188
4065.526505,0.000000,-8044.002729,-444.123565
4065.526829,592.164754,-8656.879127,-592.164754
4065.527154,1110.308913,-8427.050478,-370.102971
4065.527478,1480.411884,-8427.050478,0.000000
4065.527802,1628.453072,-8427.050478,-296.082377
4065.528126,1628.453072,-7890.783629,0.000000
4065.528450,2294.638420,-8656.879127,148.041188
4065.528775,888.247130,-7814.174080,0.000000
4065.529099,1110.308913,-8963.317327,222.061783
4065.529423,0.000000,-8350.440928,-296.082377
4065.529747,-370.102971,-9193.145976,518.144159
4065.530072,-888.247130,-8580.269578,0.000000
4065.530396,-1184.329507,-8810.098227,0.000000
4065.530720,-1554.432478,-7890.783629,-148.041188
4065.531044,-740.205942,-8120.612279,0.000000
4065.531368,-518.144159,-8273.831378,-370.102971
4065.531693,0.000000,-7967.393179,-296.082377
4065.532017,518.144159,-8197.221829,0.000000
4065.532341,444.123565,-8273.831378,-444.123565
4065.532665,0.000000,-8886.707777,74.020594
4065.532990,222.061783,-8120.612279,148.041188
4065.533314,0.000000,-9116.536426,74.020594
4065.533638,148.041188,-8427.050478,-666.185348
4065.533962,592.164754,-8427.050478,-296.082377
4065.534287,740.205942,-8273.831378,0.000000
4065.534611,1036.288319,-8120.612279,-222.061783
4065.534935,1776.494261,-8503.660028,-296.082377
4065.535259,1702.473667,-8350.440928,-296.082377
4065.535583,2072.576638,-8580.269578,-370.102971
4065.535908,1776.494261,-8963.317327,0.000000
4065.536232,1110.308913,-8963.317327,-370.102971
4065.536556,592.164754,-9346.365076,-222.061783
4065.536880,148.041188,-9576.193725,-370.102971
4065.537205,-962.267725,-8810.098227,-518.144159
4065.537529,-1258.350101,-8810.098227,-444.123565
4065.537853,-1110.308913,-8580.269578,-444.123565
4065.538177,-740.205942,-8427.050478,-740.205942
4065.538502,888.247130,-8656.879127,-666.185348
4065.538826,0.000000,-7814.174080,-518.144159
4065.539150,1332.370696,-8963.317327,-740.205942
4065.539474,962.267725,-7814.174080,-740.205942
4065.539798,1406.391290,-8810.098227,-296.082377
4065.540123,962.267725,-8580.269578,-1184.329507
4065.540447,74.020594,-8886.707777,0.000000
4065.540771,0.000000,-8963.317327,-666.185348
4065.541095,-296.082377,-8580.269578,-740.205942
4065.541420,0.000000,-8273.831378,-592.164754
4065.541744,222.061783,-8656.879127,-888.247130
4065.542068,1406.391290,-8656.879127,-592.164754
4065.542392,1628.453072,-8044.002729,-518.144159
4065.542716,2442.679609,-8810.098227,-592.164754
4065.543041,2590.720797,-8427.050478,-222.061783
4065.543365,2294.638420,-8733.488677,-518.144159
4065.543689,1406.391290,-9116.536426,-518.144159
4065.544013,814.226536,-9193.145976,0.000000
4065.544338,-444.123565,-8810.098227,-1036.288319
4065.544662,-888.247130,-9116.536426,0.000000
4065.544986,-1480.411884,-8044.002729,-444.123565
4065.545310,-1702.473667,-8350.440928,-592.164754
4065.545635,-962.267725,-8350.440928,-296.082377
4065.545959,888.247130,-8044.002729,-518.144159
4065.546283,1184.329507,-8427.050478,-592.164754
4065.546607,666.185348,-8350.440928,-592.164754
4065.546931,1776.494261,-9039.926876,0.000000
4065.547256,666.185348,-8273.831378,-518.144159
4065.547580,1110.308913,-9193.145976,-370.102971
4065.547904,296.082377,-9116.536426,0.000000
4065.548228,74.020594,-8503.660028,-296.082377
4065.548553,0.000000,-9116.536426,296.082377
4065.548877,-370.102971,-8350.440928,0.000000
4065.549201,0.000000,-8044.002729,-518.144159
4065.549525,888.247130,-7967.393179,-370.102971
4065.549850,666.185348,-8733.488677,-296.082377
4065.550174,1184.329507,-8273.831378,0.000000
4065.550498,1554.432478,-8656.879127,-296.082377
4065.550822,962.267725,-8963.317327,0.000000
4065.551146,518.144159,-8886.707777,-370.102971
4065.551471,444.123565,-9269.755526,222.061783
4065.551795,-148.041188,-8580.269578,-370.102971
4065.552119,-148.041188,-9039.926876,0.000000
4065.552443,-814.226536,-8273.831378,-222.061783
4065.552768,-518.144159,-8197.221829,0.000000
4065.553092,148.041188,-7814.174080,-666.185348
4065.553416,740.205942,-8350.440928,-296.082377
4065.553740,592.164754,-8120.612279,-444.123565
4065.554064,666.185348,-8427.050478,-370.102971
4065.554389,370.102971,-8044.002729,-666.185348
4065.554713,74.020594,-8733.488677,-444.123565
4065.555037,74.020594,-8503.660028,-518.144159
4065.555361,-148.041188,-8733.488677,-370.102971
4065.555686,-148.041188,-8886.707777,-222.061783
4065.556010,-296.082377,-8503.660028,-888.247130
4065.556334,592.164754,-8733.488677,-592.164754
4065.556658,1554.432478,-8503.660028,-962.267725
4065.556983,1850.514855,-9116.536426,-518.144159
4065.557307,1702.473667,-8273.831378,-592.164754
4065.557631,1850.514855,-8810.098227,0.000000
4065.557955,1258.350101,-8427.050478,-666.185348
4065.558279,888.247130,-8963.317327,-296.082377
4065.558604,444.123565,-8580.269578,-222.061783
4065.558928,-592.164754,-8810.098227,-740.205942
4065.559252,-1110.308913,-9039.926876,-444.123565
4065.559576,-1480.411884,-8120.612279,-666.185348
4065.559901,-1110.308913,-8427.050478,-814.226536
4065.560225,-1110.308913,-7737.564530,-592.164754
4065.560549,0.000000,-8580.269578,-296.082377
4065.560873,518.144159,-8197.221829,-592.164754
4065.561198,1036.288319,-8810.098227,-666.185348
4065.561522,888.247130,-9116.536426,-814.226536
4065.561846,814.226536,-9116.536426,-296.082377
4065.562170,962.267725,-9193.145976,-296.082377
4065.562494,444.123565,-9039.926876,-296.082377
4065.562819,518.144159,-8810.098227,-666.185348
4065.563143,370.102971,-8580.269578,-148.041188
4065.563467,370.102971,-8350.440928,-444.123565
4065.563791,592.164754,-8273.831378,0.000000
4065.564116,1702.473667,-8044.002729,0.000000
4065.564440,1850.514855,-8197.221829,-222.061783
4065.564764,2146.597232,-8503.660028,-370.102971
4065.565088,1998.556043,-9116.536426,-296.082377
4065.565412,2072.576638,-8656.879127,-222.061783
4065.565737,666.185348,-8963.317327,-296.082377
4065.566061,222.061783,-9346.365076,-148.041188
4065.566385,-666.185348,-8810.098227,-370.102971
4065.566709,-1110.308913,-9116.536426,148.041188
4065.567034,-962.267725,-8350.440928,-370.102971
4065.567358,-962.267725,-8350.440928,0.000000
4065.567682,-740.205942,-7660.954980,-222.061783
4065.568006,370.102971,-8273.831378,0.000000
4065.568331,222.061783,-8044.002729,-222.061783
4065.568655,1110.308913,-8580.269578,-518.144159
4065.568979,1036.288319,-8273.831378,-296.082377
4065.569303,222.061783,-8580.269578,-148.041188
4065.569627,592.164754,-9346.365076,-296.082377
4065.569952,592.164754,-8656.879127,0.000000
4065.570276,518.144159,-8580.269578,-148.041188
4065.570600,592.164754,-8273.831378,-518.144159
4065.570924,1332.370696,-8503.660028,-296.082377
4065.571249,1480.411884,-7967.393179,0.000000
4065.571573,2146.597232,-8273.831378,0.000000
4065.571897,1924.535449,-8503.660028,0.000000
4065.572221,2072.576638,-8580.269578,0.000000
4065.572546,1702.473667,-8427.050478,222.061783
4065.572870,518.144159,-8886.707777,-666.185348
4065.573194,74.020594,-9193.145976,-296.082377
4065.573518,-1332.370696,-8733.488677,-296.082377
4065.573842,-1776.494261,-8810.098227,-740.205942
4065.574167,-2072.576638,-8580.269578,-518.144159
4065.574491,-1628.453072,-8273.831378,-296.082377
4065.574815,-740.205942,-8273.831378,-666.185348
4065.575139,0.000000,-8273.831378,-888.247130
4065.575464,962.267725,-8427.050478,-740.205942
4065.575788,592.164754,-8886.707777,-370.102971
4065.576112,592.164754,-8656.879127,-370.102971
4065.576436,296.082377,-9116.536426,-148.041188
4065.576760,296.082377,-9039.926876,-148.041188
4065.577085,0.000000,-9422.974625,-444.123565
4065.577409,-296.082377,-8580.269578,-222.061783
4065.577733,-222.061783,-8963.317327,-222.061783
4065.578057,0.000000,-8427.050478,-444.123565
4065.578382,962.267725,-8580.269578,-444.123565
4065.578706,1110.308913,-8120.612279,-888.247130
4065.579030,1998.556043,-8580.269578,-518.144159
4065.579354,1776.494261,-7890.783629,-518.144159
4065.579679,2294.638420,-8503.660028,-148.041188
4065.580003,1036.288319,-8886.707777,-444.123565
4065.580327,888.247130,-8733.488677,-296.082377
4065.580651,0.000000,-9269.755526,0.000000
4065.580975,-518.144159,-9499.584175,-148.041188
4065.581300,-740.205942,-8886.707777,0.000000
4065.581624,-1036.288319,-8656.879127,0.000000
4065.581948,-444.123565,-8197.221829,-222.061783
4065.582272,148.041188,-7737.564530,-296.082377
4065.582597,888.247130,-8120.612279,-370.102971
4065.582921,1406.391290,-7967.393179,-370.102971
4065.583245,1110.308913,-8120.612279,-592.164754
4065.583569,888.247130,-8656.879127,-222.061783
4065.583894,740.205942,-8197.221829,0.000000
4065.584218,444.123565,-8963.317327,222.061783
4065.584542,0.000000,-8580.269578,-444.123565
4065.584866,222.061783,-8810.098227,0.000000
4065.585190,666.185348,-8810.098227,0.000000
4065.585515,666.185348,-8273.831378,-296.082377
4065.585839,1406.391290,-8120.612279,-74.020594
4065.586163,2220.617826,-8273.831378,-370.102971
4065.586487,2072.576638,-7967.393179,148.041188
4065.586812,2442.679609,-7814.174080,-148.041188
4065.587136,1998.556043,-8656.879127,-296.082377
4065.587460,1110.308913,-8503.660028,-444.123565
4065.587784,-296.082377,-8656.879127,-518.144159
4065.588108,-370.102971,-8427.050478,222.061783
4065.588433,-1332.370696,-8580.269578,-370.102971
4065.588757,-1110.308913,-8656.879127,-222.061783
4065.589081,-1036.288319,-8273.831378,-592.164754
4065.589406,-592.164754,-8963.317327,-296.082377
4065.589730,74.020594,-7967.393179,-962.267725
4065.590054,666.185348,-8427.050478,-444.123565
4065.590379,888.247130,-8580.269578,-666.185348
4065.590703,1184.329507,-8963.317327,-592.164754
4065.591028,1036.288319,-9193.145976,-370.102971
4065.591352,0.000000,-9346.365076,-296.082377
4065.591676,0.000000,-9193.145976,-148.041188
4065.592001,-444.123565,-9193.145976,-444.123565
4065.592325,0.000000,-8963.317327,-444.123565
4065.592649,0.000000,-8427.050478,-370.102971
4065.592974,962.267725,-8580.269578,-370.102971
4065.593298,1702.473667,-8197.221829,-888.247130
4065.593623,2368.659014,-8503.660028,-518.144159
4065.593947,2146.597232,-8503.660028,-296.082377
4065.594271,2146.597232,-8580.269578,-296.082377
4065.594596,1776.494261,-9422.974625,-296.082377
4065.594920,666.185348,-9269.755526,0.000000
4065.595244,148.041188,-9193.145976,74.020594
4065.595569,-1258.350101,-9499.584175,0.000000
4065.595893,-1850.514855,-9193.145976,0.000000
4065.596217,-1184.329507,-8350.440928,-296.082377
4065.596542,-518.144159,-7431.126331,-296.082377
4065.596866,0.000000,-8197.221829,-222.061783
4065.597191,148.041188,-7507.735880,-740.205942
4065.597515,888.247130,-8350.440928,-444.123565
4065.597839,888.247130,-8197.221829,-518.144159
4065.598164,444.123565,-8197.221829,0.000000
4065.598488,370.102971,-8656.879127,-148.041188
4065.598812,74.020594,-8963.317327,0.000000
4065.599137,0.000000,-8733.488677,74.020594
4065.599461,148.041188,-8427.050478,74.020594
4065.599786,814.226536,-8580.269578,-222.061783
4065.600110,1554.432478,-8350.440928,-148.041188
4065.600434,2294.638420,-7814.174080,222.061783
4065.600759,2664.741391,-7507.735880,-148.041188
4065.601083,2664.741391,-8503.660028,0.000000
4065.601407,2072.576638,-8120.612279,-296.082377
4065.601732,1628.453072,-8886.707777,-148.041188
4065.602056,592.164754,-8733.488677,0.000000
4065.602381,-148.041188,-9346.365076,148.041188
4065.602705,-1332.370696,-8503.660028,-222.061783
4065.603029,-1850.514855,-8503.660028,-370.102971
4065.603354,-1850.514855,-8273.831378,-222.061783
4065.603678,-1406.391290,-8963.317327,-296.082377
4065.604002,-518.144159,-8044.002729,-592.164754
4065.604327,370.102971,-8427.050478,-962.267725
4065.604651,740.205942,-8273.831378,-592.164754
4065.604975,1184.329507,-8580.269578,-666.185348
4065.605300,1258.350101,-8963.317327,-370.102971
4065.605624,1036.288319,-8656.879127,-370.102971
4065.605949,296.082377,-9193.145976,0.000000
4065.606273,0.000000,-9039.926876,-296.082377
4065.606597,74.020594,-9269.755526,-444.123565
4065.606922,-222.061783,-9039.926876,-592.164754
4065.607246,740.205942,-8197.221829,-518.144159
4065.607570,740.205942,-8427.050478,-666.185348
4065.607895,1702.473667,-8810.098227,-962.267725
4065.608219,1924.535449,-8580.269578,-296.082377
4065.608544,1924.535449,-8656.879127,-592.164754
4065.608868,1776.494261,-8733.488677,-740.205942
4065.609192,1258.350101,-9193.145976,-666.185348
4065.609517,222.061783,-9422.974625,-444.123565
4065.609841,-222.061783,-9499.584175,-222.061783
4065.610165,-814.226536,-8963.317327,-370.102971
4065.610490,-1406.391290,-9116.536426,-370.102971
4065.610814,-666.185348,-8503.660028,0.000000
4065.611139,-962.267725,-8120.612279,-592.164754
4065.611463,296.082377,-8503.660028,-370.102971
4065.611787,222.061783,-7814.174080,-888.247130
4065.612112,1332.370696,-7890.783629,-518.144159
4065.612436,888.247130,-7967.393179,-888.247130
4065.612760,888.247130,-8886.707777,-148.041188
4065.613085,296.082377,-8580.269578,-666.185348
4065.613409,74.020594,-9039.926876,148.041188
4065.613733,148.041188,-8733.488677,-592.164754
4065.614058,370.102971,-9039.926876,0.000000
4065.614382,444.123565,-8197.221829,-444.123565
4065.614707,1110.308913,-8503.660028,0.000000
4065.615031,1702.473667,-8580.269578,-222.061783
4065.615355,2294.638420,-8503.660028,-444.123565
4065.615680,2368.659014,-8350.440928,0.000000
4065.616004,1924.535449,-8503.660028,-518.144159
4065.616328,1554.432478,-9346.365076,0.000000
4065.616653,518.144159,-8733.488677,-148.041188
4065.616977,0.000000,-9269.755526,0.000000
4065.617302,-1406.391290,-8810.098227,-370.102971
4065.617626,-1406.391290,-8733.488677,222.061783
4065.617950,-1850.514855,-8503.660028,0.000000
4065.618275,-1258.350101,-8044.002729,0.000000
4065.618599,0.000000,-8044.002729,-370.102971
4065.618923,74.020594,-8044.002729,-444.123565
4065.619248,1036.288319,-8886.707777,-296.082377
4065.619572,740.205942,-8427.050478,-444.123565
4065.619897,666.185348,-8580.269578,148.041188
4065.620221,0.000000,-8580.269578,0.000000
4065.620545,74.020594,-9193.145976,0.000000
4065.620870,370.102971,-9039.926876,74.020594
4065.621194,0.000000,-8580.269578,0.000000
4065.621518,148.041188,-8733.488677,-296.082377
4065.621843,370.102971,-8427.050478,-444.123565
4065.622167,1184.329507,-7967.393179,-222.061783
4065.622491,1406.391290,-7967.393179,-592.164754
4065.622816,1924.535449,-8427.050478,0.000000
4065.623140,1480.411884,-8427.050478,-148.041188
4065.623465,1702.473667,-8656.879127,-518.144159
4065.623789,962.267725,-9116.536426,0.000000
4065.624113,-444.123565,-9269.755526,-296.082377
4065.624438,-444.123565,-9116.536426,0.000000
4065.624762,-1184.329507,-8810.098227,0.000000
4065.625086,-1332.370696,-9116.536426,0.000000
4065.625411,-592.164754,-7967.393179,-370.102971
4065.625735,222.061783,-8273.831378,-962.267725
4065.626060,296.082377,-8197.221829,-666.185348
4065.626384,1110.308913,-8580.269578,-888.247130
4065.626708,518.144159,-8044.002729,-592.164754
4065.627033,444.123565,-8427.050478,-814.226536
4065.627357,222.061783,-8197.221829,0.000000
4065.627681,74.020594,-9193.145976,-592.164754
4065.628006,-296.082377,-8810.098227,-222.061783
4065.628330,148.041188,-8733.488677,-444.123565
4065.628655,0.000000,-8733.488677,-666.185348
4065.628979,1036.288319,-8427.050478,-518.144159
4065.629303,1628.453072,-8350.440928,-518.144159
4065.629628,1924.535449,-8427.050478,-444.123565
4065.629952,2368.659014,-8350.440928,-444.123565
4065.630276,2590.720797,-8427.050478,-444.123565
4065.630601,1776.494261,-9116.536426,0.000000
4065.630925,1110.308913,-8886.707777,-444.123565
4065.631249,74.020594,-8656.879127,-296.082377
4065.631574,-592.164754,-8733.488677,-74.020594
4065.631898,-1258.350101,-9193.145976,-296.082377
4065.632223,-1480.411884,-8963.317327,-444.123565
4065.632547,-1258.350101,-7967.393179,-666.185348
4065.632871,-518.144159,-8350.440928,-888.247130
4065.633196,-222.061783,-8273.831378,-518.144159
4065.633520,148.041188,-8427.050478,-740.205942
4065.633844,814.226536,-8886.707777,-370.102971
4065.634169,740.205942,-8733.488677,-592.164754
4065.634493,222.061783,-8886.707777,-740.205942
4065.634818,0.000000,-8886.707777,296.082377
4065.635142,-518.144159,-8886.707777,-148.041188
4065.635466,0.000000,-8886.707777,-222.061783
4065.635791,-444.123565,-8656.879127,-370.102971
4065.636115,296.082377,-8580.269578,-296.082377
4065.636439,518.144159,-7967.393179,-592.164754
4065.636764,1480.411884,-8044.002729,-666.185348
4065.637088,2072.576638,-7814.174080,-296.082377
4065.637413,2220.617826,-8427.050478,-148.041188
4065.637737,1850.514855,-8350.440928,-296.082377
4065.638061,1702.473667,-8963.317327,-222.061783
4065.638386,888.247130,-8427.050478,-148.041188
4065.638710,0.000000,-9269.755526,148.041188
4065.639034,-814.226536,-9116.536426,0.000000
4065.639359,-1110.308913,-9116.536426,222.061783
4065.639683,-1110.308913,-8580.269578,-148.041188
4065.640008,-1110.308913,-8350.440928,222.061783
4065.640332,-444.123565,-7737.564530,-370.102971
4065.640656,296.082377,-8044.002729,-222.061783
4065.640981,518.144159,-8197.221829,-518.144159
4065.641305,740.205942,-8120.612279,-814.226536
4065.641629,666.185348,-8273.831378,-148.041188
4065.641954,666.185348,-8350.440928,0.000000
4065.642278,148.041188,-8810.098227,148.041188
4065.642602,0.000000,-8810.098227,0.000000
4065.642927,296.082377,-8810.098227,-222.061783
4065.643251,370.102971,-8580.269578,0.000000
4065.643576,1332.370696,-8503.660028,-222.061783
4065.643900,1850.514855,-8273.831378,0.000000
4065.644224,2590.720797,-8503.660028,-148.041188
4065.644549,2368.659014,-8197.221829,-518.144159
4065.644873,2738.761985,-8810.098227,0.000000
4065.645197,1776.494261,-8350.440928,0.000000
4065.645522,740.205942,-8810.098227,-370.102971
4065.645846,0.000000,-8810.098227,-148.041188
4065.646171,-1110.308913,-8810.098227,-222.061783
4065.646495,-962.267725,-9116.536426,-222.061783
4065.646819,-1406.391290,-8656.879127,-370.102971
4065.647144,-1480.411884,-8810.098227,-148.041188
4065.647468,-962.267725,-8120.612279,-370.102971
4065.647792,-148.041188,-8503.660028,-592.164754
4065.648117,0.000000,-8197.221829,-666.185348
4065.648441,740.205942,-8733.488677,-518.144159
4065.648766,666.185348,-8656.879127,-518.144159
4065.649090,962.267725,-8810.098227,-296.082377
4065.649414,296.082377,-9193.145976,-444.123565
4065.649739,-148.041188,-8963.317327,-222.061783
4065.650063,-148.041188,-8810.098227,-148.041188
4065.650387,0.000000,-8656.879127,-370.102971
4065.650712,74.020594,-8503.660028,-592.164754
4065.651036,518.144159,-8503.660028,-592.164754
4065.651360,1480.411884,-8350.440928,-814.226536
4065.651685,1406.391290,-8273.831378,-592.164754
4065.652009,2072.576638,-8733.488677,-444.123565
4065.652334,1998.556043,-8580.269578,-370.102971
4065.652658,1702.473667,-9116.536426,0.000000
4065.652982,296.082377,-8886.707777,-444.123565
4065.653307,518.144159,-9269.755526,0.000000
4065.653631,-518.144159,-8886.707777,-666.185348
4065.653955,-962.267725,-9116.536426,0.000000
4065.654280,-518.144159,-8350.440928,-740.205942
4065.654604,222.061783,-8580.269578,0.000000
4065.654929,0.000000,-7814.174080,-370.102971
4065.655253,592.164754,-8120.612279,0.000000
4065.655577,444.123565,-8044.002729,-592.164754
4065.655902,888.247130,-8044.002729,-148.041188
4065.656226,740.205942,-8197.221829,-444.123565
4065.656550,222.061783,-8733.488677,-518.144159
4065.656875,0.000000,-8810.098227,-222.061783
4065.657199,-370.102971,-9039.926876,-222.061783
4065.657524,0.000000,-8350.440928,-370.102971
4065.657848,0.000000,-8810.098227,74.020594
4065.658172,888.247130,-8580.269578,-296.082377
4065.658497,1924.535449,-8273.831378,-222.061783
4065.658821,2516.700203,-7584.345430,0.000000
4065.659145,2886.803174,-8350.440928,-148.041188
4065.659470,2664.741391,-8044.002729,0.000000
4065.659794,1850.514855,-8580.269578,-518.144159
4065.660118,1110.308913,-8733.488677,-296.082377
4065.660443,370.102971,-8580.269578,-222.061783
4065.660767,-814.226536,-8886.707777,-296.082377
4065.661092,-1036.288319,-8733.488677,0.000000
4065.661416,-1110.308913,-8656.879127,-444.123565
4065.661740,-1332.370696,-8044.002729,-962.267725
4065.662065,-370.102971,-7967.393179,-740.205942
4065.662389,0.000000,-8197.221829,-592.164754
4065.662713,1110.308913,-8350.440928,-444.123565
4065.663038,1110.308913,-7584.345430,-518.144159
4065.663362,1184.329507,-9116.536426,-148.041188
4065.663687,518.144159,-8503.660028,-518.144159
4065.664011,296.082377,-9193.145976,-296.082377
4065.664335,-296.082377,-9269.755526,-444.123565
4065.664660,-518.144159,-9039.926876,0.000000
4065.664984,-518.144159,-8733.488677,-518.144159
4065.665308,-222.061783,-8810.098227,-222.061783
4065.665633,518.144159,-8350.440928,-518.144159
4065.665957,1480.411884,-7890.783629,-222.061783
4065.666282,1702.473667,-8120.612279,-518.144159
4065.666606,1998.556043,-8350.440928,0.000000
4065.666930,2146.597232,-8886.707777,-592.164754
4065.667255,1776.494261,-9193.145976,-370.102971
4065.667579,444.123565,-9193.145976,0.000000
4065.667903,-296.082377,-9269.755526,-222.061783
4065.668228,-962.267725,-9346.365076,0.000000
4065.668552,-1332.370696,-9039.926876,-296.082377
4065.668876,-1184.329507,-8580.269578,-296.082377
4065.669201,-962.267725,-8503.660028,-592.164754
4065.669525,-740.205942,-7584.345430,-518.144159
4065.669850,148.041188,-7814.174080,-148.041188
4065.670174,518.144159,-7967.393179,-962.267725
4065.670498,814.226536,-8044.002729,-666.185348
4065.670823,1184.329507,-8120.612279,-740.205942
4065.671147,888.247130,-9039.926876,-296.082377
4065.671471,296.082377,-8350.440928,222.061783
4065.671796,666.185348,-8580.269578,-296.082377
4065.672120,0.000000,-8963.317327,0.000000
4065.672445,444.123565,-7967.393179,-148.041188
4065.672769,1036.288319,-8580.269578,0.000000
4065.673093,1776.494261,-8427.050478,-444.123565
4065.673418,2294.638420,-8197.221829,-296.082377
4065.673742,1998.556043,-8273.831378,0.000000
4065.674066,2294.638420,-8427.050478,0.000000
4065.674391,2072.576638,-8427.050478,0.000000
4065.674715,1036.288319,-8656.879127,-518.144159
4065.675040,592.164754,-8886.707777,74.020594
4065.675364,-444.123565,-8733.488677,-296.082377
4065.675688,-1036.288319,-8886.707777,-296.082377
4065.676013,-1850.514855,-8273.831378,-148.041188
4065.676337,-1480.411884,-8350.440928,-222.061783
4065.676661,-814.226536,-8197.221829,-888.247130
4065.676986,-296.082377,-8273.831378,-518.144159
4065.677310,0.000000,-8656.879127,-222.061783
4065.677634,518.144159,-8350.440928,-296.082377
4065.677959,666.185348,-8580.269578,-296.082377
4065.678283,740.205942,-8656.879127,-148.041188
4065.678608,222.061783,-9652.803275,-222.061783
4065.678932,222.061783,-9039.926876,0.000000
4065.679256,222.061783,-8733.488677,-592.164754
4065.679581,370.102971,-8733.488677,0.000000
4065.679905,518.144159,-8580.269578,-740.205942
4065.680229,1184.329507,-8503.660028,-370.102971
4065.680554,1332.370696,-8350.440928,-740.205942
4065.680878,1998.556043,-8580.269578,-518.144159
4065.681203,1850.514855,-8350.440928,-370.102971
4065.681527,1480.411884,-8656.879127,-666.185348
4065.681851,1406.391290,-8886.707777,-370.102971
4065.682176,740.205942,-8963.317327,0.000000
4065.682500,370.102971,-9116.536426,0.000000
4065.682824,-666.185348,-9039.926876,-518.144159
4065.683149,-888.247130,-9116.536426,0.000000
4065.683473,-518.144159,-8350.440928,-370.102971
4065.683798,-296.082377,-8503.660028,-518.144159
4065.684122,-444.123565,-7584.345430,-592.164754
4065.684446,222.061783,-7814.174080,-592.164754
4065.684771,592.164754,-8197.221829,-814.226536
4065.685095,814.226536,-8810.098227,-740.205942
4065.685419,148.041188,-8350.440928,-592.164754
4065.685744,0.000000,-8273.831378,-370.102971
4065.686068,-296.082377,-8810.098227,-592.164754
4065.686392,-296.082377,-8810.098227,0.000000
4065.686717,0.000000,-9193.145976,-740.205942
4065.687041,444.123565,-8197.221829,-370.102971
4065.687365,1332.370696,-8580.269578,-740.205942
4065.687689,1480.411884,-8503.660028,-296.082377
4065.688014,2294.638420,-8273.831378,-370.102971
4065.688338,2146.597232,-8427.050478,-296.082377
4065.688662,2220.617826,-8886.707777,0.000000
4065.688986,1628.453072,-8733.488677,-296.082377
4065.689311,1110.308913,-8656.879127,0.000000
4065.689635,0.000000,-8810.098227,0.000000
4065.689959,0.000000,-9422.974625,-148.041188
4065.690283,-1258.350101,-8580.269578,-148.041188
4065.690607,-1554.432478,-8273.831378,0.000000
4065.690932,-1184.329507,-8197.221829,-370.102971
4065.691256,-1110.308913,-8503.660028,-222.061783
4065.691580,0.000000,-8273.831378,-444.123565
4065.691904,296.082377,-8197.221829,-148.041188
4065.692229,1554.432478,-8350.440928,-222.061783
4065.692553,-1184.329507,-8427.050478,-592.164754
4065.692877,1924.535449,-9346.365076,0.000000
4065.693201,-888.247130,-8197.221829,-296.082377
4065.693526,740.205942,-9806.022374,444.123565
4065.693850,296.082377,-8427.050478,-592.164754
4065.694174,444.123565,-9422.974625,444.123565
4065.694498,222.061783,-8580.269578,-222.061783
4065.694823,1332.370696,-8350.440928,-740.205942
4065.695147,1258.350101,-8580.269578,74.020594
4065.695471,1850.514855,-8120.612279,-296.082377
4065.695795,1850.514855,-8733.488677,222.061783
4065.696119,1554.432478,-8427.050478,-444.123565
4065.696444,1332.370696,-9039.926876,148.041188
4065.696768,444.123565,-8656.879127,-370.102971
4065.697092,0.000000,-9193.145976,444.123565
4065.697416,-296.082377,-8656.879127,-296.082377
4065.697741,-592.164754,-8656.879127,-370.102971
4065.698065,-962.267725,-8810.098227,0.000000
4065.698389,-296.082377,-8427.050478,-222.061783
4065.698713,0.000000,-8350.440928,-518.144159
4065.699038,222.061783,-8350.440928,-740.205942
4065.699362,74.020594,-8273.831378,-222.061783
4065.699686,1702.473667,-8580.269578,-962.267725
4065.700010,74.020594,-8580.269578,-370.102971
4065.700335,296.082377,-9116.536426,-1184.329507
4065.700659,0.000000,-9193.145976,0.000000
4065.700983,-592.164754,-8656.879127,-296.082377
4065.701307,962.267725,-9193.145976,-518.144159
4065.701631,888.247130,-8503.660028,-370.102971
4065.701956,1554.432478,-8350.440928,-518.144159
4065.702280,2220.617826,-8120.612279,-296.082377
4065.702604,2590.720797,-9346.365076,-1110.308913
4065.702928,2294.638420,-8963.317327,0.000000
4065.703253,1850.514855,-8656.879127,-592.164754
4065.703577,1258.350101,-9039.926876,-370.102971
4065.703901,74.020594,-8580.269578,-888.247130
4065.704225,-592.164754,-9422.974625,74.020594
4065.704550,-962.267725,-8503.660028,-666.185348
4065.704874,-1406.391290,-9116.536426,-666.185348
4065.705198,-1480.411884,-8273.831378,-666.185348
4065.705522,-370.102971,-8427.050478,-296.082377
4065.705847,1110.308913,-8503.660028,-1110.308913
4065.706171,1110.308913,-8350.440928,-370.102971
4065.706495,1406.391290,-8197.221829,-666.185348
4065.706819,0.000000,-9116.536426,-962.267725
4065.707144,888.247130,-9422.974625,-222.061783
4065.707468,148.041188,-9039.926876,-370.102971
4065.707792,148.041188,-9346.365076,-444.123565
4065.708116,-518.144159,-8580.269578,-296.082377
4065.708440,-370.102971,-9499.584175,-222.061783
4065.708765,-222.061783,-8503.660028,-666.185348
4065.709089,666.185348,-8197.221829,-222.061783
4065.709413,1110.308913,-7890.783629,-370.102971
4065.709737,1332.370696,-8656.879127,518.144159
4065.710062,1924.535449,-8197.221829,0.000000
4065.710386,2368.659014,-8273.831378,0.000000
4065.710710,1776.494261,-8427.050478,-444.123565
4065.711034,1480.411884,-9346.365076,-296.082377
4065.711359,592.164754,-8810.098227,-74.020594
4065.711683,-592.164754,-9039.926876,0.000000
4065.712007,-1184.329507,-8886.707777,0.000000
4065.712331,-1628.453072,-8350.440928,0.000000
4065.712656,-1628.453072,-8120.612279,296.082377
4065.712980,-518.144159,-7814.174080,-518.144159
4065.713304,0.000000,-7967.393179,0.000000
4065.713628,370.102971,-7890.783629,0.000000
4065.713952,518.144159,-8044.002729,74.020594
4065.714277,740.205942,-8427.050478,-518.144159
4065.714601,296.082377,-8120.612279,0.000000
4065.714925,296.082377,-8810.098227,148.041188
4065.715249,0.000000,-8503.660028,-148.041188
4065.715574,0.000000,-8810.098227,148.041188
4065.715898,148.041188,-8580.269578,-592.164754
4065.716222,518.144159,-8733.488677,0.000000
4065.716546,888.247130,-8044.002729,-148.041188
4065.716871,1406.391290,-7737.564530,148.041188
4065.717195,2590.720797,-8120.612279,-518.144159
4065.717519,2738.761985,-8580.269578,-222.061783
4065.717843,2516.700203,-8733.488677,-370.102971
4065.718168,2220.617826,-9422.974625,-518.144159
4065.718492,370.102971,-8580.269578,-518.144159
4065.718816,-518.144159,-9116.536426,-370.102971
4065.719140,-1702.473667,-8656.879127,-518.144159
4065.719465,-1850.514855,-8810.098227,-370.102971
4065.719789,-2294.638420,-8120.612279,-148.041188
4065.720113,-666.185348,-8427.050478,-222.061783
4065.720437,-370.102971,-8120.612279,-1036.288319
4065.720761,444.123565,-8350.440928,-592.164754
4065.721086,888.247130,-8503.660028,-444.123565
4065.721410,962.267725,-9193.145976,-518.144159
4065.721734,1332.370696,-8580.269578,-1110.308913
4065.722058,888.247130,-8963.317327,-296.082377
4065.722383,0.000000,-9039.926876,-518.144159
4065.722707,-296.082377,-9116.536426,-296.082377
4065.723031,-592.164754,-8810.098227,-518.144159
4065.723355,148.041188,-8810.098227,-518.144159
4065.723680,592.164754,-8503.660028,-666.185348
4065.724004,962.267725,-7967.393179,0.000000
4065.724328,1850.514855,-8273.831378,-444.123565
4065.724652,2368.659014,-8656.879127,-370.102971
4065.724977,2664.741391,-8886.707777,-222.061783
4065.725301,1776.494261,-8273.831378,0.000000
4065.725625,1036.288319,-9116.536426,-370.102971
4065.725949,0.000000,-9576.193725,0.000000
4065.726273,-592.164754,-8886.707777,-370.102971
4065.726598,-1036.288319,-9346.365076,-148.041188
4065.726922,-1480.411884,-8580.269578,0.000000
4065.727246,-740.205942,-8656.879127,0.000000
4065.727570,-518.144159,-7660.954980,-666.185348
4065.727895,222.061783,-8197.221829,-222.061783
4065.728219,148.041188,-7201.297681,-444.123565
4065.728543,518.144159,-8427.050478,-222.061783
4065.728867,592.164754,-7967.393179,-518.144159
4065.729192,296.082377,-9039.926876,0.000000
4065.729516,-222.061783,-8503.660028,0.000000
4065.729840,-296.082377,-8656.879127,0.000000
4065.730164,296.082377,-8656.879127,0.000000
4065.730489,518.144159,-8427.050478,0.000000
4065.730813,1332.370696,-8580.269578,0.000000
4065.731137,2146.597232,-7814.174080,0.000000
4065.731461,2294.638420,-7890.783629,0.000000
4065.731786,2664.741391,-8350.440928,-222.061783
4065.732110,3182.885551,-8733.488677,0.000000
4065.732434,2590.720797,-8733.488677,-148.041188
4065.732758,962.267725,-9039.926876,148.041188
4065.733082,222.061783,-8273.831378,-370.102971
4065.733407,-814.226536,-8810.098227,0.000000
4065.733731,-1110.308913,-8810.098227,-222.061783
4065.734055,-1480.411884,-8810.098227,148.041188
4065.734379,-1554.432478,-8197.221829,-370.102971
4065.734704,-1480.411884,-8120.612279,-518.144159
4065.735028,-370.102971,-8197.221829,-518.144159
4065.735352,0.000000,-8273.831378,-444.123565
4065.735676,444.123565,-8350.440928,-296.082377
4065.736001,222.061783,-8656.879127,-518.144159
4065.736325,148.041188,-8886.707777,0.000000
4065.736649,0.000000,-8273.831378,-740.205942
4065.736973,0.000000,-9422.974625,-296.082377
4065.737298,148.041188,-8733.488677,-296.082377
4065.737622,0.000000,-8810.098227,0.000000
4065.737946,74.020594,-7737.564530,-444.123565
4065.738270,888.247130,-8350.440928,0.000000
4065.738594,1850.514855,-8044.002729,-666.185348
4065.738919,2220.617826,-8656.879127,-296.082377
4065.739243,2294.638420,-8273.831378,-296.082377
4065.739567,2072.576638,-8963.317327,-666.185348
4065.739891,1406.391290,-9039.926876,-592.164754
4065.740216,1036.288319,-9116.536426,-592.164754
4065.740540,-222.061783,-9422.974625,-222.061783
4065.740864,-1184.329507,-8427.050478,-74.020594
4065.741188,-1332.370696,-9116.536426,74.020594
4065.741513,-1110.308913,-8503.660028,-370.102971
4065.741837,-444.123565,-8733.488677,-444.123565
4065.742161,296.082377,-8503.660028,-962.267725
4065.742485,0.000000,-8120.612279,-222.061783
4065.742810,518.144159,-7584.345430,-962.267725
4065.743134,518.144159,-8656.879127,-814.226536
4065.743458,296.082377,-8273.831378,-296.082377
4065.743782,444.123565,-8656.879127,-740.205942
4065.744107,148.041188,-8503.660028,-444.123565
4065.744431,0.000000,-9346.365076,74.020594
4065.744755,0.000000,-8656.879127,-592.164754
4065.745079,888.247130,-9269.755526,-370.102971
4065.745403,962.267725,-8350.440928,-296.082377
4065.745728,1850.514855,-8350.440928,-370.102971
4065.746052,2516.700203,-8427.050478,-592.164754
4065.746376,2664.741391,-8580.269578,-222.061783
4065.746700,2220.617826,-8427.050478,-444.123565
4065.747025,1850.514855,-8733.488677,-296.082377
4065.747349,814.226536,-8733.488677,-222.061783
4065.747673,0.000000,-8580.269578,-148.041188
4065.747997,-666.185348,-8963.317327,-222.061783
4065.748322,-1480.411884,-8503.660028,-222.061783
4065.748646,-1258.350101,-8580.269578,-222.061783
4065.748970,-1036.288319,-8350.440928,-592.164754
4065.749294,-296.082377,-8120.612279,-370.102971
4065.749619,148.041188,-7967.393179,-370.102971
4065.749943,444.123565,-8197.221829,-518.144159
4065.750267,888.247130,-8503.660028,-666.185348
4065.750591,888.247130,-8810.098227,-222.061783
4065.750915,518.144159,-8810.098227,-592.164754
4065.751240,0.000000,-8886.707777,-296.082377
4065.751564,222.061783,-9039.926876,148.041188
4065.751888,0.000000,-8810.098227,-148.041188
4065.752212,296.082377,-8427.050478,-222.061783
4065.752537,222.061783,-8503.660028,-222.061783
4065.752861,814.226536,-8427.050478,0.000000
4065.753185,1702.473667,-8197.221829,0.000000
4065.753509,1850.514855,-8503.660028,-592.164754
4065.753834,2516.700203,-8580.269578,-222.061783
4065.754158,2072.576638,-8273.831378,-370.102971
4065.754482,1406.391290,-8886.707777,-518.144159
4065.754806,666.185348,-8733.488677,0.000000
4065.755131,-592.164754,-9269.755526,222.061783
4065.755455,-1110.308913,-9269.755526,-222.061783
4065.755779,-1554.432478,-8886.707777,74.020594
4065.756103,-1110.308913,-8580.269578,-222.061783
4065.756428,-1036.288319,-8656.879127,74.020594
4065.756752,-740.205942,-7660.954980,-370.102971
4065.757076,74.020594,-8273.831378,-444.123565
4065.757400,444.123565,-7890.783629,-888.247130
4065.757724,740.205942,-8580.269578,-444.123565
4065.758049,518.144159,-8197.221829,-814.226536
4065.758373,296.082377,-8963.317327,-222.061783
4065.758697,-296.082377,-8886.707777,-666.185348
4065.759021,74.020594,-9116.536426,148.041188
4065.759346,-148.041188,-8656.879127,-592.164754
4065.759670,518.144159,-8963.317327,0.000000
4065.759994,1110.308913,-8120.612279,0.000000
4065.760318,1628.453072,-8580.269578,-518.144159
4065.760643,2442.679609,-8810.098227,-222.061783
4065.760967,2368.659014,-8580.269578,-222.061783
4065.761291,2590.720797,-8733.488677,-296.082377
4065.761615,1776.494261,-8273.831378,-444.123565
4065.761940,1036.288319,-9039.926876,-592.164754
4065.762264,-222.061783,-8886.707777,0.000000
4065.762588,-1258.350101,-9116.536426,-592.164754
4065.762912,-1702.473667,-9039.926876,-444.123565
4065.763236,-1924.535449,-8810.098227,-370.102971
4065.763561,-1776.494261,-7814.174080,-148.041188
4065.763885,-1332.370696,-8120.612279,-814.226536
4065.764209,-148.041188,-8197.221829,-666.185348
4065.764533,518.144159,-8350.440928,-740.205942
4065.764858,814.226536,-8656.879127,-888.247130
4065.765182,888.247130,-8580.269578,-444.123565
4065.765506,962.267725,-8656.879127,-444.123565
4065.765830,814.226536,-8886.707777,-370.102971
4065.766155,222.061783,-8963.317327,-148.041188
4065.766479,296.082377,-8350.440928,-444.123565
4065.766803,370.102971,-8886.707777,0.000000
4065.767127,0.000000,-8273.831378,-296.082377
4065.767452,1406.391290,-8427.050478,-222.061783
4065.767776,2072.576638,-8273.831378,-296.082377
4065.768100,2072.576638,-8273.831378,-222.061783
4065.768424,2368.659014,-8733.488677,-518.144159
4065.768749,2072.576638,-8810.098227,0.000000
4065.769073,1480.411884,-8963.317327,-296.082377
4065.769397,592.164754,-8656.879127,-296.082377
4065.769721,0.000000,-9269.755526,0.000000
4065.770045,-592.164754,-8810.098227,-296.082377
4065.770370,-888.247130,-8733.488677,0.000000
4065.770694,-592.164754,-9116.536426,0.000000
4065.771018,-518.144159,-8120.612279,-444.123565
4065.771342,0.000000,-7967.393179,0.000000
4065.771667,518.144159,-8273.831378,-592.164754
4065.771991,592.164754,-8580.269578,-444.123565
4065.772315,592.164754,-8273.831378,-666.185348
4065.772639,444.123565,-8350.440928,-444.123565
4065.772964,148.041188,-8656.879127,-666.185348
4065.773288,-444.123565,-9346.365076,-370.102971
4065.773612,74.020594,-9039.926876,0.000000
4065.773936,74.020594,-8427.050478,-518.144159
4065.774261,518.144159,-9116.536426,-370.102971
4065.774585,1184.329507,-8580.269578,-592.164754
4065.774909,1702.473667,-8197.221829,0.000000
4065.775233,1998.556043,-8503.660028,-296.082377
4065.775557,2368.659014,-8503.660028,-296.082377
4065.775882,2220.617826,-8656.879127,-222.061783
4065.776206,1258.350101,-9269.755526,0.000000
4065.776530,740.205942,-8656.879127,-740.205942
4065.776854,-444.123565,-8963.317327,-296.082377
4065.777179,-814.226536,-8963.317327,-518.144159
4065.777503,-1702.473667,-8197.221829,0.000000
4065.777827,-1702.473667,-8810.098227,-740.205942
4065.778151,-1036.288319,-8350.440928,-296.082377
4065.778476,-740.205942,-8350.440928,-1036.288319
4065.778800,-148.041188,-8503.660028,-518.144159
4065.779124,666.185348,-8120.612279,-740.205942
4065.779448,740.205942,-8963.317327,-222.061783
4065.779773,666.185348,-8733.488677,-518.144159
4065.780097,814.226536,-8733.488677,0.000000
4065.780421,74.020594,-9422.974625,74.020594
4065.780745,444.123565,-8963.317327,-148.041188
4065.781070,74.020594,-8733.488677,-370.102971
4065.781394,-296.082377,-9039.926876,0.000000
4065.781718,296.082377,-8350.440928,-518.144159
4065.782042,814.226536,-8656.879127,-148.041188
4065.782366,1554.432478,-8273.831378,-296.082377
4065.782691,2146.597232,-8503.660028,0.000000
4065.783015,1776.494261,-8656.879127,-222.061783
4065.783339,1628.453072,-8656.879127,74.020594
4065.783663,1480.411884,-8733.488677,-370.102971
4065.783988,444.123565,-8733.488677,-370.102971
4065.784312,0.000000,-8810.098227,74.020594
4065.784636,-814.226536,-8580.269578,296.082377
4065.784960,-888.247130,-8810.098227,148.041188
4065.785285,-740.205942,-8044.002729,-222.061783
4065.785609,-148.041188,-8273.831378,0.000000
4065.785933,-74.020594,-7737.564530,-148.041188
4065.786257,444.123565,-7890.783629,-444.123565
4065.786582,592.164754,-8197.221829,-666.185348
4065.786906,518.144159,-8197.221829,-370.102971
4065.787230,592.164754,-8273.831378,-518.144159
4065.787554,444.123565,-9116.536426,-296.082377
4065.787878,74.020594,-8580.269578,0.000000
4065.788203,518.144159,-8886.707777,0.000000
4065.788527,518.144159,-8733.488677,-740.205942
4065.788851,1110.308913,-8963.317327,0.000000
4065.789175,1702.473667,-8273.831378,-592.164754
4065.789499,2442.679609,-8580.269578,0.000000
4065.789824,2590.720797,-8350.440928,-370.102971
4065.790148,3034.844362,-8580.269578,0.000000
4065.790472,2146.597232,-7967.393179,-370.102971
4065.790796,1702.473667,-9269.755526,-296.082377
4065.791121,740.205942,-8044.002729,-740.205942
4065.791445,-296.082377,-9269.755526,0.000000
4065.791769,-1628.453072,-8120.612279,-666.185348
4065.792093,-1924.535449,-8886.707777,0.000000
4065.792417,-1998.556043,-8273.831378,-518.144159
4065.792742,-1406.391290,-8656.879127,0.000000
4065.793066,-814.226536,-8197.221829,-1036.288319
4065.793390,-296.082377,-8656.879127,-444.123565
4065.793714,666.185348,-8503.660028,-962.267725
4065.794038,444.123565,-8656.879127,-592.164754
4065.794363,740.205942,-8963.317327,-814.226536
4065.794687,148.041188,-8503.660028,-592.164754
4065.795011,74.020594,-9269.755526,-518.144159
4065.795335,-666.185348,-8810.098227,-370.102971
4065.795660,0.000000,-8886.707777,-444.123565
4065.795984,0.000000,-8197.221829,-222.061783
4065.796308,148.041188,-8580.269578,-222.061783
4065.796632,740.205942,-8120.612279,-518.144159
4065.796956,1480.411884,-8350.440928,0.000000
4065.797281,1850.514855,-8350.440928,-370.102971
4065.797605,2294.638420,-8733.488677,-444.123565
4065.797929,2072.576638,-8886.707777,-444.123565
4065.798253,1776.494261,-8963.317327,-148.041188
4065.798577,222.061783,-8886.707777,-296.082377
4065.798902,148.041188,-9269.755526,-518.144159
4065.799226,-2072.576638,-8427.050478,0.000000
4065.799550,-962.267725,-9039.926876,222.061783
4065.799874,-888.247130,-8273.831378,-148.041188
4065.800198,-222.061783,-8810.098227,-592.164754
4065.800523,-592.164754,-8120.612279,0.000000
4065.800847,-444.123565,-8350.440928,0.000000
4065.801171,0.000000,-7814.174080,-962.267725
4065.801495,1184.329507,-8656.879127,-148.041188
4065.801820,0.000000,-7890.783629,-296.082377
4065.802144,370.102971,-9346.365076,0.000000
4065.802468,74.020594,-8427.050478,-444.123565
4065.802792,222.061783,-8963.317327,222.061783
4065.803116,296.082377,-8197.221829,-296.082377
4065.803441,888.247130,-8656.879127,148.041188
4065.803765,1628.453072,-8273.831378,0.000000
4065.804089,1998.556043,-8120.612279,0.000000
4065.804413,2738.761985,-8273.831378,-296.082377
4065.804737,2812.782580,-8273.831378,222.061783
4065.805062,2738.761985,-7890.783629,-518.144159
4065.805386,1850.514855,-8656.879127,0.000000
4065.805710,1480.411884,-8656.879127,-370.102971
4065.806034,0.000000,-8350.440928,-592.164754
4065.806359,-444.123565,-8503.660028,-370.102971
4065.806683,-1702.473667,-8197.221829,-296.082377
4065.807007,-1406.391290,-8733.488677,-296.082377
4065.807331,-962.267725,-8503.660028,-888.247130
4065.807655,-222.061783,-8427.050478,-592.164754
4065.807980,-518.144159,-8197.221829,-1036.288319
4065.808304,1036.288319,-8810.098227,-222.061783
4065.808628,740.205942,-8120.612279,-962.267725
4065.808952,888.247130,-9039.926876,-518.144159
4065.809276,888.247130,-8503.660028,-1110.308913
4065.809601,0.000000,-9422.974625,-296.082377
4065.809925,-222.061783,-8503.660028,-740.205942
4065.810249,0.000000,-8886.707777,296.082377
4065.810573,0.000000,-8503.660028,-518.144159
4065.810898,1036.288319,-8810.098227,-148.041188
4065.811222,888.247130,-8197.221829,-962.267725
4065.811546,1850.514855,-8886.707777,-444.123565
4065.811870,2368.659014,-8503.660028,-740.205942
4065.812194,2072.576638,-9193.145976,0.000000
4065.812519,1776.494261,-8733.488677,-1110.308913
4065.812843,1258.350101,-9346.365076,0.000000
4065.813167,296.082377,-8886.707777,-814.226536
4065.813491,-370.102971,-9269.755526,-296.082377
4065.813815,-1184.329507,-8810.098227,-592.164754
4065.814140,-1184.329507,-9116.536426,-74.020594
4065.814464,-888.247130,-8503.660028,-666.185348
4065.814788,-296.082377,-8580.269578,-592.164754
4065.815112,0.000000,-8197.221829,-740.205942
4065.815437,296.082377,-8503.660028,-518.144159
4065.815761,222.061783,-7967.393179,-1332.370696
4065.816085,444.123565,-8886.707777,-518.144159
4065.816409,0.000000,-8503.660028,-740.205942
4065.816733,0.000000,-8733.488677,-222.061783
4065.817058,0.000000,-8886.707777,-296.082377
4065.817382,370.102971,-9039.926876,-148.041188
4065.817706,444.123565,-8350.440928,-296.082377
4065.818030,740.205942,-8810.098227,148.041188
4065.818354,1702.473667,-8197.221829,-370.102971
4065.818679,2368.659014,-8427.050478,-296.082377
4065.819003,2368.659014,-7737.564530,0.000000
4065.819327,2886.803174,-8886.707777,74.020594
4065.819651,2516.700203,-8273.831378,-370.102971
4065.819976,814.226536,-9116.536426,-296.082377
4065.820300,1110.308913,-8810.098227,74.020594
4065.820624,-592.164754,-8197.221829,-370.102971
4065.820948,-1332.370696,-9116.536426,296.082377
4065.821272,-1110.308913,-8197.221829,-444.123565
4065.821597,-1332.370696,-8656.879127,0.000000
4065.821921,-1184.329507,-8120.612279,-148.041188
4065.822245,-518.144159,-7967.393179,-518.144159
4065.822569,74.020594,-8120.612279,222.061783
4065.822893,370.102971,-8580.269578,0.000000
4065.823218,1036.288319,-8427.050478,-296.082377
4065.823542,888.247130,-8580.269578,-148.041188
4065.823866,518.144159,-8503.660028,74.020594
4065.824190,222.061783,-8656.879127,-148.041188
4065.824515,-222.061783,-8656.879127,-222.061783
4065.824839,0.000000,-8886.707777,-296.082377
4065.825163,296.082377,-8503.660028,-518.144159
4065.825487,518.144159,-8580.269578,0.000000
4065.825811,1184.329507,-8580.269578,0.000000
4065.826136,1480.411884,-8044.002729,0.000000
4065.826460,1850.514855,-8733.488677,-296.082377
4065.826784,1628.453072,-8656.879127,-296.082377
4065.827108,1480.411884,-8963.317327,0.000000
4065.827432,1332.370696,-9116.536426,0.000000
4065.827757,592.164754,-9116.536426,-148.041188
4065.828081,-222.061783,-9193.145976,-370.102971
4065.828405,-1036.288319,-8963.317327,74.020594
4065.828729,-592.164754,-8733.488677,-370.102971
4065.829053,-592.164754,-8580.269578,-592.164754
4065.829378,222.061783,-8273.831378,-666.185348
4065.829702,740.205942,-8503.660028,-444.123565
4065.830026,0.000000,-8273.831378,-740.205942
4065.830350,592.164754,-8273.831378,-740.205942
4065.830675,296.082377,-8503.660028,-1036.288319
4065.830999,-222.061783,-8810.098227,-814.226536
4065.831323,-444.123565,-9576.193725,0.000000
4065.831647,-592.164754,-8733.488677,-518.144159
4065.831971,74.020594,-8733.488677,-518.144159
4065.832296,444.123565,-8733.488677,-518.144159
4065.832620,1184.329507,-9039.926876,-592.164754
4065.832944,1702.473667,-8197.221829,-296.082377
4065.833268,2146.597232,-8810.098227,-444.123565
4065.833592,2590.720797,-8656.879127,-666.185348
4065.833917,2442.679609,-8427.050478,-444.123565
4065.834241,2294.638420,-8963.317327,-592.164754
4065.834565,1332.370696,-8886.707777,-518.144159
4065.834889,74.020594,-8580.269578,-444.123565
4065.835214,-296.082377,-9039.926876,-518.144159
4065.835538,-962.267725,-9116.536426,0.000000
4065.835862,-1406.391290,-8810.098227,-222.061783
4065.836186,-814.226536,-8350.440928,-148.041188
4065.836510,-888.247130,-8120.612279,-370.102971
4065.836835,0.000000,-8580.269578,-666.185348
4065.837159,296.082377,-8044.002729,-444.123565
4065.837483,740.205942,-8580.269578,-518.144159
4065.837807,296.082377,-8733.488677,-444.123565
4065.838131,148.041188,-8963.317327,0.000000
4065.838456,-296.082377,-8273.831378,296.082377
4065.838780,-518.144159,-9269.755526,0.000000
4065.839104,-518.144159,-8503.660028,-148.041188
4065.839428,0.000000,-9039.926876,0.000000
4065.839753,0.000000,-8733.488677,0.000000
4065.840077,740.205942,-8427.050478,74.020594
4065.840401,1332.370696,-8120.612279,74.020594
4065.840725,2072.576638,-8120.612279,0.000000
4065.841049,2516.700203,-8503.660028,0.000000
4065.841374,2442.679609,-9116.536426,518.144159
4065.841698,1924.535449,-9116.536426,-222.061783
4065.842022,444.123565,-8810.098227,-370.102971
4065.842346,0.000000,-9039.926876,0.000000
4065.842670,-1554.432478,-8733.488677,222.061783
4065.842995,-1480.411884,-9499.584175,296.082377
4065.843319,-1184.329507,-7814.174080,0.000000
4065.843643,-666.185348,-8580.269578,-222.061783
4065.843967,-666.185348,-7737.564530,-592.164754
4065.844292,74.020594,-8120.612279,-370.102971
4065.844616,740.205942,-7967.393179,-740.205942
4065.844940,370.102971,-8197.221829,-370.102971
4065.845264,888.247130,-8427.050478,-296.082377
4065.845588,222.061783,-8120.612279,-370.102971
4065.845913,370.102971,-9039.926876,74.020594
4065.846237,74.020594,-8810.098227,-666.185348
4065.846561,444.123565,-8886.707777,0.000000
4065.846885,592.164754,-8197.221829,-222.061783
4065.847209,666.185348,-8886.707777,0.000000
4065.847534,1554.432478,-8120.612279,-518.144159
4065.847858,2220.617826,-8273.831378,-222.061783
4065.848182,2590.720797,-8120.612279,-962.267725
4065.848506,2516.700203,-8733.488677,0.000000
4065.848831,1998.556043,-8733.488677,-666.185348
4065.849155,666.185348,-9269.755526,-518.144159
4065.849479,0.000000,-9193.145976,-592.164754
4065.849803,-1184.329507,-8886.707777,0.000000
4065.850127,-1480.411884,-8656.879127,-592.164754
4065.850452,-1850.514855,-8886.707777,-296.082377
4065.850776,-1628.453072,-8733.488677,-296.082377
4065.851100,-814.226536,-7584.345430,-148.041188
4065.851424,0.000000,-8503.660028,-740.205942
4065.851748,888.247130,-8733.488677,-962.267725
4065.852073,814.226536,-8656.879127,-962.267725
4065.852397,814.226536,-9039.926876,-740.205942
4065.852721,518.144159,-8733.488677,-740.205942
4065.853045,296.082377,-8963.317327,-666.185348
4065.853369,0.000000,-9269.755526,-518.144159
4065.853694,0.000000,-8350.440928,-592.164754
4065.854018,-370.102971,-8733.488677,0.000000
4065.854342,0.000000,-8580.269578,-370.102971
4065.854666,888.247130,-8427.050478,-444.123565
4065.854991,1480.411884,-8350.440928,-592.164754
4065.855315,1998.556043,-8810.098227,0.000000
4065.855639,2368.659014,-8733.488677,0.000000
4065.855963,2220.617826,-8886.707777,-518.144159
4065.856287,1924.535449,-8963.317327,-148.041188
4065.856612,1036.288319,-9193.145976,-370.102971
4065.856936,518.144159,-9346.365076,0.000000
4065.857260,-518.144159,-8656.879127,0.000000
4065.857584,-1480.411884,-8810.098227,0.000000
4065.857908,-1554.432478,-8733.488677,0.000000
4065.858233,-1110.308913,-8044.002729,-518.144159
4065.858557,-888.247130,-7814.174080,0.000000
4065.858881,296.082377,-7737.564530,-222.061783
4065.859205,370.102971,-7890.783629,-222.061783
4065.859530,592.164754,-7814.174080,-592.164754
4065.859854,222.061783,-8120.612279,-296.082377
4065.860178,74.020594,-8580.269578,-592.164754
4065.860502,0.000000,-8427.050478,0.000000
4065.860826,-222.061783,-8810.098227,222.061783
4065.861151,0.000000,-8427.050478,-444.123565
4065.861475,666.185348,-8197.221829,-148.041188
4065.861799,1480.411884,-8197.221829,74.020594
4065.862123,1998.556043,-8503.660028,0.000000
4065.862447,2664.741391,-8350.440928,296.082377
4065.862772,2812.782580,-8503.660028,0.000000
4065.863096,2664.741391,-8503.660028,0.000000
4065.863420,1850.514855,-8503.660028,-370.102971
4065.863744,888.247130,-8963.317327,-148.041188
4065.864069,-222.061783,-8273.831378,222.061783
4065.864393,-1406.391290,-8733.488677,-222.061783
4065.864717,-2220.617826,-8886.707777,0.000000
4065.865041,-2220.617826,-8197.221829,-74.020594
4065.865365,-1554.432478,-8733.488677,-666.185348
4065.865690,-518.144159,-8044.002729,-666.185348
4065.866014,222.061783,-8197.221829,-370.102971
4065.866338,1110.308913,-8273.831378,-370.102971
4065.866662,740.205942,-9346.365076,-740.205942
4065.866986,888.247130,-8503.660028,-740.205942
4065.867311,444.123565,-8963.317327,-592.164754
4065.867635,222.061783,-9269.755526,-370.102971
4065.867959,-370.102971,-9269.755526,-370.102971
4065.868283,-666.185348,-8733.488677,-444.123565
4065.868608,-370.102971,-8733.488677,-148.041188
4065.868932,-296.082377,-8273.831378,-592.164754
4065.869256,518.144159,-8656.879127,-296.082377
4065.869580,1036.288319,-8810.098227,-370.102971
4065.869904,2368.659014,-8656.879127,-592.164754
4065.870229,2516.700203,-8427.050478,-592.164754
4065.870553,2442.679609,-9193.145976,-592.164754
4065.870877,2442.679609,-9193.145976,-814.226536
4065.871201,1110.308913,-8810.098227,-444.123565
4065.871525,0.000000,-9269.755526,-370.102971
4065.871850,-888.247130,-9116.536426,-370.102971
4065.872174,-1628.453072,-8810.098227,0.000000
4065.872498,-1332.370696,-8656.879127,-518.144159
4065.872822,-1036.288319,-8273.831378,-592.164754
4065.873147,-740.205942,-8273.831378,-444.123565
4065.873471,0.000000,-7660.954980,-740.205942
4065.873795,370.102971,-7814.174080,-962.267725
4065.874119,888.247130,-8120.612279,-1110.308913
4065.874443,740.205942,-8350.440928,-296.082377
4065.874768,592.164754,-8350.440928,-518.144159
4065.875092,148.041188,-8656.879127,-296.082377
4065.875416,296.082377,-8733.488677,-592.164754
4065.875740,222.061783,-8810.098227,-444.123565
4065.876064,518.144159,-8580.269578,0.000000
4065.876389,1110.308913,-8580.269578,0.000000
4065.876713,1998.556043,-8733.488677,0.000000
4065.877037,1998.556043,-8427.050478,0.000000
4065.877361,2220.617826,-8197.221829,-74.020594
4065.877685,2442.679609,-8580.269578,-222.061783
4065.878010,2294.638420,-8886.707777,-370.102971
4065.878334,1332.370696,-8580.269578,-444.123565
4065.878658,592.164754,-8963.317327,296.082377
4065.878982,-444.123565,-8197.221829,-222.061783
4065.879307,-1258.350101,-8963.317327,148.041188
4065.879631,-1776.494261,-8273.831378,-444.123565
4065.879955,-1480.411884,-9039.926876,0.000000
4065.880279,-666.185348,-7967.393179,-888.247130
4065.880603,0.000000,-8350.440928,0.000000
4065.880928,666.185348,-8273.831378,-666.185348
4065.881252,814.226536,-8427.050478,0.000000
4065.881576,888.247130,-8197.221829,-518.144159
4065.881900,296.082377,-8886.707777,-222.061783
4065.882224,444.123565,-9346.365076,0.000000
4065.882549,222.061783,-9116.536426,-296.082377
4065.882873,-370.102971,-8963.317327,-296.082377
4065.883197,-148.041188,-8580.269578,-518.144159
4065.883521,148.041188,-8580.269578,-148.041188
4065.883846,592.164754,-8350.440928,-370.102971
4065.884170,1776.494261,-8503.660028,-148.041188
4065.884494,1998.556043,-8427.050478,-296.082377
4065.884818,2368.659014,-8580.269578,0.000000
4065.885142,1702.473667,-8503.660028,148.041188
4065.885467,1406.391290,-9729.412825,-222.061783
4065.885791,74.020594,-9039.926876,-370.102971
4065.886115,-962.267725,-9039.926876,-222.061783
4065.886439,-1480.411884,-9269.755526,222.061783
4065.886763,-1998.556043,-8810.098227,-296.082377
4065.887088,-1554.432478,-8733.488677,-444.123565
4065.887412,-814.226536,-8197.221829,-666.185348
4065.887736,-370.102971,-8810.098227,0.000000
4065.888060,222.061783,-7660.954980,-1110.308913
4065.888385,518.144159,-8503.660028,-888.247130
4065.888709,740.205942,-8273.831378,-666.185348
4065.889033,888.247130,-8886.707777,-370.102971
4065.889357,888.247130,-8350.440928,-814.226536
4065.889682,518.144159,-9422.974625,0.000000
4065.890006,0.000000,-8197.221829,-444.123565
4065.890330,592.164754,-8963.317327,0.000000
4065.890654,888.247130,-8656.879127,-148.041188
4065.890978,1110.308913,-8427.050478,0.000000
4065.891303,1998.556043,-8273.831378,-370.102971
4065.891627,2516.700203,-8580.269578,-444.123565
4065.891951,2960.823768,-8197.221829,-296.082377
4065.892275,2072.576638,-8810.098227,-370.102971
4065.892600,1628.453072,-8886.707777,-592.164754
4065.892924,518.144159,-8197.221829,-148.041188
4065.893248,-148.041188,-9116.536426,-370.102971
4065.893572,-1628.453072,-8733.488677,0.000000
4065.893897,-1554.432478,-8656.879127,0.000000
4065.894221,-1480.411884,-7890.783629,-296.082377
4065.894545,-962.267725,-8580.269578,-444.123565
4065.894869,-148.041188,-7890.783629,-444.123565
4065.895193,148.041188,-8197.221829,0.000000
4065.895518,296.082377,-7967.393179,-592.164754
4065.895842,666.185348,-8963.317327,-444.123565
4065.896166,814.226536,-8427.050478,-518.144159
4065.896490,296.082377,-8733.488677,-370.102971
4065.896815,0.000000,-9116.536426,-222.061783
4065.897139,-370.102971,-8503.660028,-666.185348
4065.897463,148.041188,-8886.707777,370.102971
4065.897787,-296.082377,-8197.221829,0.000000
4065.898112,814.226536,-8733.488677,0.000000
4065.898436,1480.411884,-8197.221829,-444.123565
4065.898760,2220.617826,-8503.660028,-148.041188
4065.899084,2590.720797,-8273.831378,-444.123565
4065.899409,2368.659014,-9422.974625,0.000000
4065.899733,2072.576638,-8580.269578,-296.082377
4065.900057,1702.473667,-9346.365076,-222.061783
4065.900381,518.144159,-9116.536426,-296.082377
4065.900705,-814.226536,-9193.145976,148.041188
4065.901030,-1776.494261,-8810.098227,-518.144159
4065.901354,-1628.453072,-9039.926876,-296.082377
4065.901678,-1258.350101,-8120.612279,-444.123565
4065.902002,-518.144159,-7737.564530,-370.102971
4065.902327,0.000000,-7890.783629,-592.164754
4065.902651,296.082377,-8197.221829,-518.144159
4065.902975,370.102971,-8503.660028,-888.247130
4065.903299,2220.617826,-8427.050478,-592.164754
4065.903624,370.102971,-8656.879127,-518.144159
4065.903948,-666.185348,-8963.317327,0.000000
4065.904272,0.000000,-8733.488677,-222.061783
4065.904596,0.000000,-9039.926876,0.000000
4065.904920,74.020594,-7737.564530,-666.185348
4065.905245,592.164754,-8733.488677,0.000000
4065.905569,1258.350101,-8044.002729,-370.102971
4065.905893,2072.576638,-8427.050478,74.020594
4065.906217,2368.659014,-8656.879127,-370.102971
4065.906542,2368.659014,-8810.098227,0.000000
4065.906866,1628.453072,-8273.831378,-666.185348
4065.907190,1628.453072,-9499.584175,-444.123565
4065.907514,222.061783,-8427.050478,-296.082377
4065.907839,-222.061783,-9193.145976,0.000000
4065.908163,-1332.370696,-8503.660028,-444.123565
4065.908487,-1036.288319,-8963.317327,-222.061783
4065.908811,-1406.391290,-8427.050478,-666.185348
4065.909135,-814.226536,-7737.564530,0.000000
4065.909460,-666.185348,-7890.783629,-370.102971
4065.909784,0.000000,-8427.050478,-518.144159
4065.910108,222.061783,-8120.612279,-296.082377
4065.910432,740.205942,-8656.879127,-518.144159
4065.910757,370.102971,-8886.707777,-444.123565
4065.911081,370.102971,-8810.098227,0.000000
4065.911405,370.102971,-9193.145976,-296.082377
4065.911729,0.000000,-8733.488677,-518.144159
4065.912054,296.082377,-8733.488677,-444.123565
4065.912378,0.000000,-8427.050478,0.000000
4065.912702,518.144159,-8963.317327,148.041188
4065.913026,1036.288319,-8350.440928,-444.123565
4065.913351,1258.350101,-7967.393179,222.061783
4065.913675,1258.350101,-8503.660028,-592.164754
4065.913999,2664.741391,-9269.755526,0.000000
4065.914323,1036.288319,-8197.221829,0.000000
4065.914647,1332.370696,-8733.488677,0.000000
4065.914972,1184.329507,-8503.660028,-592.164754
4065.915296,-518.144159,-8886.707777,-296.082377
4065.915620,-814.226536,-8503.660028,-444.123565
4065.915944,-592.164754,-8427.050478,0.000000
4065.916269,-666.185348,-8044.002729,-222.061783
4065.916593,0.000000,-8197.221829,-370.102971
4065.916917,296.082377,-8120.612279,-592.164754
4065.917241,222.061783,-8273.831378,-740.205942
4065.917566,518.144159,-7814.174080,-518.144159
4065.917890,740.205942,-8580.269578,-296.082377
4065.918214,-148.041188,-8580.269578,-962.267725
4065.918538,-148.041188,-8963.317327,0.000000
4065.918862,74.020594,-8427.050478,-962.267725
4065.919187,0.000000,-9576.193725,-222.061783
4065.919511,148.041188,-8350.440928,-740.205942
4065.919835,1110.308913,-8580.269578,0.000000
4065.920159,1184.329507,-8350.440928,-518.144159
4065.920484,2442.679609,-8656.879127,-444.123565
4065.920808,3108.864956,-8273.831378,-666.185348
4065.921132,2960.823768,-9269.755526,0.000000
4065.921456,2220.617826,-8733.488677,-592.164754
4065.921781,1554.432478,-9269.755526,-296.082377
4065.922105,148.041188,-8503.660028,0.000000
4065.922429,-814.226536,-8963.317327,-518.144159
4065.922753,-1628.453072,-8733.488677,-296.082377
4065.923077,-1776.494261,-8427.050478,0.000000
4065.923402,-1998.556043,-8197.221829,-814.226536
4065.923726,-1406.391290,-8273.831378,-370.102971
4065.924050,-444.123565,-8273.831378,-444.123565
4065.924374,0.000000,-8580.269578,-740.205942
4065.924699,444.123565,-9039.926876,-296.082377
4065.925023,518.144159,-9039.926876,-296.082377
4065.925347,444.123565,-8733.488677,-740.205942
4065.925671,148.041188,-9193.145976,-370.102971
4065.925996,814.226536,-8886.707777,-444.123565
4065.926320,-222.061783,-8963.317327,0.000000
4065.926644,-592.164754,-8350.440928,-222.061783
4065.926968,370.102971,-8963.317327,222.061783
4065.927293,296.082377,-7814.174080,-518.144159
4065.927617,1258.350101,-8656.879127,0.000000
4065.927941,2368.659014,-8197.221829,-666.185348
4065.928265,2738.761985,-9269.755526,74.020594
4065.928589,2516.700203,-9039.926876,-370.102971
4065.928914,2738.761985,-8656.879127,-222.061783
4065.929238,0.000000,-8427.050478,-518.144159
4065.929562,740.205942,-9729.412825,-222.061783
4065.929886,-962.267725,-8044.002729,-518.144159
4065.930211,-1258.350101,-9193.145976,814.226536
4065.930535,-1628.453072,-7890.783629,-740.205942
4065.930859,-1406.391290,-8273.831378,0.000000
4065.931183,-814.226536,-7584.345430,-444.123565
4065.931508,0.000000,-7737.564530,-296.082377
4065.931832,592.164754,-8656.879127,-592.164754
4065.932156,296.082377,-8273.831378,-592.164754
4065.932480,814.226536,-8197.221829,-370.102971
4065.932804,370.102971,-8427.050478,-592.164754
4065.933129,444.123565,-9806.022374,-444.123565
4065.933453,444.123565,-8273.831378,-296.082377
4065.933777,74.020594,-8580.269578,0.000000
4065.934101,222.061783,-8427.050478,-370.102971
4065.934426,962.267725,-8580.269578,0.000000
4065.934750,1628.453072,-8350.440928,-222.061783
4065.935074,2294.638420,-8733.488677,-296.082377
4065.935398,2590.720797,-8580.269578,0.000000
4065.935723,2220.617826,-8580.269578,-148.041188
4065.936047,1332.370696,-8120.612279,-518.144159
4065.936371,888.247130,-8886.707777,-592.164754
4065.936695,666.185348,-8886.707777,-296.082377
4065.937019,-444.123565,-8427.050478,-444.123565
4065.937344,-1036.288319,-8810.098227,-666.185348
4065.937668,-962.267725,-8273.831378,-296.082377
4065.937992,-962.267725,-8427.050478,-592.164754
4065.938316,-666.185348,-8503.660028,-740.205942
4065.938641,-222.061783,-8197.221829,-296.082377
4065.938965,518.144159,-8656.879127,-962.267725
4065.939289,888.247130,-8810.098227,-666.185348
4065.939613,444.123565,-8810.098227,-740.205942
4065.939938,-148.041188,-8886.707777,-592.164754
4065.940262,74.020594,-8963.317327,0.000000
4065.940586,-296.082377,-8733.488677,-592.164754
4065.940910,-592.164754,-9346.365076,-518.144159
4065.941235,-666.185348,-8427.050478,-370.102971
4065.941559,296.082377,-8886.707777,0.000000
4065.941883,444.123565,-8044.002729,-814.226536
4065.942207,1702.473667,-8503.660028,-148.041188
4065.942531,1924.535449,-8197.221829,-518.144159
4065.942856,2368.659014,-9039.926876,0.000000
4065.943180,2294.638420,-9346.365076,-666.185348
4065.943504,1480.411884,-9422.974625,-444.123565
4065.943828,666.185348,-8580.269578,-592.164754
4065.944153,148.041188,-9116.536426,-444.123565
4065.944477,-888.247130,-9346.365076,222.061783
4065.944801,-1036.288319,-8886.707777,0.000000
4065.945125,-962.267725,-8350.440928,-296.082377
4065.945450,-962.267725,-8427.050478,0.000000
4065.945774,-222.061783,-8197.221829,-740.205942
4065.946098,0.000000,-8044.002729,-148.041188
4065.946422,740.205942,-8273.831378,-740.205942
4065.946746,518.144159,-8503.660028,-444.123565
4065.947071,370.102971,-8273.831378,-592.164754
4065.947395,-148.041188,-8350.440928,0.000000
4065.947719,-148.041188,-8886.707777,0.000000
4065.948043,-666.185348,-8580.269578,-222.061783
4065.948368,74.020594,-8733.488677,-296.082377
4065.948692,0.000000,-9039.926876,370.102971
4065.949016,1406.391290,-8427.050478,74.020594
4065.949340,1776.494261,-8273.831378,-222.061783
4065.949665,2738.761985,-8580.269578,222.061783
4065.949989,2072.576638,-8197.221829,0.000000
4065.950313,2738.761985,-8733.488677,0.000000
4065.950637,2072.576638,-8810.098227,0.000000
4065.950961,1110.308913,-8733.488677,0.000000
4065.951286,444.123565,-8656.879127,-518.144159
4065.951610,-444.123565,-8810.098227,74.020594
4065.951934,-888.247130,-8580.269578,-222.061783
4065.952258,-1036.288319,-8580.269578,-148.041188
4065.952583,-1332.370696,-8503.660028,-444.123565
4065.952907,-962.267725,-8044.002729,-148.041188
4065.953231,-518.144159,-8044.002729,-666.185348
4065.953555,74.020594,-8503.660028,-444.123565
4065.953880,296.082377,-8427.050478,-592.164754
4065.954204,444.123565,-9116.536426,-222.061783
4065.954528,0.000000,-8503.660028,-888.247130
4065.954852,148.041188,-9039.926876,0.000000
4065.955176,148.041188,-8810.098227,-740.205942
4065.955501,444.123565,-8580.269578,-370.102971
4065.955825,1036.288319,-8580.269578,-814.226536
4065.956149,222.061783,-8273.831378,-370.102971
4065.956473,1184.329507,-8733.488677,-296.082377
4065.956798,1406.391290,-8427.050478,-444.123565
4065.957122,2368.659014,-8733.488677,0.000000
4065.957446,2220.617826,-8427.050478,-666.185348
4065.957770,2146.597232,-9346.365076,0.000000
4065.958095,1110.308913,-8963.317327,-222.061783
4065.958419,370.102971,-9039.926876,-370.102971
4065.958743,148.041188,-8963.317327,-444.123565
4065.959067,-296.082377,-8656.879127,-592.164754
4065.959392,-518.144159,-8810.098227,-222.061783
4065.959716,-444.123565,-8656.879127,-592.164754
4065.960040,0.000000,-8656.879127,-296.082377
4065.960364,-296.082377,-7890.783629,-370.102971
4065.960688,222.061783,-8120.612279,-814.226536
4065.961013,222.061783,-8963.317327,-296.082377
4065.961337,-444.123565,-8350.440928,-518.144159
4065.961661,148.041188,-8886.707777,-296.082377
4065.961985,-666.185348,-8197.221829,-666.185348
4065.962310,-148.041188,-8963.317327,148.041188
4065.962634,74.020594,-8580.269578,-888.247130
4065.962958,370.102971,-9039.926876,74.020594
4065.963282,888.247130,-8197.221829,-370.102971
4065.963607,1776.494261,-8273.831378,0.000000
4065.963931,2516.700203,-8580.269578,0.000000
4065.964255,2368.659014,-8580.269578,-148.041188
4065.964579,3034.844362,-8656.879127,-148.041188
4065.964903,2146.597232,-8580.269578,-296.082377
4065.965228,1628.453072,-9116.536426,-444.123565
4065.965552,0.000000,-8503.660028,-518.144159
4065.965876,-222.061783,-9269.755526,74.020594
4065.966200,-1702.473667,-8503.660028,-666.185348
4065.966525,-1480.411884,-8886.707777,0.000000
4065.966849,-1628.453072,-8273.831378,-444.123565
4065.967173,-1110.308913,-8273.831378,74.020594
4065.967497,-370.102971,-7890.783629,-666.185348
4065.967822,666.185348,-8810.098227,-148.041188
4065.968146,1036.288319,-8197.221829,-518.144159
4065.968470,814.226536,-9039.926876,0.000000
4065.968794,518.144159,-8886.707777,-888.247130
4065.969118,0.000000,-8810.098227,-370.102971
4065.969443,-518.144159,-9422.974625,-814.226536
4065.969767,-1406.391290,-8963.317327,-444.123565
4065.970091,-888.247130,-8810.098227,-222.061783
4065.970415,-592.164754,-8273.831378,-222.061783
4065.970740,370.102971,-8273.831378,-444.123565
4065.971064,2072.576638,-8120.612279,-592.164754
4065.971388,2516.700203,-7890.783629,-370.102971
4065.971712,3256.906145,-8197.221829,-222.061783
4065.972037,2960.823768,-8886.707777,0.000000
4065.972361,2442.679609,-9116.536426,-222.061783
4065.972685,1850.514855,-9039.926876,-740.205942
4065.973009,222.061783,-9193.145976,74.020594
4065.973334,-962.267725,-8963.317327,-370.102971
4065.973658,-1406.391290,-9193.145976,-148.041188
4065.973982,-1776.494261,-8350.440928,-444.123565
4065.974306,-1184.329507,-8197.221829,222.061783
4065.974630,-666.185348,-7507.735880,-888.247130
4065.974955,296.082377,-8427.050478,0.000000
4065.975279,814.226536,-7277.907231,-1036.288319
4065.975603,2146.597232,-9039.926876,-370.102971
4065.975927,1184.329507,-8044.002729,-888.247130
4065.976252,962.267725,-9346.365076,0.000000
4065.976576,148.041188,-8733.488677,-1036.288319
4065.976900,0.000000,-9499.584175,0.000000
4065.977224,-740.205942,-8580.269578,-370.102971
4065.977549,-592.164754,-8656.879127,0.000000
4065.977873,222.061783,-8580.269578,-592.164754
4065.978197,814.226536,-8273.831378,-222.061783
4065.978521,2294.638420,-7584.345430,74.020594
4065.978845,2516.700203,-7967.393179,-444.123565
4065.979170,3330.926739,-8810.098227,-148.041188
4065.979494,3108.864956,-8350.440928,-222.061783
4065.979818,2590.720797,-8733.488677,-518.144159
4065.980142,1184.329507,-8580.269578,-222.061783
4065.980467,296.082377,-9269.755526,0.000000
4065.980791,-1184.329507,-8656.879127,-592.164754
4065.981115,-1554.432478,-9116.536426,0.000000
4065.981439,-1850.514855,-8044.002729,-814.226536
4065.981764,-1406.391290,-8273.831378,-148.041188
4065.982088,-666.185348,-7737.564530,-592.164754
4065.982412,0.000000,-8427.050478,-148.041188
4065.982736,518.144159,-7660.954980,-666.185348
4065.983060,592.164754,-8503.660028,-592.164754
4065.983385,888.247130,-8656.879127,-888.247130
4065.983709,592.164754,-9193.145976,-444.123565
4065.984033,0.000000,-8886.707777,-518.144159
4065.984357,-296.082377,-8963.317327,0.000000
4065.984682,-296.082377,-8733.488677,-444.123565
4065.985006,-518.144159,-8733.488677,-370.102971
4065.985330,222.061783,-8580.269578,-444.123565
4065.985654,888.247130,-8120.612279,-370.102971
4065.985979,1406.391290,-8580.269578,-148.041188
4065.986303,1998.556043,-8120.612279,-370.102971
4065.986627,2368.659014,-8886.707777,148.041188
4065.986951,2294.638420,-8427.050478,-888.247130
4065.987276,1998.556043,-9269.755526,0.000000
4065.987600,888.247130,-8810.098227,-666.185348
4065.987924,0.000000,-9346.365076,-296.082377
4065.988248,-370.102971,-8963.317327,-518.144159
4065.988573,-1036.288319,-9116.536426,-74.020594
4065.988897,-962.267725,-8044.002729,0.000000
4065.989222,-222.061783,-8044.002729,-222.061783
4065.989546,-518.144159,-8120.612279,-814.226536
4065.989870,0.000000,-8273.831378,-518.144159
4065.990195,296.082377,-8197.221829,-814.226536
4065.990519,444.123565,-8733.488677,-592.164754
4065.990843,148.041188,-8273.831378,-592.164754
4065.991168,0.000000,-8273.831378,-296.082377
4065.991492,0.000000,-8503.660028,-518.144159
4065.991816,0.000000,-8656.879127,0.000000
4065.992141,222.061783,-8503.660028,-814.226536
4065.992465,518.144159,-8656.879127,148.041188
4065.992789,1184.329507,-8350.440928,-592.164754
4065.993114,1628.453072,-8656.879127,0.000000
4065.993438,2220.617826,-8503.660028,-592.164754
4065.993763,2294.638420,-8810.098227,-148.041188
4065.994087,2146.597232,-8656.879127,-148.041188
4065.994411,1332.370696,-9193.145976,0.000000
4065.994736,592.164754,-8656.879127,-148.041188
4065.995060,0.000000,-8810.098227,-444.123565
4065.995384,-296.082377,-8810.098227,-592.164754
4065.995709,-740.205942,-8580.269578,0.000000
4065.996033,-814.226536,-8197.221829,-370.102971
4065.996357,-666.185348,-8044.002729,-296.082377
4065.996682,0.000000,-8427.050478,-444.123565
4065.997006,148.041188,-8427.050478,-592.164754
4065.997330,296.082377,-8427.050478,-370.102971
4065.997655,222.061783,-8580.269578,-444.123565
4065.997979,74.020594,-8810.098227,-370.102971
4065.998304,0.000000,-8427.050478,-370.102971
4065.998628,0.000000,-8886.707777,-148.041188
4065.998952,-222.061783,-8656.879127,-444.123565
4065.999277,296.082377,-8656.879127,-148.041188
4065.999601,666.185348,-8350.440928,-518.144159
4065.999925,1036.288319,-8580.269578,-222.061783
4066.000250,1702.473667,-8503.660028,0.000000
4066.000574,1850.514855,-8503.660028,-444.123565
4066.000898,2368.659014,-8810.098227,-148.041188
4066.001223,2072.576638,-8886.707777,-148.041188
4066.001547,1628.453072,-8427.050478,-296.082377
4066.001871,888.247130,-9346.365076,0.000000
4066.002196,0.000000,-8350.440928,-370.102971
4066.002520,0.000000,-9499.584175,-296.082377
4066.002845,-592.164754,-8044.002729,-222.061783
4066.003169,-666.185348,-8886.707777,296.082377
4066.003493,-1110.308913,-7737.564530,-444.123565
4066.003818,0.000000,-8733.488677,-222.061783
4066.004142,-222.061783,-7967.393179,-666.185348
4066.004466,222.061783,-8503.660028,-370.102971
4066.004791,222.061783,-8350.440928,-222.061783
4066.005115,222.061783,-8273.831378,-370.102971
4066.005439,148.041188,-8963.317327,-518.144159
4066.005764,0.000000,-8503.660028,-444.123565
4066.006088,148.041188,-8886.707777,-222.061783
4066.006412,222.061783,-8120.612279,-370.102971
4066.006737,666.185348,-8810.098227,0.000000
4066.007061,740.205942,-8273.831378,0.000000
4066.007386,1850.514855,-8273.831378,-370.102971
4066.007710,2220.617826,-8350.440928,-444.123565
4066.008034,2516.700203,-9346.365076,-518.144159
4066.008359,2294.638420,-8580.269578,0.000000
4066.008683,1850.514855,-9116.536426,-444.123565
4066.009007,1480.411884,-8580.269578,-222.061783
4066.009332,518.144159,-9039.926876,-370.102971
4066.009656,-296.082377,-9269.755526,-296.082377
4066.009980,-1036.288319,-8656.879127,-296.082377
4066.010305,-1702.473667,-8503.660028,-370.102971
4066.010629,-1406.391290,-8503.660028,-518.144159
4066.010953,-1332.370696,-8350.440928,222.061783
4066.011278,-296.082377,-8503.660028,-444.123565
4066.011602,-148.041188,-8120.612279,-666.185348
4066.011927,1258.350101,-9039.926876,-222.061783
4066.012251,0.000000,-8427.050478,-592.164754
4066.012575,0.000000,-9116.536426,-148.041188
4066.012900,-1036.288319,-7967.393179,-592.164754
4066.013224,888.247130,-9346.365076,-296.082377
4066.013548,-962.267725,-8733.488677,-592.164754
4066.013873,-444.123565,-8810.098227,74.020594
4066.014197,-222.061783,-8197.221829,-518.144159
4066.014521,222.061783,-8503.660028,-444.123565
4066.014846,1480.411884,-8427.050478,-222.061783
4066.015170,1036.288319,-8350.440928,222.061783
4066.015494,2294.638420,-9193.145976,148.041188
4066.015819,1924.535449,-8503.660028,-444.123565
4066.016143,1924.535449,-8886.707777,-222.061783
4066.016468,1554.432478,-8886.707777,-518.144159
4066.016792,370.102971,-9116.536426,0.000000
4066.017116,-444.123565,-9116.536426,-296.082377
4066.017441,-1406.391290,-8656.879127,0.000000
4066.017765,-888.247130,-8580.269578,222.061783
4066.018089,-814.226536,-7890.783629,74.020594
4066.018414,0.000000,-8044.002729,-148.041188
4066.018738,222.061783,-8120.612279,0.000000
4066.019062,814.226536,-8503.660028,-592.164754
4066.019387,148.041188,-8963.317327,-592.164754
4066.019711,814.226536,-8503.660028,-592.164754
4066.020035,222.061783,-8810.098227,-444.123565
4066.020360,0.000000,-8656.879127,0.000000
4066.020684,0.000000,-8810.098227,0.000000
4066.021009,222.061783,-8427.050478,-370.102971
4066.021333,370.102971,-8580.269578,0.000000
4066.021657,962.267725,-8197.221829,-592.164754
4066.021982,1480.411884,-8503.660028,-222.061783
4066.022306,2960.823768,-7814.174080,0.000000
4066.022630,2146.597232,-8656.879127,-148.041188
4066.022955,2516.700203,-8427.050478,-444.123565
4066.023279,1628.453072,-8656.879127,-222.061783
4066.023603,888.247130,-9576.193725,74.020594
4066.023928,296.082377,-8503.660028,-296.082377
4066.024252,-962.267725,-8810.098227,-666.185348
4066.024576,-1776.494261,-8503.660028,-518.144159
4066.024901,-444.123565,-8427.050478,-296.082377
4066.025225,-1702.473667,-8120.612279,-592.164754
4066.025550,-444.123565,-8427.050478,-518.144159
4066.025874,0.000000,-7890.783629,-592.164754
4066.026198,592.164754,-8733.488677,-592.164754
4066.026523,1110.308913,-7507.735880,-666.185348
4066.026847,1480.411884,-8963.317327,-518.144159
4066.027171,814.226536,-8963.317327,-592.164754
4066.027496,296.082377,-8886.707777,-296.082377
4066.027820,0.000000,-8963.317327,-888.247130
4066.028144,444.123565,-9039.926876,0.000000
4066.028469,-518.144159,-8503.660028,-814.226536
4066.028793,-296.082377,-9039.926876,-222.061783
4066.029117,0.000000,-8044.002729,-666.185348
4066.029442,1332.370696,-8733.488677,296.082377
4066.029766,1998.556043,-8120.612279,-666.185348
4066.030091,2516.700203,-9039.926876,-370.102971
4066.030415,2812.782580,-8580.269578,-444.123565
4066.030739,2368.659014,-8963.317327,-148.041188
4066.031064,1110.308913,-8963.317327,-370.102971
4066.031388,0.000000,-9269.755526,0.000000
4066.031712,-888.247130,-8810.098227,-740.205942
4066.032037,-1850.514855,-9039.926876,148.041188
4066.032361,-1924.535449,-8503.660028,-370.102971
4066.032685,-1850.514855,-8580.269578,0.000000
4066.033010,-1036.288319,-8044.002729,-222.061783
4066.033334,-148.041188,-7507.735880,-444.123565
4066.033658,1036.288319,-8580.269578,0.000000
4066.033983,444.123565,-7814.174080,-666.185348
4066.034307,1184.329507,-8733.488677,0.000000
4066.034632,666.185348,-8044.002729,-740.205942
4066.034956,888.247130,-9039.926876,148.041188
4066.035280,-74.020594,-8427.050478,-888.247130
4066.035605,-222.061783,-8963.317327,0.000000
4066.035929,-518.144159,-8197.221829,-296.082377
4066.036253,148.041188,-8733.488677,74.020594
4066.036578,888.247130,-7890.783629,0.000000
4066.036902,1628.453072,-8350.440928,296.082377
4066.037226,2442.679609,-8273.831378,-296.082377
4066.037551,2664.741391,-8580.269578,0.000000
4066.037875,2294.638420,-8273.831378,0.000000
4066.038199,1258.350101,-8963.317327,-222.061783
4066.038524,222.061783,-8886.707777,0.000000
4066.038848,-666.185348,-8886.707777,-444.123565
4066.039173,-1406.391290,-7814.174080,74.020594
4066.039497,-2294.638420,-8273.831378,-296.082377
4066.039821,-1998.556043,-8197.221829,-148.041188
4066.040146,-1554.432478,-8197.221829,-444.123565
4066.040470,-444.123565,-8427.050478,-74.020594
4066.040794,296.082377,-8273.831378,-666.185348
4066.041119,814.226536,-8273.831378,-370.102971
4066.041443,1036.288319,-8733.488677,-518.144159
4066.041767,592.164754,-8580.269578,-444.123565
4066.042092,592.164754,-8733.488677,-296.082377
4066.042416,0.000000,-8963.317327,-592.164754
4066.042740,-148.041188,-8810.098227,0.000000
4066.043065,-148.041188,-8580.269578,0.000000
4066.043389,74.020594,-8733.488677,-296.082377
4066.043714,814.226536,-8197.221829,-740.205942
4066.044038,1850.514855,-8656.879127,-370.102971
4066.044362,2442.679609,-8044.002729,-592.164754
4066.044687,3034.844362,-8886.707777,148.041188
4066.045011,2368.659014,-8503.660028,-444.123565
4066.045335,2368.659014,-9499.584175,0.000000
4066.045660,1258.350101,-8886.707777,-1036.288319
4066.045984,740.205942,-9576.193725,148.041188
4066.046308,-888.247130,-8273.831378,-592.164754
4066.046633,-1332.370696,-9116.536426,0.000000
4066.046957,-1184.329507,-8197.221829,-370.102971
4066.047281,-1184.329507,-8273.831378,-222.061783
4066.047606,-518.144159,-7660.954980,-518.144159
4066.047930,0.000000,-7660.954980,-518.144159
4066.048255,888.247130,-8273.831378,-666.185348
4066.048579,666.185348,-8733.488677,-888.247130
4066.048903,666.185348,-8656.879127,-444.123565
4066.049228,518.144159,-8273.831378,-518.144159
4066.049552,0.000000,-9346.365076,-296.082377
4066.049876,0.000000,-8580.269578,-518.144159
4066.050201,444.123565,-9039.926876,0.000000
4066.050525,296.082377,-7967.393179,-444.123565
4066.050849,888.247130,-8503.660028,0.000000
4066.051174,2146.597232,-8120.612279,-296.082377
4066.051498,2812.782580,-8427.050478,0.000000
4066.051822,2738.761985,-8503.660028,-444.123565
4066.052147,2220.617826,-8810.098227,-444.123565
4066.052471,2072.576638,-9039.926876,-296.082377
4066.052796,962.267725,-8656.879127,-518.144159
4066.053120,0.000000,-9422.974625,-148.041188
4066.053444,-1258.350101,-8580.269578,-740.205942
4066.053769,-1702.473667,-8810.098227,0.000000
4066.054093,-1850.514855,-8273.831378,-518.144159
4066.054417,-1702.473667,-8427.050478,-222.061783
4066.054742,-592.164754,-9422.974625,-296.082377
4066.055066,-222.061783,-7814.174080,-222.061783
4066.055390,296.082377,-8273.831378,-444.123565
4066.055715,666.185348,-8427.050478,-296.082377
4066.056039,814.226536,-8503.660028,-666.185348
4066.056363,222.061783,-9116.536426,-370.102971
4066.056688,74.020594,-9193.145976,0.000000
4066.057012,0.000000,-8963.317327,-296.082377
4066.057336,-222.061783,-8886.707777,-370.102971
4066.057661,-666.185348,-8886.707777,-222.061783
4066.057985,0.000000,-8580.269578,-444.123565
4066.058310,518.144159,-8350.440928,-518.144159
4066.058634,1776.494261,-8427.050478,0.000000
4066.058958,2220.617826,-8656.879127,-518.144159
4066.059283,2516.700203,-8656.879127,0.000000
4066.059607,2072.576638,-8810.098227,-444.123565
4066.059931,1776.494261,-9499.584175,0.000000
4066.060256,148.041188,-8810.098227,-222.061783
4066.060580,-148.041188,-9729.412825,444.123565
4066.060904,-814.226536,-8503.660028,-296.082377
4066.061229,-1480.411884,-8886.707777,-148.041188
4066.061553,-1110.308913,-8273.831378,-296.082377
4066.061877,-444.123565,-8350.440928,148.041188
4066.062202,-444.123565,-7890.783629,-296.082377
4066.062526,0.000000,-7890.783629,-444.123565
4066.062851,592.164754,-8120.612279,-666.185348
4066.063175,444.123565,-8273.831378,-518.144159
4066.063499,444.123565,-8886.707777,-148.041188
4066.063824,222.061783,-8580.269578,-444.123565
4066.064148,222.061783,-8963.317327,0.000000
4066.064472,-296.082377,-8120.612279,-444.123565
4066.064797,148.041188,-8733.488677,-296.082377
4066.065121,666.185348,-8197.221829,-370.102971
4066.065445,1554.432478,-7967.393179,-296.082377
4066.065770,2220.617826,-8197.221829,-592.164754
4066.066094,2220.617826,-7967.393179,-444.123565
4066.066418,2664.741391,-8733.488677,-222.061783
4066.066743,2294.638420,-8733.488677,-518.144159
4066.067067,2368.659014,-9346.365076,-148.041188
4066.067392,1184.329507,-8580.269578,-666.185348
4066.067716,444.123565,-8963.317327,0.000000
4066.068040,-740.205942,-8120.612279,-666.185348
4066.068365,-814.226536,-8963.317327,0.000000
4066.068689,-1110.308913,-8120.612279,-814.226536
4066.069013,-740.205942,-8503.660028,-222.061783
4066.069338,-740.205942,-8273.831378,-740.205942
4066.069662,74.020594,-8427.050478,-370.102971
4066.069986,444.123565,-8503.660028,-518.144159
4066.070311,1036.288319,-8810.098227,-814.226536
4066.070635,814.226536,-9039.926876,-814.226536
4066.070959,518.144159,-8963.317327,-518.144159
4066.071284,0.000000,-9422.974625,-518.144159
4066.071608,0.000000,-8733.488677,-592.164754
4066.071933,0.000000,-9116.536426,-666.185348
4066.072257,-148.041188,-8503.660028,-370.102971
4066.072581,0.000000,-8733.488677,-148.041188
4066.072906,444.123565,-8273.831378,-592.164754
4066.073230,1480.411884,-8273.831378,222.061783
4066.073554,1850.514855,-8810.098227,-296.082377
4066.073879,2294.638420,-9193.145976,-296.082377
4066.074203,2220.617826,-8963.317327,0.000000
4066.074527,1628.453072,-9806.022374,-518.144159
4066.074852,740.205942,-8963.317327,-370.102971
4066.075176,0.000000,-8963.317327,-518.144159
4066.075500,-814.226536,-8963.317327,-148.041188
4066.075825,-1184.329507,-8120.612279,-148.041188
4066.076149,-1110.308913,-8120.612279,-296.082377
4066.076474,-888.247130,-7967.393179,-296.082377
4066.076798,-444.123565,-8197.221829,0.000000
4066.077122,-296.082377,-7890.783629,-518.144159
4066.077447,666.185348,-8503.660028,-666.185348
4066.077771,444.123565,-8580.269578,0.000000
4066.078095,148.041188,-8963.317327,-518.144159
4066.078420,74.020594,-8427.050478,-222.061783
4066.078744,0.000000,-9729.412825,-296.082377
4066.079068,-148.041188,-8810.098227,0.000000
4066.079393,74.020594,-8197.221829,-148.041188
4066.079717,296.082377,-8580.269578,0.000000
4066.080041,1332.370696,-8044.002729,-222.061783
4066.080366,1850.514855,-8197.221829,296.082377
4066.080690,2516.700203,-8044.002729,0.000000
4066.081015,2516.700203,-8427.050478,0.000000
4066.081339,2368.659014,-8810.098227,-222.061783
4066.081663,1776.494261,-9193.145976,296.082377
4066.081988,518.144159,-8427.050478,-370.102971
4066.082312,-444.123565,-9422.974625,-148.041188
4066.082636,-1702.473667,-8120.612279,-666.185348
4066.082961,-1924.535449,-9499.584175,0.000000
