#time,accel_x,accel_y,accel_z
4190.857170,444.123565,-8427.050478,-444.123565
4190.857495,518.144159,-8503.660028,-518.144159
4190.857819,370.102971,-8886.707777,-592.164754
4190.858144,740.205942,-8580.269578,0.000000
4190.858468,518.144159,-8427.050478,-222.061783
4190.858793,296.082377,-8810.098227,-444.123565
4190.859117,444.123565,-8656.879127,-296.082377
4190.859441,370.102971,-8580.269578,-370.102971
4190.859766,444.123565,-8503.660028,-370.102971
4190.860090,296.082377,-8503.660028,-222.061783
4190.860415,222.061783,-8503.660028,-518.144159
4190.860739,518.144159,-8656.879127,0.000000
4190.861064,592.164754,-7967.393179,-444.123565
4190.861388,444.123565,-8580.269578,-518.144159
4190.861712,370.102971,-8733.488677,-222.061783
4190.862037,444.123565,-8580.269578,-296.082377
4190.862361,0.000000,-9116.536426,-296.082377
4190.862686,148.041188,-8273.831378,-296.082377
4190.863010,444.123565,-8656.879127,-370.102971
4190.863335,296.082377,-8886.707777,-370.102971
4190.863659,222.061783,-8810.098227,-444.123565
4190.863983,518.144159,-8273.831378,-370.102971
4190.864308,592.164754,-8580.269578,-444.123565
4190.864632,444.123565,-8886.707777,-296.082377
4190.864957,666.185348,-8580.269578,-444.123565
4190.865281,370.102971,-8350.440928,-222.061783
4190.865606,370.102971,-8810.098227,-370.102971
4190.865930,444.123565,-8810.098227,-592.164754
4190.866254,518.144159,-8733.488677,-740.205942
4190.866579,444.123565,-8580.269578,0.000000
4190.866903,666.185348,-8503.660028,-296.082377
4190.867228,148.041188,-8427.050478,0.000000
4190.867552,296.082377,-8503.660028,-444.123565
4190.867877,222.061783,-8427.050478,-296.082377
4190.868201,444.123565,-8810.098227,0.000000
4190.868525,592.164754,-8656.879127,-296.082377
4190.868850,518.144159,-8503.660028,0.000000
4190.869174,148.041188,-8350.440928,-296.082377
4190.869499,148.041188,-7967.393179,296.082377
4190.869823,444.123565,-8427.050478,-592.164754
4190.870148,296.082377,-8810.098227,-148.041188
4190.870472,296.082377,-8350.440928,-222.061783
4190.870796,444.123565,-8810.098227,-370.102971
4190.871121,296.082377,-8733.488677,-296.082377
4190.871445,222.061783,-8273.831378,-222.061783
4190.871770,518.144159,-8580.269578,-222.061783
4190.872094,666.185348,-8656.879127,-592.164754
4190.872419,518.144159,-8810.098227,0.000000
4190.872743,518.144159,-8886.707777,-222.061783
4190.873067,296.082377,-8503.660028,-518.144159
4190.873392,592.164754,-8580.269578,-444.123565
4190.873716,222.061783,-9039.926876,370.102971
4190.874041,222.061783,-8580.269578,-666.185348
4190.874365,222.061783,-8963.317327,74.020594
4190.874690,444.123565,-8350.440928,-222.061783
4190.875014,-222.061783,-8580.269578,-518.144159
4190.875338,-370.102971,-8580.269578,-370.102971
4190.875663,-740.205942,-8580.269578,-222.061783
4190.875987,-888.247130,-8580.269578,-740.205942
4190.876312,-1702.473667,-8733.488677,-888.247130
4190.876636,-1850.514855,-8197.221829,0.000000
4190.876961,-2072.576638,-8350.440928,-148.041188
4190.877285,-1406.391290,-8656.879127,-666.185348
4190.877609,-1184.329507,-8580.269578,-370.102971
4190.877934,-518.144159,-8580.269578,-296.082377
4190.878258,-1258.350101,-8273.831378,-740.205942
4190.878583,-1258.350101,-9269.755526,-740.205942
4190.878907,-2146.597232,-8580.269578,-518.144159
4190.879232,-2590.720797,-8810.098227,-296.082377
4190.879556,-3552.988522,-8963.317327,-518.144159
4190.879880,-3478.967927,-9116.536426,-370.102971
4190.880205,-3478.967927,-8427.050478,-444.123565
4190.880529,-2812.782580,-8810.098227,-296.082377
4190.880854,-2516.700203,-8733.488677,-148.041188
4190.881178,-2146.597232,-8656.879127,-296.082377
4190.881503,-1554.432478,-8886.707777,-592.164754
4190.881827,-2220.617826,-8733.488677,-518.144159
4190.882151,-2368.659014,-8963.317327,-814.226536
4190.882476,-3108.864956,-9039.926876,-444.123565
4190.882800,-3256.906145,-9039.926876,74.020594
4190.883125,-3627.009116,-8886.707777,0.000000
4190.883449,-3478.967927,-9193.145976,0.000000
4190.883774,-2738.761985,-8427.050478,0.000000
4190.884098,-2738.761985,-8733.488677,222.061783
4190.884422,-2220.617826,-8503.660028,-592.164754
4190.884747,-1702.473667,-8656.879127,-370.102971
4190.885071,-2072.576638,-7890.783629,148.041188
4190.885396,-1998.556043,-8273.831378,-370.102971
4190.885720,-2516.700203,-8963.317327,-444.123565
4190.886044,-2664.741391,-8656.879127,148.041188
4190.886369,-2516.700203,-8810.098227,148.041188
4190.886693,-2368.659014,-9193.145976,-444.123565
4190.887018,-2294.638420,-8503.660028,-444.123565
4190.887342,-2146.597232,-9193.145976,0.000000
4190.887667,-1554.432478,-8580.269578,-814.226536
4190.887991,-1184.329507,-8427.050478,-592.164754
4190.888315,-1480.411884,-8197.221829,-592.164754
4190.888640,-1406.391290,-8733.488677,0.000000
4190.888964,-1998.556043,-7814.174080,-888.247130
4190.889289,-1850.514855,-8656.879127,-370.102971
4190.889613,-2146.597232,-7507.735880,-370.102971
4190.889938,-2442.679609,-8503.660028,-444.123565
4190.890262,-2146.597232,-8273.831378,-148.041188
4190.890586,-1258.350101,-7584.345430,-518.144159
4190.890911,-666.185348,-8427.050478,-592.164754
4190.891235,-222.061783,-8044.002729,-444.123565
4190.891560,222.061783,-8503.660028,-666.185348
4190.891884,296.082377,-8503.660028,-518.144159
4190.892209,518.144159,-8044.002729,-814.226536
4190.892533,0.000000,-8580.269578,-740.205942
4190.892857,0.000000,-8656.879127,-444.123565
4190.893182,-666.185348,-8656.879127,-74.020594
4190.893506,-814.226536,-8963.317327,-444.123565
4190.893831,0.000000,-8886.707777,-444.123565
4190.894155,962.267725,-8273.831378,-296.082377
4190.894480,1110.308913,-8733.488677,-370.102971
4190.894804,1776.494261,-8963.317327,-814.226536
4190.895128,1258.350101,-8886.707777,-666.185348
4190.895453,888.247130,-9116.536426,-666.185348
4190.895777,0.000000,-8810.098227,-592.164754
4190.896102,-1258.350101,-9193.145976,-666.185348
4190.896426,-2812.782580,-8503.660028,0.000000
4190.896751,-2960.823768,-9193.145976,-370.102971
4190.897075,-3849.070898,-8810.098227,-370.102971
4190.897399,-3478.967927,-8733.488677,-592.164754
4190.897724,-2368.659014,-8197.221829,0.000000
4190.898048,-1924.535449,-8503.660028,-740.205942
4190.898373,-1924.535449,-8044.002729,-740.205942
4190.898697,-740.205942,-8810.098227,-444.123565
4190.899022,-1406.391290,-8350.440928,-1036.288319
4190.899346,-1480.411884,-9193.145976,0.000000
4190.899670,-1776.494261,-8503.660028,-666.185348
4190.899995,-1776.494261,-9039.926876,0.000000
4190.900319,-2590.720797,-8656.879127,-222.061783
4190.900644,-2294.638420,-8656.879127,148.041188
4190.900968,-2812.782580,-8656.879127,-518.144159
4190.901293,-1702.473667,-8886.707777,0.000000
4190.901617,-592.164754,-8733.488677,-296.082377
4190.901941,-592.164754,-8733.488677,-222.061783
4190.902266,0.000000,-8810.098227,-888.247130
4190.902590,-1110.308913,-8656.879127,0.000000
4190.902915,-1776.494261,-8886.707777,-444.123565
4190.903239,-3034.844362,-8810.098227,-148.041188
4190.903564,-3923.091493,-8656.879127,740.205942
4190.903888,-5181.441594,-8580.269578,222.061783
4190.904212,-4885.359217,-8427.050478,148.041188
4190.904537,-4145.153275,-8350.440928,222.061783
4190.904861,-2516.700203,-8273.831378,518.144159
4190.905186,-1110.308913,-8273.831378,-222.061783
4190.905510,-296.082377,-7890.783629,0.000000
4190.905835,666.185348,-8273.831378,444.123565
4190.906159,-666.185348,-7890.783629,0.000000
4190.906483,0.000000,-9269.755526,814.226536
4190.906808,-1184.329507,-8580.269578,148.041188
4190.907132,-3034.844362,-9729.412825,370.102971
4190.907457,-4219.173869,-9422.974625,-296.082377
4190.907781,-5847.626942,-8886.707777,-222.061783
4190.908106,-6069.688724,-9269.755526,0.000000
4190.908430,-5551.544565,-8120.612279,-666.185348
4190.908754,-4663.297435,-8197.221829,-222.061783
4190.909079,-2516.700203,-6588.421283,-740.205942
4190.909403,-666.185348,-7814.174080,-444.123565
4190.909728,1776.494261,-7354.516781,0.000000
4190.910052,2812.782580,-8273.831378,-740.205942
4190.910377,3182.885551,-7890.783629,-296.082377
4190.910701,3404.947333,-8350.440928,222.061783
4190.911025,2664.741391,-8733.488677,-148.041188
4190.911350,1702.473667,-9116.536426,-370.102971
4190.911674,-1036.288319,-9039.926876,-814.226536
4190.911999,-2664.741391,-9729.412825,-1628.453072
4190.912323,-4663.297435,-8886.707777,-1998.556043
4190.912648,-6217.729913,-8810.098227,-2072.576638
4190.912972,-6143.709319,-8580.269578,-1554.432478
4190.913296,-4589.276840,-7201.297681,-1924.535449
4190.913621,-2590.720797,-7967.393179,-666.185348
4190.913945,592.164754,-7124.688131,-814.226536
4190.914270,3108.864956,-8503.660028,-148.041188
4190.914594,5181.441594,-7890.783629,-370.102971
4190.914919,6883.915261,-9806.022374,370.102971
4190.915243,4663.297435,-9269.755526,-888.247130
4190.915567,1554.432478,-10801.946522,-962.267725
4190.915892,-1480.411884,-10265.679673,-592.164754
4190.916216,-4515.256246,-9499.584175,-518.144159
4190.916541,-6513.812290,-9422.974625,-296.082377
4190.916865,-7994.224174,-8427.050478,-1406.391290
4190.917190,-7698.141797,-7890.783629,-814.226536
4190.917514,-4219.173869,-7277.907231,0.000000
4190.917838,592.164754,-7431.126331,-444.123565
4190.918163,4071.132681,-6358.592633,-740.205942
4190.918487,7179.997637,-7354.516781,-370.102971
4190.918812,7476.080014,-7814.174080,-1036.288319
4190.919136,6439.791695,-9882.631924,148.041188
4190.919461,1628.453072,-9806.022374,-1110.308913
4190.919785,-2960.823768,-12180.918418,-370.102971
4190.920110,-8586.388927,-10265.679673,-1258.350101
4190.920434,-11399.171507,-10189.070123,222.061783
4190.920759,-12805.562797,-9422.974625,-444.123565
4190.921083,-11917.315666,-8044.002729,0.000000
4190.921408,-7698.141797,-7354.516781,0.000000
4190.921732,-1110.308913,-5975.544884,74.020594
4190.922057,4885.359217,-5669.106685,0.000000
4190.922381,9252.574275,-6128.763984,148.041188
4190.922706,10066.800811,-7354.516781,814.226536
4190.923030,7105.977043,-8197.221829,-444.123565
4190.923355,2368.659014,-10801.946522,1036.288319
4190.923679,-3849.070898,-10648.727422,518.144159
4190.924003,-8512.368333,-12180.918418,1184.329507
4190.924328,-12213.398043,-11031.775171,0.000000
4190.924652,-11177.109724,-11491.432470,666.185348
4190.924977,-10066.800811,-8044.002729,-1184.329507
4190.925301,-4959.379811,-7584.345430,-296.082377
4190.925626,74.020594,-6128.763984,-592.164754
4190.925950,3923.091493,-5898.935335,-370.102971
4190.926275,5921.647536,-5975.544884,-1184.329507
4190.926599,6143.709319,-5898.935335,74.020594
4190.926924,4219.173869,-7737.564530,592.164754
4190.927248,1554.432478,-8963.317327,592.164754
4190.927573,-1998.556043,-10878.556072,1258.350101
4190.927897,-3849.070898,-10648.727422,888.247130
4190.928222,-4145.153275,-10495.508323,1036.288319
4190.928546,-2516.700203,-9806.022374,-740.205942
4190.928871,-296.082377,-10189.070123,74.020594
4190.929195,666.185348,-7660.954980,-1480.411884
4190.929520,1628.453072,-7507.735880,-962.267725
4190.929844,3034.844362,-6435.202183,-962.267725
4190.930169,4737.318029,-6588.421283,-148.041188
4190.930493,4145.153275,-6894.859482,518.144159
4190.930818,3404.947333,-7814.174080,740.205942
4190.931142,2590.720797,-7431.126331,666.185348
4190.931466,2442.679609,-9806.022374,740.205942
4190.931791,3849.070898,-10725.336972,-1702.473667
4190.932115,1702.473667,-11491.432470,-1258.350101
4190.932440,-740.205942,-10189.070123,-2368.659014
4190.932764,-888.247130,-10418.898773,-1702.473667
4190.933089,-1480.411884,-8044.002729,-2072.576638
4190.933413,-1628.453072,-8044.002729,-888.247130
4190.933738,-592.164754,-6894.859482,74.020594
4190.934062,2146.597232,-6281.983084,0.000000
4190.934387,5403.503377,-6511.811733,518.144159
4190.934711,7105.977043,-6281.983084,0.000000
4190.935036,7994.224174,-8273.831378,-370.102971
4190.935360,7328.038826,-9039.926876,-1776.494261
4190.935685,-444.123565,-9806.022374,-1776.494261
4190.936009,2516.700203,-10035.851024,-2886.803174
4190.936334,-2812.782580,-11414.822920,-2442.679609
4190.936658,-3552.988522,-11108.384721,-1332.370696
4190.936983,-3701.029710,-9729.412825,-370.102971
4190.937307,-2368.659014,-9576.193725,-740.205942
4190.937632,296.082377,-7507.735880,1110.308913
4190.937956,3775.050304,-6665.030833,-296.082377
4190.938280,5995.668130,-8656.879127,814.226536
4190.938605,6883.915261,-5132.839837,-1258.350101
4190.938929,4293.194464,-8197.221829,-444.123565
4190.939254,1554.432478,-7660.954980,-814.226536
4190.939578,-1332.370696,-9269.755526,-296.082377
4190.939903,-4589.276840,-9729.412825,-1184.329507
4190.940227,-6365.771101,-10189.070123,74.020594
4190.940552,-5255.462188,-9652.803275,222.061783
4190.940876,-2664.741391,-10189.070123,222.061783
4190.941201,-1110.308913,-8886.707777,444.123565
4190.941525,1332.370696,-8503.660028,74.020594
4190.941850,3182.885551,-7354.516781,222.061783
4190.942174,1702.473667,-6435.202183,-740.205942
4190.942499,2516.700203,-7507.735880,148.041188
4190.942823,0.000000,-6971.469032,-296.082377
4190.943148,-2294.638420,-9269.755526,370.102971
4190.943472,-3478.967927,-7737.564530,0.000000
4190.943797,-3552.988522,-10265.679673,444.123565
4190.944121,-3627.009116,-9346.365076,0.000000
4190.944446,-3404.947333,-9652.803275,0.000000
4190.944770,-1702.473667,-10342.289223,518.144159
4190.945095,-370.102971,-8503.660028,0.000000
4190.945419,0.000000,-8503.660028,814.226536
4190.945743,222.061783,-6741.640382,-444.123565
4190.946068,0.000000,-7507.735880,222.061783
4190.946392,0.000000,-6894.859482,0.000000
4190.946717,-148.041188,-7584.345430,1258.350101
4190.947041,222.061783,-6894.859482,814.226536
4190.947366,1332.370696,-8273.831378,1258.350101
4190.947690,1406.391290,-8886.707777,-296.082377
4190.948015,1184.329507,-9576.193725,-814.226536
4190.948339,592.164754,-10495.508323,0.000000
4190.948664,-1628.453072,-8733.488677,-1184.329507
4190.948988,-3478.967927,-10342.289223,962.267725
4190.949313,-2146.597232,-7967.393179,-222.061783
4190.949637,-2368.659014,-9116.536426,592.164754
4190.949962,222.061783,-7201.297681,0.000000
4190.950286,4885.359217,-7431.126331,222.061783
4190.950611,4441.235652,-7354.516781,148.041188
4190.950935,4811.338623,-7277.907231,-814.226536
4190.951260,3330.926739,-7354.516781,-962.267725
4190.951584,2442.679609,-8810.098227,-222.061783
4190.951909,370.102971,-8197.221829,-1406.391290
4190.952233,-1036.288319,-9806.022374,-296.082377
4190.952557,-2590.720797,-9269.755526,-592.164754
4190.952882,-2368.659014,-10495.508323,74.020594
4190.953206,-1036.288319,-8656.879127,-444.123565
4190.953531,2146.597232,-8810.098227,222.061783
4190.953855,5181.441594,-7967.393179,-370.102971
4190.954180,6661.853478,-7277.907231,-1628.453072
4190.954504,7476.080014,-7201.297681,-1850.514855
4190.954829,6291.750507,-7507.735880,-1850.514855
4190.955153,1776.494261,-7584.345430,-1850.514855
4190.955478,370.102971,-8733.488677,-814.226536
4190.955802,-1554.432478,-9193.145976,-1036.288319
4190.956127,-2664.741391,-10495.508323,-370.102971
4190.956451,-1554.432478,-9269.755526,-962.267725
4190.956776,-148.041188,-10112.460574,-666.185348
4190.957100,2072.576638,-9882.631924,-1332.370696
4190.957425,3552.988522,-8963.317327,-1480.411884
4190.957749,3775.050304,-8886.707777,-1110.308913
4190.958074,2664.741391,-8197.221829,-1258.350101
4190.958398,666.185348,-7660.954980,-1258.350101
4190.958723,-222.061783,-8273.831378,-518.144159
4190.959047,-592.164754,-7814.174080,444.123565
4190.959372,-444.123565,-8044.002729,-222.061783
4190.959696,0.000000,-9499.584175,296.082377
4190.960020,814.226536,-9576.193725,148.041188
4190.960345,592.164754,-9576.193725,-592.164754
4190.960669,-74.020594,-9576.193725,-518.144159
4190.960994,962.267725,-8886.707777,-1184.329507
4190.961318,1036.288319,-9959.241474,74.020594
4190.961643,-1258.350101,-8963.317327,-962.267725
4190.961967,-1480.411884,-9269.755526,148.041188
4190.962292,-2442.679609,-7431.126331,0.000000
4190.962616,-444.123565,-8427.050478,370.102971
4190.962941,0.000000,-8197.221829,0.000000
4190.963265,1184.329507,-8963.317327,740.205942
4190.963590,592.164754,-7890.783629,592.164754
4190.963914,666.185348,-8427.050478,-518.144159
4190.964239,-1554.432478,-10342.289223,222.061783
4190.964563,-2664.741391,-8503.660028,0.000000
4190.964888,-3552.988522,-9269.755526,592.164754
4190.965212,-3478.967927,-9039.926876,370.102971
4190.965537,-2960.823768,-8120.612279,444.123565
4190.965861,-1480.411884,-7737.564530,1110.308913
4190.966186,1554.432478,-7967.393179,592.164754
4190.966510,2590.720797,-7354.516781,74.020594
4190.966834,4441.235652,-8427.050478,-296.082377
4190.967159,2590.720797,-8120.612279,0.000000
4190.967483,740.205942,-7890.783629,-740.205942
4190.967808,-1184.329507,-8810.098227,0.000000
4190.968132,-3256.906145,-9116.536426,296.082377
4190.968457,-4811.338623,-10342.289223,-518.144159
4190.968781,-3034.844362,-10112.460574,518.144159
4190.969106,-1332.370696,-8044.002729,-666.185348
4190.969430,-222.061783,-9806.022374,296.082377
4190.969755,2220.617826,-7277.907231,-740.205942
4190.970079,4145.153275,-8810.098227,592.164754
4190.970404,2294.638420,-7124.688131,-592.164754
4190.970728,1850.514855,-7354.516781,-740.205942
4190.971053,296.082377,-7354.516781,-666.185348
4190.971377,0.000000,-7814.174080,0.000000
4190.971702,0.000000,-8120.612279,74.020594
4190.972026,-1110.308913,-8656.879127,814.226536
4190.972351,1332.370696,-8733.488677,-222.061783
4190.972675,2664.741391,-9346.365076,-296.082377
4190.973000,4737.318029,-9422.974625,-1480.411884
4190.973324,4293.194464,-9499.584175,-1480.411884
4190.973649,3849.070898,-8503.660028,-1406.391290
4190.973973,1406.391290,-8656.879127,-888.247130
4190.974297,1998.556043,-8886.707777,-1406.391290
4190.974622,0.000000,-8656.879127,-1258.350101
4190.974946,370.102971,-8350.440928,-666.185348
4190.975271,1258.350101,-7890.783629,-592.164754
4190.975595,2738.761985,-9499.584175,-740.205942
4190.975920,3330.926739,-9039.926876,-962.267725
4190.976244,4515.256246,-8733.488677,-1702.473667
4190.976569,3330.926739,-9269.755526,-1998.556043
4190.976893,444.123565,-9346.365076,-1850.514855
4190.977218,-666.185348,-8580.269578,-1036.288319
4190.977542,-1702.473667,-9193.145976,-518.144159
4190.977867,-2072.576638,-8963.317327,-370.102971
4190.978191,-814.226536,-8580.269578,0.000000
4190.978516,296.082377,-7890.783629,-444.123565
4190.978840,1554.432478,-8656.879127,0.000000
4190.979165,3923.091493,-8044.002729,-962.267725
4190.979489,3478.967927,-8427.050478,-370.102971
4190.979814,2072.576638,-7584.345430,-1480.411884
4190.980138,1850.514855,-9499.584175,-592.164754
4190.980463,-296.082377,-9422.974625,-2516.700203
4190.980787,-2368.659014,-10112.460574,0.000000
4190.981111,-3182.885551,-9116.536426,-1480.411884
4190.981436,-1702.473667,-10265.679673,0.000000
4190.981760,-962.267725,-8733.488677,370.102971
4190.982085,592.164754,-9269.755526,296.082377
4190.982409,1110.308913,-7890.783629,0.000000
4190.982734,444.123565,-7660.954980,-740.205942
4190.983058,444.123565,-8427.050478,-666.185348
4190.983383,-2220.617826,-7277.907231,0.000000
4190.983707,-1628.453072,-8044.002729,814.226536
4190.984032,-3552.988522,-7967.393179,-148.041188
4190.984356,-2738.761985,-8503.660028,1332.370696
4190.984681,-3256.906145,-8044.002729,888.247130
4190.985005,-666.185348,-8810.098227,814.226536
4190.985330,1628.453072,-8886.707777,1258.350101
4190.985654,2220.617826,-8733.488677,148.041188
4190.985979,2294.638420,-9269.755526,592.164754
4190.986303,296.082377,-8273.831378,-814.226536
4190.986628,222.061783,-9346.365076,0.000000
4190.986952,-3849.070898,-8197.221829,-296.082377
4190.987277,-2590.720797,-9499.584175,518.144159
4190.987601,-3997.112087,-8656.879127,0.000000
4190.987926,-1850.514855,-9116.536426,1110.308913
4190.988250,-296.082377,-8273.831378,296.082377
4190.988574,1628.453072,-9116.536426,-296.082377
4190.988899,2516.700203,-8273.831378,-888.247130
4190.989223,3034.844362,-8656.879127,0.000000
4190.989548,0.000000,-8503.660028,0.000000
4190.989872,444.123565,-8044.002729,296.082377
4190.990197,-2220.617826,-7967.393179,148.041188
4190.990521,-1258.350101,-8810.098227,0.000000
4190.990846,-666.185348,-7737.564530,-296.082377
4190.991170,1554.432478,-8273.831378,0.000000
4190.991495,2960.823768,-8120.612279,74.020594
4190.991819,4367.215058,-8044.002729,-1332.370696
4190.992144,4663.297435,-9269.755526,-962.267725
4190.992468,2886.803174,-8273.831378,-2294.638420
4190.992793,1110.308913,-9576.193725,-1110.308913
4190.993117,-444.123565,-9116.536426,-1628.453072
4190.993442,-666.185348,-10112.460574,-814.226536
4190.993766,-148.041188,-9116.536426,-1184.329507
4190.994091,222.061783,-9269.755526,-666.185348
4190.994415,888.247130,-9039.926876,-1110.308913
4190.994740,3478.967927,-9039.926876,-1998.556043
4190.995064,4293.194464,-9346.365076,-1258.350101
4190.995388,3330.926739,-8120.612279,-962.267725
4190.995713,3034.844362,-8350.440928,-962.267725
4190.996037,740.205942,-7967.393179,-1998.556043
4190.996362,-1332.370696,-9039.926876,-1258.350101
4190.996686,-666.185348,-9499.584175,-592.164754
4190.997011,-740.205942,-9116.536426,-592.164754
4190.997335,740.205942,-9116.536426,148.041188
4190.997660,2442.679609,-9729.412825,-370.102971
4190.997984,3182.885551,-9116.536426,-1258.350101
4190.998309,3256.906145,-9422.974625,-740.205942
4190.998633,3627.009116,-9422.974625,-1850.514855
4190.998958,1406.391290,-8273.831378,-1406.391290
4190.999282,74.020594,-7890.783629,-666.185348
4190.999607,-962.267725,-9346.365076,370.102971
4190.999931,-1184.329507,-7814.174080,0.000000
4191.000256,-1036.288319,-9806.022374,-518.144159
4191.000580,740.205942,-8886.707777,-148.041188
4191.000905,1184.329507,-8886.707777,-444.123565
4191.001229,962.267725,-8580.269578,-222.061783
4191.001554,518.144159,-8656.879127,0.000000
4191.001878,-148.041188,-8656.879127,-296.082377
4191.002203,-1702.473667,-8427.050478,0.000000
4191.002527,-3256.906145,-7967.393179,-296.082377
4191.002851,-3701.029710,-8273.831378,296.082377
4191.003176,-3330.926739,-7584.345430,0.000000
4191.003500,-1036.288319,-8350.440928,1554.432478
4191.003825,74.020594,-7890.783629,1110.308913
4191.004149,2146.597232,-7967.393179,814.226536
4191.004474,1110.308913,-7660.954980,222.061783
4191.004798,2516.700203,-8503.660028,-888.247130
4191.005123,74.020594,-8503.660028,-370.102971
4191.005447,-592.164754,-8963.317327,-444.123565
4191.005772,-2516.700203,-9652.803275,370.102971
4191.006096,-3182.885551,-8580.269578,222.061783
4191.006421,-2960.823768,-9422.974625,222.061783
4191.006745,-740.205942,-8503.660028,666.185348
4191.007070,0.000000,-8273.831378,0.000000
4191.007394,1628.453072,-8427.050478,74.020594
4191.007719,2812.782580,-7584.345430,0.000000
4191.008043,1776.494261,-7660.954980,74.020594
4191.008368,74.020594,-7814.174080,-444.123565
4191.008692,-1554.432478,-8580.269578,148.041188
4191.009017,-2664.741391,-8963.317327,0.000000
4191.009341,-1850.514855,-9116.536426,370.102971
4191.009665,-2442.679609,-9422.974625,222.061783
4191.009990,0.000000,-9346.365076,1110.308913
4191.010314,1776.494261,-8580.269578,0.000000
4191.010639,2738.761985,-9346.365076,-296.082377
4191.010963,3627.009116,-8273.831378,-444.123565
4191.011288,3182.885551,-8120.612279,-1184.329507
4191.011612,1406.391290,-8273.831378,-1776.494261
4191.011937,296.082377,-8427.050478,-518.144159
4191.012261,-740.205942,-8886.707777,-888.247130
4191.012586,-814.226536,-9269.755526,-1480.411884
4191.012910,-888.247130,-9346.365076,-148.041188
4191.013235,592.164754,-9346.365076,-740.205942
4191.013559,2368.659014,-9116.536426,-1110.308913
4191.013884,3182.885551,-8886.707777,-1184.329507
4191.014208,3997.112087,-9193.145976,-888.247130
4191.014533,2516.700203,-7354.516781,-1406.391290
4191.014857,-222.061783,-8350.440928,-1184.329507
4191.015182,0.000000,-7967.393179,-962.267725
4191.015506,-444.123565,-8120.612279,0.000000
4191.015831,74.020594,-7431.126331,-962.267725
4191.016155,2368.659014,-8810.098227,518.144159
4191.016479,3330.926739,-8733.488677,-666.185348
4191.016804,4293.194464,-9576.193725,-1332.370696
4191.017128,3552.988522,-8656.879127,-666.185348
4191.017453,1998.556043,-9116.536426,-1332.370696
4191.017777,1036.288319,-9116.536426,-1110.308913
4191.018102,-1332.370696,-7814.174080,-444.123565
4191.018426,-2368.659014,-10189.070123,-888.247130
4191.018751,-2072.576638,-8963.317327,-888.247130
4191.019075,0.000000,-8503.660028,-296.082377
4191.019399,1924.535449,-8656.879127,-592.164754
4191.019724,3701.029710,-8427.050478,-222.061783
4191.020048,2146.597232,-8273.831378,-370.102971
4191.020372,1850.514855,-8120.612279,-296.082377
4191.020697,370.102971,-7660.954980,-814.226536
4191.021021,-2146.597232,-8656.879127,-370.102971
4191.021345,-2146.597232,-9193.145976,666.185348
4191.021670,-2442.679609,-7814.174080,0.000000
4191.021994,-2516.700203,-9346.365076,518.144159
4191.022318,-1110.308913,-7890.783629,962.267725
4191.022643,0.000000,-8273.831378,888.247130
4191.022967,2442.679609,-7890.783629,518.144159
4191.023291,2960.823768,-8733.488677,444.123565
4191.023616,3478.967927,-7890.783629,-666.185348
4191.023940,1480.411884,-8120.612279,0.000000
4191.024264,-370.102971,-6665.030833,-444.123565
4191.024589,-1850.514855,-9959.241474,0.000000
4191.024913,-2886.803174,-8886.707777,-666.185348
4191.025237,-2368.659014,-9346.365076,1258.350101
4191.025562,-2368.659014,-8120.612279,0.000000
4191.025886,-740.205942,-8886.707777,0.000000
4191.026210,1554.432478,-9576.193725,-296.082377
4191.026535,2220.617826,-8120.612279,-814.226536
4191.026859,1628.453072,-8120.612279,296.082377
4191.027183,-370.102971,-7431.126331,-740.205942
4191.027508,-1628.453072,-7967.393179,222.061783
4191.027832,-2812.782580,-8120.612279,74.020594
4191.028156,-3552.988522,-8350.440928,370.102971
4191.028481,-3256.906145,-7890.783629,0.000000
4191.028805,-592.164754,-9193.145976,592.164754
4191.029129,1036.288319,-8580.269578,0.000000
4191.029454,2220.617826,-8273.831378,0.000000
4191.029778,2368.659014,-8580.269578,-444.123565
4191.030102,2220.617826,-9039.926876,-1036.288319
4191.030427,1184.329507,-8810.098227,-1332.370696
4191.030751,444.123565,-8810.098227,-1332.370696
4191.031075,-518.144159,-9116.536426,-370.102971
4191.031399,-1406.391290,-8580.269578,-666.185348
4191.031724,444.123565,-8580.269578,296.082377
4191.032048,1702.473667,-8963.317327,370.102971
4191.032372,3034.844362,-8273.831378,-444.123565
4191.032697,3552.988522,-8963.317327,-444.123565
4191.033021,3330.926739,-8120.612279,-1036.288319
4191.033345,1850.514855,-8886.707777,-1332.370696
4191.033670,222.061783,-7967.393179,-592.164754
4191.033994,-1850.514855,-8503.660028,-518.144159
4191.034318,-2664.741391,-8503.660028,-148.041188
4191.034643,370.102971,-8350.440928,888.247130
4191.034967,1110.308913,-8350.440928,222.061783
4191.035291,3701.029710,-9193.145976,-296.082377
4191.035616,5181.441594,-7890.783629,-592.164754
4191.035940,3997.112087,-8963.317327,-1480.411884
4191.036264,3775.050304,-7890.783629,-814.226536
4191.036589,2220.617826,-8427.050478,-1702.473667
4191.036913,-592.164754,-9269.755526,-962.267725
4191.037237,-518.144159,-8963.317327,-888.247130
4191.037562,-666.185348,-9116.536426,-740.205942
4191.037886,296.082377,-9652.803275,-370.102971
4191.038210,1628.453072,-8350.440928,-370.102971
4191.038535,1776.494261,-8503.660028,0.000000
4191.038859,2590.720797,-7814.174080,0.000000
4191.039183,1776.494261,-8350.440928,-1036.288319
4191.039508,1110.308913,-8810.098227,-444.123565
4191.039832,518.144159,-8044.002729,-592.164754
4191.040156,-2664.741391,-8580.269578,-888.247130
4191.040481,-1036.288319,-8580.269578,0.000000
4191.040805,-2146.597232,-7967.393179,-148.041188
4191.041129,-1258.350101,-9499.584175,1628.453072
4191.041454,148.041188,-7660.954980,0.000000
4191.041778,1258.350101,-8963.317327,814.226536
4191.042102,2812.782580,-8273.831378,-814.226536
4191.042427,2664.741391,-8656.879127,-444.123565
4191.042751,1998.556043,-8733.488677,-1110.308913
4191.043075,-518.144159,-8810.098227,-666.185348
4191.043400,-1998.556043,-8733.488677,0.000000
4191.043724,-2738.761985,-8886.707777,-1258.350101
4191.044048,-1850.514855,-9806.022374,444.123565
4191.044373,-1628.453072,-7507.735880,0.000000
4191.044697,0.000000,-9193.145976,740.205942
4191.045021,518.144159,-8580.269578,0.000000
4191.045346,2220.617826,-8963.317327,222.061783
4191.045670,222.061783,-8273.831378,-1036.288319
4191.045994,-370.102971,-8273.831378,-444.123565
4191.046319,-3404.947333,-8733.488677,-222.061783
4191.046643,-3182.885551,-9039.926876,1036.288319
4191.046967,-3108.864956,-7584.345430,518.144159
4191.047292,-1924.535449,-8886.707777,1110.308913
4191.047616,814.226536,-8350.440928,74.020594
4191.047940,2368.659014,-8350.440928,444.123565
4191.048265,2368.659014,-8350.440928,-148.041188
4191.048589,2294.638420,-8044.002729,-296.082377
4191.048913,1332.370696,-8656.879127,-962.267725
4191.049238,1110.308913,-9346.365076,-444.123565
4191.049562,-1036.288319,-8886.707777,-444.123565
4191.049886,-2664.741391,-9039.926876,-740.205942
4191.050211,-1628.453072,-8886.707777,-296.082377
4191.050535,-148.041188,-9116.536426,-222.061783
4191.050859,1480.411884,-8886.707777,-222.061783
4191.051184,1998.556043,-8120.612279,296.082377
4191.051508,3182.885551,-8580.269578,-222.061783
4191.051832,1924.535449,-7737.564530,-1406.391290
4191.052156,1036.288319,-7967.393179,-888.247130
4191.052481,0.000000,-7660.954980,-740.205942
4191.052805,-1110.308913,-8503.660028,148.041188
4191.053129,-2812.782580,-7890.783629,-740.205942
4191.053454,-148.041188,-9422.974625,814.226536
4191.053778,1110.308913,-7814.174080,0.000000
4191.054102,3182.885551,-8427.050478,-370.102971
4191.054427,4441.235652,-8656.879127,-444.123565
4191.054751,4515.256246,-8963.317327,-1110.308913
4191.055075,2886.803174,-8963.317327,-1110.308913
4191.055400,2146.597232,-8273.831378,-1406.391290
4191.055724,888.247130,-9269.755526,-1184.329507
4191.056048,-1332.370696,-8656.879127,-740.205942
4191.056373,-370.102971,-9039.926876,-296.082377
4191.056697,-592.164754,-9116.536426,-518.144159
4191.057021,2368.659014,-8886.707777,-222.061783
4191.057346,2886.803174,-8273.831378,-666.185348
4191.057670,3775.050304,-9806.022374,-222.061783
4191.057994,2516.700203,-8273.831378,-814.226536
4191.058319,2146.597232,-8886.707777,-1332.370696
4191.058643,592.164754,-8810.098227,-1184.329507
4191.058967,-962.267725,-8886.707777,-592.164754
4191.059292,-2812.782580,-8656.879127,0.000000
4191.059616,-2442.679609,-8350.440928,740.205942
4191.059940,-962.267725,-8733.488677,370.102971
4191.060265,1036.288319,-8427.050478,0.000000
4191.060589,2590.720797,-7967.393179,-814.226536
4191.060913,2812.782580,-8810.098227,-740.205942
4191.061238,2368.659014,-8656.879127,-888.247130
4191.061562,1998.556043,-8810.098227,-814.226536
4191.061886,148.041188,-9499.584175,-1258.350101
4191.062211,-2220.617826,-8886.707777,-222.061783
4191.062535,-2812.782580,-9346.365076,-1110.308913
4191.062859,-2516.700203,-9193.145976,74.020594
4191.063184,-1184.329507,-8044.002729,0.000000
4191.063508,962.267725,-9039.926876,-222.061783
4191.063832,1036.288319,-8733.488677,148.041188
4191.064157,1480.411884,-8197.221829,-370.102971
4191.064481,592.164754,-8503.660028,-592.164754
4191.064805,-1184.329507,-7737.564530,-962.267725
4191.065130,-2590.720797,-8197.221829,518.144159
4191.065454,-4071.132681,-8044.002729,370.102971
4191.065778,-3627.009116,-8810.098227,444.123565
4191.066103,-1998.556043,-9882.631924,888.247130
4191.066427,-296.082377,-8886.707777,666.185348
4191.066751,666.185348,-8503.660028,518.144159
4191.067076,2442.679609,-8044.002729,0.000000
4191.067400,2590.720797,-8733.488677,-296.082377
4191.067724,2294.638420,-7584.345430,-222.061783
4191.068049,0.000000,-8656.879127,-444.123565
4191.068373,-1110.308913,-8810.098227,-1258.350101
4191.068697,-1702.473667,-8656.879127,-370.102971
4191.069022,-1258.350101,-7967.393179,518.144159
4191.069346,-1332.370696,-8580.269578,148.041188
4191.069670,0.000000,-8733.488677,74.020594
4191.069995,3256.906145,-9193.145976,0.000000
4191.070319,2294.638420,-8886.707777,-518.144159
4191.070643,962.267725,-8427.050478,0.000000
4191.070968,296.082377,-7890.783629,-666.185348
4191.071292,444.123565,-8733.488677,222.061783
4191.071616,-1480.411884,-8503.660028,-444.123565
4191.071941,-2442.679609,-7967.393179,-296.082377
4191.072265,-1480.411884,-8273.831378,518.144159
4191.072589,74.020594,-8044.002729,148.041188
4191.072914,2738.761985,-8810.098227,740.205942
4191.073238,4737.318029,-7890.783629,-222.061783
4191.073562,5477.523971,-8044.002729,-740.205942
4191.073886,4737.318029,-7967.393179,-962.267725
4191.074211,3182.885551,-8733.488677,-1554.432478
4191.074535,1258.350101,-9346.365076,-1702.473667
4191.074859,-222.061783,-9116.536426,-518.144159
4191.075184,-370.102971,-8580.269578,-962.267725
4191.075508,-296.082377,-9039.926876,-518.144159
4191.075832,518.144159,-9039.926876,-444.123565
4191.076157,1480.411884,-8733.488677,-888.247130
4191.076481,2368.659014,-8503.660028,-1184.329507
4191.076805,1480.411884,-8427.050478,-1406.391290
4191.077130,1332.370696,-8427.050478,-1184.329507
4191.077454,888.247130,-7814.174080,-1110.308913
4191.077778,0.000000,-8656.879127,-444.123565
4191.078103,-1184.329507,-7890.783629,-1184.329507
4191.078427,-888.247130,-9346.365076,0.000000
4191.078751,-592.164754,-8963.317327,-296.082377
4191.079076,2368.659014,-9116.536426,296.082377
4191.079400,2368.659014,-8580.269578,0.000000
4191.079724,2738.761985,-8733.488677,-518.144159
4191.080049,1406.391290,-8733.488677,-1258.350101
4191.080373,1924.535449,-9193.145976,-1850.514855
4191.080697,666.185348,-8810.098227,-1184.329507
4191.081022,-1924.535449,-8733.488677,-296.082377
4191.081346,-2812.782580,-9806.022374,-296.082377
4191.081670,-962.267725,-9116.536426,-148.041188
4191.081995,-518.144159,-9882.631924,0.000000
4191.082319,740.205942,-7890.783629,222.061783
4191.082643,2072.576638,-8427.050478,-592.164754
4191.082968,2072.576638,-8810.098227,0.000000
4191.083292,592.164754,-8733.488677,-814.226536
4191.083616,592.164754,-9039.926876,-518.144159
4191.083941,-2960.823768,-8197.221829,0.000000
4191.084265,-5033.400406,-8350.440928,148.041188
4191.084589,-4589.276840,-9193.145976,814.226536
4191.084914,-3034.844362,-8503.660028,1036.288319
4191.085238,370.102971,-8197.221829,1406.391290
4191.085562,2146.597232,-7124.688131,222.061783
4191.085887,1998.556043,-8886.707777,1406.391290
4191.086211,3404.947333,-7584.345430,-592.164754
4191.086535,3108.864956,-8656.879127,-370.102971
4191.086860,888.247130,-8810.098227,-1406.391290
4191.087184,-1184.329507,-8580.269578,222.061783
4191.087508,-3182.885551,-8580.269578,-222.061783
4191.087833,-3330.926739,-9116.536426,592.164754
4191.088157,-2442.679609,-8656.879127,518.144159
4191.088481,-666.185348,-8580.269578,444.123565
4191.088806,666.185348,-8656.879127,222.061783
4191.089130,1258.350101,-8044.002729,-518.144159
4191.089454,2516.700203,-8656.879127,444.123565
4191.089779,1776.494261,-7124.688131,-814.226536
4191.090103,444.123565,-8580.269578,296.082377
4191.090427,-518.144159,-7814.174080,-370.102971
4191.090752,-1184.329507,-8810.098227,666.185348
4191.091076,-1036.288319,-8273.831378,-222.061783
4191.091400,370.102971,-9116.536426,1110.308913
4191.091725,2590.720797,-8580.269578,74.020594
4191.092049,2442.679609,-8427.050478,-666.185348
4191.092373,3404.947333,-8427.050478,-666.185348
4191.092698,2960.823768,-8350.440928,-888.247130
4191.093022,2516.700203,-7814.174080,-1480.411884
4191.093346,962.267725,-8886.707777,-1184.329507
4191.093671,740.205942,-8963.317327,-888.247130
4191.093995,-962.267725,-8810.098227,-1406.391290
4191.094319,222.061783,-9422.974625,0.000000
4191.094643,1554.432478,-8580.269578,-888.247130
4191.094968,2368.659014,-9652.803275,-370.102971
4191.095292,2886.803174,-8503.660028,-1554.432478
4191.095616,2072.576638,-9039.926876,-666.185348
4191.095941,740.205942,-7967.393179,-1258.350101
4191.096265,296.082377,-8350.440928,-1036.288319
4191.096589,-1998.556043,-8503.660028,-1480.411884
4191.096914,-1850.514855,-8503.660028,444.123565
4191.097238,-444.123565,-7660.954980,0.000000
4191.097562,222.061783,-8350.440928,-370.102971
4191.097887,2960.823768,-9039.926876,518.144159
4191.098211,4441.235652,-8350.440928,-814.226536
4191.098535,3552.988522,-8350.440928,-740.205942
4191.098860,3478.967927,-8197.221829,-1554.432478
4191.099184,1776.494261,-8350.440928,-962.267725
4191.099508,0.000000,-9576.193725,-962.267725
4191.099833,-1332.370696,-9729.412825,-1110.308913
4191.100157,-2368.659014,-9652.803275,-962.267725
4191.100481,-2960.823768,-8810.098227,-444.123565
4191.100806,-444.123565,-9193.145976,-370.102971
4191.101130,-592.164754,-8197.221829,-74.020594
4191.101454,2886.803174,-8273.831378,0.000000
4191.101779,1554.432478,-7584.345430,-888.247130
4191.102103,1850.514855,-8580.269578,-222.061783
4191.102427,888.247130,-7354.516781,-740.205942
4191.102752,-1850.514855,-8656.879127,-592.164754
4191.103076,-2812.782580,-8886.707777,0.000000
4191.103400,-3701.029710,-8810.098227,222.061783
4191.103725,-2664.741391,-9039.926876,444.123565
4191.104049,-888.247130,-8273.831378,1480.411884
4191.104373,1628.453072,-9116.536426,-444.123565
4191.104698,2072.576638,-8427.050478,-222.061783
4191.105022,2220.617826,-7890.783629,296.082377
4191.105346,1998.556043,-8197.221829,-962.267725
4191.105671,222.061783,-8044.002729,-444.123565
4191.105995,-814.226536,-8350.440928,-370.102971
4191.106319,-1850.514855,-9422.974625,-296.082377
4191.106644,-2442.679609,-8350.440928,-370.102971
4191.106968,-2072.576638,-9576.193725,518.144159
4191.107292,-592.164754,-8503.660028,518.144159
4191.107617,518.144159,-9116.536426,148.041188
4191.107941,592.164754,-8580.269578,148.041188
4191.108265,296.082377,-7737.564530,-222.061783
4191.108590,814.226536,-8656.879127,-148.041188
4191.108914,-1110.308913,-8427.050478,-740.205942
4191.109238,-1036.288319,-8120.612279,370.102971
4191.109563,-1998.556043,-7890.783629,0.000000
4191.109887,222.061783,-8963.317327,1184.329507
4191.110211,1332.370696,-7584.345430,296.082377
4191.110536,2368.659014,-9269.755526,296.082377
4191.110860,3627.009116,-8810.098227,-370.102971
4191.111184,2886.803174,-8120.612279,-740.205942
4191.111509,2886.803174,-9346.365076,-444.123565
4191.111833,2368.659014,-8656.879127,-1036.288319
4191.112157,-740.205942,-9346.365076,-370.102971
4191.112482,-1554.432478,-9039.926876,-888.247130
4191.112806,-1480.411884,-9729.412825,-444.123565
4191.113130,0.000000,-8580.269578,-296.082377
4191.113455,1480.411884,-8273.831378,-666.185348
4191.113779,2590.720797,-8733.488677,-222.061783
4191.114103,3552.988522,-8427.050478,-592.164754
4191.114428,2664.741391,-8580.269578,-666.185348
4191.114752,2886.803174,-8810.098227,-1036.288319
4191.115076,2220.617826,-8427.050478,-1184.329507
4191.115401,-222.061783,-8580.269578,0.000000
4191.115725,-1776.494261,-8656.879127,0.000000
4191.116049,74.020594,-8886.707777,-296.082377
4191.116373,518.144159,-9499.584175,518.144159
4191.116698,2146.597232,-7507.735880,-370.102971
4191.117022,3034.844362,-9499.584175,-1036.288319
4191.117346,3849.070898,-8273.831378,-1480.411884
4191.117671,3182.885551,-8810.098227,-1110.308913
4191.117995,2886.803174,-8503.660028,-814.226536
4191.118319,0.000000,-8273.831378,-2294.638420
4191.118644,-1110.308913,-9652.803275,-888.247130
4191.118968,-1332.370696,-9729.412825,-740.205942
4191.119292,-1702.473667,-9039.926876,-1184.329507
4191.119617,-444.123565,-9116.536426,370.102971
4191.119941,518.144159,-9193.145976,-370.102971
4191.120265,1332.370696,-9499.584175,-740.205942
4191.120590,2960.823768,-8886.707777,0.000000
4191.120914,1406.391290,-8503.660028,-1850.514855
4191.121238,74.020594,-8273.831378,-1036.288319
4191.121563,-1184.329507,-7277.907231,-370.102971
4191.121887,-1924.535449,-8810.098227,148.041188
4191.122211,-2664.741391,-8273.831378,-148.041188
4191.122536,-1924.535449,-8810.098227,962.267725
4191.122860,-444.123565,-9039.926876,74.020594
4191.123184,1258.350101,-8350.440928,0.000000
4191.123509,1702.473667,-9576.193725,-222.061783
4191.123833,2368.659014,-8733.488677,-370.102971
4191.124157,1332.370696,-8503.660028,-666.185348
4191.124482,-666.185348,-9346.365076,-814.226536
4191.124806,-1998.556043,-9193.145976,-296.082377
4191.125130,-3849.070898,-9116.536426,-222.061783
4191.125455,-3478.967927,-8580.269578,-518.144159
4191.125779,-2442.679609,-8580.269578,444.123565
4191.126103,296.082377,-8350.440928,0.000000
4191.126428,1628.453072,-7967.393179,222.061783
4191.126752,1554.432478,-8044.002729,0.000000
4191.127076,1480.411884,-8656.879127,0.000000
4191.127401,222.061783,-7660.954980,-444.123565
4191.127725,370.102971,-8810.098227,-444.123565
4191.128049,-1998.556043,-7967.393179,296.082377
4191.128374,-2442.679609,-8273.831378,592.164754
4191.128698,-1850.514855,-9269.755526,1036.288319
4191.129022,-740.205942,-7660.954980,370.102971
4191.129347,814.226536,-8656.879127,1110.308913
4191.129671,1850.514855,-7890.783629,-518.144159
4191.129995,1776.494261,-8350.440928,-370.102971
4191.130320,2960.823768,-7660.954980,-888.247130
4191.130644,3034.844362,-9039.926876,-370.102971
4191.130968,1184.329507,-7814.174080,-1332.370696
4191.131293,-666.185348,-9882.631924,74.020594
4191.131617,-518.144159,-9039.926876,-370.102971
4191.131941,-222.061783,-9116.536426,0.000000
4191.132266,0.000000,-8427.050478,148.041188
4191.132590,1258.350101,-8963.317327,666.185348
4191.132915,2368.659014,-8580.269578,222.061783
4191.133239,2516.700203,-8733.488677,-1406.391290
4191.133563,3034.844362,-8350.440928,-888.247130
4191.133888,962.267725,-7890.783629,-1480.411884
4191.134212,0.000000,-8044.002729,-740.205942
4191.134536,-1628.453072,-7660.954980,0.000000
4191.134861,-814.226536,-9193.145976,148.041188
4191.135185,888.247130,-7890.783629,296.082377
4191.135509,2516.700203,-8963.317327,74.020594
4191.135834,3997.112087,-8350.440928,-370.102971
4191.136158,3256.906145,-9116.536426,-296.082377
4191.136482,4293.194464,-9039.926876,-2442.679609
4191.136807,2146.597232,-9959.241474,-592.164754
4191.137131,1554.432478,-9193.145976,-1258.350101
4191.137455,-1480.411884,-9422.974625,-1184.329507
4191.137780,-2516.700203,-8656.879127,-1702.473667
4191.138104,-1480.411884,-9269.755526,0.000000
4191.138428,-740.205942,-7737.564530,-666.185348
4191.138753,814.226536,-9806.022374,0.000000
4191.139077,2368.659014,-8580.269578,-962.267725
4191.139401,2738.761985,-9269.755526,-444.123565
4191.139726,2146.597232,-8503.660028,-1258.350101
4191.140050,592.164754,-9116.536426,-1554.432478
4191.140374,-740.205942,-8810.098227,-296.082377
4191.140699,-1702.473667,-8963.317327,0.000000
4191.141023,-1924.535449,-9729.412825,-296.082377
4191.141347,-1776.494261,-8733.488677,0.000000
4191.141672,148.041188,-8350.440928,592.164754
4191.141996,962.267725,-8580.269578,148.041188
4191.142320,2294.638420,-8197.221829,-370.102971
4191.142645,2516.700203,-8580.269578,-518.144159
4191.142969,1776.494261,-8580.269578,-962.267725
4191.143293,888.247130,-8963.317327,-518.144159
4191.143618,-592.164754,-9269.755526,-1406.391290
4191.143942,-2368.659014,-9346.365076,-296.082377
4191.144266,-2368.659014,-9346.365076,0.000000
4191.144591,-1702.473667,-8886.707777,0.000000
4191.144915,-1258.350101,-9269.755526,962.267725
4191.145239,0.000000,-8350.440928,444.123565
4191.145564,296.082377,-8427.050478,0.000000
4191.145888,814.226536,-8350.440928,-296.082377
4191.146212,1110.308913,-8044.002729,-444.123565
4191.146537,-518.144159,-7737.564530,0.000000
4191.146861,-2220.617826,-7890.783629,518.144159
4191.147185,-2072.576638,-7890.783629,592.164754
4191.147510,-2516.700203,-7967.393179,518.144159
4191.147834,0.000000,-8350.440928,1480.411884
4191.148158,1406.391290,-8427.050478,444.123565
4191.148483,3330.926739,-8810.098227,296.082377
4191.148807,3034.844362,-8044.002729,74.020594
4191.149131,1184.329507,-8350.440928,-222.061783
4191.149456,1702.473667,-8733.488677,-888.247130
4191.149780,-222.061783,-8503.660028,-444.123565
4191.150104,-592.164754,-9346.365076,-296.082377
4191.150429,-1924.535449,-8120.612279,-666.185348
4191.150753,-1406.391290,-8886.707777,148.041188
4191.151077,0.000000,-8120.612279,592.164754
4191.151402,1628.453072,-8120.612279,-296.082377
4191.151726,2516.700203,-8580.269578,0.000000
4191.152050,2220.617826,-8427.050478,-370.102971
4191.152375,3108.864956,-7814.174080,-1110.308913
4191.152699,-1480.411884,-9116.536426,-1184.329507
4191.153023,2590.720797,-8886.707777,-666.185348
4191.153348,-2368.659014,-7354.516781,222.061783
4191.153672,-1554.432478,-9116.536426,296.082377
4191.153996,0.000000,-7890.783629,148.041188
4191.154321,1406.391290,-8120.612279,222.061783
4191.154645,3478.967927,-8350.440928,-666.185348
4191.154969,4145.153275,-8120.612279,-1998.556043
4191.155294,3478.967927,-9499.584175,-592.164754
4191.155618,2886.803174,-8350.440928,-2146.597232
4191.155942,740.205942,-8810.098227,-1406.391290
4191.156267,-370.102971,-9652.803275,-1924.535449
4191.156591,-814.226536,-9882.631924,-444.123565
4191.156915,-888.247130,-9346.365076,0.000000
4191.157240,-740.205942,-8656.879127,-1332.370696
4191.157564,1480.411884,-9346.365076,74.020594
4191.157888,3552.988522,-9422.974625,-1036.288319
4191.158213,2368.659014,-8733.488677,-1258.350101
4191.158537,2220.617826,-9346.365076,-666.185348
4191.158861,0.000000,-8273.831378,-1702.473667
4191.159186,-1184.329507,-8733.488677,-888.247130
4191.159510,-518.144159,-8273.831378,-222.061783
4191.159834,-1702.473667,-9269.755526,0.000000
4191.160159,-962.267725,-8580.269578,370.102971
4191.160483,-370.102971,-8427.050478,0.000000
4191.160807,740.205942,-9039.926876,-222.061783
4191.161132,2442.679609,-8656.879127,-370.102971
4191.161456,3182.885551,-8427.050478,-962.267725
4191.161780,2738.761985,-9422.974625,-962.267725
4191.162105,666.185348,-8197.221829,-1184.329507
4191.162429,-888.247130,-9959.241474,-740.205942
4191.162753,-1702.473667,-8733.488677,-888.247130
4191.163078,-2220.617826,-8656.879127,444.123565
4191.163402,-1924.535449,-8733.488677,0.000000
4191.163726,-296.082377,-7354.516781,1184.329507
4191.164051,-370.102971,-8044.002729,0.000000
4191.164375,740.205942,-9116.536426,-518.144159
4191.164699,814.226536,-7814.174080,-518.144159
4191.165024,1184.329507,-8427.050478,-74.020594
4191.165348,0.000000,-7967.393179,-296.082377
4191.165672,-2146.597232,-7584.345430,148.041188
4191.165997,-2738.761985,-8427.050478,814.226536
4191.166321,-1628.453072,-8197.221829,740.205942
4191.166645,-296.082377,-8503.660028,814.226536
4191.166970,814.226536,-7660.954980,962.267725
4191.167294,3034.844362,-8656.879127,666.185348
4191.167618,3108.864956,-7584.345430,0.000000
4191.167943,2738.761985,-8733.488677,-518.144159
4191.168267,1184.329507,-8197.221829,-296.082377
4191.168591,-222.061783,-8427.050478,-518.144159
4191.168916,-1036.288319,-9039.926876,0.000000
4191.169240,-2294.638420,-8197.221829,444.123565
4191.169564,-962.267725,-8503.660028,518.144159
4191.169889,740.205942,-8427.050478,1110.308913
4191.170213,2146.597232,-8350.440928,-592.164754
4191.170537,2294.638420,-8810.098227,-222.061783
4191.170862,3256.906145,-8044.002729,0.000000
4191.171186,1406.391290,-8580.269578,-1332.370696
4191.171510,666.185348,-8810.098227,-592.164754
4191.171835,-1480.411884,-7967.393179,148.041188
4191.172159,-2886.803174,-9116.536426,-518.144159
4191.172483,-2738.761985,-8503.660028,222.061783
4191.172808,-1184.329507,-8733.488677,592.164754
4191.173132,592.164754,-8120.612279,-222.061783
4191.173456,2886.803174,-8580.269578,0.000000
4191.173781,3404.947333,-8273.831378,-814.226536
4191.174105,3330.926739,-9193.145976,-1406.391290
4191.174429,3330.926739,-8120.612279,-1406.391290
4191.174754,2072.576638,-9193.145976,-1702.473667
4191.175078,296.082377,-8427.050478,-1850.514855
4191.175402,-888.247130,-10189.070123,-296.082377
4191.175727,-740.205942,-8120.612279,-1776.494261
4191.176051,-592.164754,-9346.365076,0.000000
4191.176375,666.185348,-7890.783629,-740.205942
4191.176700,1702.473667,-9652.803275,0.000000
4191.177024,1554.432478,-7967.393179,-1628.453072
4191.177348,2590.720797,-9193.145976,-1110.308913
4191.177673,1998.556043,-7814.174080,-1850.514855
4191.177997,740.205942,-8733.488677,-1480.411884
4191.178321,666.185348,-8197.221829,-666.185348
4191.178646,0.000000,-8580.269578,0.000000
4191.178970,222.061783,-9039.926876,-222.061783
4191.179294,740.205942,-8963.317327,-444.123565
4191.179619,1554.432478,-8963.317327,-444.123565
4191.179943,1184.329507,-8580.269578,-370.102971
4191.180267,1998.556043,-8503.660028,-1258.350101
4191.180592,1036.288319,-8120.612279,-888.247130
4191.180916,0.000000,-9269.755526,-962.267725
4191.181240,-592.164754,-8963.317327,-1924.535449
4191.181565,-1332.370696,-8886.707777,-518.144159
4191.181889,-666.185348,-8733.488677,-296.082377
4191.182213,-296.082377,-7814.174080,-296.082377
4191.182538,1332.370696,-8963.317327,518.144159
4191.182862,1406.391290,-9116.536426,888.247130
4191.183186,2590.720797,-8580.269578,-1110.308913
4191.183511,1406.391290,-9193.145976,-370.102971
4191.183835,592.164754,-7814.174080,-740.205942
4191.184159,-1332.370696,-7967.393179,-1036.288319
4191.184484,-1998.556043,-9193.145976,1036.288319
4191.184808,-2664.741391,-7660.954980,370.102971
4191.185132,-2368.659014,-8810.098227,518.144159
4191.185457,-1554.432478,-7890.783629,1110.308913
4191.185781,1924.535449,-7737.564530,444.123565
4191.186105,4663.297435,-7660.954980,74.020594
4191.186430,2220.617826,-10342.289223,-296.082377
4191.186754,4145.153275,-8503.660028,370.102971
4191.187078,0.000000,-6894.859482,-296.082377
4191.187403,222.061783,-9193.145976,-888.247130
4191.187727,-518.144159,-8197.221829,296.082377
4191.188051,-3034.844362,-9269.755526,-148.041188
4191.188376,-2368.659014,-8886.707777,592.164754
4191.188700,-2146.597232,-7890.783629,-666.185348
4191.189024,-740.205942,-9959.241474,1406.391290
4191.189349,1332.370696,-6971.469032,-1110.308913
4191.189673,1776.494261,-9039.926876,-148.041188
4191.189997,666.185348,-8733.488677,-962.267725
4191.190322,1554.432478,-7354.516781,-518.144159
4191.190646,-1258.350101,-8963.317327,148.041188
4191.190970,-1184.329507,-8427.050478,74.020594
4191.191295,-740.205942,-8120.612279,222.061783
4191.191619,148.041188,-8733.488677,592.164754
4191.191943,1776.494261,-8273.831378,962.267725
4191.192268,2368.659014,-8656.879127,-740.205942
4191.192592,3404.947333,-8656.879127,-296.082377
4191.192916,2442.679609,-8427.050478,-888.247130
4191.193241,3182.885551,-9346.365076,-1332.370696
4191.193565,1480.411884,-8810.098227,-740.205942
4191.193889,518.144159,-9269.755526,-592.164754
4191.194214,-1702.473667,-8503.660028,-1480.411884
4191.194538,-2294.638420,-8886.707777,-296.082377
4191.194862,-296.082377,-9422.974625,370.102971
4191.195187,962.267725,-8963.317327,-518.144159
4191.195511,2368.659014,-9499.584175,-1036.288319
4191.195835,2590.720797,-8886.707777,-1110.308913
4191.196160,2072.576638,-8886.707777,-1258.350101
4191.196484,814.226536,-9039.926876,-1258.350101
4191.196808,-518.144159,-8580.269578,-1258.350101
4191.197133,-962.267725,-9193.145976,0.000000
4191.197457,-1998.556043,-8656.879127,222.061783
4191.197781,-2294.638420,-7507.735880,0.000000
4191.198106,370.102971,-9193.145976,444.123565
4191.198430,2590.720797,-7660.954980,-370.102971
4191.198754,2664.741391,-8963.317327,-592.164754
4191.199079,4737.318029,-8733.488677,-1110.308913
4191.199403,2664.741391,-8656.879127,-1480.411884
4191.199727,1702.473667,-9193.145976,-1258.350101
4191.200052,148.041188,-9193.145976,-1110.308913
4191.200376,-1554.432478,-9576.193725,-962.267725
4191.200700,-2368.659014,-9116.536426,-592.164754
4191.201025,-1702.473667,-9116.536426,-296.082377
4191.201349,-1628.453072,-8810.098227,0.000000
4191.201673,222.061783,-8503.660028,-444.123565
4191.201998,1628.453072,-8963.317327,-296.082377
4191.202322,1554.432478,-8120.612279,-592.164754
4191.202646,0.000000,-8120.612279,-1258.350101
4191.202971,666.185348,-7967.393179,-1036.288319
4191.203295,-1924.535449,-8810.098227,518.144159
4191.203619,-2220.617826,-8963.317327,0.000000
4191.203944,-1554.432478,-8656.879127,296.082377
4191.204268,-370.102971,-8120.612279,1406.391290
4191.204592,1702.473667,-8656.879127,666.185348
4191.204917,3478.967927,-8044.002729,-296.082377
4191.205241,2812.782580,-9576.193725,222.061783
4191.205565,3701.029710,-8273.831378,-888.247130
4191.205890,1850.514855,-8580.269578,-1036.288319
4191.206214,148.041188,-9806.022374,-666.185348
4191.206538,-2146.597232,-8350.440928,222.061783
4191.206863,-2368.659014,-9039.926876,-296.082377
4191.207187,-2368.659014,-9652.803275,296.082377
4191.207511,-2146.597232,-8580.269578,518.144159
4191.207836,222.061783,-9039.926876,962.267725
4191.208160,740.205942,-7967.393179,-370.102971
4191.208484,1924.535449,-8427.050478,-370.102971
4191.208809,3552.988522,-8733.488677,74.020594
4191.209133,296.082377,-7048.078582,-1036.288319
4191.209457,-370.102971,-9116.536426,1258.350101
4191.209782,-2072.576638,-7048.078582,-1184.329507
4191.210106,-1184.329507,-9269.755526,1110.308913
4191.210430,1110.308913,-8427.050478,740.205942
4191.210755,1036.288319,-7967.393179,1258.350101
4191.211079,1332.370696,-7814.174080,666.185348
4191.211403,2294.638420,-8273.831378,-148.041188
4191.211728,3330.926739,-8810.098227,-444.123565
4191.212052,2590.720797,-7814.174080,-1998.556043
4191.212376,1850.514855,-8963.317327,148.041188
4191.212701,74.020594,-7967.393179,-1702.473667
4191.213025,-666.185348,-9652.803275,-222.061783
4191.213349,-518.144159,-8044.002729,-1184.329507
4191.213674,-592.164754,-9039.926876,74.020594
4191.213998,814.226536,-8503.660028,-296.082377
4191.214322,1628.453072,-8503.660028,-444.123565
4191.214647,2368.659014,-9193.145976,-740.205942
4191.214971,2368.659014,-8580.269578,-888.247130
4191.215295,-148.041188,-8963.317327,-2072.576638
4191.215620,0.000000,-8350.440928,-1110.308913
4191.215944,-740.205942,-8427.050478,0.000000
4191.216268,-2072.576638,-8503.660028,-962.267725
4191.216593,-296.082377,-9269.755526,222.061783
4191.216917,74.020594,-8197.221829,74.020594
4191.217241,3849.070898,-8733.488677,-666.185348
4191.217566,3997.112087,-8580.269578,-740.205942
4191.217890,3775.050304,-9269.755526,-1406.391290
4191.218215,3627.009116,-8810.098227,-1332.370696
4191.218539,666.185348,-8350.440928,-1850.514855
4191.218863,0.000000,-10189.070123,-888.247130
4191.219188,-1184.329507,-8350.440928,-1480.411884
4191.219512,-3182.885551,-9269.755526,-518.144159
4191.219836,-1628.453072,-9269.755526,-1184.329507
4191.220161,-2368.659014,-8810.098227,-370.102971
4191.220485,-148.041188,-9576.193725,-592.164754
4191.220809,1332.370696,-8810.098227,-518.144159
4191.221134,1332.370696,-8810.098227,-1184.329507
4191.221458,1776.494261,-8886.707777,-1480.411884
4191.221782,592.164754,-8197.221829,-1184.329507
4191.222107,-444.123565,-9116.536426,-444.123565
4191.222431,-1998.556043,-8427.050478,222.061783
4191.222755,-1406.391290,-8273.831378,1110.308913
4191.223080,370.102971,-8273.831378,1332.370696
4191.223404,814.226536,-8197.221829,518.144159
4191.223729,2812.782580,-8580.269578,222.061783
4191.224053,2294.638420,-8197.221829,-962.267725
4191.224377,1406.391290,-9039.926876,-1036.288319
4191.224702,444.123565,-7660.954980,-1036.288319
4191.225026,-1184.329507,-8350.440928,296.082377
4191.225350,-1924.535449,-8503.660028,222.061783
4191.225675,-962.267725,-8580.269578,-444.123565
4191.225999,296.082377,-8197.221829,518.144159
4191.226323,370.102971,-7584.345430,518.144159
4191.226648,370.102971,-8120.612279,0.000000
4191.226972,888.247130,-8197.221829,814.226536
4191.227296,1184.329507,-8197.221829,518.144159
4191.227621,2294.638420,-8120.612279,-296.082377
4191.227945,370.102971,-7890.783629,-518.144159
4191.228270,-296.082377,-8810.098227,0.000000
4191.228594,-2516.700203,-8427.050478,296.082377
4191.228918,-370.102971,-9039.926876,148.041188
4191.229243,-1406.391290,-8120.612279,1110.308913
4191.229567,370.102971,-7814.174080,1628.453072
4191.229891,2072.576638,-7967.393179,814.226536
4191.230216,3256.906145,-8503.660028,370.102971
4191.230540,3923.091493,-8656.879127,-740.205942
4191.230864,3997.112087,-8810.098227,-1998.556043
4191.231189,1554.432478,-8733.488677,-666.185348
4191.231513,0.000000,-8427.050478,-888.247130
4191.231837,-1850.514855,-9116.536426,148.041188
4191.232162,-2368.659014,-8580.269578,-444.123565
4191.232486,-962.267725,-9806.022374,0.000000
4191.232811,-888.247130,-7967.393179,-148.041188
4191.233135,1110.308913,-8197.221829,-962.267725
4191.233459,2368.659014,-9039.926876,-444.123565
4191.233784,1924.535449,-8120.612279,-1258.350101
4191.234108,1258.350101,-9039.926876,-1258.350101
4191.234432,1110.308913,-8120.612279,-814.226536
4191.234757,74.020594,-9269.755526,-444.123565
4191.235081,-1554.432478,-8273.831378,-1184.329507
4191.235405,0.000000,-9193.145976,740.205942
4191.235730,518.144159,-8503.660028,-666.185348
4191.236054,1110.308913,-9652.803275,0.000000
4191.236379,2072.576638,-8503.660028,-1258.350101
4191.236703,2368.659014,-9193.145976,-1036.288319
4191.237027,2368.659014,-8810.098227,-1850.514855
4191.237352,1406.391290,-9269.755526,-1554.432478
4191.237676,-814.226536,-9116.536426,-1628.453072
4191.238000,-1702.473667,-9346.365076,-740.205942
4191.238325,-1776.494261,-9116.536426,-1258.350101
4191.238649,-962.267725,-7967.393179,-740.205942
4191.238973,962.267725,-8810.098227,0.000000
4191.239298,888.247130,-8810.098227,-666.185348
4191.239622,2146.597232,-9346.365076,-148.041188
4191.239946,1702.473667,-8810.098227,-1184.329507
4191.240271,1480.411884,-9346.365076,-296.082377
4191.240595,-370.102971,-7890.783629,-1258.350101
4191.240920,-1110.308913,-9346.365076,-296.082377
4191.241244,-2072.576638,-8120.612279,-296.082377
4191.241568,-1406.391290,-8273.831378,666.185348
4191.241893,-888.247130,-8044.002729,814.226536
4191.242217,2072.576638,-7584.345430,740.205942
4191.242541,2590.720797,-8273.831378,222.061783
4191.242866,2960.823768,-8503.660028,-814.226536
4191.243190,2812.782580,-8120.612279,-888.247130
4191.243514,2516.700203,-8350.440928,-740.205942
4191.243839,666.185348,-9116.536426,-222.061783
4191.244163,-1406.391290,-9116.536426,-370.102971
4191.244488,-3108.864956,-8580.269578,222.061783
4191.244812,-1998.556043,-8733.488677,518.144159
4191.245136,-1628.453072,-7967.393179,592.164754
4191.245461,-222.061783,-8580.269578,814.226536
4191.245785,1036.288319,-7584.345430,0.000000
4191.246109,1110.308913,-7737.564530,0.000000
4191.246434,2220.617826,-8044.002729,222.061783
4191.246758,740.205942,-7201.297681,-666.185348
4191.247082,-592.164754,-8350.440928,518.144159
4191.247407,-1480.411884,-7890.783629,296.082377
4191.247731,-1480.411884,-8963.317327,222.061783
4191.248055,-370.102971,-8427.050478,1258.350101
4191.248380,518.144159,-7660.954980,1110.308913
4191.248704,1702.473667,-8810.098227,148.041188
4191.249029,2442.679609,-8197.221829,0.000000
4191.249353,4219.173869,-8886.707777,74.020594
4191.249677,2220.617826,-7584.345430,-1480.411884
4191.250002,1628.453072,-8963.317327,0.000000
4191.250326,0.000000,-7584.345430,-1332.370696
4191.250650,-814.226536,-9269.755526,0.000000
4191.250975,-1924.535449,-8044.002729,-518.144159
4191.251299,-962.267725,-8886.707777,0.000000
4191.251623,-814.226536,-8120.612279,-148.041188
4191.251948,1036.288319,-9269.755526,-296.082377
4191.252272,592.164754,-8886.707777,-666.185348
4191.252596,814.226536,-9193.145976,-1702.473667
4191.252921,518.144159,-8580.269578,-1554.432478
4191.253245,0.000000,-8963.317327,-888.247130
4191.253570,74.020594,-7431.126331,222.061783
4191.253894,74.020594,-8580.269578,0.000000
4191.254218,-888.247130,-9806.022374,-592.164754
4191.254543,1036.288319,-8427.050478,888.247130
4191.254867,1628.453072,-7660.954980,0.000000
4191.255191,3256.906145,-8886.707777,-592.164754
4191.255516,4219.173869,-8810.098227,-592.164754
4191.255840,2220.617826,-9346.365076,-1702.473667
4191.256164,1776.494261,-9269.755526,-1702.473667
4191.256489,370.102971,-9806.022374,-1480.411884
4191.256813,-1110.308913,-8963.317327,-1850.514855
4191.257138,-2516.700203,-8810.098227,-370.102971
4191.257462,-1258.350101,-8810.098227,148.041188
4191.257786,0.000000,-8350.440928,-222.061783
4191.258111,1184.329507,-9269.755526,-222.061783
4191.258435,1036.288319,-8733.488677,-962.267725
4191.258759,1850.514855,-8656.879127,-666.185348
4191.259084,666.185348,-8656.879127,-2294.638420
4191.259408,-962.267725,-9729.412825,-592.164754
4191.259732,-2146.597232,-8580.269578,-592.164754
4191.260057,-2664.741391,-8963.317327,74.020594
4191.260381,-2368.659014,-8273.831378,148.041188
4191.260705,-592.164754,-8580.269578,0.000000
4191.261030,1480.411884,-8656.879127,74.020594
4191.261354,2812.782580,-8503.660028,740.205942
4191.261679,3701.029710,-7890.783629,0.000000
4191.262003,3997.112087,-7890.783629,-888.247130
4191.262327,2072.576638,-8120.612279,-888.247130
4191.262652,1628.453072,-8810.098227,-1258.350101
4191.262976,-222.061783,-9116.536426,0.000000
4191.263300,-2368.659014,-9193.145976,-518.144159
4191.263625,-1776.494261,-9499.584175,592.164754
4191.263949,-1702.473667,-8503.660028,0.000000
4191.264273,0.000000,-9499.584175,666.185348
4191.264598,1628.453072,-7124.688131,0.000000
4191.264922,1850.514855,-8120.612279,0.000000
4191.265247,1850.514855,-7737.564530,-740.205942
4191.265571,1110.308913,-8044.002729,148.041188
4191.265895,-1110.308913,-7890.783629,-666.185348
4191.266220,-888.247130,-8886.707777,740.205942
4191.266544,-1554.432478,-7660.954980,0.000000
4191.266868,-740.205942,-9806.022374,1184.329507
4191.267193,666.185348,-8044.002729,666.185348
4191.267517,1998.556043,-9116.536426,74.020594
4191.267841,2368.659014,-8733.488677,-148.041188
4191.268166,3404.947333,-8427.050478,74.020594
4191.268490,1332.370696,-7584.345430,-814.226536
4191.268814,962.267725,-9116.536426,222.061783
4191.269139,740.205942,-7890.783629,-1628.453072
4191.269463,-518.144159,-9193.145976,148.041188
4191.269788,-1776.494261,-8197.221829,-814.226536
4191.270112,-740.205942,-8886.707777,444.123565
4191.270436,962.267725,-8503.660028,0.000000
4191.270761,1406.391290,-8810.098227,0.000000
4191.271085,1776.494261,-8273.831378,-814.226536
4191.271409,2294.638420,-8733.488677,-1110.308913
4191.271734,-148.041188,-8197.221829,-962.267725
4191.272058,-444.123565,-8197.221829,-1110.308913
4191.272382,-666.185348,-8886.707777,-148.041188
4191.272707,-2738.761985,-9116.536426,-370.102971
4191.273031,-296.082377,-8733.488677,222.061783
4191.273355,518.144159,-7967.393179,666.185348
4191.273680,1480.411884,-8503.660028,74.020594
4191.274004,3923.091493,-8580.269578,-814.226536
4191.274329,4219.173869,-9806.022374,-518.144159
4191.274653,3108.864956,-8427.050478,-2294.638420
4191.274977,2294.638420,-9193.145976,-888.247130
4191.275302,0.000000,-9116.536426,-1110.308913
4191.275626,-1258.350101,-9346.365076,-814.226536
4191.275950,-1924.535449,-8886.707777,-740.205942
4191.276275,-1480.411884,-9269.755526,0.000000
4191.276599,-962.267725,-8427.050478,-296.082377
4191.276923,0.000000,-9193.145976,296.082377
4191.277248,962.267725,-8963.317327,-962.267725
4191.277572,1628.453072,-9039.926876,-592.164754
4191.277897,1628.453072,-7967.393179,-1850.514855
4191.278221,370.102971,-8580.269578,-592.164754
4191.278545,-1184.329507,-8427.050478,-296.082377
4191.278870,-1332.370696,-9039.926876,74.020594
4191.279194,-1480.411884,-8733.488677,0.000000
4191.279518,-1184.329507,-9193.145976,592.164754
4191.279843,740.205942,-8427.050478,0.000000
4191.280167,2220.617826,-8503.660028,-148.041188
4191.280491,3256.906145,-8656.879127,-222.061783
4191.280816,2738.761985,-8503.660028,-1406.391290
4191.281140,518.144159,-7814.174080,-962.267725
4191.281464,370.102971,-8810.098227,-666.185348
4191.281789,-1332.370696,-8580.269578,-888.247130
4191.282113,-1776.494261,-8733.488677,296.082377
4191.282438,-1924.535449,-8580.269578,0.000000
4191.282762,-1332.370696,-8350.440928,296.082377
4191.283086,-370.102971,-7967.393179,74.020594
4191.283411,1480.411884,-8886.707777,-666.185348
4191.283735,2368.659014,-8120.612279,-1184.329507
4191.284059,2886.803174,-8427.050478,-814.226536
4191.284384,666.185348,-8503.660028,-518.144159
4191.284708,-666.185348,-8273.831378,148.041188
4191.285032,-814.226536,-8350.440928,592.164754
4191.285357,-1184.329507,-8733.488677,1036.288319
4191.285681,-2072.576638,-7890.783629,74.020594
4191.286006,0.000000,-8963.317327,740.205942
4191.286330,1554.432478,-8656.879127,148.041188
4191.286654,2294.638420,-8580.269578,222.061783
4191.286979,3478.967927,-8044.002729,0.000000
4191.287303,3256.906145,-8503.660028,-888.247130
4191.287627,888.247130,-8733.488677,-1184.329507
4191.287952,0.000000,-9193.145976,-296.082377
4191.288276,-1184.329507,-8656.879127,-814.226536
4191.288600,-2220.617826,-9116.536426,-444.123565
4191.288925,-1258.350101,-8733.488677,0.000000
4191.289249,-592.164754,-8656.879127,222.061783
4191.289573,592.164754,-8580.269578,148.041188
4191.289898,2442.679609,-8580.269578,-148.041188
4191.290222,2886.803174,-8427.050478,-888.247130
4191.290547,2590.720797,-8350.440928,-888.247130
4191.290871,1554.432478,-7354.516781,-1184.329507
4191.291195,-222.061783,-8656.879127,74.020594
4191.291520,148.041188,-8427.050478,444.123565
4191.291844,-518.144159,-9499.584175,296.082377
4191.292168,148.041188,-8427.050478,-148.041188
4191.292493,1406.391290,-8656.879127,-74.020594
4191.292817,1406.391290,-8886.707777,-370.102971
4191.293141,2294.638420,-8656.879127,-222.061783
4191.293466,2294.638420,-7967.393179,-1554.432478
4191.293790,1036.288319,-8963.317327,-1258.350101
4191.294114,0.000000,-8733.488677,-1554.432478
4191.294439,-1258.350101,-8733.488677,-1110.308913
4191.294763,-1776.494261,-9039.926876,-222.061783
4191.295088,-1332.370696,-9422.974625,-222.061783
4191.295412,-666.185348,-9576.193725,-1406.391290
4191.295736,1110.308913,-8580.269578,222.061783
4191.296061,740.205942,-9039.926876,-222.061783
4191.296385,1628.453072,-8810.098227,-1110.308913
4191.296709,2590.720797,-8503.660028,-1036.288319
4191.297034,444.123565,-8733.488677,-666.185348
4191.297358,0.000000,-8503.660028,-1110.308913
4191.297682,-1184.329507,-8503.660028,74.020594
4191.298007,-1776.494261,-8886.707777,0.000000
4191.298331,-962.267725,-8656.879127,296.082377
4191.298656,518.144159,-8427.050478,296.082377
4191.298980,2294.638420,-9116.536426,-222.061783
4191.299304,3034.844362,-8580.269578,-814.226536
4191.299629,2590.720797,-9039.926876,-370.102971
4191.299953,1110.308913,-8427.050478,-1258.350101
4191.300277,1036.288319,-8733.488677,-1258.350101
4191.300602,-1332.370696,-9116.536426,-370.102971
4191.300926,-1332.370696,-8963.317327,-148.041188
4191.301250,-1998.556043,-8656.879127,-518.144159
4191.301575,-1332.370696,-8886.707777,-148.041188
4191.301899,-666.185348,-8120.612279,518.144159
4191.302223,666.185348,-8197.221829,0.000000
4191.302548,1776.494261,-7737.564530,-740.205942
4191.302872,1554.432478,-8273.831378,444.123565
4191.303197,1406.391290,-7660.954980,-1184.329507
4191.303521,296.082377,-8120.612279,-296.082377
4191.303845,-222.061783,-7277.907231,518.144159
4191.304170,-592.164754,-9346.365076,592.164754
4191.304494,0.000000,-8733.488677,518.144159
4191.304818,-74.020594,-8120.612279,1036.288319
4191.305143,2368.659014,-8120.612279,222.061783
4191.305467,1776.494261,-7814.174080,-370.102971
4191.305791,3330.926739,-9116.536426,0.000000
4191.306116,2146.597232,-7890.783629,-888.247130
4191.306440,1110.308913,-8503.660028,-592.164754
4191.306764,-370.102971,-8810.098227,-814.226536
4191.307089,-1406.391290,-9193.145976,222.061783
4191.307413,-2368.659014,-8273.831378,-814.226536
4191.307738,-222.061783,-8580.269578,666.185348
4191.308062,1480.411884,-8273.831378,0.000000
4191.308386,2368.659014,-8733.488677,-148.041188
4191.308711,2738.761985,-8503.660028,-222.061783
4191.309035,2146.597232,-8503.660028,-962.267725
4191.309359,888.247130,-8427.050478,-1110.308913
4191.309684,-740.205942,-8427.050478,-148.041188
4191.310008,-1554.432478,-8656.879127,-148.041188
4191.310332,-2368.659014,-8580.269578,74.020594
4191.310657,-1184.329507,-8580.269578,296.082377
4191.310981,-1036.288319,-7890.783629,-444.123565
4191.311306,1554.432478,-8273.831378,-222.061783
4191.311630,3775.050304,-8810.098227,0.000000
4191.311954,4293.194464,-7584.345430,-1184.329507
4191.312279,5181.441594,-8580.269578,222.061783
4191.312603,3182.885551,-7507.735880,-1628.453072
4191.312927,148.041188,-9729.412825,-1406.391290
4191.313252,-740.205942,-9806.022374,-1924.535449
4191.313576,-1406.391290,-10495.508323,296.082377
4191.313900,-1406.391290,-8503.660028,-2146.597232
4191.314225,-1258.350101,-9806.022374,74.020594
4191.314549,-1406.391290,-8427.050478,-296.082377
4191.314873,-888.247130,-8273.831378,0.000000
4191.315198,1258.350101,-8810.098227,-1480.411884
4191.315522,2146.597232,-9116.536426,-1406.391290
4191.315847,1036.288319,-8350.440928,-1332.370696
4191.316171,-740.205942,-8886.707777,-592.164754
4191.316495,-1036.288319,-7967.393179,740.205942
4191.316820,-1628.453072,-8273.831378,0.000000
4191.317144,-1332.370696,-9806.022374,592.164754
4191.317468,-518.144159,-7890.783629,-444.123565
4191.317793,1924.535449,-8733.488677,0.000000
4191.318117,740.205942,-7737.564530,-814.226536
4191.318441,1850.514855,-8810.098227,-592.164754
4191.318766,2220.617826,-8273.831378,-1628.453072
4191.319090,1258.350101,-8886.707777,-814.226536
4191.319415,148.041188,-8273.831378,-444.123565
4191.319739,-1332.370696,-8503.660028,0.000000
4191.320063,-1110.308913,-8656.879127,-148.041188
4191.320388,-592.164754,-8580.269578,222.061783
4191.320712,-296.082377,-8810.098227,740.205942
4191.321036,1110.308913,-8350.440928,592.164754
4191.321361,2072.576638,-8580.269578,-222.061783
4191.321685,2072.576638,-8963.317327,-370.102971
4191.322009,74.020594,-8197.221829,-1406.391290
4191.322334,-296.082377,-7967.393179,-740.205942
4191.322658,-1628.453072,-8350.440928,814.226536
4191.322983,-1850.514855,-7890.783629,592.164754
4191.323307,-370.102971,-8963.317327,666.185348
4191.323631,0.000000,-7814.174080,1110.308913
4191.323956,2812.782580,-9039.926876,74.020594
4191.324280,2812.782580,-8120.612279,-1258.350101
4191.324604,3923.091493,-8963.317327,148.041188
4191.324929,2146.597232,-7431.126331,-814.226536
4191.325253,1036.288319,-8580.269578,0.000000
4191.325578,-666.185348,-8197.221829,148.041188
4191.325902,-1332.370696,-9193.145976,0.000000
4191.326226,-2146.597232,-7814.174080,-1110.308913
4191.326551,-962.267725,-9269.755526,148.041188
4191.326875,444.123565,-7584.345430,0.000000
4191.327199,1702.473667,-8427.050478,0.000000
4191.327524,2442.679609,-8733.488677,-296.082377
4191.327848,888.247130,-7584.345430,-148.041188
4191.328173,1258.350101,-8197.221829,-814.226536
4191.328497,296.082377,-8197.221829,-888.247130
4191.328821,-518.144159,-9729.412825,0.000000
4191.329146,-1258.350101,-7814.174080,-1036.288319
4191.329470,-1406.391290,-8810.098227,740.205942
4191.329794,0.000000,-7431.126331,0.000000
4191.330119,1776.494261,-8886.707777,222.061783
4191.330443,2960.823768,-8273.831378,-962.267725
4191.330768,4293.194464,-9422.974625,-1110.308913
4191.331092,2368.659014,-8273.831378,-2368.659014
4191.331416,2294.638420,-9346.365076,-1184.329507
4191.331741,1406.391290,-8503.660028,-888.247130
4191.332065,-1480.411884,-10572.117872,-444.123565
4191.332389,-2146.597232,-8503.660028,-1480.411884
4191.332714,-1554.432478,-10189.070123,0.000000
4191.333038,-2442.679609,-8273.831378,-1406.391290
4191.333362,592.164754,-9193.145976,-296.082377
4191.333687,1480.411884,-7967.393179,-1036.288319
4191.334011,2146.597232,-9193.145976,-592.164754
4191.334336,1332.370696,-8273.831378,-1628.453072
4191.334660,666.185348,-9346.365076,-962.267725
4191.334984,-1036.288319,-8810.098227,0.000000
4191.335309,-962.267725,-9422.974625,0.000000
4191.335633,-1702.473667,-9039.926876,0.000000
4191.335957,0.000000,-9422.974625,888.247130
4191.336282,74.020594,-8350.440928,-370.102971
4191.336606,1554.432478,-8656.879127,-370.102971
4191.336931,1850.514855,-8120.612279,-814.226536
4191.337255,1554.432478,-8886.707777,-814.226536
4191.337579,1480.411884,-7890.783629,-740.205942
4191.337904,-222.061783,-8580.269578,-592.164754
4191.338228,-1480.411884,-9116.536426,-518.144159
4191.338552,-222.061783,-8580.269578,-518.144159
4191.338877,-2072.576638,-9116.536426,0.000000
4191.339201,-814.226536,-8120.612279,-592.164754
4191.339526,74.020594,-8044.002729,1480.411884
4191.339850,1258.350101,-7507.735880,0.000000
4191.340174,2146.597232,-8197.221829,0.000000
4191.340499,2220.617826,-7890.783629,-148.041188
4191.340823,518.144159,-8044.002729,-592.164754
4191.341147,0.000000,-7354.516781,-888.247130
4191.341472,-1332.370696,-9039.926876,740.205942
4191.341796,-3256.906145,-8273.831378,592.164754
4191.342121,-1776.494261,-8503.660028,1480.411884
4191.342445,0.000000,-7890.783629,888.247130
4191.342769,1850.514855,-9193.145976,296.082377
4191.343094,2368.659014,-8044.002729,-222.061783
4191.343418,2886.803174,-9193.145976,-370.102971
4191.343742,2368.659014,-7967.393179,-1110.308913
4191.344067,1776.494261,-9039.926876,-740.205942
4191.344391,148.041188,-8427.050478,0.000000
4191.344715,-1332.370696,-9116.536426,296.082377
4191.345040,-2072.576638,-8350.440928,-1110.308913
4191.345364,-1480.411884,-9269.755526,666.185348
4191.345689,0.000000,-7814.174080,148.041188
4191.346013,1480.411884,-8810.098227,0.000000
4191.346337,2886.803174,-8886.707777,0.000000
4191.346662,2516.700203,-8197.221829,-666.185348
4191.346986,1480.411884,-7660.954980,-1406.391290
4191.347310,1480.411884,-8810.098227,0.000000
4191.347635,-592.164754,-8656.879127,-592.164754
4191.347959,-1332.370696,-8963.317327,296.082377
4191.348284,-1036.288319,-8273.831378,148.041188
4191.348608,1036.288319,-9269.755526,0.000000
4191.348932,1258.350101,-8197.221829,-740.205942
4191.349257,3478.967927,-8810.098227,-592.164754
4191.349581,2738.761985,-8733.488677,-962.267725
4191.349905,2368.659014,-8810.098227,-962.267725
4191.350230,518.144159,-8273.831378,-740.205942
4191.350554,518.144159,-9422.974625,-1036.288319
4191.350879,-1332.370696,-8197.221829,-1480.411884
4191.351203,-1184.329507,-9422.974625,-1110.308913
4191.351527,-592.164754,-8733.488677,-1110.308913
4191.351852,0.000000,-9806.022374,-74.020594
4191.352176,518.144159,-8503.660028,-518.144159
4191.352500,2442.679609,-8656.879127,-444.123565
4191.352825,2220.617826,-8427.050478,-888.247130
4191.353149,1776.494261,-8810.098227,-740.205942
4191.353474,888.247130,-8503.660028,-1480.411884
4191.353798,-222.061783,-9116.536426,-444.123565
4191.354122,-2220.617826,-8733.488677,-592.164754
4191.354447,-1924.535449,-9422.974625,296.082377
4191.354771,-2146.597232,-8120.612279,0.000000
4191.355095,-1184.329507,-8810.098227,814.226536
4191.355420,2294.638420,-8427.050478,-1110.308913
4191.355744,2368.659014,-8503.660028,0.000000
4191.356069,4293.194464,-8656.879127,-1184.329507
4191.356393,2960.823768,-8273.831378,-1406.391290
4191.356717,1184.329507,-9499.584175,-740.205942
4191.357042,-1110.308913,-8656.879127,-444.123565
4191.357366,-1850.514855,-9729.412825,0.000000
4191.357690,-2368.659014,-8733.488677,-296.082377
4191.358015,-1258.350101,-8580.269578,962.267725
4191.358339,-1184.329507,-7890.783629,-370.102971
4191.358663,962.267725,-8656.879127,296.082377
4191.358988,1776.494261,-8273.831378,-518.144159
4191.359312,2220.617826,-8350.440928,-1036.288319
4191.359637,1406.391290,-8580.269578,-592.164754
4191.359961,-518.144159,-8044.002729,222.061783
4191.360285,-962.267725,-9116.536426,74.020594
4191.360610,-2072.576638,-8427.050478,370.102971
4191.360934,-1628.453072,-9116.536426,814.226536
4191.361258,-666.185348,-8273.831378,-222.061783
4191.361583,1036.288319,-8963.317327,518.144159
4191.361907,1554.432478,-8580.269578,296.082377
4191.362232,2664.741391,-8580.269578,0.000000
4191.362556,2368.659014,-7737.564530,-740.205942
4191.362880,1332.370696,-8273.831378,-296.082377
4191.363205,-666.185348,-9346.365076,-370.102971
4191.363529,-962.267725,-8886.707777,370.102971
4191.363853,-2220.617826,-8886.707777,0.000000
4191.364178,-962.267725,-8733.488677,444.123565
4191.364502,518.144159,-7814.174080,74.020594
4191.364827,1628.453072,-8197.221829,444.123565
4191.365151,2442.679609,-7737.564530,-148.041188
4191.365475,2368.659014,-7967.393179,-740.205942
4191.365800,2072.576638,-8580.269578,-740.205942
4191.366124,296.082377,-8427.050478,0.000000
4191.366448,-592.164754,-8503.660028,-518.144159
4191.366773,-1628.453072,-8810.098227,296.082377
4191.367097,-1702.473667,-8810.098227,518.144159
4191.367422,-296.082377,-8273.831378,1184.329507
4191.367746,1480.411884,-8120.612279,0.000000
4191.368070,3034.844362,-8503.660028,-518.144159
4191.368395,3330.926739,-8963.317327,-1332.370696
4191.368719,3404.947333,-8197.221829,-1258.350101
4191.369043,2738.761985,-8427.050478,-740.205942
4191.369368,0.000000,-8273.831378,-814.226536
4191.369692,-444.123565,-9806.022374,-296.082377
4191.370017,-2368.659014,-8580.269578,-1184.329507
4191.370341,-1332.370696,-8963.317327,222.061783
4191.370665,-740.205942,-8503.660028,-740.205942
4191.370990,814.226536,-9269.755526,-222.061783
4191.371314,2220.617826,-7737.564530,-962.267725
4191.371638,3256.906145,-8886.707777,-296.082377
4191.371963,2516.700203,-7660.954980,-2220.617826
4191.372287,1406.391290,-9422.974625,-296.082377
4191.372611,444.123565,-8656.879127,-148.041188
4191.372936,-1998.556043,-8197.221829,-1036.288319
4191.373260,-1258.350101,-9959.241474,444.123565
4191.373585,444.123565,-8197.221829,-666.185348
4191.373909,222.061783,-8427.050478,0.000000
4191.374233,3330.926739,-9806.022374,0.000000
4191.374558,74.020594,-8044.002729,-592.164754
4191.374882,2442.679609,-9499.584175,-1036.288319
4191.375206,0.000000,-8273.831378,-1554.432478
4191.375531,518.144159,-9576.193725,-740.205942
4191.375855,-296.082377,-8197.221829,-1258.350101
4191.376180,-1998.556043,-9806.022374,-1258.350101
4191.376504,-2294.638420,-8503.660028,-296.082377
4191.376828,-518.144159,-8427.050478,-740.205942
4191.377153,148.041188,-8963.317327,666.185348
4191.377477,1332.370696,-7814.174080,-296.082377
4191.377801,1998.556043,-8656.879127,0.000000
4191.378126,2294.638420,-7814.174080,-962.267725
4191.378450,518.144159,-8733.488677,-1110.308913
4191.378775,0.000000,-8120.612279,-148.041188
4191.379099,-2368.659014,-8350.440928,370.102971
4191.379423,-2146.597232,-8963.317327,0.000000
4191.379748,-1554.432478,-8963.317327,148.041188
4191.380072,-592.164754,-8350.440928,814.226536
4191.380396,0.000000,-7660.954980,962.267725
4191.380721,1850.514855,-8503.660028,148.041188
4191.381045,2738.761985,-8350.440928,-740.205942
4191.381370,2516.700203,-8656.879127,-740.205942
4191.381694,1776.494261,-8503.660028,-148.041188
4191.382018,-444.123565,-9116.536426,-518.144159
4191.382343,-888.247130,-8963.317327,0.000000
4191.382667,-1702.473667,-8350.440928,518.144159
4191.382991,-1850.514855,-9039.926876,740.205942
4191.383316,222.061783,-8733.488677,592.164754
4191.383640,1036.288319,-8273.831378,518.144159
4191.383965,1776.494261,-8120.612279,0.000000
4191.384289,888.247130,-7584.345430,-148.041188
4191.384613,1850.514855,-8197.221829,-592.164754
4191.384938,740.205942,-8427.050478,-592.164754
4191.385262,-296.082377,-8503.660028,-148.041188
4191.385586,-518.144159,-8427.050478,518.144159
4191.385911,-1110.308913,-7584.345430,814.226536
4191.386235,222.061783,-9193.145976,740.205942
4191.386559,1850.514855,-8197.221829,0.000000
4191.386884,1850.514855,-8350.440928,-222.061783
4191.387208,3034.844362,-8580.269578,-888.247130
4191.387533,1850.514855,-8580.269578,-814.226536
4191.387857,1406.391290,-8810.098227,-222.061783
4191.388181,-148.041188,-7660.954980,-962.267725
4191.388506,-962.267725,-9806.022374,-444.123565
4191.388830,-1998.556043,-8350.440928,-1184.329507
4191.389154,-296.082377,-9346.365076,0.000000
4191.389479,0.000000,-7890.783629,-296.082377
4191.389803,2072.576638,-9269.755526,518.144159
4191.390128,2368.659014,-8503.660028,-740.205942
4191.390452,3404.947333,-8580.269578,-370.102971
4191.390776,2516.700203,-8197.221829,-1776.494261
4191.391101,1702.473667,-9039.926876,-1258.350101
4191.391425,-592.164754,-8273.831378,-592.164754
4191.391749,-2442.679609,-9346.365076,296.082377
4191.392074,-2220.617826,-8427.050478,0.000000
4191.392398,-1332.370696,-8886.707777,222.061783
4191.392723,296.082377,-8810.098227,-592.164754
4191.393047,1776.494261,-8273.831378,0.000000
4191.393371,2664.741391,-8427.050478,-962.267725
4191.393696,2886.803174,-9269.755526,-814.226536
4191.394020,2294.638420,-8350.440928,-1850.514855
4191.394344,1702.473667,-9193.145976,-814.226536
4191.394669,-1184.329507,-9193.145976,-740.205942
4191.394993,-1924.535449,-9729.412825,-370.102971
4191.395318,-2220.617826,-8503.660028,-962.267725
4191.395642,-592.164754,-8886.707777,-370.102971
4191.395966,0.000000,-8197.221829,-962.267725
4191.396291,1406.391290,-9193.145976,0.000000
4191.396615,1258.350101,-7431.126331,-666.185348
4191.396939,1924.535449,-8963.317327,-740.205942
4191.397264,814.226536,-7967.393179,-2072.576638
4191.397588,222.061783,-8733.488677,-148.041188
4191.397913,-1258.350101,-8427.050478,-962.267725
4191.398237,-1554.432478,-9422.974625,814.226536
4191.398561,-2442.679609,-8044.002729,222.061783
4191.398886,0.000000,-8580.269578,1406.391290
4191.399210,0.000000,-8197.221829,-370.102971
4191.399534,1850.514855,-9039.926876,-518.144159
4191.399859,2368.659014,-8350.440928,0.000000
4191.400183,1554.432478,-8427.050478,-1184.329507
4191.400507,1258.350101,-9422.974625,-592.164754
4191.400832,-222.061783,-8044.002729,-666.185348
4191.401156,-1184.329507,-9576.193725,888.247130
4191.401481,-2294.638420,-7507.735880,-814.226536
4191.401805,-1036.288319,-9422.974625,666.185348
4191.402129,0.000000,-7967.393179,0.000000
4191.402454,2146.597232,-8733.488677,1110.308913
4191.402778,2664.741391,-7124.688131,-962.267725
4191.403102,3478.967927,-8656.879127,148.041188
4191.403427,2072.576638,-7431.126331,-518.144159
4191.403751,518.144159,-8197.221829,-444.123565
4191.404076,-592.164754,-8427.050478,0.000000
4191.404400,-962.267725,-8120.612279,444.123565
4191.404724,-1554.432478,-8273.831378,222.061783
4191.405049,-592.164754,-8197.221829,1110.308913
4191.405373,962.267725,-8273.831378,296.082377
4191.405697,1406.391290,-8350.440928,0.000000
4191.406022,2294.638420,-8273.831378,-1110.308913
4191.406346,2960.823768,-8733.488677,-814.226536
4191.406671,2368.659014,-8427.050478,-666.185348
4191.406995,1258.350101,-8886.707777,-296.082377
4191.407319,-1332.370696,-8580.269578,-888.247130
4191.407644,-1406.391290,-9576.193725,222.061783
4191.407968,-1850.514855,-8733.488677,-518.144159
4191.408292,-444.123565,-8963.317327,74.020594
4191.408617,888.247130,-8427.050478,0.000000
4191.408941,1554.432478,-8044.002729,-518.144159
4191.409266,1332.370696,-7967.393179,-444.123565
4191.409590,1850.514855,-8427.050478,-592.164754
4191.409914,2886.803174,-9269.755526,-814.226536
4191.410239,1554.432478,-9652.803275,-1110.308913
4191.410563,-1110.308913,-8044.002729,-370.102971
4191.410887,-2442.679609,-10189.070123,1628.453072
4191.411212,-1850.514855,-7354.516781,-2590.720797
4191.411536,1110.308913,-9882.631924,1998.556043
4191.411860,370.102971,-7660.954980,-2368.659014
4191.412185,2220.617826,-9806.022374,0.000000
4191.412509,1554.432478,-7201.297681,-2294.638420
4191.412834,2442.679609,-10035.851024,-296.082377
4191.413158,518.144159,-8273.831378,-2294.638420
4191.413482,592.164754,-9806.022374,-740.205942
4191.413807,-1480.411884,-8656.879127,-296.082377
4191.414131,-1110.308913,-8886.707777,-740.205942
4191.414455,-518.144159,-9806.022374,-222.061783
4191.414780,1110.308913,-8427.050478,-518.144159
4191.415104,666.185348,-8427.050478,-444.123565
4191.415429,1480.411884,-9269.755526,444.123565
4191.415753,0.000000,-7814.174080,-1332.370696
4191.416077,592.164754,-8810.098227,-518.144159
4191.416402,-740.205942,-8427.050478,-1258.350101
4191.416726,-1924.535449,-9806.022374,-592.164754
4191.417050,-2368.659014,-7507.735880,-740.205942
4191.417375,-1850.514855,-8810.098227,1850.514855
4191.417699,-518.144159,-7890.783629,0.000000
4191.418024,2146.597232,-8350.440928,0.000000
4191.418348,2960.823768,-7507.735880,-148.041188
4191.418672,3404.947333,-8427.050478,-296.082377
4191.418997,1924.535449,-9039.926876,-1554.432478
4191.419321,592.164754,-9499.584175,148.041188
4191.419645,-888.247130,-8503.660028,-222.061783
4191.419970,-2220.617826,-9039.926876,-1184.329507
4191.420294,-2812.782580,-7967.393179,518.144159
4191.420619,-1110.308913,-9116.536426,814.226536
4191.420943,-444.123565,-7507.735880,0.000000
4191.421267,2812.782580,-8886.707777,296.082377
4191.421592,2368.659014,-6741.640382,-518.144159
4191.421916,3627.009116,-8273.831378,0.000000
4191.422241,2220.617826,-7048.078582,-1850.514855
4191.422565,1924.535449,-10035.851024,296.082377
4191.422889,-814.226536,-6971.469032,-666.185348
4191.423214,-1554.432478,-9882.631924,814.226536
4191.423538,-2294.638420,-8120.612279,74.020594
4191.423863,-296.082377,-8580.269578,1258.350101
4191.424187,74.020594,-7507.735880,-518.144159
4191.424511,2368.659014,-9346.365076,370.102971
4191.424836,3034.844362,-7814.174080,-592.164754
4191.425160,2590.720797,-8427.050478,-1110.308913
4191.425485,1924.535449,-8273.831378,-666.185348
4191.425809,666.185348,-8580.269578,-962.267725
4191.426134,0.000000,-9576.193725,-962.267725
4191.426458,-666.185348,-9039.926876,-592.164754
4191.426782,-1406.391290,-9806.022374,-370.102971
4191.427107,-592.164754,-8656.879127,-148.041188
4191.427431,0.000000,-7967.393179,370.102971
4191.427756,2072.576638,-8963.317327,0.000000
4191.428080,1628.453072,-7967.393179,-962.267725
4191.428404,2368.659014,-8963.317327,-222.061783
4191.428729,1628.453072,-7890.783629,-2072.576638
4191.429053,148.041188,-9652.803275,-740.205942
4191.429378,-888.247130,-8273.831378,0.000000
4191.429702,-1110.308913,-9652.803275,1258.350101
4191.430026,-1406.391290,-8197.221829,-666.185348
4191.430351,74.020594,-9882.631924,814.226536
4191.430675,740.205942,-7890.783629,-1480.411884
4191.431000,1036.288319,-10342.289223,-1184.329507
4191.431324,2220.617826,-8427.050478,-1554.432478
4191.431648,1998.556043,-9729.412825,-444.123565
4191.431973,0.000000,-6205.373534,-1036.288319
4191.432297,1110.308913,-9269.755526,-296.082377
4191.432622,-740.205942,-10035.851024,-1036.288319
4191.432946,-814.226536,-8656.879127,-148.041188
4191.433271,1702.473667,-8197.221829,-592.164754
4191.433595,296.082377,-8656.879127,0.000000
4191.433919,962.267725,-8427.050478,0.000000
4191.434244,1184.329507,-7584.345430,-370.102971
4191.434568,518.144159,-9269.755526,-444.123565
4191.434893,-518.144159,-8886.707777,-962.267725
4191.435217,-1628.453072,-8580.269578,-1184.329507
4191.435541,-2664.741391,-9193.145976,296.082377
4191.435866,-2812.782580,-8427.050478,-740.205942
4191.436190,-1554.432478,-8733.488677,962.267725
4191.436515,-592.164754,-7584.345430,888.247130
4191.436839,1628.453072,-7967.393179,666.185348
4191.437163,2442.679609,-8427.050478,-962.267725
4191.437488,2738.761985,-8656.879127,0.000000
4191.437812,2516.700203,-8044.002729,-888.247130
4191.438137,1332.370696,-9346.365076,-296.082377
4191.438461,148.041188,-9039.926876,-222.061783
4191.438786,-1406.391290,-8580.269578,222.061783
4191.439110,-1702.473667,-8656.879127,-814.226536
4191.439434,-1554.432478,-8580.269578,74.020594
4191.439759,74.020594,-8197.221829,666.185348
4191.440083,1110.308913,-7660.954980,296.082377
4191.440408,2960.823768,-8503.660028,666.185348
4191.440732,2738.761985,-7890.783629,-814.226536
4191.441056,2072.576638,-8044.002729,370.102971
4191.441381,1258.350101,-7814.174080,-814.226536
4191.441705,-444.123565,-8733.488677,444.123565
4191.442030,-2072.576638,-8350.440928,592.164754
4191.442354,-2516.700203,-8427.050478,592.164754
4191.442678,-1258.350101,-8963.317327,592.164754
4191.443003,0.000000,-9193.145976,74.020594
4191.443327,1332.370696,-7814.174080,-666.185348
4191.443652,2146.597232,-7814.174080,-592.164754
4191.443976,2886.803174,-8273.831378,-148.041188
4191.444300,2072.576638,-8120.612279,-962.267725
4191.444625,2442.679609,-9499.584175,74.020594
4191.444949,-444.123565,-8733.488677,-962.267725
4191.445274,-296.082377,-8656.879127,-222.061783
4191.445598,-1184.329507,-8963.317327,0.000000
4191.445923,-592.164754,-8503.660028,0.000000
4191.446247,962.267725,-8656.879127,-1110.308913
4191.446571,1406.391290,-8886.707777,-370.102971
4191.446896,1628.453072,-8350.440928,-888.247130
4191.447220,1628.453072,-8273.831378,-444.123565
4191.447545,1332.370696,-9116.536426,-1036.288319
4191.447869,-444.123565,-8427.050478,-666.185348
4191.448193,-1258.350101,-8427.050478,-370.102971
4191.448518,-1332.370696,-8963.317327,-148.041188
4191.448842,-740.205942,-8273.831378,-222.061783
4191.449167,148.041188,-8733.488677,-148.041188
4191.449491,2368.659014,-8503.660028,-222.061783
4191.449815,3256.906145,-9039.926876,-1036.288319
4191.450140,3256.906145,-8503.660028,-1332.370696
4191.450464,2738.761985,-9039.926876,-1036.288319
4191.450789,814.226536,-8963.317327,-1258.350101
4191.451113,0.000000,-9422.974625,-666.185348
4191.451437,-1924.535449,-9039.926876,-444.123565
4191.451762,-1406.391290,-9039.926876,-296.082377
4191.452086,-1332.370696,-9039.926876,-370.102971
4191.452411,0.000000,-8197.221829,-666.185348
4191.452735,1036.288319,-8963.317327,-740.205942
4191.453060,1406.391290,-8273.831378,-1036.288319
4191.453384,1110.308913,-8886.707777,-1036.288319
4191.453708,148.041188,-8503.660028,-1998.556043
4191.454033,-888.247130,-9499.584175,148.041188
4191.454357,-3775.050304,-8733.488677,-370.102971
4191.454682,-3330.926739,-9652.803275,0.000000
4191.455006,-1554.432478,-8350.440928,296.082377
4191.455330,0.000000,-9039.926876,444.123565
4191.455655,1406.391290,-7967.393179,-444.123565
4191.455979,2590.720797,-7584.345430,-222.061783
4191.456304,3627.009116,-8810.098227,296.082377
4191.456628,3034.844362,-8197.221829,-1258.350101
4191.456952,2220.617826,-8810.098227,-444.123565
4191.457277,74.020594,-8120.612279,222.061783
4191.457601,-1998.556043,-9346.365076,-444.123565
4191.457926,-2072.576638,-7737.564530,-666.185348
4191.458250,-592.164754,-8963.317327,888.247130
4191.458575,-1184.329507,-7431.126331,-148.041188
4191.458899,1110.308913,-8810.098227,666.185348
4191.459223,2294.638420,-7890.783629,74.020594
4191.459548,2812.782580,-8580.269578,296.082377
4191.459872,1924.535449,-7660.954980,-1702.473667
4191.460197,1406.391290,-9039.926876,-74.020594
4191.460521,-740.205942,-7967.393179,-370.102971
4191.460845,-1850.514855,-9193.145976,444.123565
4191.461170,-1110.308913,-8350.440928,888.247130
4191.461494,-3478.967927,-7890.783629,666.185348
4191.461819,0.000000,-8044.002729,518.144159
4191.462143,444.123565,-7431.126331,148.041188
4191.462467,3404.947333,-8350.440928,444.123565
4191.462792,3330.926739,-7201.297681,-962.267725
4191.463116,3108.864956,-9116.536426,-370.102971
4191.463441,740.205942,-8503.660028,-740.205942
4191.463765,296.082377,-8886.707777,-962.267725
4191.464089,-592.164754,-9959.241474,740.205942
4191.464414,-444.123565,-7967.393179,-296.082377
4191.464738,-592.164754,-8733.488677,518.144159
4191.465063,222.061783,-8963.317327,-666.185348
4191.465387,1480.411884,-9576.193725,74.020594
4191.465712,2960.823768,-7660.954980,-1332.370696
4191.466036,2442.679609,-9116.536426,370.102971
4191.466360,592.164754,-7660.954980,-1554.432478
4191.466685,370.102971,-8963.317327,0.000000
4191.467009,-1184.329507,-7890.783629,-1184.329507
4191.467334,-1332.370696,-9499.584175,592.164754
4191.467658,-888.247130,-7737.564530,-962.267725
4191.467982,1110.308913,-8810.098227,296.082377
4191.468307,2516.700203,-8656.879127,-1406.391290
4191.468631,2516.700203,-8656.879127,-740.205942
4191.468956,1850.514855,-8503.660028,-1406.391290
4191.469280,2590.720797,-9269.755526,-666.185348
4191.469604,222.061783,-9039.926876,-1406.391290
4191.469929,-592.164754,-9346.365076,-1110.308913
4191.470253,222.061783,-9116.536426,-1036.288319
4191.470578,-3256.906145,-9116.536426,-1332.370696
4191.470902,-666.185348,-8886.707777,-1110.308913
4191.471226,-296.082377,-8427.050478,0.000000
4191.471551,148.041188,-8656.879127,-1850.514855
4191.471875,2072.576638,-8963.317327,148.041188
4191.472200,1036.288319,-7890.783629,-1702.473667
4191.472524,222.061783,-8503.660028,-962.267725
4191.472849,-148.041188,-8886.707777,-1702.473667
4191.473173,-2368.659014,-9422.974625,592.164754
4191.473497,-3404.947333,-8886.707777,-1184.329507
4191.473822,-1332.370696,-8810.098227,-370.102971
4191.474146,-1184.329507,-9039.926876,222.061783
4191.474471,962.267725,-8197.221829,-962.267725
4191.474795,2368.659014,-8810.098227,-296.082377
4191.475119,3108.864956,-8350.440928,-518.144159
4191.475444,2664.741391,-8427.050478,-1036.288319
4191.475768,2072.576638,-8273.831378,-1036.288319
4191.476093,962.267725,-9576.193725,0.000000
4191.476417,-1332.370696,-9116.536426,-370.102971
4191.476741,-1554.432478,-9193.145976,-296.082377
4191.477066,-2368.659014,-8886.707777,0.000000
4191.477390,-1332.370696,-8197.221829,74.020594
4191.477715,740.205942,-8273.831378,0.000000
4191.478039,1850.514855,-8886.707777,222.061783
4191.478364,2294.638420,-8197.221829,518.144159
4191.478688,1998.556043,-7890.783629,-814.226536
4191.479012,-296.082377,-8963.317327,0.000000
4191.479337,-370.102971,-8273.831378,888.247130
4191.479661,-1702.473667,-9193.145976,740.205942
4191.479986,-296.082377,-8656.879127,592.164754
4191.480310,-1036.288319,-8197.221829,1036.288319
4191.480634,148.041188,-8273.831378,592.164754
4191.480959,2664.741391,-7737.564530,-222.061783
4191.481283,1702.473667,-7737.564530,0.000000
4191.481608,2442.679609,-8350.440928,-370.102971
4191.481932,1850.514855,-8044.002729,-1110.308913
4191.482256,1480.411884,-9269.755526,-222.061783
4191.482581,-962.267725,-7660.954980,-296.082377
4191.482905,-1036.288319,-8810.098227,0.000000
4191.483230,-1554.432478,-8503.660028,-222.061783
4191.483554,444.123565,-8503.660028,592.164754
4191.483878,1406.391290,-8120.612279,-148.041188
4191.484203,2220.617826,-8120.612279,222.061783
4191.484527,2886.803174,-7967.393179,-1184.329507
4191.484852,2960.823768,-9499.584175,-1406.391290
4191.485176,1184.329507,-8580.269578,-962.267725
4191.485501,-444.123565,-8810.098227,74.020594
4191.485825,-1258.350101,-8810.098227,0.000000
4191.486149,-1850.514855,-8580.269578,-592.164754
4191.486474,-1110.308913,-8810.098227,370.102971
4191.486798,370.102971,-7354.516781,0.000000
4191.487123,1628.453072,-8886.707777,-1110.308913
4191.487447,3330.926739,-9422.974625,-962.267725
4191.487771,4589.276840,-8427.050478,-1258.350101
4191.488096,2812.782580,-8427.050478,-592.164754
4191.488420,518.144159,-8963.317327,-1554.432478
4191.488745,74.020594,-9346.365076,-1332.370696
4191.489069,-1036.288319,-10342.289223,-1258.350101
4191.489393,-2220.617826,-8273.831378,-962.267725
4191.489718,-592.164754,-10112.460574,370.102971
4191.490042,148.041188,-8580.269578,-666.185348
4191.490367,1332.370696,-9346.365076,-296.082377
4191.490691,1628.453072,-8044.002729,-592.164754
4191.491016,2072.576638,-9499.584175,-444.123565
4191.491340,1036.288319,-8273.831378,-2220.617826
4191.491664,1998.556043,-10112.460574,-1702.473667
4191.491989,-2960.823768,-9346.365076,-2738.761985
4191.492313,-3627.009116,-10725.336972,1036.288319
4191.492638,-3552.988522,-6894.859482,74.020594
4191.492962,-1110.308913,-8427.050478,-740.205942
4191.493286,1110.308913,-8810.098227,-1480.411884
4191.493611,740.205942,-8810.098227,1036.288319
4191.493935,3182.885551,-5209.449386,-1628.453072
4191.494260,4071.132681,-8656.879127,-444.123565
4191.494584,1184.329507,-8427.050478,0.000000
4191.494908,296.082377,-8580.269578,592.164754
4191.495233,1480.411884,-7737.564530,-1406.391290
4191.495557,-1998.556043,-10342.289223,1628.453072
4191.495882,-1332.370696,-7277.907231,1406.391290
4191.496206,444.123565,-9729.412825,1628.453072
4191.496530,222.061783,-9882.631924,-1850.514855
4191.496855,148.041188,-9576.193725,666.185348
4191.497179,1924.535449,-7354.516781,296.082377
4191.497504,518.144159,-9116.536426,740.205942
4191.497828,-518.144159,-9499.584175,0.000000
4191.498153,-1480.411884,-7507.735880,-1036.288319
4191.498477,-1850.514855,-8044.002729,-148.041188
4191.498801,-2738.761985,-7431.126331,-666.185348
4191.499126,814.226536,-7431.126331,962.267725
4191.499450,1480.411884,-7354.516781,814.226536
4191.499775,2220.617826,-8350.440928,74.020594
4191.500099,4071.132681,-7660.954980,-1184.329507
4191.500423,3478.967927,-7431.126331,0.000000
4191.500748,1998.556043,-7507.735880,-592.164754
4191.501072,1258.350101,-8886.707777,-814.226536
4191.501397,-888.247130,-8886.707777,-962.267725
4191.501721,-1998.556043,-8427.050478,0.000000
4191.502045,-1998.556043,-8044.002729,0.000000
4191.502370,-370.102971,-8580.269578,296.082377
4191.502694,666.185348,-7584.345430,74.020594
4191.503019,2368.659014,-8350.440928,148.041188
4191.503343,1406.391290,-9729.412825,-1110.308913
4191.503667,148.041188,-8656.879127,-1480.411884
4191.503992,0.000000,-9729.412825,74.020594
4191.504316,-370.102971,-9116.536426,0.000000
4191.504641,-1480.411884,-9959.241474,222.061783
4191.504965,-2886.803174,-8197.221829,370.102971
4191.505290,-740.205942,-9346.365076,444.123565
4191.505614,-666.185348,-7584.345430,-592.164754
4191.505938,2294.638420,-9116.536426,814.226536
4191.506263,3997.112087,-7660.954980,-296.082377
4191.506587,4589.276840,-8886.707777,-888.247130
4191.506912,3552.988522,-7431.126331,-1036.288319
4191.507236,2812.782580,-8886.707777,-1628.453072
4191.507560,148.041188,-9116.536426,-962.267725
4191.507885,-592.164754,-9269.755526,-962.267725
4191.508209,-518.144159,-9039.926876,-370.102971
4191.508534,-1110.308913,-8733.488677,-666.185348
4191.508858,1554.432478,-9116.536426,0.000000
4191.509182,2220.617826,-8427.050478,-1628.453072
4191.509507,2442.679609,-9269.755526,-592.164754
4191.509831,2072.576638,-7890.783629,-1184.329507
4191.510156,1924.535449,-9346.365076,-518.144159
4191.510480,-1628.453072,-8733.488677,-1332.370696
4191.510805,-1628.453072,-9499.584175,222.061783
4191.511129,-2516.700203,-7431.126331,74.020594
4191.511453,-2294.638420,-9806.022374,740.205942
4191.511778,0.000000,-8350.440928,0.000000
4191.512102,666.185348,-9039.926876,222.061783
4191.512427,1480.411884,-8963.317327,-740.205942
4191.512751,3034.844362,-8580.269578,-1480.411884
4191.513075,2886.803174,-8963.317327,-222.061783
4191.513400,1480.411884,-8197.221829,-296.082377
4191.513724,592.164754,-8656.879127,-370.102971
4191.514049,-740.205942,-8197.221829,-1184.329507
4191.514373,-1110.308913,-9269.755526,222.061783
4191.514697,-1184.329507,-8350.440928,-814.226536
4191.515022,-740.205942,-9039.926876,592.164754
4191.515346,518.144159,-7354.516781,-592.164754
4191.515671,1554.432478,-8580.269578,0.000000
4191.515995,2368.659014,-7814.174080,-962.267725
4191.516319,962.267725,-9269.755526,0.000000
4191.516644,-296.082377,-7890.783629,-296.082377
4191.516968,-1850.514855,-8580.269578,296.082377
4191.517293,-2368.659014,-8350.440928,962.267725
4191.517617,-1628.453072,-8350.440928,666.185348
4191.517942,-592.164754,-8197.221829,962.267725
4191.518266,1776.494261,-8810.098227,740.205942
4191.518590,2368.659014,-8120.612279,-370.102971
4191.518915,2294.638420,-7814.174080,0.000000
4191.519239,3108.864956,-8733.488677,-148.041188
4191.519564,1924.535449,-8120.612279,-962.267725
4191.519888,1110.308913,-9576.193725,-444.123565
4191.520212,-888.247130,-7890.783629,0.000000
4191.520537,-1480.411884,-8810.098227,0.000000
4191.520861,-1998.556043,-8197.221829,-222.061783
4191.521186,-888.247130,-8886.707777,0.000000
4191.521510,814.226536,-7967.393179,0.000000
4191.521834,1258.350101,-8963.317327,148.041188
4191.522159,1332.370696,-8350.440928,-1036.288319
4191.522483,2294.638420,-8350.440928,-666.185348
4191.522808,518.144159,-7431.126331,-1554.432478
4191.523132,-296.082377,-9116.536426,0.000000
4191.523456,-1924.535449,-8350.440928,-370.102971
4191.523781,-2590.720797,-9652.803275,370.102971
4191.524105,-1258.350101,-8580.269578,0.000000
4191.524430,-592.164754,-8044.002729,0.000000
4191.524754,2738.761985,-8427.050478,-1036.288319
4191.525079,3108.864956,-8197.221829,-666.185348
4191.525403,3552.988522,-9116.536426,-1036.288319
4191.525727,3182.885551,-8273.831378,-1554.432478
4191.526052,1332.370696,-8503.660028,-1332.370696
4191.526376,222.061783,-9652.803275,-962.267725
4191.526700,-222.061783,-8656.879127,-1554.432478
4191.527025,-1184.329507,-8810.098227,-444.123565
4191.527349,-1184.329507,-9269.755526,-1036.288319
4191.527674,-296.082377,-8197.221829,-518.144159
4191.527998,1850.514855,-8886.707777,-592.164754
4191.528322,1776.494261,-8503.660028,-444.123565
4191.528647,3034.844362,-9193.145976,-666.185348
4191.528971,2072.576638,-8197.221829,-1998.556043
4191.529296,1406.391290,-9576.193725,-296.082377
4191.529620,222.061783,-8273.831378,-666.185348
4191.529944,-1184.329507,-9729.412825,148.041188
4191.530269,-2368.659014,-7737.564530,0.000000
4191.530593,-1332.370696,-9882.631924,962.267725
4191.530918,148.041188,-7660.954980,-1184.329507
4191.531242,1998.556043,-9576.193725,296.082377
4191.531566,1554.432478,-8197.221829,-1850.514855
4191.531891,2220.617826,-9652.803275,0.000000
4191.532215,1554.432478,-7660.954980,-1850.514855
4191.532540,296.082377,-10035.851024,0.000000
4191.532864,-592.164754,-7890.783629,-592.164754
4191.533188,-1480.411884,-9193.145976,-296.082377
4191.533513,74.020594,-8886.707777,-222.061783
4191.533837,0.000000,-8044.002729,0.000000
4191.534162,1776.494261,-9039.926876,296.082377
4191.534486,1184.329507,-8120.612279,0.000000
4191.534810,1776.494261,-8273.831378,-518.144159
4191.535135,1406.391290,-8197.221829,-1184.329507
4191.535459,-296.082377,-8044.002729,-222.061783
4191.535783,-962.267725,-9499.584175,0.000000
4191.536108,-1554.432478,-8503.660028,666.185348
4191.536432,-1776.494261,-8120.612279,296.082377
4191.536757,-1036.288319,-8580.269578,888.247130
4191.537081,222.061783,-8197.221829,74.020594
4191.537405,2442.679609,-8656.879127,-148.041188
4191.537730,2738.761985,-8273.831378,-444.123565
4191.538054,1480.411884,-8197.221829,-222.061783
4191.538379,1776.494261,-8120.612279,-444.123565
4191.538703,74.020594,-8733.488677,-444.123565
4191.539027,-1110.308913,-9576.193725,222.061783
4191.539352,-2664.741391,-7814.174080,-1036.288319
4191.539676,-1924.535449,-8886.707777,444.123565
4191.540001,-888.247130,-8197.221829,-148.041188
4191.540325,888.247130,-8427.050478,296.082377
4191.540649,2072.576638,-8120.612279,-370.102971
4191.540974,1628.453072,-8350.440928,296.082377
4191.541298,1480.411884,-8810.098227,-1628.453072
4191.541623,148.041188,-8503.660028,-518.144159
4191.541947,-962.267725,-8886.707777,-518.144159
4191.542271,-962.267725,-9269.755526,222.061783
4191.542596,-1554.432478,-8656.879127,-148.041188
4191.542920,-1776.494261,-9422.974625,1554.432478
4191.543244,74.020594,-8350.440928,0.000000
4191.543569,1406.391290,-8197.221829,-666.185348
4191.543893,2886.803174,-8427.050478,-222.061783
4191.544218,3701.029710,-9346.365076,-370.102971
4191.544542,2664.741391,-8580.269578,-1480.411884
4191.544866,1628.453072,-9193.145976,-962.267725
4191.545191,222.061783,-8810.098227,-592.164754
4191.545515,-1258.350101,-9576.193725,-592.164754
4191.545840,-1628.453072,-9116.536426,-74.020594
4191.546164,0.000000,-8733.488677,-444.123565
4191.546488,666.185348,-8427.050478,-592.164754
4191.546813,2220.617826,-8427.050478,-370.102971
4191.547137,2368.659014,-8503.660028,-814.226536
4191.547462,3404.947333,-8963.317327,-592.164754
4191.547786,1406.391290,-7967.393179,-1628.453072
4191.548110,1258.350101,-9806.022374,-296.082377
4191.548435,-1850.514855,-8197.221829,-1258.350101
4191.548759,-2368.659014,-9882.631924,444.123565
4191.549084,-3034.844362,-8197.221829,-962.267725
4191.549408,-962.267725,-9193.145976,444.123565
4191.549732,0.000000,-8044.002729,-1850.514855
4191.550057,888.247130,-9193.145976,0.000000
4191.550381,1554.432478,-7431.126331,-814.226536
4191.550706,1998.556043,-9116.536426,-666.185348
4191.551030,2368.659014,-8810.098227,-1554.432478
4191.551354,592.164754,-8963.317327,-444.123565
4191.551679,-296.082377,-9193.145976,-814.226536
4191.552003,-1924.535449,-8273.831378,-740.205942
4191.552327,-148.041188,-9806.022374,-296.082377
4191.552652,-740.205942,-8197.221829,-148.041188
4191.552976,814.226536,-9193.145976,370.102971
4191.553301,1184.329507,-7967.393179,-888.247130
4191.553625,1850.514855,-9193.145976,-592.164754
4191.553949,1406.391290,-8044.002729,-1184.329507
4191.554274,296.082377,-9193.145976,-222.061783
4191.554598,-296.082377,-7737.564530,-444.123565
4191.554923,-1480.411884,-9039.926876,1036.288319
4191.555247,-2368.659014,-8197.221829,0.000000
4191.555571,-1554.432478,-9039.926876,666.185348
4191.555896,-814.226536,-7967.393179,-1036.288319
4191.556220,1554.432478,-8963.317327,0.000000
4191.556545,3256.906145,-7048.078582,-592.164754
4191.556869,4293.194464,-8580.269578,0.000000
4191.557193,2590.720797,-7660.954980,-1184.329507
4191.557518,1406.391290,-9346.365076,370.102971
4191.557842,-592.164754,-8197.221829,0.000000
4191.558167,-1554.432478,-8963.317327,1184.329507
4191.558491,-1850.514855,-8886.707777,-296.082377
4191.558815,-888.247130,-8580.269578,296.082377
4191.559140,370.102971,-8580.269578,0.000000
4191.559464,1332.370696,-7814.174080,222.061783
4191.559789,1036.288319,-8427.050478,-518.144159
4191.560113,814.226536,-8197.221829,-148.041188
4191.560437,592.164754,-9576.193725,0.000000
4191.560762,-1184.329507,-8044.002729,-740.205942
4191.561086,-1184.329507,-9269.755526,1110.308913
4191.561410,-2886.803174,-7124.688131,148.041188
4191.561735,-1628.453072,-9269.755526,888.247130
4191.562059,-518.144159,-7584.345430,0.000000
4191.562384,1258.350101,-9039.926876,518.144159
4191.562708,2812.782580,-8427.050478,-518.144159
4191.563032,3404.947333,-8963.317327,0.000000
4191.563357,3552.988522,-7737.564530,-740.205942
4191.563681,2516.700203,-8810.098227,-222.061783
4191.564006,1332.370696,-8044.002729,-888.247130
4191.564330,814.226536,-9039.926876,-370.102971
4191.564654,-1480.411884,-8044.002729,-1036.288319
4191.564979,-666.185348,-9806.022374,74.020594
4191.565303,740.205942,-8120.612279,-740.205942
4191.565628,2294.638420,-9806.022374,444.123565
4191.565952,1406.391290,-7507.735880,-1184.329507
4191.566276,1998.556043,-9806.022374,-814.226536
4191.566601,666.185348,-8197.221829,-1924.535449
4191.566925,962.267725,-10035.851024,-666.185348
4191.567250,-814.226536,-8427.050478,-1110.308913
4191.567574,-1332.370696,-9346.365076,0.000000
4191.567898,-1702.473667,-7890.783629,-666.185348
4191.568223,-518.144159,-9346.365076,-222.061783
4191.568547,888.247130,-8580.269578,-962.267725
4191.568872,2738.761985,-8733.488677,-222.061783
4191.569196,3034.844362,-8427.050478,-1776.494261
4191.569520,2368.659014,-8810.098227,-666.185348
4191.569845,2072.576638,-9116.536426,-1554.432478
4191.570169,666.185348,-9959.241474,-222.061783
4191.570493,-2664.741391,-8963.317327,-1554.432478
4191.570818,-296.082377,-10495.508323,-370.102971
4191.571142,-1776.494261,-9116.536426,-296.082377
4191.571467,-518.144159,-8044.002729,0.000000
4191.571791,2812.782580,-8810.098227,-1406.391290
4191.572115,1850.514855,-9039.926876,666.185348
4191.572440,2146.597232,-7431.126331,-1480.411884
4191.572764,1702.473667,-8656.879127,-370.102971
4191.573089,0.000000,-8350.440928,-666.185348
4191.573413,-1332.370696,-9039.926876,-296.082377
4191.573737,-1702.473667,-8656.879127,-592.164754
4191.574062,-2442.679609,-8963.317327,592.164754
4191.574386,-1332.370696,-8963.317327,148.041188
4191.574711,518.144159,-7431.126331,0.000000
4191.575035,2664.741391,-9346.365076,0.000000
4191.575359,1036.288319,-8273.831378,-222.061783
4191.575684,2368.659014,-8810.098227,-370.102971
4191.576008,962.267725,-7354.516781,-666.185348
4191.576333,-370.102971,-8963.317327,148.041188
4191.576657,222.061783,-9269.755526,-962.267725
4191.576981,-1036.288319,-8963.317327,0.000000
4191.577306,-2442.679609,-8350.440928,0.000000
4191.577630,-1036.288319,-8350.440928,518.144159
4191.577954,0.000000,-8427.050478,0.000000
4191.578279,1036.288319,-8580.269578,814.226536
4191.578603,1924.535449,-7584.345430,-740.205942
4191.578928,1036.288319,-8580.269578,74.020594
4191.579252,148.041188,-7737.564530,-888.247130
4191.579576,-1406.391290,-8656.879127,666.185348
4191.579901,-1776.494261,-7507.735880,296.082377
4191.580225,-2072.576638,-8810.098227,814.226536
4191.580550,-1702.473667,-7814.174080,-222.061783
4191.580874,296.082377,-8580.269578,1480.411884
4191.581198,2072.576638,-7507.735880,-370.102971
4191.581523,2368.659014,-8197.221829,0.000000
4191.581847,3108.864956,-8503.660028,-148.041188
4191.582172,2294.638420,-7890.783629,-814.226536
4191.582496,2294.638420,-8886.707777,-222.061783
4191.582820,1036.288319,-8197.221829,0.000000
4191.583145,0.000000,-9422.974625,-296.082377
4191.583469,-2072.576638,-7737.564530,-1184.329507
4191.583794,74.020594,-9729.412825,222.061783
4191.584118,666.185348,-7814.174080,-814.226536
4191.584442,2146.597232,-8733.488677,-296.082377
4191.584767,2220.617826,-8427.050478,-222.061783
4191.585091,1628.453072,-8350.440928,-888.247130
4191.585416,1036.288319,-8044.002729,-962.267725
4191.585740,370.102971,-8886.707777,-666.185348
4191.586064,-962.267725,-9039.926876,-222.061783
4191.586389,-1776.494261,-8810.098227,-518.144159
4191.586713,-518.144159,-9193.145976,0.000000
4191.587037,666.185348,-8733.488677,-444.123565
4191.587362,1850.514855,-8427.050478,-814.226536
4191.587686,2960.823768,-8963.317327,-740.205942
4191.588011,3330.926739,-8656.879127,-444.123565
4191.588335,2812.782580,-8580.269578,-888.247130
4191.588659,1702.473667,-9039.926876,-1702.473667
4191.588984,1332.370696,-10035.851024,-740.205942
4191.589308,-1554.432478,-8810.098227,-888.247130
4191.589633,-2146.597232,-9652.803275,-962.267725
4191.589957,-2146.597232,-8810.098227,-1258.350101
4191.590281,-962.267725,-9116.536426,0.000000
4191.590606,-296.082377,-7660.954980,-518.144159
4191.590930,3849.070898,-8350.440928,-740.205942
4191.591255,1628.453072,-8810.098227,-592.164754
4191.591579,2072.576638,-8503.660028,-1702.473667
4191.591903,1702.473667,-9729.412825,-740.205942
4191.592228,0.000000,-9039.926876,-814.226536
4191.592552,-814.226536,-9422.974625,0.000000
4191.592877,-2294.638420,-7967.393179,0.000000
4191.593201,-1258.350101,-9729.412825,740.205942
4191.593525,-666.185348,-7814.174080,-888.247130
4191.593850,444.123565,-8580.269578,148.041188
4191.594174,2220.617826,-7890.783629,-296.082377
4191.594499,1554.432478,-7814.174080,-370.102971
4191.594823,1628.453072,-8197.221829,-666.185348
4191.595147,740.205942,-8044.002729,-518.144159
4191.595472,296.082377,-8810.098227,-296.082377
4191.595796,-592.164754,-8580.269578,74.020594
4191.596120,-1184.329507,-8810.098227,-296.082377
4191.596445,-518.144159,-9576.193725,296.082377
4191.596769,-222.061783,-8733.488677,-148.041188
4191.597094,0.000000,-8963.317327,666.185348
4191.597418,666.185348,-7814.174080,-1036.288319
4191.597742,814.226536,-9193.145976,148.041188
4191.598067,592.164754,-7277.907231,370.102971
4191.598391,-370.102971,-8580.269578,74.020594
4191.598716,-1776.494261,-8427.050478,370.102971
4191.599040,-1924.535449,-8044.002729,740.205942
4191.599364,-888.247130,-8350.440928,148.041188
4191.599689,74.020594,-7890.783629,518.144159
4191.600013,2072.576638,-8120.612279,222.061783
4191.600338,1850.514855,-7584.345430,0.000000
4191.600662,3108.864956,-8350.440928,296.082377
4191.600986,5033.400406,-7431.126331,74.020594
4191.601311,-2368.659014,-8580.269578,-1554.432478
4191.601635,0.000000,-8580.269578,74.020594
4191.601960,-3256.906145,-7967.393179,0.000000
4191.602284,-666.185348,-8580.269578,-518.144159
4191.602608,296.082377,-8273.831378,1036.288319
4191.602933,518.144159,-8886.707777,-888.247130
4191.603257,-370.102971,-8503.660028,-222.061783
4191.603582,3404.947333,-8044.002729,-444.123565
4191.603906,1628.453072,-9346.365076,222.061783
4191.604230,2072.576638,-7124.688131,-1628.453072
4191.604555,1184.329507,-9499.584175,-814.226536
4191.604879,-962.267725,-8044.002729,0.000000
4191.605203,-1184.329507,-8273.831378,148.041188
4191.605528,-296.082377,-8886.707777,296.082377
4191.605852,-888.247130,-9116.536426,0.000000
4191.606177,1184.329507,-8580.269578,-1554.432478
4191.606501,2516.700203,-9576.193725,0.000000
4191.606825,2442.679609,-7660.954980,-962.267725
4191.607150,3034.844362,-8886.707777,-222.061783
4191.607474,1332.370696,-7431.126331,-2072.576638
4191.607799,592.164754,-9806.022374,-222.061783
4191.608123,0.000000,-7967.393179,-1480.411884
4191.608447,-1184.329507,-9806.022374,-148.041188
4191.608772,-370.102971,-8273.831378,-1036.288319
4191.609096,0.000000,-9422.974625,-740.205942
4191.609421,1554.432478,-9193.145976,-592.164754
4191.609745,1776.494261,-8580.269578,-148.041188
4191.610069,1628.453072,-8886.707777,-888.247130
4191.610394,1406.391290,-8197.221829,-888.247130
4191.610718,888.247130,-9193.145976,-1258.350101
4191.611043,-296.082377,-9193.145976,-592.164754
4191.611367,-1998.556043,-9269.755526,-592.164754
4191.611691,-1406.391290,-8580.269578,-592.164754
4191.612016,-1036.288319,-8503.660028,814.226536
4191.612340,444.123565,-7967.393179,-518.144159
4191.612664,1110.308913,-9116.536426,-370.102971
4191.612989,1258.350101,-8197.221829,-740.205942
4191.613313,2590.720797,-8886.707777,-740.205942
4191.613638,2368.659014,-8733.488677,-444.123565
4191.613962,370.102971,-9269.755526,-962.267725
4191.614286,-444.123565,-8733.488677,-518.144159
4191.614611,-1332.370696,-8810.098227,-1184.329507
4191.614935,-1702.473667,-9729.412825,-592.164754
4191.615260,-814.226536,-8963.317327,222.061783
4191.615584,222.061783,-7431.126331,74.020594
4191.615908,1406.391290,-9346.365076,74.020594
4191.616233,1628.453072,-7967.393179,0.000000
4191.616557,1554.432478,-8963.317327,222.061783
4191.616882,1110.308913,-8273.831378,-1406.391290
4191.617206,-444.123565,-9882.631924,148.041188
4191.617530,-1554.432478,-8044.002729,296.082377
4191.617855,-1628.453072,-8580.269578,666.185348
4191.618179,-2146.597232,-7584.345430,0.000000
4191.618504,-888.247130,-9193.145976,814.226536
4191.618828,1332.370696,-7354.516781,-444.123565
4191.619152,2368.659014,-8886.707777,222.061783
4191.619477,1776.494261,-7584.345430,-444.123565
4191.619801,3108.864956,-8580.269578,814.226536
4191.620126,2220.617826,-7967.393179,-814.226536
4191.620450,518.144159,-9652.803275,0.000000
4191.620774,148.041188,-8656.879127,-888.247130
4191.621099,-1554.432478,-8963.317327,0.000000
4191.621423,-1332.370696,-8503.660028,-740.205942
4191.621747,-296.082377,-8503.660028,296.082377
4191.622072,1554.432478,-8197.221829,74.020594
4191.622396,1776.494261,-8120.612279,148.041188
4191.622721,2368.659014,-8503.660028,-888.247130
4191.623045,2960.823768,-8273.831378,-148.041188
4191.623369,1110.308913,-8044.002729,-962.267725
4191.623694,370.102971,-8733.488677,0.000000
4191.624018,-814.226536,-8350.440928,0.000000
4191.624343,-1258.350101,-9116.536426,74.020594
4191.624667,-1110.308913,-8197.221829,370.102971
4191.624991,740.205942,-8656.879127,0.000000
4191.625316,1480.411884,-8656.879127,-1332.370696
4191.625640,2812.782580,-8273.831378,-444.123565
4191.625965,2960.823768,-8197.221829,0.000000
4191.626289,2368.659014,-8350.440928,-1110.308913
4191.626613,-148.041188,-8503.660028,-1480.411884
4191.626938,-740.205942,-9346.365076,-962.267725
4191.627262,-962.267725,-8503.660028,-1332.370696
4191.627586,-148.041188,-9422.974625,-296.082377
4191.627911,1850.514855,-8733.488677,-518.144159
4191.628235,2072.576638,-8350.440928,-592.164754
4191.628560,1702.473667,-8580.269578,-962.267725
4191.628884,2220.617826,-9729.412825,-888.247130
4191.629208,740.205942,-8120.612279,-1776.494261
4191.629533,-444.123565,-9652.803275,-444.123565
4191.629857,-1776.494261,-8886.707777,-888.247130
4191.630182,-2294.638420,-8503.660028,-518.144159
4191.630506,-2146.597232,-8580.269578,-444.123565
4191.630830,-814.226536,-8733.488677,444.123565
4191.631155,222.061783,-7431.126331,-888.247130
4191.631479,1554.432478,-8656.879127,222.061783
4191.631803,2886.803174,-8350.440928,-740.205942
4191.632128,2960.823768,-9193.145976,-740.205942
4191.632452,1850.514855,-8580.269578,-1480.411884
4191.632777,518.144159,-9193.145976,-222.061783
4191.633101,-444.123565,-9269.755526,-592.164754
4191.633425,-2294.638420,-10112.460574,-592.164754
4191.633750,-1998.556043,-9346.365076,-296.082377
4191.634074,-1258.350101,-7660.954980,0.000000
4191.634399,148.041188,-8963.317327,0.000000
4191.634723,2220.617826,-7967.393179,-296.082377
4191.635047,2738.761985,-8273.831378,148.041188
4191.635372,1850.514855,-7584.345430,-1184.329507
4191.635696,1332.370696,-8810.098227,-592.164754
4191.636020,296.082377,-8733.488677,-296.082377
4191.636345,-740.205942,-9269.755526,296.082377
4191.636669,-2072.576638,-8120.612279,-296.082377
4191.636994,-1702.473667,-9499.584175,1258.350101
4191.637318,-1184.329507,-7814.174080,222.061783
4191.637642,0.000000,-9269.755526,370.102971
4191.637967,296.082377,-7814.174080,0.000000
4191.638291,1332.370696,-8350.440928,592.164754
4191.638616,2294.638420,-7660.954980,-592.164754
4191.638940,1850.514855,-8197.221829,-518.144159
4191.639264,1998.556043,-8810.098227,-74.020594
4191.639589,-740.205942,-8120.612279,-740.205942
4191.639913,-666.185348,-9346.365076,592.164754
4191.640237,-1258.350101,-8427.050478,-148.041188
4191.640562,0.000000,-9576.193725,592.164754
4191.640886,1554.432478,-7967.393179,-296.082377
4191.641211,2442.679609,-8656.879127,296.082377
4191.641535,1554.432478,-7431.126331,-518.144159
4191.641859,1184.329507,-9806.022374,0.000000
4191.642184,-592.164754,-8427.050478,-666.185348
4191.642508,-740.205942,-8733.488677,592.164754
4191.642833,-1628.453072,-7890.783629,-444.123565
4191.643157,-296.082377,-8810.098227,222.061783
4191.643481,0.000000,-7354.516781,0.000000
4191.643806,1110.308913,-8580.269578,0.000000
4191.644130,3256.906145,-8197.221829,-666.185348
4191.644454,3478.967927,-8580.269578,148.041188
4191.644779,3627.009116,-9269.755526,-1110.308913
4191.645103,2590.720797,-8886.707777,-740.205942
4191.645428,1850.514855,-8886.707777,-740.205942
4191.645752,-148.041188,-8963.317327,-518.144159
4191.646076,-1702.473667,-9882.631924,-1554.432478
4191.646401,-2368.659014,-9193.145976,-666.185348
4191.646725,0.000000,-8273.831378,-592.164754
4191.647050,74.020594,-9193.145976,-296.082377
4191.647374,1258.350101,-9039.926876,-888.247130
4191.647698,2294.638420,-8044.002729,-1110.308913
4191.648023,1702.473667,-8963.317327,-2220.617826
4191.648347,1702.473667,-9346.365076,-962.267725
4191.648671,-740.205942,-7890.783629,-1036.288319
4191.648996,-1998.556043,-9729.412825,0.000000
4191.649320,-1332.370696,-9346.365076,0.000000
4191.649645,-518.144159,-8963.317327,0.000000
4191.649969,592.164754,-8656.879127,-888.247130
4191.650293,0.000000,-8273.831378,-666.185348
4191.650618,4071.132681,-8120.612279,-740.205942
4191.650942,2590.720797,-8580.269578,-1036.288319
4191.651267,2072.576638,-8503.660028,-1406.391290
4191.651591,74.020594,-9346.365076,74.020594
4191.651915,0.000000,-8197.221829,-888.247130
4191.652240,-2294.638420,-9039.926876,-370.102971
4191.652564,0.000000,-8810.098227,-444.123565
4191.652888,-148.041188,-9039.926876,-370.102971
4191.653213,592.164754,-8503.660028,-370.102971
4191.653537,1184.329507,-8886.707777,-592.164754
4191.653862,1554.432478,-8350.440928,0.000000
4191.654186,296.082377,-8963.317327,0.000000
4191.654510,592.164754,-8197.221829,-1258.350101
4191.654835,0.000000,-9806.022374,222.061783
4191.655159,-1332.370696,-7890.783629,444.123565
4191.655484,-2516.700203,-9116.536426,370.102971
4191.655808,-1924.535449,-8044.002729,888.247130
4191.656132,1480.411884,-9039.926876,1036.288319
4191.656457,-592.164754,-7354.516781,-148.041188
4191.656781,2368.659014,-8503.660028,814.226536
4191.657105,2812.782580,-6511.811733,-518.144159
4191.657430,2220.617826,-8963.317327,0.000000
4191.657754,1332.370696,-7890.783629,-592.164754
4191.658079,0.000000,-8963.317327,370.102971
4191.658403,-2220.617826,-8044.002729,-518.144159
4191.658727,-1258.350101,-9116.536426,74.020594
