#time,accel_x,accel_y,accel_z
4381.997251,814.226536,-8656.879127,-296.082377
4381.997576,962.267725,-8273.831378,0.000000
4381.997900,740.205942,-8580.269578,-148.041188
4381.998224,370.102971,-8733.488677,0.000000
4381.998548,370.102971,-8197.221829,0.000000
4381.998872,666.185348,-8273.831378,-592.164754
4381.999197,370.102971,-8656.879127,148.041188
4381.999521,518.144159,-8427.050478,-148.041188
4381.999845,296.082377,-8733.488677,0.000000
4382.000169,518.144159,-8580.269578,518.144159
4382.000494,666.185348,-8427.050478,296.082377
4382.000818,592.164754,-8810.098227,444.123565
4382.001142,592.164754,-8580.269578,592.164754
4382.001466,666.185348,-8656.879127,666.185348
4382.001790,592.164754,-8810.098227,222.061783
4382.002115,296.082377,-8580.269578,518.144159
4382.002439,296.082377,-8580.269578,518.144159
4382.002763,296.082377,-8427.050478,666.185348
4382.003087,222.061783,-8580.269578,666.185348
4382.003412,0.000000,-8656.879127,814.226536
4382.003736,74.020594,-8350.440928,666.185348
4382.004060,518.144159,-8963.317327,592.164754
4382.004384,148.041188,-9116.536426,740.205942
4382.004708,296.082377,-8656.879127,1184.329507
4382.005033,370.102971,-8580.269578,444.123565
4382.005357,518.144159,-8656.879127,814.226536
4382.005681,370.102971,-8656.879127,518.144159
4382.006005,518.144159,-8810.098227,222.061783
4382.006330,592.164754,-8503.660028,518.144159
4382.006654,296.082377,-8503.660028,518.144159
4382.006978,222.061783,-8427.050478,518.144159
4382.007302,814.226536,-8350.440928,370.102971
4382.007626,518.144159,-8427.050478,296.082377
4382.007951,370.102971,-8580.269578,592.164754
4382.008275,370.102971,-8350.440928,370.102971
4382.008599,444.123565,-8733.488677,370.102971
4382.008923,296.082377,-8656.879127,148.041188
4382.009248,148.041188,-8580.269578,0.000000
4382.009572,296.082377,-8273.831378,74.020594
4382.009896,444.123565,-8503.660028,0.000000
4382.010220,666.185348,-8427.050478,-74.020594
4382.010544,518.144159,-8273.831378,-296.082377
4382.010869,370.102971,-8427.050478,-444.123565
4382.011193,444.123565,-8273.831378,-370.102971
4382.011517,592.164754,-8886.707777,0.000000
4382.011841,444.123565,-8503.660028,0.000000
4382.012166,296.082377,-8580.269578,-444.123565
4382.012490,518.144159,-8427.050478,-592.164754
4382.012814,222.061783,-8503.660028,-592.164754
4382.013138,592.164754,-8733.488677,-148.041188
4382.013463,518.144159,-8350.440928,-888.247130
4382.013787,518.144159,-8580.269578,-740.205942
4382.014111,814.226536,-8350.440928,-740.205942
4382.014436,666.185348,-7890.783629,-444.123565
4382.014760,296.082377,-8273.831378,-1036.288319
4382.015084,0.000000,-8503.660028,-888.247130
4382.015408,222.061783,-8963.317327,-666.185348
4382.015732,518.144159,-8886.707777,-370.102971
4382.016056,666.185348,-8503.660028,-1184.329507
4382.016380,444.123565,-9193.145976,-666.185348
4382.016705,666.185348,-8503.660028,-1110.308913
4382.017029,666.185348,-9346.365076,-888.247130
4382.017353,814.226536,-8733.488677,-888.247130
4382.017677,592.164754,-8810.098227,-592.164754
4382.018001,370.102971,-8503.660028,-1110.308913
4382.018325,370.102971,-9039.926876,-740.205942
4382.018649,666.185348,-8963.317327,-1184.329507
4382.018973,444.123565,-9116.536426,-592.164754
4382.019298,370.102971,-8350.440928,-1184.329507
4382.019622,592.164754,-9269.755526,-592.164754
4382.019946,740.205942,-9039.926876,-1110.308913
4382.020270,444.123565,-8810.098227,-222.061783
4382.020594,370.102971,-9039.926876,-592.164754
4382.020918,222.061783,-9116.536426,-444.123565
4382.021242,370.102971,-8656.879127,-370.102971
4382.021566,222.061783,-9039.926876,-370.102971
4382.021891,0.000000,-8886.707777,-370.102971
4382.022215,0.000000,-8963.317327,-370.102971
4382.022539,370.102971,-9116.536426,-370.102971
4382.022863,518.144159,-9116.536426,-296.082377
4382.023187,222.061783,-9116.536426,-370.102971
4382.023511,592.164754,-9039.926876,-148.041188
4382.023835,444.123565,-8733.488677,0.000000
4382.024160,296.082377,-9576.193725,-296.082377
4382.024484,74.020594,-8886.707777,0.000000
4382.024808,222.061783,-8886.707777,0.000000
4382.025132,74.020594,-9039.926876,0.000000
4382.025456,74.020594,-8886.707777,-296.082377
4382.025780,222.061783,-8580.269578,-592.164754
4382.026104,370.102971,-8886.707777,-296.082377
4382.026428,444.123565,-8350.440928,-222.061783
4382.026753,666.185348,-8963.317327,0.000000
4382.027077,666.185348,-7890.783629,74.020594
4382.027401,518.144159,-8580.269578,0.000000
4382.027725,444.123565,-8580.269578,0.000000
4382.028049,518.144159,-8886.707777,0.000000
4382.028373,370.102971,-8733.488677,-222.061783
4382.028697,666.185348,-8810.098227,0.000000
4382.029021,444.123565,-8427.050478,0.000000
4382.029346,518.144159,-8580.269578,148.041188
4382.029670,666.185348,-8273.831378,148.041188
4382.029994,1184.329507,-8580.269578,518.144159
4382.030318,1036.288319,-8427.050478,222.061783
4382.030642,1110.308913,-8197.221829,296.082377
4382.030966,962.267725,-8733.488677,296.082377
4382.031290,814.226536,-7967.393179,444.123565
4382.031615,888.247130,-8656.879127,444.123565
4382.031939,666.185348,-8810.098227,0.000000
4382.032263,518.144159,-8580.269578,296.082377
4382.032587,666.185348,-8733.488677,74.020594
4382.032911,592.164754,-8580.269578,222.061783
4382.033235,592.164754,-8580.269578,222.061783
4382.033559,592.164754,-8580.269578,296.082377
4382.033883,814.226536,-8350.440928,222.061783
4382.034208,592.164754,-8733.488677,74.020594
4382.034532,518.144159,-8427.050478,0.000000
4382.034856,444.123565,-8503.660028,370.102971
4382.035180,592.164754,-8273.831378,74.020594
4382.035504,370.102971,-8580.269578,74.020594
4382.035828,148.041188,-8503.660028,222.061783
4382.036152,370.102971,-8273.831378,148.041188
4382.036476,370.102971,-8120.612279,296.082377
4382.036801,518.144159,-8044.002729,148.041188
4382.037125,592.164754,-8044.002729,0.000000
4382.037449,592.164754,-8044.002729,222.061783
4382.037773,74.020594,-8503.660028,296.082377
4382.038097,148.041188,-8503.660028,0.000000
4382.038421,370.102971,-9269.755526,74.020594
4382.038745,0.000000,-8580.269578,0.000000
4382.039070,74.020594,-8733.488677,0.000000
4382.039394,0.000000,-8503.660028,0.000000
4382.039718,0.000000,-8886.707777,222.061783
4382.040042,148.041188,-8120.612279,0.000000
4382.040366,296.082377,-8656.879127,0.000000
4382.040690,148.041188,-8503.660028,0.000000
4382.041014,222.061783,-8273.831378,222.061783
4382.041338,0.000000,-8810.098227,296.082377
4382.041663,0.000000,-8580.269578,0.000000
4382.041987,222.061783,-8427.050478,222.061783
4382.042311,296.082377,-8427.050478,0.000000
4382.042635,296.082377,-9039.926876,74.020594
4382.042959,222.061783,-8580.269578,0.000000
4382.043283,296.082377,-8886.707777,0.000000
4382.043607,222.061783,-8427.050478,0.000000
4382.043931,222.061783,-8810.098227,0.000000
4382.044256,370.102971,-8503.660028,-222.061783
4382.044580,148.041188,-8197.221829,0.000000
4382.044904,74.020594,-8810.098227,-148.041188
4382.045228,0.000000,-8656.879127,-296.082377
4382.045552,296.082377,-8580.269578,0.000000
4382.045876,222.061783,-8427.050478,-296.082377
4382.046200,296.082377,-8886.707777,0.000000
4382.046525,148.041188,-8427.050478,-74.020594
4382.046849,518.144159,-8810.098227,-518.144159
4382.047173,296.082377,-8503.660028,-296.082377
4382.047497,296.082377,-8963.317327,-222.061783
4382.047821,518.144159,-8350.440928,-296.082377
4382.048145,370.102971,-8503.660028,-222.061783
4382.048469,518.144159,-8733.488677,-370.102971
4382.048793,370.102971,-8503.660028,-296.082377
4382.049118,296.082377,-8427.050478,-518.144159
4382.049442,296.082377,-8656.879127,-296.082377
4382.049766,518.144159,-8350.440928,-444.123565
4382.050090,444.123565,-8656.879127,-370.102971
4382.050414,148.041188,-8503.660028,-444.123565
4382.050738,444.123565,-8580.269578,-444.123565
4382.051062,222.061783,-8656.879127,-740.205942
4382.051386,518.144159,-8503.660028,-296.082377
4382.051711,222.061783,-8120.612279,-370.102971
4382.052035,592.164754,-8733.488677,-222.061783
4382.052359,518.144159,-8120.612279,-518.144159
4382.052683,740.205942,-8733.488677,-370.102971
4382.053007,518.144159,-8427.050478,0.000000
4382.053331,518.144159,-8963.317327,0.000000
4382.053655,592.164754,-8350.440928,-370.102971
4382.053980,148.041188,-8733.488677,-222.061783
4382.054304,518.144159,-8656.879127,-370.102971
4382.054628,518.144159,-8886.707777,0.000000
4382.054952,666.185348,-8120.612279,0.000000
4382.055276,370.102971,-8886.707777,0.000000
4382.055600,370.102971,-8197.221829,-148.041188
4382.055924,518.144159,-8427.050478,-222.061783
4382.056248,444.123565,-8503.660028,-296.082377
4382.056573,222.061783,-8656.879127,296.082377
4382.056897,0.000000,-8427.050478,74.020594
4382.057221,518.144159,-8886.707777,148.041188
4382.057545,74.020594,-8656.879127,0.000000
4382.057869,148.041188,-8886.707777,-222.061783
4382.058193,370.102971,-8810.098227,0.000000
4382.058517,370.102971,-8427.050478,0.000000
4382.058841,370.102971,-8733.488677,-148.041188
4382.059166,592.164754,-8273.831378,-148.041188
4382.059490,518.144159,-8656.879127,-148.041188
4382.059814,296.082377,-8350.440928,-222.061783
4382.060138,222.061783,-8120.612279,-296.082377
4382.060462,222.061783,-8427.050478,0.000000
4382.060786,370.102971,-8427.050478,-518.144159
4382.061110,444.123565,-8580.269578,-814.226536
4382.061435,148.041188,-8427.050478,-444.123565
4382.061759,370.102971,-8273.831378,-148.041188
4382.062083,222.061783,-8197.221829,-592.164754
4382.062407,740.205942,-8733.488677,-370.102971
4382.062731,370.102971,-8197.221829,-888.247130
4382.063055,370.102971,-8656.879127,-740.205942
4382.063379,222.061783,-8503.660028,-592.164754
4382.063703,222.061783,-8427.050478,-296.082377
4382.064028,296.082377,-8656.879127,-666.185348
4382.064352,370.102971,-8350.440928,-666.185348
4382.064676,444.123565,-8503.660028,-888.247130
4382.065000,370.102971,-8810.098227,-666.185348
4382.065324,962.267725,-8580.269578,-740.205942
4382.065648,444.123565,-8503.660028,-740.205942
4382.065972,518.144159,-8580.269578,-1036.288319
4382.066296,518.144159,-8273.831378,-888.247130
4382.066621,370.102971,-9346.365076,-444.123565
4382.066945,370.102971,-8810.098227,-592.164754
4382.067269,148.041188,-8427.050478,-814.226536
4382.067593,222.061783,-8656.879127,-666.185348
4382.067917,148.041188,-8427.050478,-888.247130
4382.068241,222.061783,-8733.488677,-1036.288319
4382.068565,296.082377,-8656.879127,-888.247130
4382.068890,296.082377,-8427.050478,-962.267725
4382.069214,148.041188,-8886.707777,-1036.288319
4382.069538,518.144159,-8197.221829,-666.185348
4382.069862,370.102971,-8810.098227,-888.247130
4382.070186,222.061783,-8503.660028,-814.226536
4382.070510,74.020594,-8810.098227,-592.164754
4382.070834,148.041188,-8656.879127,-296.082377
4382.071158,444.123565,-8580.269578,-592.164754
4382.071483,296.082377,-8273.831378,-814.226536
4382.071807,222.061783,-8733.488677,-814.226536
4382.072131,296.082377,-8273.831378,-592.164754
4382.072455,592.164754,-8580.269578,-740.205942
4382.072779,222.061783,-8656.879127,-592.164754
4382.073103,370.102971,-8427.050478,-814.226536
4382.073427,370.102971,-8656.879127,-666.185348
4382.073751,444.123565,-7890.783629,-148.041188
4382.074076,370.102971,-8733.488677,-518.144159
4382.074400,296.082377,-8656.879127,-592.164754
4382.074724,518.144159,-8580.269578,-740.205942
4382.075048,296.082377,-8886.707777,-370.102971
4382.075372,518.144159,-8503.660028,-592.164754
4382.075696,592.164754,-8427.050478,-296.082377
4382.076020,518.144159,-8350.440928,-592.164754
4382.076345,370.102971,-9039.926876,-444.123565
4382.076669,592.164754,-8197.221829,-592.164754
4382.076993,518.144159,-8733.488677,-444.123565
4382.077317,518.144159,-8427.050478,-666.185348
4382.077641,222.061783,-8810.098227,-74.020594
4382.077965,518.144159,-8580.269578,-222.061783
4382.078289,444.123565,-8656.879127,-592.164754
4382.078613,666.185348,-8963.317327,-740.205942
4382.078938,740.205942,-9116.536426,-518.144159
4382.079262,740.205942,-8350.440928,-592.164754
4382.079586,666.185348,-8886.707777,-370.102971
4382.079910,592.164754,-8733.488677,-814.226536
4382.080234,740.205942,-9116.536426,-814.226536
4382.080558,296.082377,-8963.317327,-592.164754
4382.080882,962.267725,-9039.926876,-592.164754
4382.081206,518.144159,-8886.707777,-592.164754
4382.081531,814.226536,-8886.707777,-666.185348
4382.081855,518.144159,-8733.488677,-592.164754
4382.082179,962.267725,-9422.974625,-814.226536
4382.082503,1110.308913,-9039.926876,-888.247130
4382.082827,888.247130,-8733.488677,-592.164754
4382.083151,666.185348,-9193.145976,-962.267725
4382.083475,592.164754,-9039.926876,-888.247130
4382.083800,370.102971,-8656.879127,-740.205942
4382.084124,518.144159,-8656.879127,-814.226536
4382.084448,740.205942,-8963.317327,-888.247130
4382.084772,592.164754,-9039.926876,-962.267725
4382.085096,1036.288319,-8963.317327,-814.226536
4382.085420,962.267725,-9193.145976,-1184.329507
4382.085744,666.185348,-9039.926876,-1332.370696
4382.086068,888.247130,-8733.488677,-740.205942
4382.086393,888.247130,-8886.707777,-1184.329507
4382.086717,814.226536,-9116.536426,-1036.288319
4382.087041,592.164754,-8733.488677,-1184.329507
4382.087365,814.226536,-8963.317327,-962.267725
4382.087689,740.205942,-8810.098227,-1258.350101
4382.088013,888.247130,-8886.707777,-1036.288319
4382.088337,888.247130,-8810.098227,-1110.308913
4382.088661,518.144159,-8733.488677,-1110.308913
4382.088986,666.185348,-8963.317327,-1184.329507
4382.089310,1184.329507,-9422.974625,-1184.329507
4382.089634,814.226536,-8810.098227,-888.247130
4382.089958,518.144159,-8733.488677,-1110.308913
4382.090282,444.123565,-8656.879127,-888.247130
4382.090606,518.144159,-8810.098227,-1036.288319
4382.090930,444.123565,-8810.098227,-888.247130
4382.091255,222.061783,-8810.098227,-592.164754
4382.091579,148.041188,-8656.879127,-592.164754
4382.091903,296.082377,-8580.269578,-740.205942
4382.092227,740.205942,-8427.050478,-740.205942
4382.092551,296.082377,-8733.488677,-740.205942
4382.092875,444.123565,-8427.050478,-444.123565
4382.093199,370.102971,-8350.440928,-592.164754
4382.093523,444.123565,-8427.050478,-888.247130
4382.093848,296.082377,-8273.831378,-518.144159
4382.094172,148.041188,-8427.050478,-592.164754
4382.094496,296.082377,-8427.050478,-666.185348
4382.094820,296.082377,-8503.660028,-444.123565
4382.095144,666.185348,-8580.269578,-666.185348
4382.095468,518.144159,-8350.440928,-444.123565
4382.095792,222.061783,-8427.050478,-370.102971
4382.096116,296.082377,-8580.269578,-444.123565
4382.096441,296.082377,-8427.050478,-296.082377
4382.096765,148.041188,-8427.050478,-222.061783
4382.097089,0.000000,-8273.831378,0.000000
4382.097413,222.061783,-8427.050478,-148.041188
4382.097737,444.123565,-9039.926876,-222.061783
4382.098061,518.144159,-8350.440928,0.000000
4382.098385,296.082377,-8273.831378,-148.041188
4382.098710,444.123565,-8350.440928,0.000000
4382.099034,444.123565,-8273.831378,0.000000
4382.099358,444.123565,-8580.269578,0.000000
4382.099682,666.185348,-8656.879127,-296.082377
4382.100006,592.164754,-8350.440928,0.000000
4382.100330,296.082377,-8580.269578,0.000000
4382.100654,666.185348,-8963.317327,0.000000
4382.100978,296.082377,-8427.050478,0.000000
4382.101303,518.144159,-8350.440928,0.000000
4382.101627,148.041188,-8427.050478,222.061783
4382.101951,518.144159,-8810.098227,0.000000
4382.102275,444.123565,-8733.488677,74.020594
4382.102599,296.082377,-8197.221829,-222.061783
4382.102923,222.061783,-8733.488677,74.020594
4382.103247,296.082377,-8427.050478,0.000000
4382.103571,370.102971,-8273.831378,0.000000
4382.103896,222.061783,-8580.269578,-148.041188
4382.104220,222.061783,-8503.660028,-148.041188
4382.104544,370.102971,-8656.879127,-148.041188
4382.104868,592.164754,-8120.612279,0.000000
4382.105192,666.185348,-8580.269578,0.000000
4382.105516,666.185348,-8580.269578,0.000000
4382.105840,370.102971,-8580.269578,0.000000
4382.106165,370.102971,-8733.488677,0.000000
4382.106489,518.144159,-8503.660028,-370.102971
4382.106813,592.164754,-8273.831378,0.000000
4382.107137,370.102971,-8503.660028,0.000000
4382.107461,444.123565,-8886.707777,-370.102971
4382.107785,444.123565,-8350.440928,0.000000
4382.108109,444.123565,-8580.269578,-296.082377
4382.108433,296.082377,-8503.660028,-296.082377
4382.108758,370.102971,-8580.269578,-222.061783
4382.109082,370.102971,-8810.098227,-592.164754
4382.109406,740.205942,-8503.660028,-222.061783
4382.109730,296.082377,-8810.098227,-370.102971
4382.110054,592.164754,-8733.488677,-370.102971
4382.110378,444.123565,-8350.440928,-370.102971
4382.110702,370.102971,-8427.050478,-666.185348
4382.111026,592.164754,-8503.660028,0.000000
4382.111351,444.123565,-8197.221829,-518.144159
4382.111675,740.205942,-8810.098227,-370.102971
4382.111999,518.144159,-8350.440928,-592.164754
4382.112323,666.185348,-8810.098227,-370.102971
4382.112647,148.041188,-8810.098227,-370.102971
4382.112971,370.102971,-8350.440928,0.000000
4382.113295,444.123565,-8656.879127,-370.102971
4382.113620,518.144159,-8350.440928,-296.082377
4382.113944,444.123565,-8350.440928,-444.123565
4382.114268,148.041188,-8963.317327,-370.102971
4382.114592,444.123565,-8503.660028,-222.061783
4382.114916,370.102971,-8427.050478,-444.123565
4382.115240,518.144159,-8350.440928,-518.144159
4382.115564,444.123565,-8580.269578,-444.123565
4382.115888,444.123565,-8427.050478,-296.082377
4382.116213,444.123565,-9039.926876,0.000000
4382.116537,222.061783,-8733.488677,-296.082377
4382.116861,444.123565,-8886.707777,-370.102971
4382.117185,518.144159,-8273.831378,-222.061783
4382.117509,444.123565,-9116.536426,74.020594
4382.117833,296.082377,-8733.488677,-296.082377
4382.118157,222.061783,-8427.050478,-222.061783
4382.118481,370.102971,-8580.269578,-370.102971
4382.118806,370.102971,-8427.050478,0.000000
4382.119130,0.000000,-8656.879127,0.000000
4382.119454,222.061783,-8886.707777,-296.082377
4382.119778,222.061783,-8350.440928,-444.123565
4382.120102,370.102971,-8656.879127,-444.123565
4382.120426,296.082377,-8963.317327,296.082377
4382.120750,222.061783,-8503.660028,0.000000
4382.121075,222.061783,-8427.050478,-74.020594
4382.121399,222.061783,-8350.440928,-148.041188
4382.121723,296.082377,-8427.050478,-370.102971
4382.122047,370.102971,-8503.660028,-222.061783
4382.122372,222.061783,-8580.269578,0.000000
4382.122696,518.144159,-8580.269578,-148.041188
4382.123020,296.082377,-8503.660028,0.000000
4382.123344,148.041188,-8197.221829,-370.102971
4382.123668,592.164754,-8733.488677,0.000000
4382.123993,370.102971,-8427.050478,-296.082377
4382.124317,296.082377,-8350.440928,0.000000
4382.124641,296.082377,-8427.050478,-592.164754
4382.124965,444.123565,-8656.879127,74.020594
4382.125289,296.082377,-8580.269578,0.000000
4382.125614,518.144159,-8886.707777,0.000000
4382.125938,592.164754,-8273.831378,-296.082377
4382.126262,296.082377,-8503.660028,0.000000
4382.126586,444.123565,-8503.660028,-222.061783
4382.126910,592.164754,-8810.098227,-148.041188
4382.127235,296.082377,-8656.879127,-222.061783
4382.127559,592.164754,-8810.098227,-148.041188
4382.127883,296.082377,-8580.269578,0.000000
4382.128207,518.144159,-8886.707777,0.000000
4382.128531,518.144159,-8350.440928,-148.041188
4382.128856,740.205942,-9039.926876,-222.061783
4382.129180,814.226536,-8580.269578,-296.082377
4382.129504,444.123565,-8580.269578,0.000000
4382.129828,518.144159,-8580.269578,0.000000
4382.130152,148.041188,-8350.440928,-148.041188
4382.130477,222.061783,-8733.488677,0.000000
4382.130801,518.144159,-8886.707777,-444.123565
4382.131125,666.185348,-8580.269578,0.000000
4382.131449,296.082377,-8273.831378,-148.041188
4382.131773,444.123565,-9193.145976,0.000000
4382.132098,370.102971,-8580.269578,-296.082377
4382.132422,518.144159,-8427.050478,-148.041188
4382.132746,518.144159,-8503.660028,-370.102971
4382.133070,592.164754,-9499.584175,0.000000
4382.133395,740.205942,-8886.707777,-296.082377
4382.133719,518.144159,-8656.879127,-296.082377
4382.134043,444.123565,-8963.317327,-296.082377
4382.134367,370.102971,-8503.660028,-296.082377
4382.134691,592.164754,-8810.098227,0.000000
4382.135016,370.102971,-8580.269578,0.000000
4382.135340,222.061783,-8580.269578,0.000000
4382.135664,444.123565,-8656.879127,-148.041188
4382.135988,148.041188,-9346.365076,0.000000
4382.136312,592.164754,-8733.488677,0.000000
4382.136637,518.144159,-8733.488677,-370.102971
4382.136961,592.164754,-8733.488677,-370.102971
4382.137285,666.185348,-8656.879127,-148.041188
4382.137609,518.144159,-8810.098227,-148.041188
4382.137933,814.226536,-8810.098227,-296.082377
4382.138258,518.144159,-8580.269578,0.000000
4382.138582,444.123565,-8963.317327,-370.102971
4382.138906,444.123565,-8810.098227,-370.102971
4382.139230,592.164754,-8810.098227,-518.144159
4382.139554,518.144159,-8733.488677,-148.041188
4382.139879,518.144159,-8810.098227,-222.061783
4382.140203,666.185348,-9193.145976,74.020594
4382.140527,666.185348,-8963.317327,0.000000
4382.140851,666.185348,-8503.660028,-370.102971
4382.141175,666.185348,-9116.536426,-222.061783
4382.141500,592.164754,-8580.269578,0.000000
4382.141824,592.164754,-8733.488677,148.041188
4382.142148,370.102971,-8733.488677,-148.041188
4382.142472,592.164754,-8580.269578,0.000000
4382.142797,592.164754,-8580.269578,0.000000
4382.143121,296.082377,-9039.926876,444.123565
4382.143445,518.144159,-8810.098227,0.000000
4382.143769,518.144159,-8886.707777,0.000000
4382.144093,444.123565,-8580.269578,0.000000
4382.144418,74.020594,-9346.365076,444.123565
4382.144742,592.164754,-8886.707777,0.000000
4382.145066,444.123565,-8886.707777,0.000000
4382.145390,296.082377,-8580.269578,0.000000
4382.145714,222.061783,-8733.488677,-222.061783
4382.146039,74.020594,-8580.269578,-148.041188
4382.146363,296.082377,-8733.488677,0.000000
4382.146687,592.164754,-8503.660028,0.000000
4382.147011,222.061783,-8580.269578,0.000000
4382.147335,222.061783,-8503.660028,0.000000
4382.147660,518.144159,-8656.879127,0.000000
4382.147984,666.185348,-8810.098227,-222.061783
4382.148308,592.164754,-8810.098227,-222.061783
4382.148632,222.061783,-8656.879127,-296.082377
4382.148956,370.102971,-9039.926876,-444.123565
4382.149281,0.000000,-8810.098227,-370.102971
4382.149605,0.000000,-8656.879127,-444.123565
4382.149929,148.041188,-8810.098227,-296.082377
4382.150253,222.061783,-8580.269578,0.000000
4382.150577,222.061783,-8580.269578,0.000000
4382.150902,222.061783,-8350.440928,-296.082377
4382.151226,370.102971,-8580.269578,-370.102971
4382.151550,518.144159,-8810.098227,74.020594
4382.151874,296.082377,-8580.269578,-222.061783
4382.152199,148.041188,-8656.879127,-370.102971
4382.152523,370.102971,-8810.098227,-444.123565
4382.152847,444.123565,-8656.879127,370.102971
4382.153171,370.102971,-8503.660028,-592.164754
4382.153495,444.123565,-8733.488677,-296.082377
4382.153820,444.123565,-8733.488677,-222.061783
4382.154144,444.123565,-8503.660028,-296.082377
4382.154468,0.000000,-7814.174080,-148.041188
4382.154792,518.144159,-8963.317327,-222.061783
4382.155116,222.061783,-8427.050478,-518.144159
4382.155441,444.123565,-8273.831378,-222.061783
4382.155765,444.123565,-7660.954980,0.000000
4382.156089,148.041188,-8427.050478,0.000000
4382.156413,296.082377,-8580.269578,-370.102971
4382.156737,518.144159,-8503.660028,-592.164754
4382.157062,444.123565,-8656.879127,-296.082377
4382.157386,74.020594,-8656.879127,0.000000
4382.157710,592.164754,-8580.269578,-444.123565
4382.158034,222.061783,-8197.221829,-370.102971
4382.158358,444.123565,-8656.879127,-444.123565
4382.158683,222.061783,-8044.002729,0.000000
4382.159007,296.082377,-8503.660028,-222.061783
4382.159331,296.082377,-8733.488677,-370.102971
4382.159655,0.000000,-8580.269578,-222.061783
4382.159979,518.144159,-8580.269578,0.000000
4382.160304,518.144159,-8733.488677,0.000000
4382.160628,222.061783,-8580.269578,0.000000
4382.160952,370.102971,-8580.269578,-296.082377
4382.161276,0.000000,-8580.269578,0.000000
4382.161601,296.082377,-8197.221829,-222.061783
4382.161925,296.082377,-8427.050478,-222.061783
4382.162249,444.123565,-8503.660028,0.000000
4382.162573,296.082377,-8810.098227,0.000000
4382.162897,222.061783,-8580.269578,-814.226536
4382.163222,74.020594,-8656.879127,-148.041188
4382.163546,148.041188,-8886.707777,-370.102971
4382.163870,518.144159,-8733.488677,-222.061783
4382.164194,518.144159,-8044.002729,74.020594
4382.164518,296.082377,-8656.879127,-222.061783
4382.164843,296.082377,-8503.660028,-148.041188
4382.165167,370.102971,-8427.050478,0.000000
4382.165491,592.164754,-8886.707777,-444.123565
4382.165815,222.061783,-8273.831378,0.000000
4382.166139,296.082377,-8656.879127,-296.082377
4382.166464,370.102971,-8273.831378,-222.061783
4382.166788,296.082377,-8427.050478,0.000000
4382.167112,370.102971,-8656.879127,-148.041188
4382.167436,222.061783,-8503.660028,-222.061783
4382.167760,222.061783,-8503.660028,-222.061783
4382.168085,370.102971,-8350.440928,-222.061783
4382.168409,444.123565,-7431.126331,0.000000
4382.168733,666.185348,-8733.488677,-666.185348
4382.169057,444.123565,-8580.269578,-148.041188
4382.169381,222.061783,-8427.050478,-296.082377
4382.169706,370.102971,-8503.660028,-592.164754
4382.170030,444.123565,-8810.098227,-592.164754
4382.170354,518.144159,-8503.660028,-666.185348
4382.170678,370.102971,-8580.269578,-592.164754
4382.171003,444.123565,-8427.050478,-296.082377
4382.171327,666.185348,-9346.365076,-370.102971
4382.171651,222.061783,-8580.269578,-370.102971
4382.171975,592.164754,-8503.660028,-518.144159
4382.172299,222.061783,-8733.488677,-444.123565
4382.172624,444.123565,-8810.098227,-592.164754
4382.172948,148.041188,-8197.221829,-592.164754
4382.173272,296.082377,-8810.098227,-518.144159
4382.173596,296.082377,-8503.660028,-296.082377
4382.173920,444.123565,-8810.098227,-666.185348
4382.174245,0.000000,-8427.050478,-518.144159
4382.174569,370.102971,-8503.660028,-444.123565
4382.174893,370.102971,-8580.269578,-592.164754
4382.175217,296.082377,-8350.440928,-370.102971
4382.175541,888.247130,-8427.050478,-666.185348
4382.175866,444.123565,-8656.879127,-592.164754
4382.176190,370.102971,-8273.831378,-222.061783
4382.176514,518.144159,-8656.879127,-518.144159
4382.176838,592.164754,-8580.269578,-592.164754
4382.177162,444.123565,-8273.831378,-592.164754
4382.177487,444.123565,-8580.269578,-666.185348
4382.177811,518.144159,-8427.050478,-370.102971
4382.178135,296.082377,-8503.660028,-444.123565
4382.178459,592.164754,-8427.050478,-518.144159
4382.178783,518.144159,-8427.050478,-592.164754
4382.179108,370.102971,-8733.488677,-592.164754
4382.179432,370.102971,-8656.879127,-592.164754
4382.179756,444.123565,-8197.221829,-148.041188
4382.180080,222.061783,-8580.269578,-296.082377
4382.180405,518.144159,-8503.660028,-296.082377
4382.180729,518.144159,-8350.440928,-444.123565
4382.181053,740.205942,-8733.488677,-592.164754
4382.181377,666.185348,-8580.269578,-518.144159
4382.181701,740.205942,-8733.488677,-518.144159
4382.182026,666.185348,-8197.221829,-370.102971
4382.182350,814.226536,-8580.269578,-592.164754
4382.182674,592.164754,-9269.755526,-518.144159
4382.182998,592.164754,-8810.098227,-370.102971
4382.183322,666.185348,-8427.050478,-592.164754
4382.183647,592.164754,-8733.488677,-444.123565
4382.183971,370.102971,-8350.440928,-518.144159
4382.184295,518.144159,-8350.440928,-444.123565
4382.184619,444.123565,-8503.660028,-444.123565
4382.184943,444.123565,-8503.660028,-592.164754
4382.185268,370.102971,-8656.879127,-592.164754
4382.185592,592.164754,-8350.440928,-666.185348
4382.185916,518.144159,-8427.050478,-444.123565
4382.186240,666.185348,-8810.098227,-592.164754
4382.186564,888.247130,-8503.660028,-518.144159
4382.186889,592.164754,-8427.050478,-592.164754
4382.187213,666.185348,-8886.707777,-666.185348
4382.187537,592.164754,-8656.879127,-370.102971
4382.187861,740.205942,-8656.879127,-814.226536
4382.188185,518.144159,-8656.879127,-518.144159
4382.188510,740.205942,-8656.879127,-518.144159
4382.188834,666.185348,-8350.440928,-666.185348
4382.189158,592.164754,-8503.660028,-518.144159
4382.189482,962.267725,-8733.488677,-518.144159
4382.189807,1184.329507,-8733.488677,-740.205942
4382.190131,814.226536,-8427.050478,-518.144159
4382.190455,148.041188,-8733.488677,-444.123565
4382.190779,666.185348,-8427.050478,-592.164754
4382.191103,518.144159,-9039.926876,-888.247130
4382.191428,666.185348,-8656.879127,-666.185348
4382.191752,518.144159,-8503.660028,-518.144159
4382.192076,444.123565,-8733.488677,-444.123565
4382.192400,444.123565,-8503.660028,-518.144159
4382.192724,888.247130,-8427.050478,-740.205942
4382.193049,592.164754,-8886.707777,-592.164754
4382.193373,814.226536,-8580.269578,-592.164754
4382.193697,592.164754,-8503.660028,-370.102971
4382.194021,222.061783,-8273.831378,-666.185348
4382.194345,444.123565,-8656.879127,-296.082377
4382.194670,444.123565,-8503.660028,-518.144159
4382.194994,592.164754,-8733.488677,-814.226536
4382.195318,592.164754,-8427.050478,-740.205942
4382.195642,296.082377,-8733.488677,-444.123565
4382.195966,148.041188,-8273.831378,-222.061783
4382.196291,296.082377,-8580.269578,-296.082377
4382.196615,518.144159,-8810.098227,-444.123565
4382.196939,444.123565,-8427.050478,-370.102971
4382.197263,444.123565,-8580.269578,-444.123565
4382.197587,370.102971,-8733.488677,-370.102971
4382.197912,444.123565,-8427.050478,-370.102971
4382.198236,666.185348,-8503.660028,-592.164754
4382.198560,222.061783,-8580.269578,-518.144159
4382.198884,148.041188,-8886.707777,-296.082377
4382.199209,444.123565,-8886.707777,-518.144159
4382.199533,370.102971,-8886.707777,-740.205942
4382.199857,518.144159,-8580.269578,-592.164754
4382.200181,592.164754,-8656.879127,-444.123565
4382.200505,518.144159,-8503.660028,-296.082377
4382.200830,222.061783,-8656.879127,-370.102971
4382.201154,518.144159,-8733.488677,-518.144159
4382.201478,592.164754,-8810.098227,-666.185348
4382.201802,222.061783,-8963.317327,-370.102971
4382.202126,444.123565,-8656.879127,-518.144159
4382.202451,518.144159,-9193.145976,-222.061783
4382.202775,444.123565,-8580.269578,-444.123565
4382.203099,296.082377,-9116.536426,-370.102971
4382.203423,296.082377,-8963.317327,-592.164754
4382.203747,444.123565,-9346.365076,-370.102971
4382.204072,148.041188,-8886.707777,-296.082377
4382.204396,148.041188,-8810.098227,-296.082377
4382.204720,222.061783,-8656.879127,-666.185348
4382.205044,666.185348,-8733.488677,-370.102971
4382.205368,444.123565,-8427.050478,-740.205942
4382.205693,518.144159,-8886.707777,-222.061783
4382.206017,666.185348,-8963.317327,-518.144159
4382.206341,666.185348,-8350.440928,-592.164754
4382.206665,518.144159,-8886.707777,-148.041188
4382.206989,370.102971,-8580.269578,-740.205942
4382.207314,592.164754,-8503.660028,-296.082377
4382.207638,222.061783,-8350.440928,-444.123565
4382.207962,222.061783,-8963.317327,-370.102971
4382.208286,444.123565,-8350.440928,-370.102971
4382.208611,592.164754,-8810.098227,-518.144159
4382.208935,518.144159,-8733.488677,-444.123565
4382.209259,592.164754,-8580.269578,-444.123565
4382.209583,666.185348,-8427.050478,-370.102971
4382.209907,370.102971,-8580.269578,-444.123565
4382.210232,518.144159,-8580.269578,-592.164754
4382.210556,296.082377,-8810.098227,-518.144159
4382.210880,0.000000,-8580.269578,74.020594
4382.211204,444.123565,-8733.488677,-444.123565
4382.211528,296.082377,-8580.269578,-370.102971
4382.211853,592.164754,-8503.660028,-518.144159
4382.212177,518.144159,-8427.050478,-518.144159
4382.212501,444.123565,-8120.612279,-222.061783
4382.212825,518.144159,-8427.050478,-370.102971
4382.213149,592.164754,-8580.269578,0.000000
4382.213474,296.082377,-8350.440928,-370.102971
4382.213798,370.102971,-8886.707777,-518.144159
4382.214122,444.123565,-8350.440928,-518.144159
4382.214446,296.082377,-8656.879127,0.000000
4382.214770,0.000000,-8656.879127,-296.082377
4382.215095,296.082377,-8810.098227,-370.102971
4382.215419,222.061783,-8427.050478,-518.144159
4382.215743,370.102971,-8580.269578,-296.082377
4382.216067,296.082377,-8580.269578,-296.082377
4382.216391,444.123565,-8427.050478,0.000000
4382.216716,222.061783,-8580.269578,0.000000
4382.217040,222.061783,-8656.879127,-444.123565
4382.217364,222.061783,-8656.879127,-666.185348
4382.217688,370.102971,-8656.879127,-592.164754
4382.218012,222.061783,-7967.393179,74.020594
4382.218337,74.020594,-8810.098227,0.000000
4382.218661,370.102971,-8656.879127,-296.082377
4382.218985,296.082377,-8350.440928,-296.082377
4382.219309,74.020594,-9193.145976,-222.061783
4382.219633,222.061783,-8810.098227,-222.061783
4382.219958,74.020594,-8810.098227,-370.102971
4382.220282,296.082377,-8656.879127,-222.061783
4382.220606,74.020594,-8427.050478,-370.102971
4382.220930,148.041188,-8886.707777,-148.041188
4382.221254,296.082377,-8273.831378,-296.082377
4382.221578,148.041188,-8580.269578,-296.082377
4382.221903,222.061783,-9039.926876,-518.144159
4382.222227,296.082377,-8656.879127,0.000000
4382.222551,518.144159,-8733.488677,-518.144159
4382.222875,222.061783,-8503.660028,-222.061783
4382.223199,370.102971,-8580.269578,-518.144159
4382.223523,370.102971,-9039.926876,-370.102971
4382.223848,518.144159,-8350.440928,-148.041188
4382.224172,740.205942,-9116.536426,-518.144159
4382.224496,740.205942,-8733.488677,-592.164754
4382.224820,592.164754,-8810.098227,-296.082377
4382.225144,740.205942,-8733.488677,-666.185348
4382.225468,370.102971,-8656.879127,-296.082377
4382.225793,296.082377,-8427.050478,-592.164754
4382.226117,370.102971,-8733.488677,-592.164754
4382.226441,814.226536,-8733.488677,-444.123565
4382.226765,370.102971,-8733.488677,-592.164754
4382.227089,518.144159,-8580.269578,-592.164754
4382.227413,370.102971,-8350.440928,-518.144159
4382.227738,444.123565,-8886.707777,-518.144159
4382.228062,518.144159,-8503.660028,-148.041188
4382.228386,296.082377,-8810.098227,-148.041188
4382.228710,222.061783,-8810.098227,-370.102971
4382.229034,518.144159,-8427.050478,-444.123565
4382.229358,296.082377,-8580.269578,-296.082377
4382.229683,444.123565,-8350.440928,-666.185348
4382.230007,518.144159,-8503.660028,-148.041188
4382.230331,444.123565,-8503.660028,-444.123565
4382.230655,518.144159,-7584.345430,222.061783
4382.230979,444.123565,-8503.660028,-370.102971
4382.231304,444.123565,-8503.660028,-370.102971
4382.231628,370.102971,-8197.221829,-296.082377
4382.231952,222.061783,-8503.660028,-222.061783
4382.232276,222.061783,-8120.612279,-296.082377
4382.232600,666.185348,-8427.050478,-222.061783
4382.232924,444.123565,-8350.440928,-444.123565
4382.233249,592.164754,-8503.660028,-296.082377
4382.233573,222.061783,-8120.612279,74.020594
4382.233897,444.123565,-8580.269578,-222.061783
4382.234221,518.144159,-8427.050478,-518.144159
4382.234545,518.144159,-8503.660028,-296.082377
4382.234869,444.123565,-8656.879127,0.000000
4382.235194,444.123565,-8503.660028,0.000000
4382.235518,444.123565,-8427.050478,-74.020594
4382.235842,296.082377,-8427.050478,74.020594
4382.236166,518.144159,-8273.831378,-370.102971
4382.236490,518.144159,-8197.221829,-222.061783
4382.236814,370.102971,-8427.050478,-296.082377
4382.237139,222.061783,-8580.269578,0.000000
4382.237463,592.164754,-8350.440928,0.000000
4382.237787,296.082377,-7890.783629,0.000000
4382.238111,444.123565,-8733.488677,-296.082377
4382.238435,518.144159,-8580.269578,-148.041188
4382.238759,222.061783,-8427.050478,-148.041188
4382.239084,222.061783,-8810.098227,296.082377
4382.239408,518.144159,-8503.660028,0.000000
4382.239732,370.102971,-8656.879127,0.000000
4382.240056,444.123565,-8656.879127,-222.061783
4382.240380,592.164754,-8503.660028,74.020594
4382.240704,222.061783,-8350.440928,0.000000
4382.241029,370.102971,-8427.050478,0.000000
4382.241353,222.061783,-8120.612279,-148.041188
4382.241677,148.041188,-8810.098227,0.000000
4382.242001,888.247130,-8350.440928,-148.041188
4382.242325,296.082377,-8503.660028,0.000000
4382.242650,222.061783,-8656.879127,0.000000
4382.242974,592.164754,-8427.050478,0.000000
4382.243298,370.102971,-8733.488677,-296.082377
4382.243622,370.102971,-8503.660028,-296.082377
4382.243946,592.164754,-8656.879127,0.000000
4382.244270,222.061783,-8656.879127,0.000000
4382.244595,370.102971,-8656.879127,-148.041188
4382.244919,962.267725,-8656.879127,-1036.288319
4382.245243,444.123565,-8733.488677,0.000000
4382.245567,518.144159,-8580.269578,-296.082377
4382.245891,444.123565,-8656.879127,0.000000
4382.246215,370.102971,-8120.612279,0.000000
4382.246540,518.144159,-8580.269578,-444.123565
4382.246864,444.123565,-8810.098227,-444.123565
4382.247188,296.082377,-8580.269578,0.000000
4382.247512,444.123565,-8580.269578,-148.041188
4382.247836,592.164754,-8580.269578,-296.082377
4382.248160,296.082377,-8503.660028,-148.041188
4382.248485,592.164754,-8427.050478,-518.144159
4382.248809,592.164754,-8427.050478,-148.041188
4382.249133,444.123565,-8273.831378,0.000000
4382.249457,370.102971,-8503.660028,-296.082377
4382.249781,444.123565,-8273.831378,-148.041188
4382.250105,518.144159,-8810.098227,-296.082377
4382.250430,74.020594,-8197.221829,0.000000
4382.250754,222.061783,-8427.050478,-370.102971
4382.251078,370.102971,-8733.488677,0.000000
4382.251402,666.185348,-8580.269578,-148.041188
4382.251726,518.144159,-8733.488677,0.000000
4382.252050,222.061783,-8350.440928,-518.144159
4382.252375,296.082377,-8350.440928,0.000000
4382.252699,148.041188,-8427.050478,0.000000
4382.253023,370.102971,-8656.879127,-148.041188
4382.253347,222.061783,-8197.221829,-666.185348
4382.253671,444.123565,-8810.098227,0.000000
4382.253996,370.102971,-8427.050478,-444.123565
4382.254320,296.082377,-8503.660028,0.000000
4382.254644,370.102971,-7967.393179,0.000000
4382.254968,296.082377,-8273.831378,0.000000
4382.255292,0.000000,-8427.050478,-444.123565
4382.255616,370.102971,-8733.488677,0.000000
4382.255941,518.144159,-8273.831378,-296.082377
4382.256265,0.000000,-8273.831378,-370.102971
4382.256589,296.082377,-8580.269578,-296.082377
4382.256913,518.144159,-8120.612279,-296.082377
4382.257237,592.164754,-8810.098227,0.000000
4382.257561,666.185348,-9193.145976,0.000000
4382.257886,370.102971,-8197.221829,0.000000
4382.258210,370.102971,-8580.269578,0.000000
4382.258534,518.144159,-8427.050478,-444.123565
4382.258858,740.205942,-8580.269578,-370.102971
4382.259182,444.123565,-8656.879127,0.000000
4382.259506,296.082377,-8350.440928,-296.082377
4382.259831,222.061783,-8656.879127,0.000000
4382.260155,296.082377,-8427.050478,-370.102971
4382.260479,0.000000,-8350.440928,-518.144159
4382.260803,222.061783,-8350.440928,-370.102971
4382.261127,444.123565,-8580.269578,-296.082377
4382.261451,296.082377,-8733.488677,-444.123565
4382.261776,296.082377,-9039.926876,0.000000
4382.262100,222.061783,-8503.660028,-444.123565
4382.262424,148.041188,-8886.707777,-296.082377
4382.262748,444.123565,-8503.660028,-222.061783
4382.263072,296.082377,-8580.269578,-222.061783
4382.263396,370.102971,-8656.879127,-444.123565
4382.263721,296.082377,-8580.269578,-444.123565
4382.264045,814.226536,-8580.269578,-518.144159
4382.264369,444.123565,-8580.269578,-444.123565
4382.264693,148.041188,-8273.831378,0.000000
4382.265017,666.185348,-8580.269578,-296.082377
4382.265342,222.061783,-8733.488677,-148.041188
4382.265666,518.144159,-8580.269578,-518.144159
4382.265990,592.164754,-9116.536426,0.000000
4382.266314,296.082377,-8350.440928,-148.041188
4382.266638,444.123565,-8733.488677,-444.123565
4382.266962,444.123565,-8427.050478,-518.144159
4382.267287,814.226536,-8580.269578,-666.185348
4382.267611,444.123565,-8580.269578,-148.041188
4382.267935,74.020594,-8580.269578,0.000000
4382.268259,592.164754,-8733.488677,-444.123565
4382.268583,370.102971,-8580.269578,-148.041188
4382.268907,370.102971,-8427.050478,-370.102971
4382.269232,296.082377,-8886.707777,-444.123565
4382.269556,592.164754,-8810.098227,0.000000
4382.269880,592.164754,-8427.050478,-222.061783
4382.270204,666.185348,-8656.879127,0.000000
4382.270528,518.144159,-8197.221829,-222.061783
4382.270852,518.144159,-8656.879127,0.000000
4382.271177,444.123565,-8503.660028,-148.041188
4382.271501,296.082377,-8886.707777,0.000000
4382.271825,222.061783,-8886.707777,74.020594
4382.272149,444.123565,-8810.098227,0.000000
4382.272473,296.082377,-8580.269578,0.000000
4382.272797,370.102971,-8503.660028,-296.082377
4382.273122,0.000000,-9116.536426,148.041188
4382.273446,296.082377,-8350.440928,74.020594
4382.273770,444.123565,-8350.440928,0.000000
4382.274094,296.082377,-8350.440928,0.000000
4382.274418,592.164754,-8886.707777,74.020594
4382.274742,0.000000,-8963.317327,-148.041188
4382.275067,222.061783,-8580.269578,0.000000
4382.275391,148.041188,-8427.050478,0.000000
4382.275715,296.082377,-8733.488677,0.000000
4382.276039,74.020594,-8273.831378,0.000000
4382.276363,444.123565,-8656.879127,-222.061783
4382.276688,444.123565,-8427.050478,0.000000
4382.277012,444.123565,-8273.831378,0.000000
4382.277336,444.123565,-8580.269578,-296.082377
4382.277660,296.082377,-8503.660028,-296.082377
4382.277984,296.082377,-8656.879127,-296.082377
4382.278308,592.164754,-8350.440928,-444.123565
4382.278633,370.102971,-8580.269578,0.000000
4382.278957,0.000000,-8580.269578,-222.061783
4382.279281,370.102971,-8580.269578,0.000000
4382.279605,444.123565,-8656.879127,-592.164754
4382.279929,666.185348,-8963.317327,-296.082377
4382.280253,814.226536,-8273.831378,-370.102971
4382.280578,444.123565,-8810.098227,-518.144159
4382.280902,296.082377,-8733.488677,-518.144159
4382.281226,666.185348,-8810.098227,-370.102971
4382.281550,518.144159,-9269.755526,-444.123565
4382.281874,444.123565,-8580.269578,-592.164754
4382.282198,444.123565,-8656.879127,-592.164754
4382.282523,518.144159,-8580.269578,-444.123565
4382.282847,518.144159,-8733.488677,-814.226536
4382.283171,222.061783,-8810.098227,-666.185348
4382.283495,666.185348,-8580.269578,-444.123565
4382.283819,592.164754,-8810.098227,-444.123565
4382.284143,444.123565,-8963.317327,-962.267725
4382.284468,592.164754,-8810.098227,-444.123565
4382.284792,740.205942,-8656.879127,-814.226536
4382.285116,370.102971,-8656.879127,-888.247130
4382.285440,370.102971,-8656.879127,-814.226536
4382.285764,666.185348,-9422.974625,-666.185348
4382.286088,518.144159,-8427.050478,-666.185348
4382.286413,296.082377,-8886.707777,-888.247130
4382.286737,518.144159,-8963.317327,-962.267725
4382.287061,592.164754,-8733.488677,-740.205942
4382.287385,518.144159,-8886.707777,-444.123565
4382.287709,444.123565,-8733.488677,-962.267725
4382.288034,666.185348,-8580.269578,-1036.288319
4382.288358,666.185348,-8810.098227,-962.267725
4382.288682,518.144159,-8963.317327,-518.144159
4382.289006,148.041188,-8810.098227,-814.226536
4382.289330,444.123565,-8810.098227,-666.185348
4382.289654,444.123565,-8656.879127,-592.164754
4382.289979,222.061783,-9116.536426,-888.247130
4382.290303,518.144159,-8963.317327,-814.226536
4382.290627,666.185348,-8427.050478,-666.185348
4382.290951,444.123565,-8503.660028,-666.185348
4382.291275,222.061783,-8427.050478,-740.205942
4382.291599,370.102971,-8656.879127,-370.102971
4382.291924,518.144159,-8503.660028,-740.205942
4382.292248,296.082377,-8580.269578,-518.144159
4382.292572,444.123565,-8656.879127,-592.164754
4382.292896,148.041188,-8963.317327,0.000000
4382.293220,370.102971,-8503.660028,-296.082377
4382.293544,370.102971,-8656.879127,-592.164754
4382.293869,518.144159,-8580.269578,-518.144159
4382.294193,518.144159,-8427.050478,-370.102971
4382.294517,444.123565,-8886.707777,-296.082377
4382.294841,296.082377,-8580.269578,-592.164754
4382.295165,740.205942,-8503.660028,-370.102971
4382.295489,444.123565,-8656.879127,-592.164754
4382.295814,1110.308913,-8656.879127,-518.144159
4382.296138,296.082377,-8733.488677,-592.164754
4382.296462,444.123565,-8656.879127,-222.061783
4382.296786,592.164754,-8427.050478,-444.123565
4382.297110,592.164754,-9193.145976,-296.082377
4382.297434,444.123565,-8656.879127,0.000000
4382.297759,370.102971,-8273.831378,-222.061783
4382.298083,444.123565,-8580.269578,-222.061783
4382.298407,370.102971,-8273.831378,-222.061783
4382.298731,518.144159,-8580.269578,-296.082377
4382.299055,222.061783,-8427.050478,-222.061783
4382.299379,592.164754,-8733.488677,-222.061783
4382.299704,444.123565,-8580.269578,-370.102971
4382.300028,518.144159,-9116.536426,0.000000
4382.300352,592.164754,-8503.660028,-518.144159
4382.300676,518.144159,-8503.660028,-222.061783
4382.301000,666.185348,-8427.050478,-222.061783
4382.301325,370.102971,-8503.660028,-74.020594
4382.301649,444.123565,-8656.879127,-370.102971
4382.301973,518.144159,-8503.660028,-296.082377
4382.302297,444.123565,-8503.660028,-518.144159
4382.302621,444.123565,-8656.879127,0.000000
4382.302945,296.082377,-8886.707777,0.000000
4382.303270,518.144159,-8503.660028,-370.102971
4382.303594,296.082377,-8350.440928,-592.164754
4382.303918,370.102971,-8810.098227,-444.123565
4382.304242,518.144159,-8503.660028,0.000000
4382.304566,296.082377,-8580.269578,-518.144159
4382.304890,370.102971,-8580.269578,-740.205942
4382.305215,74.020594,-8656.879127,-518.144159
4382.305539,740.205942,-8656.879127,0.000000
4382.305863,444.123565,-8656.879127,-518.144159
4382.306187,592.164754,-8733.488677,-592.164754
4382.306511,444.123565,-8580.269578,-518.144159
4382.306835,370.102971,-8656.879127,-370.102971
4382.307160,444.123565,-8044.002729,-740.205942
4382.307484,444.123565,-8810.098227,-296.082377
4382.307808,370.102971,-8503.660028,-222.061783
4382.308132,0.000000,-8350.440928,-518.144159
4382.308456,444.123565,-7890.783629,-222.061783
4382.308780,222.061783,-8350.440928,-740.205942
4382.309105,296.082377,-8503.660028,-592.164754
4382.309429,222.061783,-8656.879127,-592.164754
4382.309753,222.061783,-8810.098227,-592.164754
4382.310077,222.061783,-8350.440928,-666.185348
4382.310401,666.185348,-8350.440928,-370.102971
4382.310725,370.102971,-8350.440928,-518.144159
4382.311050,518.144159,-8810.098227,-518.144159
4382.311374,592.164754,-7890.783629,0.000000
4382.311698,296.082377,-8503.660028,-518.144159
4382.312022,296.082377,-8427.050478,-296.082377
4382.312346,148.041188,-8580.269578,-666.185348
4382.312671,888.247130,-8656.879127,-814.226536
4382.312995,370.102971,-8197.221829,-296.082377
4382.313319,296.082377,-8197.221829,-296.082377
4382.313643,444.123565,-8503.660028,-370.102971
4382.313967,222.061783,-8197.221829,-370.102971
4382.314291,740.205942,-8503.660028,-370.102971
4382.314616,222.061783,-8656.879127,-296.082377
4382.314940,444.123565,-8273.831378,-148.041188
4382.315264,74.020594,-8503.660028,-444.123565
4382.315588,1036.288319,-8886.707777,-296.082377
4382.315912,74.020594,-8503.660028,-296.082377
4382.316236,518.144159,-8580.269578,-740.205942
4382.316561,74.020594,-8656.879127,-444.123565
4382.316885,370.102971,-8733.488677,0.000000
4382.317209,666.185348,-8656.879127,-444.123565
4382.317533,370.102971,-8427.050478,-444.123565
4382.317857,518.144159,-8733.488677,-592.164754
4382.318181,518.144159,-8273.831378,-444.123565
4382.318506,518.144159,-8427.050478,-370.102971
4382.318830,370.102971,-8503.660028,-296.082377
4382.319154,370.102971,-8733.488677,-296.082377
4382.319478,74.020594,-8733.488677,-592.164754
4382.319802,740.205942,-8503.660028,-222.061783
4382.320126,148.041188,-8273.831378,-370.102971
4382.320451,370.102971,-8580.269578,-148.041188
4382.320775,222.061783,-8656.879127,0.000000
4382.321099,444.123565,-8580.269578,-148.041188
4382.321423,592.164754,-8733.488677,-370.102971
4382.321747,444.123565,-8733.488677,-222.061783
4382.322072,592.164754,-8810.098227,-296.082377
4382.322396,296.082377,-8733.488677,-296.082377
4382.322721,666.185348,-8733.488677,-296.082377
4382.323045,666.185348,-8810.098227,-518.144159
4382.323369,518.144159,-8733.488677,-518.144159
4382.323694,222.061783,-8886.707777,-296.082377
4382.324018,962.267725,-8733.488677,-444.123565
4382.324342,444.123565,-8810.098227,-296.082377
4382.324667,444.123565,-8886.707777,-370.102971
4382.324991,518.144159,-8733.488677,-74.020594
4382.325315,444.123565,-8656.879127,0.000000
4382.325640,296.082377,-9346.365076,-296.082377
4382.325964,296.082377,-8733.488677,-370.102971
4382.326288,518.144159,-8656.879127,-370.102971
4382.326613,444.123565,-8810.098227,-222.061783
4382.326937,296.082377,-8503.660028,-148.041188
4382.327261,296.082377,-8656.879127,-370.102971
4382.327586,518.144159,-8810.098227,-148.041188
4382.327910,370.102971,-8273.831378,-296.082377
4382.328234,370.102971,-8427.050478,-222.061783
4382.328559,666.185348,-8580.269578,-518.144159
4382.328883,296.082377,-8580.269578,-148.041188
4382.329207,444.123565,-8810.098227,-518.144159
4382.329532,222.061783,-8810.098227,-592.164754
4382.329856,222.061783,-8580.269578,0.000000
4382.330180,444.123565,-8580.269578,-370.102971
4382.330505,518.144159,-8350.440928,-370.102971
4382.330829,296.082377,-8427.050478,-296.082377
4382.331153,222.061783,-8120.612279,-592.164754
4382.331478,444.123565,-8273.831378,-296.082377
4382.331802,296.082377,-8503.660028,-370.102971
4382.332126,370.102971,-8273.831378,-444.123565
4382.332451,518.144159,-7890.783629,0.000000
4382.332775,444.123565,-8656.879127,-518.144159
4382.333099,444.123565,-8580.269578,-296.082377
4382.333424,222.061783,-9116.536426,-296.082377
4382.333748,370.102971,-8656.879127,-518.144159
4382.334072,370.102971,-8503.660028,-296.082377
4382.334397,222.061783,-8733.488677,-444.123565
4382.334721,444.123565,-8963.317327,-296.082377
4382.335045,666.185348,-8427.050478,-444.123565
4382.335370,518.144159,-8503.660028,-296.082377
4382.335694,592.164754,-8273.831378,-296.082377
4382.336018,370.102971,-8580.269578,-222.061783
4382.336343,222.061783,-8503.660028,-444.123565
4382.336667,666.185348,-8350.440928,-370.102971
4382.336991,444.123565,-8580.269578,-296.082377
4382.337316,222.061783,-8580.269578,-74.020594
4382.337640,518.144159,-8427.050478,-296.082377
4382.337964,592.164754,-8733.488677,-296.082377
4382.338289,592.164754,-8580.269578,-370.102971
4382.338613,592.164754,-8503.660028,-444.123565
4382.338937,518.144159,-8656.879127,-370.102971
4382.339262,592.164754,-8503.660028,-296.082377
4382.339586,666.185348,-9959.241474,0.000000
4382.339911,518.144159,-8733.488677,-444.123565
4382.340235,592.164754,-8733.488677,-222.061783
4382.340559,222.061783,-8963.317327,-370.102971
4382.340884,370.102971,-8886.707777,-444.123565
4382.341208,518.144159,-8580.269578,-222.061783
4382.341532,740.205942,-8733.488677,-148.041188
4382.341857,740.205942,-8503.660028,-444.123565
4382.342181,370.102971,-8963.317327,-370.102971
4382.342505,592.164754,-8656.879127,-296.082377
4382.342830,370.102971,-8810.098227,0.000000
4382.343154,74.020594,-8963.317327,0.000000
4382.343478,296.082377,-8810.098227,0.000000
4382.343803,888.247130,-9116.536426,-518.144159
4382.344127,296.082377,-8733.488677,-222.061783
4382.344451,370.102971,-8656.879127,74.020594
4382.344776,370.102971,-8963.317327,0.000000
4382.345100,296.082377,-8350.440928,-148.041188
4382.345424,296.082377,-8733.488677,-74.020594
4382.345749,518.144159,-8810.098227,0.000000
4382.346073,518.144159,-8350.440928,-222.061783
4382.346397,592.164754,-8733.488677,0.000000
4382.346722,740.205942,-8733.488677,74.020594
4382.347046,518.144159,-8886.707777,0.000000
4382.347370,296.082377,-8810.098227,0.000000
4382.347695,518.144159,-8963.317327,0.000000
4382.348019,740.205942,-8656.879127,0.000000
4382.348343,444.123565,-8580.269578,0.000000
4382.348668,296.082377,-8350.440928,0.000000
4382.348992,370.102971,-8810.098227,-222.061783
4382.349316,518.144159,-8656.879127,-296.082377
4382.349641,370.102971,-8273.831378,0.000000
4382.349965,222.061783,-8810.098227,-222.061783
4382.350289,444.123565,-8733.488677,0.000000
4382.350614,296.082377,-8886.707777,0.000000
4382.350938,518.144159,-8810.098227,-370.102971
4382.351262,222.061783,-8580.269578,0.000000
4382.351587,518.144159,-8733.488677,-148.041188
4382.351911,296.082377,-8580.269578,0.000000
4382.352235,444.123565,-8120.612279,-148.041188
4382.352560,518.144159,-8503.660028,-370.102971
4382.352884,370.102971,-8273.831378,0.000000
4382.353208,370.102971,-8580.269578,-222.061783
4382.353533,370.102971,-9039.926876,-222.061783
4382.353857,370.102971,-8120.612279,-444.123565
4382.354181,518.144159,-8580.269578,-296.082377
4382.354506,444.123565,-8580.269578,-518.144159
4382.354830,444.123565,-8503.660028,-222.061783
4382.355154,518.144159,-8656.879127,-518.144159
4382.355479,370.102971,-8427.050478,-222.061783
4382.355803,444.123565,-8580.269578,-444.123565
4382.356128,518.144159,-8810.098227,-444.123565
4382.356452,296.082377,-8580.269578,-222.061783
4382.356776,370.102971,-8656.879127,-296.082377
4382.357101,518.144159,-8733.488677,-370.102971
4382.357425,592.164754,-8503.660028,-518.144159
4382.357749,592.164754,-8656.879127,-666.185348
4382.358074,592.164754,-8810.098227,-444.123565
4382.358398,296.082377,-8580.269578,-222.061783
4382.358722,370.102971,-8810.098227,-370.102971
4382.359047,444.123565,-8350.440928,-592.164754
4382.359371,592.164754,-9422.974625,-296.082377
4382.359695,518.144159,-8656.879127,-296.082377
4382.360020,444.123565,-8580.269578,-370.102971
4382.360344,592.164754,-8503.660028,-518.144159
4382.360668,222.061783,-8580.269578,-370.102971
4382.360993,370.102971,-8580.269578,-444.123565
4382.361317,740.205942,-8580.269578,-518.144159
4382.361641,296.082377,-8656.879127,-222.061783
4382.361966,518.144159,-8580.269578,-444.123565
4382.362290,0.000000,-8886.707777,0.000000
4382.362614,444.123565,-8427.050478,-444.123565
4382.362939,222.061783,-8810.098227,-740.205942
4382.363263,814.226536,-8886.707777,-296.082377
4382.363587,370.102971,-9346.365076,-296.082377
4382.363912,370.102971,-8963.317327,-296.082377
4382.364236,518.144159,-8580.269578,-370.102971
4382.364560,666.185348,-8580.269578,-296.082377
4382.364885,222.061783,-8656.879127,-370.102971
4382.365209,0.000000,-8733.488677,-148.041188
4382.365533,296.082377,-8580.269578,-518.144159
4382.365858,296.082377,-8503.660028,0.000000
4382.366182,296.082377,-8580.269578,-370.102971
4382.366506,0.000000,-8273.831378,74.020594
4382.366831,296.082377,-8273.831378,-74.020594
4382.367155,370.102971,-8810.098227,0.000000
4382.367479,592.164754,-8963.317327,-444.123565
4382.367804,518.144159,-8656.879127,-222.061783
4382.368128,518.144159,-8503.660028,-518.144159
4382.368452,444.123565,-8503.660028,-222.061783
4382.368777,222.061783,-8886.707777,-296.082377
4382.369101,444.123565,-8886.707777,-222.061783
4382.369425,0.000000,-8503.660028,-296.082377
4382.369750,370.102971,-8503.660028,-296.082377
4382.370074,222.061783,-8810.098227,0.000000
4382.370398,592.164754,-8273.831378,-222.061783
4382.370723,296.082377,-8427.050478,-148.041188
4382.371047,370.102971,-8503.660028,-222.061783
4382.371371,222.061783,-8733.488677,0.000000
4382.371696,518.144159,-8580.269578,-370.102971
4382.372020,222.061783,-8503.660028,0.000000
4382.372344,444.123565,-8503.660028,-148.041188
4382.372669,518.144159,-8503.660028,0.000000
4382.372993,518.144159,-8503.660028,-148.041188
4382.373318,222.061783,-8886.707777,-148.041188
4382.373642,740.205942,-8427.050478,-222.061783
4382.373966,296.082377,-8503.660028,-148.041188
4382.374291,74.020594,-8580.269578,0.000000
4382.374615,222.061783,-8503.660028,-296.082377
4382.374939,518.144159,-8427.050478,-592.164754
4382.375264,592.164754,-8503.660028,-296.082377
4382.375588,296.082377,-8503.660028,-296.082377
4382.375912,518.144159,-8810.098227,-222.061783
4382.376237,296.082377,-8580.269578,0.000000
4382.376561,444.123565,-8580.269578,-148.041188
4382.376885,518.144159,-8503.660028,-592.164754
4382.377210,518.144159,-8503.660028,-222.061783
4382.377534,296.082377,-8503.660028,-222.061783
4382.377858,444.123565,-8580.269578,-370.102971
4382.378183,444.123565,-8427.050478,-518.144159
4382.378507,592.164754,-8503.660028,-370.102971
4382.378831,592.164754,-8273.831378,-148.041188
4382.379156,370.102971,-8350.440928,-370.102971
4382.379480,370.102971,-8733.488677,-444.123565
4382.379804,444.123565,-8656.879127,0.000000
4382.380129,518.144159,-8580.269578,-222.061783
4382.380453,444.123565,-8656.879127,-222.061783
4382.380777,666.185348,-8350.440928,-296.082377
4382.381102,0.000000,-8810.098227,0.000000
4382.381426,74.020594,-8503.660028,-444.123565
4382.381750,518.144159,-8733.488677,-444.123565
4382.382075,370.102971,-8656.879127,222.061783
4382.382399,518.144159,-8580.269578,0.000000
4382.382723,370.102971,-8427.050478,-444.123565
4382.383048,222.061783,-8580.269578,-222.061783
4382.383372,222.061783,-8656.879127,74.020594
4382.383696,222.061783,-8810.098227,-222.061783
4382.384021,222.061783,-8580.269578,-296.082377
4382.384345,296.082377,-8350.440928,0.000000
4382.384669,222.061783,-8733.488677,-444.123565
4382.384994,222.061783,-8963.317327,-222.061783
4382.385318,518.144159,-8580.269578,-370.102971
4382.385642,222.061783,-8810.098227,-518.144159
4382.385967,296.082377,-8656.879127,-370.102971
4382.386291,222.061783,-8810.098227,74.020594
4382.386615,592.164754,-8580.269578,-444.123565
4382.386940,444.123565,-8580.269578,-296.082377
4382.387264,518.144159,-8963.317327,-592.164754
4382.387588,370.102971,-8350.440928,-370.102971
4382.387913,222.061783,-8580.269578,-296.082377
4382.388237,296.082377,-8580.269578,-666.185348
4382.388561,296.082377,-8503.660028,-444.123565
4382.388886,148.041188,-8733.488677,-592.164754
4382.389210,370.102971,-8350.440928,-592.164754
4382.389534,518.144159,-8656.879127,-592.164754
4382.389859,370.102971,-8350.440928,-370.102971
4382.390183,222.061783,-8580.269578,-370.102971
4382.390508,222.061783,-8350.440928,-814.226536
4382.390832,592.164754,-9039.926876,-592.164754
4382.391156,370.102971,-8427.050478,-592.164754
4382.391481,592.164754,-8733.488677,-296.082377
4382.391805,444.123565,-8503.660028,-592.164754
4382.392129,518.144159,-8427.050478,-518.144159
4382.392454,592.164754,-8427.050478,-740.205942
4382.392778,518.144159,-8656.879127,-370.102971
4382.393102,296.082377,-8427.050478,-592.164754
4382.393427,370.102971,-9039.926876,0.000000
4382.393751,370.102971,-8350.440928,-592.164754
4382.394075,444.123565,-8810.098227,-444.123565
4382.394400,666.185348,-8427.050478,-518.144159
4382.394724,0.000000,-8427.050478,74.020594
4382.395048,296.082377,-8580.269578,-296.082377
4382.395373,222.061783,-8427.050478,-222.061783
4382.395697,370.102971,-8580.269578,-592.164754
4382.396021,370.102971,-8656.879127,-666.185348
4382.396346,296.082377,-8963.317327,-370.102971
4382.396670,518.144159,-8656.879127,-444.123565
4382.396994,518.144159,-9039.926876,-296.082377
4382.397319,296.082377,-8733.488677,-370.102971
4382.397643,370.102971,-8810.098227,0.000000
4382.397967,518.144159,-8810.098227,-296.082377
4382.398292,370.102971,-8656.879127,-296.082377
4382.398616,148.041188,-8656.879127,-444.123565
4382.398940,592.164754,-8886.707777,-296.082377
4382.399265,296.082377,-8810.098227,-148.041188
4382.399589,370.102971,-8656.879127,-296.082377
4382.399913,370.102971,-8656.879127,-296.082377
4382.400238,296.082377,-8656.879127,-444.123565
4382.400562,370.102971,-8580.269578,-222.061783
4382.400886,222.061783,-8580.269578,-370.102971
4382.401211,518.144159,-8810.098227,-222.061783
4382.401535,592.164754,-8503.660028,-148.041188
4382.401859,222.061783,-7814.174080,148.041188
4382.402184,148.041188,-8580.269578,-148.041188
4382.402508,370.102971,-8503.660028,-518.144159
4382.402832,222.061783,-8886.707777,-370.102971
4382.403157,592.164754,-9039.926876,-148.041188
4382.403481,370.102971,-8350.440928,-444.123565
4382.403805,444.123565,-8656.879127,-222.061783
4382.404130,370.102971,-8886.707777,-444.123565
4382.404454,518.144159,-8810.098227,-296.082377
4382.404778,962.267725,-8656.879127,-444.123565
4382.405103,592.164754,-8273.831378,-370.102971
4382.405427,296.082377,-8503.660028,-296.082377
4382.405751,592.164754,-8580.269578,-592.164754
4382.406076,1184.329507,-8963.317327,-444.123565
4382.406400,296.082377,-8427.050478,-814.226536
4382.406725,444.123565,-8886.707777,-518.144159
4382.407049,518.144159,-8427.050478,-518.144159
4382.407373,518.144159,-8886.707777,-222.061783
4382.407698,592.164754,-8197.221829,-740.205942
4382.408022,592.164754,-8810.098227,-444.123565
4382.408346,518.144159,-8427.050478,-444.123565
4382.408671,518.144159,-8427.050478,-296.082377
4382.408995,814.226536,-8810.098227,-962.267725
4382.409319,666.185348,-8656.879127,-518.144159
4382.409644,592.164754,-8350.440928,-888.247130
4382.409968,518.144159,-8656.879127,-444.123565
4382.410292,814.226536,-8733.488677,-444.123565
4382.410617,518.144159,-8886.707777,-444.123565
4382.410941,444.123565,-8273.831378,-740.205942
4382.411265,518.144159,-8427.050478,-148.041188
4382.411590,518.144159,-8427.050478,-740.205942
4382.411914,370.102971,-8427.050478,-296.082377
4382.412238,518.144159,-8580.269578,-666.185348
4382.412563,592.164754,-8810.098227,-592.164754
4382.412887,518.144159,-8503.660028,-592.164754
4382.413211,962.267725,-8963.317327,-666.185348
4382.413536,148.041188,-8273.831378,-370.102971
4382.413860,296.082377,-8810.098227,0.000000
4382.414184,518.144159,-8580.269578,-592.164754
4382.414509,444.123565,-7890.783629,-296.082377
4382.414833,222.061783,-8350.440928,-444.123565
4382.415157,370.102971,-8503.660028,-296.082377
4382.415482,666.185348,-8427.050478,-518.144159
4382.415806,444.123565,-8733.488677,-444.123565
4382.416130,370.102971,-8580.269578,-296.082377
4382.416455,370.102971,-8656.879127,-592.164754
4382.416779,518.144159,-8656.879127,-666.185348
4382.417103,444.123565,-8656.879127,-444.123565
4382.417428,148.041188,-7967.393179,0.000000
4382.417752,0.000000,-8656.879127,-148.041188
4382.418076,0.000000,-8273.831378,-222.061783
4382.418401,296.082377,-9039.926876,-444.123565
4382.418725,518.144159,-8350.440928,-148.041188
4382.419049,518.144159,-8197.221829,-148.041188
4382.419374,74.020594,-8427.050478,-444.123565
4382.419698,518.144159,-8580.269578,-296.082377
4382.420022,444.123565,-8886.707777,-518.144159
4382.420347,370.102971,-8580.269578,-222.061783
4382.420671,222.061783,-8580.269578,-222.061783
4382.420995,296.082377,-8886.707777,-296.082377
4382.421320,296.082377,-8656.879127,-222.061783
4382.421644,1036.288319,-8580.269578,-370.102971
4382.421968,444.123565,-8810.098227,-370.102971
4382.422293,444.123565,-8656.879127,-296.082377
4382.422617,148.041188,-8580.269578,-370.102971
4382.422941,370.102971,-8886.707777,-296.082377
4382.423266,444.123565,-8580.269578,-296.082377
4382.423590,444.123565,-8733.488677,-444.123565
4382.423914,148.041188,-8733.488677,-296.082377
4382.424238,222.061783,-8427.050478,-74.020594
4382.424563,666.185348,-8810.098227,0.000000
4382.424887,518.144159,-8580.269578,-370.102971
4382.425211,370.102971,-8963.317327,-296.082377
4382.425536,666.185348,-8580.269578,-592.164754
4382.425860,518.144159,-8197.221829,0.000000
4382.426184,370.102971,-8503.660028,-296.082377
4382.426509,370.102971,-8427.050478,-666.185348
4382.426833,444.123565,-8580.269578,-296.082377
4382.427157,370.102971,-9039.926876,-666.185348
4382.427482,370.102971,-8886.707777,-222.061783
4382.427806,518.144159,-8503.660028,-148.041188
4382.428130,592.164754,-8733.488677,-370.102971
4382.428455,592.164754,-8580.269578,-370.102971
4382.428779,888.247130,-8503.660028,-518.144159
4382.429103,814.226536,-8580.269578,-296.082377
4382.429428,296.082377,-8273.831378,-370.102971
4382.429752,296.082377,-8810.098227,-592.164754
4382.430076,666.185348,-8810.098227,0.000000
4382.430401,740.205942,-8656.879127,-296.082377
4382.430725,370.102971,-8503.660028,-444.123565
4382.431049,592.164754,-8656.879127,-296.082377
4382.431373,222.061783,-8503.660028,-370.102971
4382.431698,518.144159,-8810.098227,-370.102971
4382.432022,444.123565,-8963.317327,-444.123565
4382.432346,666.185348,-8656.879127,-518.144159
4382.432671,518.144159,-8273.831378,-222.061783
4382.432995,518.144159,-9193.145976,0.000000
4382.433319,222.061783,-8810.098227,-222.061783
4382.433644,222.061783,-8656.879127,-148.041188
4382.433968,666.185348,-8810.098227,-444.123565
4382.434292,592.164754,-8733.488677,-148.041188
4382.434617,444.123565,-8427.050478,-222.061783
4382.434941,370.102971,-8810.098227,-222.061783
4382.435265,444.123565,-8350.440928,0.000000
4382.435590,370.102971,-8656.879127,-444.123565
4382.435914,592.164754,-9193.145976,-370.102971
4382.436238,444.123565,-8580.269578,-148.041188
4382.436563,296.082377,-8580.269578,-444.123565
4382.436887,296.082377,-8580.269578,-444.123565
4382.437211,148.041188,-8120.612279,0.000000
4382.437535,518.144159,-8733.488677,-370.102971
4382.437860,370.102971,-8810.098227,-148.041188
4382.438184,444.123565,-8580.269578,-296.082377
4382.438508,518.144159,-8656.879127,74.020594
4382.438833,148.041188,-8580.269578,-296.082377
4382.439157,592.164754,-8580.269578,-444.123565
4382.439481,518.144159,-8503.660028,-296.082377
4382.439806,444.123565,-8580.269578,-296.082377
4382.440130,0.000000,-8427.050478,-296.082377
4382.440454,370.102971,-8427.050478,-296.082377
4382.440779,518.144159,-8503.660028,-370.102971
4382.441103,444.123565,-8656.879127,-592.164754
4382.441427,666.185348,-8120.612279,74.020594
4382.441752,444.123565,-8503.660028,-222.061783
4382.442076,296.082377,-8733.488677,-370.102971
4382.442400,0.000000,-8503.660028,0.000000
4382.442725,222.061783,-9039.926876,-222.061783
4382.443049,370.102971,-8580.269578,-148.041188
4382.443373,222.061783,-8350.440928,-296.082377
4382.443698,370.102971,-8810.098227,-444.123565
4382.444022,370.102971,-8733.488677,-444.123565
4382.444346,148.041188,-8656.879127,0.000000
4382.444670,370.102971,-8886.707777,-592.164754
4382.444995,370.102971,-8656.879127,-296.082377
4382.445319,74.020594,-8503.660028,-370.102971
4382.445643,518.144159,-8963.317327,0.000000
4382.445968,444.123565,-8656.879127,-518.144159
4382.446292,444.123565,-8580.269578,-74.020594
4382.446616,592.164754,-8427.050478,-222.061783
4382.446941,148.041188,-8580.269578,-370.102971
4382.447265,370.102971,-8886.707777,0.000000
4382.447589,444.123565,-8273.831378,-518.144159
4382.447914,666.185348,-8810.098227,-518.144159
4382.448238,444.123565,-8427.050478,-296.082377
4382.448562,592.164754,-8350.440928,74.020594
4382.448887,370.102971,-8427.050478,-222.061783
4382.449211,444.123565,-8886.707777,-296.082377
4382.449535,444.123565,-8503.660028,-518.144159
4382.449860,1036.288319,-8733.488677,-444.123565
4382.450184,222.061783,-8350.440928,-222.061783
4382.450508,296.082377,-8810.098227,0.000000
4382.450833,592.164754,-8427.050478,-296.082377
4382.451157,592.164754,-8350.440928,-370.102971
4382.451481,518.144159,-8810.098227,-296.082377
4382.451805,666.185348,-8503.660028,-296.082377
4382.452130,296.082377,-8733.488677,-222.061783
4382.452454,444.123565,-8656.879127,-222.061783
4382.452778,740.205942,-7814.174080,0.000000
4382.453103,370.102971,-8580.269578,-370.102971
4382.453427,444.123565,-8503.660028,0.000000
4382.453751,148.041188,-8580.269578,-222.061783
4382.454076,74.020594,-8733.488677,148.041188
4382.454400,370.102971,-8503.660028,0.000000
4382.454724,518.144159,-8427.050478,-296.082377
4382.455049,518.144159,-8503.660028,-296.082377
4382.455373,296.082377,-8580.269578,-296.082377
4382.455697,296.082377,-8044.002729,0.000000
4382.456022,296.082377,-8503.660028,0.000000
4382.456346,444.123565,-8580.269578,-444.123565
4382.456670,666.185348,-8503.660028,-444.123565
4382.456995,814.226536,-7660.954980,0.000000
4382.457319,370.102971,-8656.879127,-222.061783
4382.457643,444.123565,-8810.098227,0.000000
4382.457968,370.102971,-8503.660028,-148.041188
4382.458292,370.102971,-8810.098227,-296.082377
4382.458616,296.082377,-8580.269578,-148.041188
4382.458940,444.123565,-8273.831378,-222.061783
4382.459265,296.082377,-8580.269578,-296.082377
4382.459589,444.123565,-8503.660028,-148.041188
4382.459913,814.226536,-8886.707777,-296.082377
4382.460238,444.123565,-8733.488677,-148.041188
4382.460562,370.102971,-8350.440928,0.000000
4382.460886,0.000000,-8580.269578,0.000000
4382.461211,962.267725,-8810.098227,-222.061783
4382.461535,296.082377,-8503.660028,0.000000
4382.461859,518.144159,-8503.660028,-222.061783
4382.462184,444.123565,-8733.488677,-148.041188
4382.462508,370.102971,-8733.488677,-222.061783
4382.462832,370.102971,-8733.488677,-148.041188
4382.463157,444.123565,-8427.050478,-222.061783
4382.463481,370.102971,-8503.660028,-148.041188
4382.463805,888.247130,-8580.269578,-148.041188
4382.464130,1036.288319,-8656.879127,-148.041188
4382.464454,518.144159,-8810.098227,-74.020594
4382.464778,148.041188,-8427.050478,-148.041188
4382.465102,518.144159,-8810.098227,-370.102971
4382.465427,370.102971,-8350.440928,0.000000
4382.465751,370.102971,-8503.660028,0.000000
4382.466075,296.082377,-8733.488677,-296.082377
4382.466400,296.082377,-8427.050478,-222.061783
4382.466724,444.123565,-8810.098227,-296.082377
4382.467048,592.164754,-8580.269578,-370.102971
4382.467373,592.164754,-8656.879127,0.000000
4382.467697,296.082377,-8580.269578,-370.102971
4382.468021,222.061783,-8656.879127,-444.123565
4382.468346,962.267725,-9039.926876,-370.102971
4382.468670,444.123565,-8733.488677,-370.102971
4382.468994,296.082377,-8656.879127,-518.144159
4382.469319,74.020594,-8503.660028,-370.102971
4382.469643,518.144159,-8733.488677,-592.164754
4382.469967,148.041188,-8503.660028,-296.082377
4382.470292,444.123565,-8810.098227,-370.102971
4382.470616,296.082377,-8580.269578,-518.144159
4382.470940,592.164754,-8427.050478,-296.082377
4382.471265,222.061783,-8044.002729,-444.123565
4382.471589,370.102971,-8733.488677,-296.082377
4382.471913,444.123565,-8427.050478,-740.205942
4382.472237,518.144159,-8580.269578,-518.144159
4382.472562,0.000000,-7967.393179,-296.082377
4382.472886,296.082377,-8580.269578,-296.082377
4382.473210,518.144159,-8427.050478,-296.082377
4382.473535,370.102971,-8503.660028,-296.082377
4382.473859,370.102971,-8733.488677,-296.082377
4382.474183,444.123565,-8503.660028,-370.102971
4382.474508,518.144159,-8733.488677,-518.144159
4382.474832,370.102971,-8656.879127,-518.144159
4382.475156,296.082377,-8733.488677,-296.082377
4382.475481,370.102971,-8427.050478,-444.123565
4382.475805,740.205942,-8580.269578,-518.144159
4382.476129,444.123565,-8273.831378,-444.123565
4382.476454,444.123565,-8427.050478,-370.102971
4382.476778,592.164754,-8197.221829,0.000000
4382.477102,740.205942,-8580.269578,-518.144159
4382.477427,370.102971,-9039.926876,-370.102971
4382.477751,296.082377,-8503.660028,0.000000
4382.478075,370.102971,-8427.050478,-296.082377
4382.478400,148.041188,-8503.660028,0.000000
4382.478724,518.144159,-8656.879127,-148.041188
4382.479048,370.102971,-8810.098227,-592.164754
4382.479372,296.082377,-8427.050478,-444.123565
4382.479697,222.061783,-8427.050478,-962.267725
4382.480021,666.185348,-9039.926876,-370.102971
4382.480345,444.123565,-8580.269578,-444.123565
4382.480670,592.164754,-8656.879127,-148.041188
4382.480994,370.102971,-8044.002729,0.000000
4382.481318,518.144159,-8427.050478,-222.061783
4382.481643,370.102971,-8656.879127,-296.082377
4382.481967,296.082377,-8580.269578,-148.041188
4382.482291,444.123565,-8427.050478,-444.123565
4382.482616,592.164754,-8810.098227,-296.082377
4382.482940,222.061783,-8656.879127,-444.123565
4382.483264,296.082377,-8656.879127,-222.061783
4382.483589,444.123565,-8810.098227,-370.102971
4382.483913,518.144159,-8503.660028,-74.020594
4382.484237,370.102971,-8810.098227,-370.102971
4382.484562,518.144159,-8733.488677,-592.164754
4382.484886,518.144159,-8503.660028,-222.061783
4382.485210,666.185348,-8350.440928,-296.082377
4382.485534,518.144159,-8656.879127,-296.082377
4382.485859,666.185348,-8580.269578,-518.144159
4382.486183,444.123565,-8656.879127,-444.123565
4382.486507,444.123565,-8656.879127,-444.123565
4382.486832,444.123565,-8886.707777,-444.123565
4382.487156,518.144159,-8580.269578,-148.041188
4382.487480,296.082377,-8273.831378,-518.144159
4382.487805,518.144159,-8810.098227,-370.102971
4382.488129,814.226536,-8733.488677,-148.041188
4382.488453,592.164754,-8427.050478,-370.102971
4382.488778,592.164754,-8503.660028,-444.123565
4382.489102,592.164754,-8503.660028,-370.102971
4382.489426,370.102971,-8733.488677,-148.041188
4382.489751,518.144159,-8197.221829,-296.082377
4382.490075,444.123565,-8503.660028,-370.102971
4382.490399,370.102971,-8810.098227,-444.123565
4382.490724,370.102971,-8580.269578,-370.102971
4382.491048,296.082377,-8273.831378,-888.247130
4382.491372,518.144159,-8656.879127,-370.102971
4382.491697,592.164754,-8273.831378,-370.102971
4382.492021,370.102971,-8656.879127,-296.082377
4382.492345,296.082377,-8273.831378,-814.226536
4382.492669,592.164754,-8733.488677,-370.102971
4382.492994,222.061783,-8656.879127,-592.164754
4382.493318,444.123565,-8886.707777,-296.082377
4382.493642,296.082377,-8503.660028,-518.144159
4382.493967,296.082377,-8810.098227,-296.082377
4382.494291,296.082377,-8427.050478,-296.082377
4382.494615,740.205942,-8810.098227,-518.144159
4382.494940,444.123565,-8273.831378,-296.082377
4382.495264,444.123565,-8197.221829,-592.164754
4382.495588,296.082377,-8656.879127,-148.041188
4382.495913,148.041188,-8197.221829,0.000000
4382.496237,370.102971,-8656.879127,-370.102971
4382.496561,222.061783,-8427.050478,-296.082377
4382.496886,222.061783,-8656.879127,0.000000
4382.497210,444.123565,-8580.269578,-444.123565
4382.497534,296.082377,-8810.098227,-222.061783
4382.497859,370.102971,-8350.440928,-666.185348
4382.498183,296.082377,-8733.488677,-518.144159
4382.498507,296.082377,-8580.269578,-370.102971
4382.498832,444.123565,-8580.269578,-444.123565
4382.499156,370.102971,-8733.488677,-370.102971
4382.499480,296.082377,-8810.098227,-222.061783
4382.499804,666.185348,-8886.707777,-444.123565
4382.500129,444.123565,-8733.488677,-518.144159
4382.500453,370.102971,-8733.488677,-296.082377
4382.500777,444.123565,-8350.440928,0.000000
4382.501102,296.082377,-8656.879127,-222.061783
4382.501426,444.123565,-8656.879127,-444.123565
4382.501750,518.144159,-8503.660028,-370.102971
4382.502075,518.144159,-8273.831378,-296.082377
4382.502399,444.123565,-8580.269578,-740.205942
4382.502723,296.082377,-8580.269578,-222.061783
4382.503048,444.123565,-8656.879127,-296.082377
4382.503372,444.123565,-8810.098227,-518.144159
4382.503696,888.247130,-9499.584175,-814.226536
4382.504021,370.102971,-8656.879127,-222.061783
4382.504345,518.144159,-8886.707777,-296.082377
4382.504669,444.123565,-8580.269578,-370.102971
4382.504994,518.144159,-9116.536426,-518.144159
4382.505318,666.185348,-8810.098227,-222.061783
4382.505642,518.144159,-8273.831378,-296.082377
4382.505967,370.102971,-8810.098227,-296.082377
4382.506291,370.102971,-8810.098227,-370.102971
4382.506615,518.144159,-8656.879127,-666.185348
4382.506939,444.123565,-8580.269578,-740.205942
4382.507264,444.123565,-8580.269578,-444.123565
4382.507588,370.102971,-8503.660028,-444.123565
4382.507912,740.205942,-8810.098227,-296.082377
4382.508237,444.123565,-8580.269578,-666.185348
4382.508561,444.123565,-9039.926876,-444.123565
4382.508885,518.144159,-8580.269578,-444.123565
4382.509210,222.061783,-8503.660028,-370.102971
4382.509534,518.144159,-8580.269578,-888.247130
4382.509858,444.123565,-8580.269578,-666.185348
4382.510183,518.144159,-8656.879127,-518.144159
4382.510507,444.123565,-8656.879127,-666.185348
4382.510831,592.164754,-8886.707777,-518.144159
4382.511156,592.164754,-8733.488677,-666.185348
4382.511480,592.164754,-8733.488677,-444.123565
4382.511804,444.123565,-8656.879127,-666.185348
4382.512129,592.164754,-9499.584175,-296.082377
4382.512453,370.102971,-8427.050478,-296.082377
4382.512777,222.061783,-8580.269578,-370.102971
4382.513101,370.102971,-8656.879127,-444.123565
4382.513426,444.123565,-8427.050478,-370.102971
4382.513750,592.164754,-8656.879127,-370.102971
4382.514074,444.123565,-8273.831378,-592.164754
4382.514399,518.144159,-8503.660028,-148.041188
4382.514723,444.123565,-8580.269578,-296.082377
4382.515047,0.000000,-8503.660028,-296.082377
4382.515372,296.082377,-8733.488677,-518.144159
4382.515696,592.164754,-8886.707777,-222.061783
4382.516020,740.205942,-8350.440928,-296.082377
4382.516345,444.123565,-8656.879127,-592.164754
4382.516669,518.144159,-8810.098227,-370.102971
4382.516993,370.102971,-8733.488677,-296.082377
4382.517318,444.123565,-8810.098227,-370.102971
4382.517642,592.164754,-8503.660028,0.000000
4382.517966,666.185348,-8503.660028,-148.041188
4382.518291,444.123565,-8580.269578,0.000000
4382.518615,296.082377,-8350.440928,-592.164754
4382.518939,444.123565,-8733.488677,-74.020594
4382.519264,814.226536,-8733.488677,-518.144159
4382.519588,296.082377,-8350.440928,-148.041188
4382.519912,370.102971,-8503.660028,-296.082377
4382.520236,296.082377,-8656.879127,-296.082377
4382.520561,518.144159,-9422.974625,-370.102971
4382.520885,444.123565,-8886.707777,-296.082377
4382.521209,518.144159,-8580.269578,-296.082377
4382.521534,518.144159,-8580.269578,0.000000
4382.521858,518.144159,-8580.269578,0.000000
4382.522182,814.226536,-9116.536426,-370.102971
4382.522507,296.082377,-8580.269578,-592.164754
4382.522831,370.102971,-8656.879127,0.000000
4382.523155,296.082377,-8427.050478,-444.123565
4382.523480,0.000000,-9269.755526,74.020594
4382.523804,222.061783,-8580.269578,-296.082377
4382.524128,296.082377,-8503.660028,-370.102971
4382.524453,444.123565,-8733.488677,-444.123565
4382.524777,0.000000,-9346.365076,-296.082377
4382.525101,666.185348,-8503.660028,-222.061783
4382.525426,296.082377,-8273.831378,-296.082377
4382.525750,518.144159,-8886.707777,-518.144159
4382.526074,518.144159,-8656.879127,-296.082377
4382.526398,444.123565,-8273.831378,-296.082377
4382.526723,518.144159,-8656.879127,-444.123565
4382.527047,296.082377,-8580.269578,-592.164754
4382.527371,666.185348,-8733.488677,-592.164754
4382.527696,518.144159,-8503.660028,-740.205942
4382.528020,518.144159,-8810.098227,-518.144159
4382.528344,666.185348,-8350.440928,-592.164754
4382.528669,666.185348,-8733.488677,-518.144159
4382.528993,148.041188,-8427.050478,-444.123565
4382.529317,666.185348,-8886.707777,-740.205942
4382.529642,370.102971,-8656.879127,-814.226536
4382.529966,370.102971,-8197.221829,-370.102971
4382.530290,370.102971,-8656.879127,-592.164754
4382.530615,962.267725,-8503.660028,-592.164754
4382.530939,592.164754,-8197.221829,-444.123565
4382.531263,444.123565,-8810.098227,-444.123565
4382.531587,444.123565,-8503.660028,-296.082377
4382.531912,592.164754,-8273.831378,-444.123565
4382.532236,666.185348,-8810.098227,-296.082377
4382.532560,370.102971,-8273.831378,-444.123565
4382.532885,592.164754,-8886.707777,-592.164754
4382.533209,148.041188,-8197.221829,-518.144159
4382.533533,370.102971,-9116.536426,0.000000
4382.533858,222.061783,-8580.269578,-370.102971
4382.534182,518.144159,-8350.440928,-296.082377
4382.534506,296.082377,-8427.050478,-370.102971
4382.534831,740.205942,-8810.098227,-370.102971
4382.535155,592.164754,-8656.879127,-444.123565
4382.535479,518.144159,-8580.269578,-148.041188
4382.535804,370.102971,-8503.660028,-296.082377
4382.536128,296.082377,-9116.536426,-296.082377
4382.536452,518.144159,-8503.660028,-370.102971
4382.536776,370.102971,-8656.879127,0.000000
4382.537101,444.123565,-8656.879127,-296.082377
4382.537425,148.041188,-8503.660028,-370.102971
4382.537749,444.123565,-8580.269578,0.000000
4382.538074,444.123565,-8580.269578,-518.144159
4382.538398,592.164754,-8886.707777,-222.061783
4382.538722,222.061783,-8503.660028,0.000000
4382.539047,814.226536,-8656.879127,-370.102971
4382.539371,370.102971,-8733.488677,-370.102971
4382.539695,592.164754,-8503.660028,-370.102971
4382.540020,518.144159,-8580.269578,-296.082377
4382.540344,518.144159,-8503.660028,0.000000
4382.540668,222.061783,-8733.488677,-148.041188
4382.540993,74.020594,-8273.831378,-222.061783
4382.541317,666.185348,-8503.660028,-370.102971
4382.541641,518.144159,-8427.050478,-370.102971
4382.541966,740.205942,-8503.660028,-518.144159
4382.542290,296.082377,-8733.488677,-296.082377
4382.542614,296.082377,-8580.269578,74.020594
4382.542938,74.020594,-8503.660028,-370.102971
4382.543263,814.226536,-8733.488677,-444.123565
4382.543587,444.123565,-8197.221829,-518.144159
4382.543911,592.164754,-8580.269578,0.000000
4382.544236,370.102971,-8656.879127,-222.061783
4382.544560,740.205942,-8656.879127,-444.123565
4382.544884,592.164754,-8886.707777,-666.185348
4382.545209,370.102971,-8810.098227,-592.164754
4382.545533,444.123565,-8656.879127,-296.082377
4382.545857,74.020594,-8886.707777,-370.102971
4382.546182,962.267725,-8580.269578,-370.102971
4382.546506,296.082377,-8733.488677,-518.144159
4382.546830,222.061783,-8810.098227,-222.061783
4382.547155,518.144159,-8503.660028,-222.061783
4382.547479,296.082377,-8656.879127,-148.041188
4382.547803,296.082377,-8733.488677,-222.061783
4382.548127,444.123565,-8580.269578,-444.123565
4382.548452,518.144159,-8733.488677,-518.144159
4382.548776,74.020594,-8656.879127,-148.041188
4382.549100,296.082377,-8886.707777,0.000000
4382.549425,222.061783,-8656.879127,-296.082377
4382.549749,296.082377,-8656.879127,-370.102971
4382.550073,592.164754,-8810.098227,-444.123565
4382.550398,740.205942,-8886.707777,-148.041188
4382.550722,222.061783,-8503.660028,-296.082377
4382.551046,444.123565,-8810.098227,-592.164754
4382.551371,518.144159,-8580.269578,-222.061783
4382.551695,444.123565,-8656.879127,-444.123565
4382.552019,518.144159,-8427.050478,-444.123565
4382.552344,370.102971,-8503.660028,-444.123565
4382.552668,518.144159,-8580.269578,-370.102971
4382.552992,444.123565,-8503.660028,-148.041188
4382.553316,518.144159,-8350.440928,-222.061783
4382.553641,148.041188,-8733.488677,-370.102971
4382.553965,518.144159,-8350.440928,-518.144159
4382.554289,222.061783,-8427.050478,-222.061783
4382.554614,1110.308913,-8810.098227,0.000000
4382.554938,222.061783,-8656.879127,-296.082377
4382.555262,444.123565,-8656.879127,-518.144159
4382.555587,444.123565,-8580.269578,-370.102971
4382.555911,444.123565,-8656.879127,222.061783
4382.556235,518.144159,-8273.831378,-370.102971
4382.556560,444.123565,-8580.269578,-148.041188
4382.556884,444.123565,-8656.879127,-296.082377
4382.557208,444.123565,-8810.098227,-296.082377
4382.557533,148.041188,-8197.221829,222.061783
4382.557857,296.082377,-8503.660028,0.000000
4382.558181,296.082377,-8733.488677,-370.102971
4382.558506,592.164754,-8503.660028,-370.102971
4382.558830,888.247130,-8197.221829,0.000000
4382.559154,296.082377,-8733.488677,-222.061783
4382.559478,148.041188,-8427.050478,-222.061783
4382.559803,148.041188,-8656.879127,-148.041188
4382.560127,222.061783,-8580.269578,0.000000
4382.560451,148.041188,-8656.879127,0.000000
4382.560776,444.123565,-8656.879127,-148.041188
4382.561100,592.164754,-8273.831378,-222.061783
4382.561424,296.082377,-8350.440928,-222.061783
4382.561749,0.000000,-8427.050478,148.041188
4382.562073,222.061783,-8427.050478,0.000000
4382.562397,296.082377,-8810.098227,-370.102971
4382.562722,370.102971,-8733.488677,-444.123565
4382.563046,518.144159,-8886.707777,148.041188
4382.563370,222.061783,-8886.707777,-148.041188
4382.563695,518.144159,-8427.050478,-296.082377
4382.564019,444.123565,-8886.707777,-370.102971
4382.564343,444.123565,-8810.098227,0.000000
4382.564667,222.061783,-8656.879127,0.000000
4382.564992,148.041188,-8810.098227,0.000000
4382.565316,296.082377,-8350.440928,-370.102971
4382.565640,370.102971,-8733.488677,-444.123565
4382.565965,74.020594,-8273.831378,-222.061783
4382.566289,296.082377,-8580.269578,-148.041188
4382.566613,444.123565,-8656.879127,-296.082377
4382.566938,222.061783,-8580.269578,-222.061783
4382.567262,518.144159,-8963.317327,0.000000
4382.567586,296.082377,-8810.098227,-296.082377
4382.567911,592.164754,-8427.050478,-296.082377
4382.568235,296.082377,-8503.660028,-296.082377
4382.568559,592.164754,-8656.879127,-444.123565
4382.568884,814.226536,-8503.660028,-370.102971
4382.569208,814.226536,-8733.488677,-296.082377
4382.569532,444.123565,-8580.269578,-518.144159
4382.569856,296.082377,-8810.098227,-222.061783
4382.570181,592.164754,-9039.926876,-370.102971
4382.570505,370.102971,-8656.879127,-296.082377
4382.570829,518.144159,-8580.269578,-296.082377
4382.571154,296.082377,-8656.879127,-518.144159
4382.571478,518.144159,-8273.831378,-148.041188
4382.571802,148.041188,-8656.879127,0.000000
4382.572127,296.082377,-8580.269578,-148.041188
4382.572451,592.164754,-8273.831378,-296.082377
4382.572775,666.185348,-8733.488677,-444.123565
4382.573100,444.123565,-8810.098227,74.020594
4382.573424,518.144159,-8580.269578,-370.102971
4382.573748,370.102971,-8503.660028,-148.041188
4382.574073,444.123565,-8580.269578,-148.041188
4382.574397,888.247130,-8886.707777,-370.102971
4382.574721,444.123565,-8733.488677,-148.041188
4382.575045,148.041188,-8350.440928,0.000000
4382.575370,296.082377,-8580.269578,-296.082377
4382.575694,222.061783,-8503.660028,0.000000
4382.576018,444.123565,-8427.050478,-296.082377
4382.576343,370.102971,-8580.269578,-296.082377
4382.576667,222.061783,-8503.660028,0.000000
4382.576991,370.102971,-8886.707777,0.000000
4382.577316,666.185348,-8427.050478,0.000000
4382.577640,74.020594,-8503.660028,0.000000
4382.577964,296.082377,-8733.488677,-370.102971
4382.578289,0.000000,-8197.221829,-222.061783
4382.578613,370.102971,-8197.221829,148.041188
4382.578937,148.041188,-8656.879127,-370.102971
4382.579262,370.102971,-8350.440928,-592.164754
4382.579586,148.041188,-8810.098227,-148.041188
4382.579910,592.164754,-8427.050478,-444.123565
4382.580235,296.082377,-8503.660028,-296.082377
4382.580559,518.144159,-8580.269578,-222.061783
4382.580883,666.185348,-8273.831378,-370.102971
4382.581207,444.123565,-8733.488677,-296.082377
4382.581532,444.123565,-8733.488677,-1036.288319
4382.581856,592.164754,-8273.831378,-74.020594
4382.582180,444.123565,-8273.831378,-296.082377
4382.582505,222.061783,-8656.879127,-222.061783
4382.582829,370.102971,-8503.660028,0.000000
4382.583153,518.144159,-8656.879127,-370.102971
4382.583478,518.144159,-8427.050478,-370.102971
4382.583802,444.123565,-8733.488677,-222.061783
4382.584126,148.041188,-8427.050478,-296.082377
4382.584451,296.082377,-8350.440928,-148.041188
4382.584775,444.123565,-8810.098227,-518.144159
4382.585099,814.226536,-8886.707777,-518.144159
4382.585424,592.164754,-8197.221829,-444.123565
4382.585748,592.164754,-8810.098227,-518.144159
4382.586072,518.144159,-8733.488677,-518.144159
4382.586396,592.164754,-8733.488677,-444.123565
4382.586721,518.144159,-8656.879127,-518.144159
4382.587045,592.164754,-8044.002729,0.000000
4382.587369,740.205942,-8503.660028,-518.144159
4382.587694,592.164754,-8656.879127,-296.082377
4382.588018,592.164754,-8810.098227,-296.082377
4382.588342,666.185348,-8733.488677,-518.144159
4382.588667,666.185348,-8427.050478,-814.226536
4382.588991,518.144159,-8733.488677,-296.082377
4382.589315,296.082377,-8810.098227,-296.082377
4382.589640,148.041188,-8733.488677,-444.123565
4382.589964,222.061783,-8197.221829,-518.144159
4382.590288,370.102971,-8350.440928,-444.123565
4382.590613,518.144159,-8656.879127,-518.144159
4382.590937,592.164754,-8886.707777,-444.123565
4382.591261,592.164754,-8810.098227,-370.102971
4382.591585,370.102971,-8503.660028,-518.144159
4382.591910,444.123565,-8886.707777,-666.185348
4382.592234,444.123565,-8273.831378,-296.082377
4382.592558,148.041188,-8656.879127,-518.144159
4382.592883,74.020594,-8350.440928,-296.082377
4382.593207,518.144159,-8197.221829,-296.082377
4382.593531,370.102971,-8810.098227,-370.102971
4382.593856,370.102971,-8580.269578,0.000000
4382.594180,666.185348,-8350.440928,-370.102971
4382.594504,296.082377,-8580.269578,-296.082377
4382.594829,370.102971,-8427.050478,-296.082377
4382.595153,592.164754,-8503.660028,-296.082377
4382.595477,518.144159,-8733.488677,-296.082377
4382.595802,222.061783,-8197.221829,0.000000
4382.596126,296.082377,-8810.098227,-296.082377
4382.596450,296.082377,-8427.050478,-296.082377
4382.596774,592.164754,-8273.831378,0.000000
4382.597099,444.123565,-8580.269578,-444.123565
4382.597423,518.144159,-8580.269578,0.000000
4382.597747,296.082377,-8273.831378,-518.144159
4382.598072,518.144159,-8427.050478,-222.061783
4382.598396,296.082377,-8197.221829,-296.082377
4382.598720,444.123565,-8656.879127,-370.102971
4382.599045,296.082377,-8503.660028,0.000000
4382.599369,222.061783,-8656.879127,0.000000
4382.599693,518.144159,-8580.269578,-370.102971
4382.600018,222.061783,-8427.050478,-518.144159
4382.600342,518.144159,-8733.488677,-296.082377
4382.600666,444.123565,-8580.269578,-370.102971
4382.600991,518.144159,-8733.488677,-444.123565
4382.601315,370.102971,-8197.221829,-296.082377
4382.601639,518.144159,-8580.269578,-370.102971
4382.601964,444.123565,-8656.879127,-444.123565
4382.602288,296.082377,-8656.879127,-518.144159
4382.602612,666.185348,-9193.145976,0.000000
4382.602936,148.041188,-8886.707777,-222.061783
4382.603261,444.123565,-8810.098227,-296.082377
4382.603585,592.164754,-8580.269578,-444.123565
4382.603909,444.123565,-8580.269578,-370.102971
4382.604234,296.082377,-8656.879127,0.000000
4382.604558,444.123565,-8810.098227,-296.082377
4382.604882,592.164754,-8503.660028,-518.144159
4382.605207,296.082377,-8503.660028,-370.102971
4382.605531,814.226536,-8733.488677,-518.144159
4382.605855,444.123565,-8580.269578,-592.164754
4382.606180,518.144159,-8503.660028,-370.102971
4382.606504,148.041188,-8810.098227,-592.164754
4382.606828,296.082377,-8886.707777,-296.082377
4382.607153,444.123565,-8733.488677,-296.082377
4382.607477,592.164754,-8886.707777,-592.164754
4382.607801,296.082377,-8427.050478,-518.144159
4382.608125,370.102971,-8350.440928,-444.123565
4382.608450,222.061783,-8580.269578,148.041188
4382.608774,518.144159,-8350.440928,-592.164754
4382.609098,444.123565,-8427.050478,-666.185348
4382.609423,740.205942,-8350.440928,-518.144159
4382.609747,444.123565,-9499.584175,-814.226536
4382.610071,444.123565,-8580.269578,-518.144159
4382.610396,518.144159,-8503.660028,-296.082377
4382.610720,444.123565,-8733.488677,-592.164754
4382.611044,592.164754,-8656.879127,-666.185348
4382.611369,148.041188,-8273.831378,-296.082377
4382.611693,592.164754,-8503.660028,-444.123565
4382.612017,518.144159,-8503.660028,-592.164754
4382.612342,296.082377,-8656.879127,-370.102971
4382.612666,444.123565,-9193.145976,-296.082377
4382.612990,444.123565,-8503.660028,-518.144159
4382.613314,444.123565,-8503.660028,-444.123565
4382.613639,222.061783,-8503.660028,0.000000
4382.613963,666.185348,-9346.365076,-370.102971
4382.614287,222.061783,-8580.269578,-370.102971
4382.614612,518.144159,-8503.660028,-444.123565
4382.614936,518.144159,-8580.269578,-222.061783
4382.615260,370.102971,-8503.660028,-370.102971
4382.615585,592.164754,-8580.269578,-444.123565
4382.615909,518.144159,-8656.879127,-592.164754
4382.616233,518.144159,-8733.488677,-518.144159
4382.616558,444.123565,-8350.440928,-74.020594
4382.616882,592.164754,-8810.098227,0.000000
4382.617206,296.082377,-8503.660028,-444.123565
4382.617531,592.164754,-8350.440928,-370.102971
4382.617855,444.123565,-8350.440928,-444.123565
4382.618179,444.123565,-9346.365076,-592.164754
4382.618504,222.061783,-8503.660028,-222.061783
4382.618828,444.123565,-8656.879127,0.000000
4382.619152,444.123565,-8427.050478,-518.144159
4382.619476,518.144159,-8580.269578,-296.082377
4382.619801,592.164754,-8963.317327,-370.102971
4382.620125,370.102971,-8503.660028,-370.102971
4382.620449,222.061783,-8733.488677,-444.123565
4382.620774,444.123565,-8350.440928,-444.123565
4382.621098,592.164754,-9269.755526,-148.041188
4382.621422,518.144159,-8733.488677,-444.123565
4382.621747,518.144159,-8656.879127,-592.164754
4382.622071,444.123565,-8656.879127,-666.185348
4382.622395,592.164754,-9039.926876,-222.061783
4382.622720,444.123565,-8503.660028,-370.102971
4382.623044,518.144159,-8963.317327,-370.102971
4382.623368,518.144159,-8503.660028,-296.082377
4382.623692,296.082377,-8580.269578,-592.164754
4382.624017,222.061783,-9039.926876,-370.102971
4382.624341,222.061783,-8656.879127,-148.041188
4382.624665,518.144159,-8656.879127,-444.123565
4382.624989,592.164754,-8656.879127,-666.185348
4382.625314,148.041188,-8733.488677,74.020594
4382.625638,296.082377,-8580.269578,-370.102971
4382.625962,370.102971,-8733.488677,0.000000
4382.626286,666.185348,-8656.879127,-370.102971
4382.626611,666.185348,-8810.098227,-666.185348
4382.626935,518.144159,-8810.098227,-444.123565
4382.627259,444.123565,-8886.707777,-444.123565
4382.627584,444.123565,-8503.660028,-444.123565
4382.627908,592.164754,-8963.317327,-296.082377
4382.628232,444.123565,-8427.050478,-370.102971
4382.628556,444.123565,-8733.488677,-370.102971
4382.628881,296.082377,-8580.269578,-518.144159
4382.629205,370.102971,-8810.098227,-370.102971
4382.629529,222.061783,-8427.050478,-370.102971
4382.629853,370.102971,-8733.488677,-370.102971
4382.630178,740.205942,-8580.269578,-518.144159
4382.630502,518.144159,-8580.269578,-370.102971
4382.630826,370.102971,-8733.488677,-444.123565
4382.631150,296.082377,-8273.831378,-444.123565
4382.631475,296.082377,-8503.660028,-592.164754
4382.631799,296.082377,-8580.269578,-444.123565
4382.632123,148.041188,-8503.660028,-296.082377
4382.632447,444.123565,-8580.269578,-740.205942
4382.632772,518.144159,-8503.660028,-296.082377
4382.633096,296.082377,-8197.221829,-444.123565
4382.633420,518.144159,-8656.879127,-370.102971
4382.633744,592.164754,-8350.440928,-222.061783
4382.634069,518.144159,-8656.879127,-222.061783
4382.634393,296.082377,-8733.488677,-444.123565
4382.634717,370.102971,-8580.269578,-222.061783
4382.635041,518.144159,-8503.660028,-518.144159
4382.635366,370.102971,-8427.050478,-222.061783
4382.635690,370.102971,-8503.660028,-222.061783
4382.636014,444.123565,-8503.660028,-296.082377
4382.636339,296.082377,-8350.440928,0.000000
4382.636663,740.205942,-8120.612279,-666.185348
4382.636987,518.144159,-8810.098227,-148.041188
4382.637311,444.123565,-8120.612279,-518.144159
4382.637636,296.082377,-8427.050478,-222.061783
4382.637960,222.061783,-9039.926876,-296.082377
4382.638284,444.123565,-8350.440928,0.000000
4382.638608,592.164754,-8273.831378,-370.102971
4382.638933,222.061783,-8810.098227,-370.102971
4382.639257,74.020594,-8580.269578,-370.102971
4382.639581,592.164754,-8503.660028,-370.102971
4382.639905,444.123565,-8656.879127,-296.082377
4382.640230,666.185348,-8733.488677,-444.123565
4382.640554,666.185348,-8427.050478,-370.102971
4382.640878,740.205942,-8810.098227,-444.123565
4382.641202,444.123565,-8886.707777,-518.144159
4382.641527,296.082377,-8810.098227,-222.061783
4382.641851,444.123565,-8580.269578,-222.061783
4382.642175,444.123565,-8273.831378,-444.123565
4382.642499,444.123565,-8503.660028,-370.102971
4382.642824,518.144159,-8656.879127,-370.102971
4382.643148,444.123565,-8580.269578,-148.041188
4382.643472,444.123565,-8503.660028,-518.144159
4382.643796,1110.308913,-9269.755526,-518.144159
4382.644121,444.123565,-8197.221829,-370.102971
4382.644445,296.082377,-8733.488677,-296.082377
4382.644769,296.082377,-8886.707777,-296.082377
4382.645094,740.205942,-8656.879127,-296.082377
4382.645418,518.144159,-8810.098227,-518.144159
4382.645742,296.082377,-8580.269578,-444.123565
4382.646066,444.123565,-8810.098227,-74.020594
4382.646391,370.102971,-8580.269578,-444.123565
4382.646715,444.123565,-8810.098227,-296.082377
4382.647039,518.144159,-8580.269578,-592.164754
4382.647363,444.123565,-8963.317327,-370.102971
4382.647688,370.102971,-8350.440928,-222.061783
4382.648012,222.061783,-8503.660028,0.000000
4382.648336,296.082377,-8810.098227,-296.082377
4382.648660,222.061783,-8810.098227,-370.102971
4382.648985,444.123565,-8427.050478,-222.061783
4382.649309,370.102971,-8886.707777,222.061783
4382.649633,518.144159,-8656.879127,-518.144159
4382.649957,370.102971,-8963.317327,-370.102971
4382.650282,518.144159,-8656.879127,-444.123565
4382.650606,296.082377,-8580.269578,-370.102971
4382.650930,444.123565,-8580.269578,-296.082377
4382.651254,370.102971,-8350.440928,-370.102971
4382.651579,444.123565,-8810.098227,-296.082377
4382.651903,296.082377,-8503.660028,0.000000
4382.652227,444.123565,-7814.174080,148.041188
4382.652551,370.102971,-8580.269578,-296.082377
4382.652876,296.082377,-8427.050478,-370.102971
4382.653200,444.123565,-8580.269578,-148.041188
4382.653524,148.041188,-8963.317327,0.000000
4382.653849,296.082377,-8503.660028,-296.082377
4382.654173,296.082377,-8656.879127,-222.061783
4382.654497,370.102971,-8656.879127,-296.082377
4382.654821,74.020594,-8350.440928,0.000000
4382.655146,222.061783,-8733.488677,0.000000
4382.655470,444.123565,-8350.440928,-296.082377
4382.655794,370.102971,-8656.879127,-296.082377
4382.656118,444.123565,-8656.879127,-296.082377
4382.656443,222.061783,-8810.098227,370.102971
4382.656767,370.102971,-8580.269578,-222.061783
4382.657091,444.123565,-8656.879127,-222.061783
4382.657415,296.082377,-8350.440928,-592.164754
4382.657740,370.102971,-8963.317327,-444.123565
4382.658064,592.164754,-8427.050478,-296.082377
4382.658388,222.061783,-8427.050478,-444.123565
4382.658712,444.123565,-8427.050478,-370.102971
4382.659037,296.082377,-8197.221829,-444.123565
4382.659361,814.226536,-8580.269578,-592.164754
4382.659685,444.123565,-8503.660028,-370.102971
4382.660009,518.144159,-8427.050478,-222.061783
4382.660334,222.061783,-8580.269578,-444.123565
4382.660658,370.102971,-8886.707777,74.020594
4382.660982,296.082377,-8733.488677,-518.144159
4382.661306,518.144159,-8427.050478,-370.102971
4382.661631,370.102971,-8427.050478,-444.123565
4382.661955,370.102971,-8656.879127,-296.082377
4382.662279,296.082377,-8427.050478,-518.144159
4382.662604,592.164754,-8656.879127,-296.082377
4382.662928,518.144159,-8580.269578,-296.082377
4382.663252,518.144159,-8503.660028,-444.123565
4382.663576,296.082377,-8273.831378,-296.082377
4382.663901,296.082377,-8733.488677,-370.102971
4382.664225,444.123565,-8427.050478,-222.061783
4382.664549,592.164754,-8886.707777,-666.185348
4382.664873,740.205942,-9193.145976,74.020594
4382.665198,296.082377,-8503.660028,-148.041188
4382.665522,370.102971,-8656.879127,-296.082377
4382.665846,74.020594,-8656.879127,-296.082377
4382.666170,518.144159,-8427.050478,-592.164754
4382.666495,296.082377,-8810.098227,-222.061783
4382.666819,296.082377,-8656.879127,-148.041188
4382.667143,370.102971,-8886.707777,-222.061783
4382.667467,296.082377,-8733.488677,-296.082377
4382.667792,518.144159,-8273.831378,0.000000
4382.668116,222.061783,-8580.269578,-370.102971
4382.668440,370.102971,-8656.879127,-296.082377
4382.668764,74.020594,-8580.269578,-444.123565
4382.669089,296.082377,-9269.755526,-222.061783
4382.669413,518.144159,-8273.831378,-444.123565
4382.669737,518.144159,-8656.879127,-370.102971
4382.670061,222.061783,-8427.050478,-444.123565
4382.670386,222.061783,-8733.488677,-74.020594
4382.670710,740.205942,-8427.050478,-518.144159
4382.671034,296.082377,-8733.488677,0.000000
4382.671359,222.061783,-8427.050478,-444.123565
4382.671683,518.144159,-8810.098227,-222.061783
4382.672007,1184.329507,-7967.393179,-370.102971
4382.672331,296.082377,-8580.269578,0.000000
4382.672656,444.123565,-8427.050478,-370.102971
4382.672980,444.123565,-8503.660028,-148.041188
4382.673304,370.102971,-8580.269578,-592.164754
4382.673628,444.123565,-8733.488677,0.000000
4382.673953,148.041188,-8427.050478,-222.061783
4382.674277,740.205942,-8656.879127,-296.082377
4382.674601,518.144159,-8427.050478,-74.020594
4382.674925,1036.288319,-8656.879127,-296.082377
4382.675250,296.082377,-8656.879127,0.000000
4382.675574,444.123565,-8427.050478,74.020594
4382.675898,222.061783,-8810.098227,0.000000
4382.676222,814.226536,-8273.831378,-296.082377
4382.676547,666.185348,-8350.440928,-296.082377
4382.676871,296.082377,-8503.660028,-222.061783
4382.677195,222.061783,-8656.879127,0.000000
4382.677519,444.123565,-8580.269578,0.000000
4382.677844,666.185348,-8656.879127,-222.061783
4382.678168,222.061783,-8427.050478,-370.102971
4382.678492,370.102971,-8733.488677,-370.102971
4382.678816,592.164754,-8427.050478,0.000000
4382.679141,814.226536,-8503.660028,-222.061783
4382.679465,296.082377,-8810.098227,-444.123565
4382.679789,296.082377,-8427.050478,-370.102971
4382.680114,370.102971,-9116.536426,-296.082377
4382.680438,296.082377,-8656.879127,-222.061783
4382.680762,518.144159,-8733.488677,-296.082377
4382.681086,296.082377,-8427.050478,-296.082377
4382.681411,592.164754,-8733.488677,-222.061783
4382.681735,370.102971,-8580.269578,-370.102971
4382.682059,296.082377,-9116.536426,-148.041188
4382.682383,518.144159,-8044.002729,-222.061783
4382.682708,518.144159,-8810.098227,-370.102971
4382.683032,296.082377,-8350.440928,-666.185348
4382.683356,370.102971,-8656.879127,0.000000
4382.683680,370.102971,-8733.488677,-370.102971
4382.684005,74.020594,-8733.488677,-148.041188
4382.684329,444.123565,-8656.879127,-222.061783
4382.684653,444.123565,-8656.879127,-148.041188
4382.684977,444.123565,-8886.707777,0.000000
4382.685302,444.123565,-8733.488677,-444.123565
4382.685626,592.164754,-8810.098227,-296.082377
4382.685950,592.164754,-8350.440928,-296.082377
4382.686274,370.102971,-8733.488677,-518.144159
4382.686599,370.102971,-8350.440928,-296.082377
4382.686923,666.185348,-8503.660028,-296.082377
4382.687247,592.164754,-8656.879127,-518.144159
4382.687571,1036.288319,-8656.879127,-222.061783
4382.687896,296.082377,-8656.879127,-370.102971
4382.688220,518.144159,-8733.488677,-222.061783
4382.688544,666.185348,-8503.660028,-592.164754
4382.688869,444.123565,-8886.707777,0.000000
4382.689193,518.144159,-8656.879127,-296.082377
4382.689517,222.061783,-8427.050478,-444.123565
4382.689841,296.082377,-8656.879127,-444.123565
4382.690166,592.164754,-8273.831378,-518.144159
4382.690490,592.164754,-8120.612279,-296.082377
4382.690814,444.123565,-8580.269578,-370.102971
4382.691138,518.144159,-8810.098227,-592.164754
4382.691463,444.123565,-8733.488677,-222.061783
4382.691787,666.185348,-7967.393179,-222.061783
4382.692111,666.185348,-8503.660028,-518.144159
4382.692435,518.144159,-8810.098227,-666.185348
4382.692760,444.123565,-8733.488677,-296.082377
4382.693084,222.061783,-8503.660028,-148.041188
4382.693408,222.061783,-8656.879127,-296.082377
4382.693732,370.102971,-8427.050478,-444.123565
4382.694057,370.102971,-8580.269578,-518.144159
4382.694381,518.144159,-8197.221829,-370.102971
4382.694705,0.000000,-7814.174080,148.041188
4382.695029,370.102971,-8580.269578,-370.102971
4382.695354,444.123565,-8733.488677,-296.082377
4382.695678,444.123565,-8656.879127,-592.164754
4382.696002,370.102971,-9039.926876,0.000000
4382.696326,370.102971,-8656.879127,0.000000
4382.696651,222.061783,-8963.317327,0.000000
4382.696975,222.061783,-8656.879127,-296.082377
4382.697299,296.082377,-8656.879127,-296.082377
4382.697624,444.123565,-8656.879127,-222.061783
4382.697948,222.061783,-8580.269578,0.000000
4382.698272,296.082377,-8273.831378,-148.041188
4382.698596,444.123565,-8656.879127,-296.082377
4382.698921,444.123565,-8580.269578,0.000000
4382.699245,222.061783,-8580.269578,-444.123565
4382.699569,592.164754,-8273.831378,-296.082377
4382.699893,666.185348,-8427.050478,-148.041188
4382.700218,296.082377,-8733.488677,0.000000
4382.700542,518.144159,-8350.440928,-148.041188
4382.700866,444.123565,-8350.440928,-222.061783
4382.701190,222.061783,-8656.879127,0.000000
4382.701515,148.041188,-8580.269578,0.000000
4382.701839,666.185348,-8656.879127,-444.123565
4382.702163,296.082377,-8733.488677,-222.061783
4382.702487,148.041188,-8733.488677,-370.102971
4382.702812,592.164754,-8810.098227,-444.123565
4382.703136,814.226536,-8580.269578,0.000000
4382.703460,518.144159,-8810.098227,0.000000
4382.703784,296.082377,-8656.879127,-370.102971
4382.704109,518.144159,-8580.269578,-518.144159
4382.704433,222.061783,-7890.783629,-296.082377
4382.704757,444.123565,-8656.879127,-444.123565
4382.705081,444.123565,-8580.269578,-370.102971
4382.705406,666.185348,-8733.488677,-370.102971
4382.705730,518.144159,-8580.269578,-592.164754
4382.706054,74.020594,-8503.660028,-370.102971
4382.706379,518.144159,-8503.660028,-518.144159
4382.706703,592.164754,-8273.831378,0.000000
4382.707027,370.102971,-8733.488677,-296.082377
4382.707351,370.102971,-8197.221829,-296.082377
4382.707676,296.082377,-8886.707777,-296.082377
4382.708000,444.123565,-8580.269578,-518.144159
4382.708324,666.185348,-8503.660028,-370.102971
4382.708648,222.061783,-8580.269578,-296.082377
4382.708973,370.102971,-8273.831378,-296.082377
4382.709297,518.144159,-8427.050478,-666.185348
4382.709621,740.205942,-8427.050478,-370.102971
4382.709945,740.205942,-8580.269578,-444.123565
4382.710270,666.185348,-8197.221829,-592.164754
4382.710594,518.144159,-8427.050478,-518.144159
4382.710918,370.102971,-8503.660028,-444.123565
4382.711242,592.164754,-8580.269578,-444.123565
4382.711567,444.123565,-8273.831378,-518.144159
4382.711891,444.123565,-8656.879127,-370.102971
4382.712215,296.082377,-8503.660028,-444.123565
4382.712539,444.123565,-8350.440928,-518.144159
4382.712864,518.144159,-8733.488677,-444.123565
4382.713188,666.185348,-8580.269578,-666.185348
4382.713512,666.185348,-8273.831378,-518.144159
4382.713836,444.123565,-8350.440928,-444.123565
4382.714161,296.082377,-8733.488677,-296.082377
4382.714485,740.205942,-8733.488677,-148.041188
4382.714809,592.164754,-8656.879127,-592.164754
4382.715134,222.061783,-8503.660028,-370.102971
4382.715458,370.102971,-8886.707777,-592.164754
4382.715782,592.164754,-8963.317327,-370.102971
4382.716106,518.144159,-8350.440928,-370.102971
4382.716431,444.123565,-8350.440928,-370.102971
4382.716755,370.102971,-8580.269578,-444.123565
4382.717079,370.102971,-8120.612279,0.000000
4382.717403,370.102971,-8427.050478,-222.061783
4382.717728,370.102971,-8580.269578,-296.082377
4382.718052,444.123565,-8580.269578,-518.144159
4382.718376,370.102971,-8656.879127,-518.144159
4382.718700,518.144159,-8656.879127,148.041188
4382.719025,74.020594,-8427.050478,-296.082377
4382.719349,518.144159,-8656.879127,-518.144159
4382.719673,370.102971,-8273.831378,-222.061783
4382.719997,518.144159,-8886.707777,-444.123565
4382.720322,666.185348,-8580.269578,-296.082377
4382.720646,444.123565,-8273.831378,-222.061783
4382.720970,296.082377,-8656.879127,0.000000
4382.721294,148.041188,-8733.488677,0.000000
4382.721619,0.000000,-8656.879127,0.000000
4382.721943,222.061783,-8580.269578,-444.123565
4382.722267,370.102971,-8810.098227,0.000000
4382.722591,444.123565,-8350.440928,-370.102971
4382.722916,888.247130,-8273.831378,-296.082377
4382.723240,296.082377,-8273.831378,-370.102971
4382.723564,444.123565,-8656.879127,0.000000
4382.723889,370.102971,-8350.440928,0.000000
4382.724213,222.061783,-8656.879127,0.000000
4382.724537,296.082377,-8580.269578,-370.102971
4382.724862,296.082377,-8810.098227,-222.061783
4382.725186,444.123565,-8810.098227,-518.144159
4382.725510,518.144159,-8656.879127,-370.102971
4382.725835,222.061783,-8963.317327,222.061783
4382.726159,592.164754,-8963.317327,-370.102971
4382.726483,518.144159,-8503.660028,-74.020594
4382.726808,222.061783,-8810.098227,-222.061783
4382.727132,666.185348,-8963.317327,-370.102971
4382.727456,592.164754,-8273.831378,-222.061783
4382.727781,148.041188,-8197.221829,-296.082377
4382.728105,370.102971,-8503.660028,-296.082377
4382.728429,444.123565,-8427.050478,-444.123565
4382.728754,296.082377,-8810.098227,-222.061783
4382.729078,296.082377,-8273.831378,-222.061783
4382.729402,370.102971,-8656.879127,-296.082377
4382.729727,296.082377,-8350.440928,-444.123565
4382.730051,296.082377,-7967.393179,-444.123565
4382.730375,518.144159,-8580.269578,-592.164754
4382.730700,370.102971,-8733.488677,-296.082377
4382.731024,222.061783,-8656.879127,-296.082377
4382.731348,444.123565,-8580.269578,-740.205942
4382.731673,444.123565,-8580.269578,-518.144159
4382.731997,592.164754,-8580.269578,-444.123565
4382.732321,518.144159,-8733.488677,-370.102971
4382.732646,370.102971,-8427.050478,-148.041188
4382.732970,444.123565,-8427.050478,-444.123565
4382.733294,518.144159,-8580.269578,-222.061783
4382.733619,592.164754,-8350.440928,-370.102971
4382.733943,518.144159,-8733.488677,-592.164754
4382.734267,888.247130,-8273.831378,-444.123565
4382.734592,370.102971,-8273.831378,-518.144159
4382.734916,296.082377,-8427.050478,-518.144159
4382.735240,296.082377,-8427.050478,-444.123565
4382.735565,518.144159,-8963.317327,-370.102971
4382.735889,370.102971,-8273.831378,-592.164754
4382.736213,370.102971,-8733.488677,-370.102971
4382.736538,222.061783,-8733.488677,-370.102971
4382.736862,296.082377,-8810.098227,-444.123565
4382.737186,444.123565,-8350.440928,-666.185348
4382.737511,592.164754,-8656.879127,-814.226536
4382.737835,518.144159,-8427.050478,-592.164754
4382.738159,444.123565,-8580.269578,-222.061783
4382.738484,666.185348,-8810.098227,-370.102971
4382.738808,518.144159,-8503.660028,-370.102971
4382.739132,518.144159,-8886.707777,-444.123565
4382.739457,370.102971,-8350.440928,-518.144159
4382.739781,222.061783,-9193.145976,-222.061783
4382.740105,518.144159,-8733.488677,-518.144159
4382.740430,666.185348,-8427.050478,-666.185348
4382.740754,296.082377,-8810.098227,-592.164754
4382.741078,592.164754,-8733.488677,-370.102971
4382.741403,444.123565,-8120.612279,-296.082377
4382.741727,222.061783,-8580.269578,-370.102971
4382.742051,296.082377,-8580.269578,-370.102971
4382.742376,444.123565,-8350.440928,-370.102971
4382.742700,222.061783,-8733.488677,74.020594
4382.743024,370.102971,-8656.879127,-444.123565
4382.743349,444.123565,-8733.488677,-148.041188
4382.743673,370.102971,-8810.098227,-444.123565
4382.743997,518.144159,-8656.879127,-444.123565
4382.744322,444.123565,-8733.488677,-518.144159
4382.744646,370.102971,-8427.050478,-296.082377
4382.744970,296.082377,-8503.660028,-222.061783
4382.745295,148.041188,-8656.879127,-370.102971
4382.745619,1110.308913,-8733.488677,-592.164754
4382.745943,740.205942,-8656.879127,-444.123565
4382.746268,444.123565,-8733.488677,-518.144159
4382.746592,666.185348,-8733.488677,-222.061783
4382.746916,888.247130,-8810.098227,-222.061783
4382.747241,370.102971,-8810.098227,-370.102971
4382.747565,444.123565,-8503.660028,-370.102971
4382.747889,518.144159,-8810.098227,-370.102971
4382.748214,222.061783,-8656.879127,-296.082377
4382.748538,222.061783,-8580.269578,-222.061783
4382.748862,296.082377,-8810.098227,-370.102971
4382.749187,444.123565,-8810.098227,-370.102971
4382.749511,592.164754,-8733.488677,-370.102971
4382.749835,518.144159,-8197.221829,-370.102971
4382.750160,222.061783,-8656.879127,-370.102971
4382.750484,518.144159,-8580.269578,-370.102971
4382.750808,518.144159,-8810.098227,-444.123565
4382.751133,814.226536,-8656.879127,-518.144159
4382.751457,296.082377,-8733.488677,-370.102971
4382.751781,592.164754,-8427.050478,0.000000
4382.752106,444.123565,-8656.879127,-370.102971
4382.752430,370.102971,-8503.660028,0.000000
4382.752754,592.164754,-8273.831378,-666.185348
4382.753079,592.164754,-9116.536426,-370.102971
4382.753403,370.102971,-8810.098227,-296.082377
4382.753727,518.144159,-8427.050478,-296.082377
4382.754052,888.247130,-8656.879127,-222.061783
4382.754376,444.123565,-8503.660028,-444.123565
4382.754700,518.144159,-8503.660028,-370.102971
4382.755025,666.185348,-8656.879127,-444.123565
4382.755349,444.123565,-8656.879127,0.000000
4382.755673,296.082377,-8503.660028,-296.082377
4382.755998,518.144159,-8503.660028,-370.102971
4382.756322,370.102971,-8733.488677,-296.082377
4382.756646,592.164754,-8503.660028,-592.164754
4382.756971,296.082377,-8044.002729,0.000000
4382.757295,370.102971,-8886.707777,-148.041188
4382.757619,370.102971,-8503.660028,-222.061783
4382.757944,666.185348,-8656.879127,-592.164754
4382.758268,296.082377,-7967.393179,-74.020594
4382.758593,296.082377,-8350.440928,0.000000
4382.758917,296.082377,-8580.269578,0.000000
4382.759241,518.144159,-8427.050478,-296.082377
4382.759566,444.123565,-8580.269578,-296.082377
4382.759890,444.123565,-8427.050478,-296.082377
4382.760214,74.020594,-8733.488677,-222.061783
4382.760539,222.061783,-8656.879127,-222.061783
4382.760863,444.123565,-8656.879127,0.000000
4382.761187,666.185348,-8580.269578,-444.123565
4382.761512,518.144159,-8656.879127,-370.102971
4382.761836,296.082377,-8503.660028,-296.082377
4382.762160,888.247130,-8733.488677,-148.041188
4382.762485,518.144159,-8810.098227,-518.144159
4382.762809,592.164754,-8810.098227,0.000000
4382.763133,444.123565,-8656.879127,-370.102971
4382.763458,518.144159,-8503.660028,-296.082377
4382.763782,222.061783,-8656.879127,-222.061783
4382.764106,592.164754,-8733.488677,0.000000
4382.764431,518.144159,-8656.879127,-222.061783
4382.764755,444.123565,-8350.440928,0.000000
4382.765079,296.082377,-8810.098227,-444.123565
4382.765404,814.226536,-8580.269578,0.000000
4382.765728,518.144159,-8427.050478,0.000000
4382.766052,296.082377,-8580.269578,-370.102971
4382.766377,444.123565,-8656.879127,-444.123565
4382.766701,814.226536,-8580.269578,-370.102971
4382.767025,444.123565,-8810.098227,-296.082377
4382.767350,296.082377,-8580.269578,-370.102971
4382.767674,444.123565,-8503.660028,-370.102971
4382.767998,518.144159,-8656.879127,-148.041188
4382.768323,444.123565,-8503.660028,-222.061783
4382.768647,444.123565,-8656.879127,-444.123565
4382.768971,740.205942,-8580.269578,-222.061783
4382.769296,444.123565,-8503.660028,-296.082377
4382.769620,370.102971,-8350.440928,-592.164754
4382.769944,444.123565,-8656.879127,-444.123565
4382.770269,592.164754,-8503.660028,-444.123565
4382.770593,444.123565,-8656.879127,-592.164754
4382.770917,222.061783,-8044.002729,-296.082377
4382.771242,370.102971,-8733.488677,-148.041188
4382.771566,148.041188,-8580.269578,0.000000
4382.771890,370.102971,-8503.660028,0.000000
4382.772215,370.102971,-8810.098227,-592.164754
4382.772539,296.082377,-8580.269578,-444.123565
4382.772863,148.041188,-8733.488677,-296.082377
4382.773188,370.102971,-8656.879127,-296.082377
4382.773512,370.102971,-8273.831378,-518.144159
4382.773836,296.082377,-7890.783629,-148.041188
4382.774161,370.102971,-8810.098227,-370.102971
4382.774485,370.102971,-8733.488677,-370.102971
4382.774809,518.144159,-8656.879127,-444.123565
4382.775134,370.102971,-8503.660028,-296.082377
4382.775458,592.164754,-8580.269578,-444.123565
4382.775782,518.144159,-8503.660028,-444.123565
4382.776107,370.102971,-8503.660028,-296.082377
4382.776431,296.082377,-8656.879127,-370.102971
4382.776755,0.000000,-8427.050478,-296.082377
4382.777080,592.164754,-8580.269578,-370.102971
4382.777404,222.061783,-8656.879127,-518.144159
4382.777728,296.082377,-8733.488677,-222.061783
4382.778053,370.102971,-8273.831378,-740.205942
4382.778377,740.205942,-8580.269578,-296.082377
4382.778701,370.102971,-8427.050478,-370.102971
4382.779026,666.185348,-8656.879127,-518.144159
4382.779350,518.144159,-8656.879127,-518.144159
4382.779674,518.144159,-8886.707777,-222.061783
4382.779999,296.082377,-8886.707777,-444.123565
4382.780323,518.144159,-8810.098227,-222.061783
4382.780647,444.123565,-8503.660028,-518.144159
4382.780972,370.102971,-8733.488677,-222.061783
4382.781296,518.144159,-8886.707777,0.000000
4382.781620,222.061783,-8503.660028,-296.082377
4382.781945,518.144159,-8810.098227,-296.082377
4382.782269,370.102971,-8427.050478,-296.082377
4382.782593,518.144159,-9039.926876,-296.082377
4382.782918,444.123565,-8427.050478,-148.041188
4382.783242,148.041188,-8886.707777,0.000000
4382.783566,222.061783,-8733.488677,-370.102971
4382.783891,148.041188,-8656.879127,-444.123565
4382.784215,296.082377,-8733.488677,-592.164754
4382.784539,296.082377,-8886.707777,-148.041188
4382.784864,370.102971,-8733.488677,-370.102971
4382.785188,148.041188,-8197.221829,-222.061783
4382.785512,444.123565,-8350.440928,-296.082377
4382.785837,814.226536,-8580.269578,-592.164754
4382.786161,592.164754,-8733.488677,-148.041188
4382.786485,592.164754,-8503.660028,-666.185348
4382.786810,518.144159,-8503.660028,-518.144159
4382.787134,444.123565,-8503.660028,-518.144159
4382.787458,740.205942,-8733.488677,-592.164754
4382.787783,592.164754,-8580.269578,-444.123565
4382.788107,740.205942,-8273.831378,-370.102971
4382.788431,296.082377,-8810.098227,-222.061783
4382.788756,518.144159,-8656.879127,-370.102971
4382.789080,444.123565,-8427.050478,-222.061783
4382.789404,592.164754,-9039.926876,-666.185348
4382.789729,296.082377,-8656.879127,-296.082377
4382.790053,296.082377,-8503.660028,-370.102971
4382.790377,370.102971,-8810.098227,-370.102971
4382.790702,444.123565,-8963.317327,-296.082377
4382.791026,592.164754,-8810.098227,-444.123565
4382.791350,592.164754,-8350.440928,-592.164754
4382.791675,518.144159,-8963.317327,-222.061783
4382.791999,296.082377,-8656.879127,-296.082377
4382.792323,296.082377,-8580.269578,-148.041188
4382.792648,296.082377,-8656.879127,-444.123565
4382.792972,518.144159,-8886.707777,-592.164754
4382.793296,444.123565,-8350.440928,-592.164754
4382.793621,518.144159,-8503.660028,0.000000
4382.793945,444.123565,-8580.269578,-370.102971
4382.794269,518.144159,-8733.488677,-296.082377
4382.794594,370.102971,-8810.098227,-370.102971
4382.794918,222.061783,-8733.488677,-296.082377
4382.795242,370.102971,-8427.050478,0.000000
4382.795567,222.061783,-8503.660028,-370.102971
4382.795891,296.082377,-8273.831378,-222.061783
4382.796215,148.041188,-8580.269578,-370.102971
4382.796540,444.123565,-8350.440928,-370.102971
4382.796864,518.144159,-8503.660028,-296.082377
4382.797188,74.020594,-8656.879127,-370.102971
4382.797513,444.123565,-8733.488677,-296.082377
4382.797837,74.020594,-8427.050478,0.000000
4382.798161,370.102971,-8656.879127,-370.102971
4382.798486,444.123565,-8503.660028,-148.041188
4382.798810,370.102971,-8656.879127,-296.082377
4382.799134,148.041188,-8656.879127,-296.082377
4382.799459,296.082377,-8427.050478,0.000000
4382.799783,148.041188,-8656.879127,-370.102971
4382.800107,296.082377,-8656.879127,0.000000
4382.800432,148.041188,-8350.440928,-222.061783
4382.800756,814.226536,-8886.707777,0.000000
4382.801080,518.144159,-8580.269578,-296.082377
4382.801405,666.185348,-8580.269578,-222.061783
4382.801729,370.102971,-8503.660028,-296.082377
4382.802053,518.144159,-8810.098227,296.082377
4382.802378,444.123565,-8733.488677,-592.164754
4382.802702,296.082377,-8656.879127,-222.061783
4382.803026,296.082377,-8427.050478,-296.082377
4382.803351,370.102971,-9039.926876,0.000000
4382.803675,814.226536,-8503.660028,-518.144159
4382.803999,518.144159,-8656.879127,-222.061783
4382.804324,296.082377,-8580.269578,-296.082377
4382.804648,444.123565,-8503.660028,-148.041188
4382.804973,1036.288319,-9116.536426,-370.102971
4382.805297,518.144159,-8656.879127,-222.061783
4382.805621,444.123565,-8503.660028,-370.102971
4382.805946,592.164754,-9039.926876,-296.082377
4382.806270,444.123565,-8656.879127,0.000000
4382.806594,518.144159,-8810.098227,-222.061783
4382.806919,370.102971,-8503.660028,-666.185348
4382.807243,592.164754,-8273.831378,-444.123565
4382.807567,370.102971,-8580.269578,-518.144159
4382.807892,666.185348,-8350.440928,-222.061783
4382.808216,592.164754,-8503.660028,-370.102971
4382.808540,518.144159,-8733.488677,-518.144159
4382.808865,444.123565,-8580.269578,-518.144159
4382.809189,148.041188,-8273.831378,-148.041188
4382.809513,592.164754,-8580.269578,-370.102971
4382.809838,444.123565,-8656.879127,-444.123565
4382.810162,814.226536,-8733.488677,-518.144159
4382.810486,666.185348,-8810.098227,-666.185348
4382.810811,370.102971,-8350.440928,-296.082377
4382.811135,296.082377,-8503.660028,-370.102971
4382.811459,444.123565,-8427.050478,-370.102971
4382.811784,222.061783,-8810.098227,-444.123565
4382.812108,518.144159,-8503.660028,-370.102971
4382.812432,370.102971,-8427.050478,-296.082377
4382.812757,370.102971,-8427.050478,-296.082377
4382.813081,444.123565,-8656.879127,-296.082377
4382.813405,888.247130,-8810.098227,-444.123565
4382.813730,518.144159,-8810.098227,-666.185348
4382.814054,444.123565,-8580.269578,-222.061783
4382.814378,370.102971,-8503.660028,-370.102971
4382.814703,222.061783,-8580.269578,-296.082377
4382.815027,222.061783,-8733.488677,-296.082377
4382.815351,518.144159,-8580.269578,-370.102971
4382.815676,296.082377,-8273.831378,-370.102971
4382.816000,296.082377,-8350.440928,-222.061783
4382.816324,444.123565,-8656.879127,-222.061783
4382.816649,296.082377,-8350.440928,-222.061783
