#time,accel_x,accel_y,accel_z
4419.934281,814.226536,-8350.440928,-296.082377
4419.934605,518.144159,-8656.879127,-666.185348
4419.934929,296.082377,-9039.926876,-148.041188
4419.935253,592.164754,-8733.488677,-296.082377
4419.935577,962.267725,-8656.879127,-444.123565
4419.935902,296.082377,-8427.050478,0.000000
4419.936226,592.164754,-8810.098227,-296.082377
4419.936550,444.123565,-8273.831378,0.000000
4419.936874,74.020594,-8503.660028,0.000000
4419.937198,74.020594,-8810.098227,370.102971
4419.937523,222.061783,-8503.660028,740.205942
4419.937847,814.226536,-8886.707777,148.041188
4419.938171,518.144159,-8656.879127,370.102971
4419.938495,444.123565,-8580.269578,962.267725
4419.938819,444.123565,-8810.098227,888.247130
4419.939143,666.185348,-8656.879127,666.185348
4419.939468,962.267725,-8886.707777,666.185348
4419.939792,518.144159,-8427.050478,518.144159
4419.940116,296.082377,-8197.221829,962.267725
4419.940440,148.041188,-8350.440928,518.144159
4419.940764,296.082377,-8503.660028,1184.329507
4419.941089,370.102971,-8350.440928,666.185348
4419.941413,370.102971,-8810.098227,592.164754
4419.941737,518.144159,-8580.269578,666.185348
4419.942061,0.000000,-8503.660028,814.226536
4419.942385,370.102971,-8350.440928,592.164754
4419.942709,518.144159,-8350.440928,888.247130
4419.943034,444.123565,-8503.660028,518.144159
4419.943358,222.061783,-8656.879127,370.102971
4419.943682,444.123565,-8197.221829,444.123565
4419.944006,296.082377,-8733.488677,296.082377
4419.944330,296.082377,-8273.831378,370.102971
4419.944655,444.123565,-8273.831378,518.144159
4419.944979,518.144159,-8120.612279,222.061783
4419.945303,444.123565,-8427.050478,370.102971
4419.945627,74.020594,-8810.098227,296.082377
4419.945951,296.082377,-8503.660028,296.082377
4419.946275,592.164754,-8350.440928,0.000000
4419.946600,814.226536,-8656.879127,-148.041188
4419.946924,518.144159,-8810.098227,74.020594
4419.947248,370.102971,-8503.660028,-148.041188
4419.947572,74.020594,-8580.269578,-148.041188
4419.947896,592.164754,-8886.707777,-148.041188
4419.948221,444.123565,-8580.269578,-296.082377
4419.948545,0.000000,-8350.440928,-296.082377
4419.948869,666.185348,-8273.831378,0.000000
4419.949193,666.185348,-9039.926876,-666.185348
4419.949517,518.144159,-8810.098227,-370.102971
4419.949841,296.082377,-8733.488677,-518.144159
4419.950166,518.144159,-9116.536426,-296.082377
4419.950490,296.082377,-8503.660028,-444.123565
4419.950815,592.164754,-8733.488677,-592.164754
4419.951139,444.123565,-8120.612279,-888.247130
4419.951464,444.123565,-8503.660028,-962.267725
4419.951788,518.144159,-8503.660028,-1036.288319
4419.952112,518.144159,-8963.317327,-666.185348
4419.952437,740.205942,-8427.050478,-1036.288319
4419.952761,666.185348,-8656.879127,-814.226536
4419.953086,592.164754,-8350.440928,-1110.308913
4419.953410,888.247130,-8733.488677,-962.267725
4419.953735,444.123565,-8733.488677,-1332.370696
4419.954059,444.123565,-8503.660028,-1110.308913
4419.954384,444.123565,-8886.707777,-1258.350101
4419.954708,370.102971,-8656.879127,-1258.350101
4419.955032,444.123565,-8580.269578,-1332.370696
4419.955357,592.164754,-8733.488677,-1258.350101
4419.955681,592.164754,-8733.488677,-1184.329507
4419.956006,814.226536,-8580.269578,-1332.370696
4419.956330,518.144159,-8580.269578,-1184.329507
4419.956655,444.123565,-8810.098227,-888.247130
4419.956979,296.082377,-8886.707777,-962.267725
4419.957303,222.061783,-8963.317327,-814.226536
4419.957628,74.020594,-8656.879127,-1184.329507
4419.957952,222.061783,-8963.317327,-888.247130
4419.958277,0.000000,-8503.660028,-888.247130
4419.958601,370.102971,-8810.098227,-814.226536
4419.958926,148.041188,-8656.879127,-814.226536
4419.959250,518.144159,-8886.707777,-666.185348
4419.959574,592.164754,-8733.488677,-592.164754
4419.959899,370.102971,-8886.707777,-666.185348
4419.960223,444.123565,-8810.098227,-740.205942
4419.960548,74.020594,-9346.365076,-666.185348
4419.960872,148.041188,-8580.269578,-444.123565
4419.961197,0.000000,-8886.707777,-518.144159
4419.961521,74.020594,-8886.707777,-444.123565
4419.961845,0.000000,-9116.536426,-296.082377
4419.962170,74.020594,-8886.707777,-444.123565
4419.962494,148.041188,-8580.269578,-370.102971
4419.962819,444.123565,-8886.707777,-592.164754
4419.963143,592.164754,-8656.879127,-370.102971
4419.963468,592.164754,-8503.660028,-370.102971
4419.963792,666.185348,-8503.660028,-222.061783
4419.964117,518.144159,-9269.755526,0.000000
4419.964441,444.123565,-8503.660028,148.041188
4419.964765,222.061783,-9039.926876,222.061783
4419.965090,222.061783,-8733.488677,0.000000
4419.965414,444.123565,-8656.879127,74.020594
4419.965739,592.164754,-8886.707777,0.000000
4419.966063,518.144159,-8810.098227,148.041188
4419.966388,444.123565,-8273.831378,222.061783
4419.966712,814.226536,-8580.269578,444.123565
4419.967036,814.226536,-8427.050478,592.164754
4419.967361,1036.288319,-9039.926876,296.082377
4419.967685,1110.308913,-8580.269578,444.123565
4419.968010,1036.288319,-8656.879127,666.185348
4419.968334,592.164754,-8963.317327,444.123565
4419.968659,740.205942,-8656.879127,666.185348
4419.968983,222.061783,-9346.365076,962.267725
4419.969307,666.185348,-8656.879127,518.144159
4419.969632,592.164754,-8733.488677,666.185348
4419.969956,518.144159,-8656.879127,592.164754
4419.970281,592.164754,-8503.660028,592.164754
4419.970605,518.144159,-8197.221829,814.226536
4419.970930,444.123565,-8580.269578,592.164754
4419.971254,666.185348,-8350.440928,666.185348
4419.971578,444.123565,-8273.831378,888.247130
4419.971903,592.164754,-8503.660028,296.082377
4419.972227,592.164754,-8427.050478,1036.288319
4419.972552,370.102971,-8503.660028,814.226536
4419.972876,444.123565,-8810.098227,888.247130
4419.973201,296.082377,-8503.660028,740.205942
4419.973525,370.102971,-8503.660028,888.247130
4419.973849,370.102971,-8273.831378,666.185348
4419.974174,518.144159,-8350.440928,740.205942
4419.974498,518.144159,-8350.440928,518.144159
4419.974823,370.102971,-8350.440928,814.226536
4419.975147,592.164754,-8197.221829,666.185348
4419.975472,370.102971,-8273.831378,592.164754
4419.975796,296.082377,-8273.831378,444.123565
4419.976121,296.082377,-7814.174080,666.185348
4419.976445,222.061783,-8503.660028,592.164754
4419.976769,148.041188,-8350.440928,444.123565
4419.977094,296.082377,-8427.050478,444.123565
4419.977418,370.102971,-8273.831378,592.164754
4419.977743,222.061783,-8273.831378,0.000000
4419.978067,370.102971,-8580.269578,148.041188
4419.978392,222.061783,-8350.440928,370.102971
4419.978716,370.102971,-8350.440928,148.041188
4419.979040,518.144159,-8273.831378,0.000000
4419.979365,222.061783,-8580.269578,0.000000
4419.979689,148.041188,-8656.879127,74.020594
4419.980014,148.041188,-8427.050478,0.000000
4419.980338,814.226536,-8733.488677,0.000000
4419.980663,444.123565,-8273.831378,-148.041188
4419.980987,148.041188,-8580.269578,-296.082377
4419.981311,148.041188,-8580.269578,-666.185348
4419.981636,518.144159,-8580.269578,-370.102971
4419.981960,222.061783,-8503.660028,-370.102971
4419.982285,518.144159,-8810.098227,-666.185348
4419.982609,148.041188,-8350.440928,-370.102971
4419.982934,222.061783,-8580.269578,-370.102971
4419.983258,518.144159,-8427.050478,-444.123565
4419.983582,222.061783,-8733.488677,-370.102971
4419.983907,222.061783,-8656.879127,-666.185348
4419.984231,74.020594,-8810.098227,-370.102971
4419.984556,0.000000,-8044.002729,-518.144159
4419.984880,148.041188,-8580.269578,-592.164754
4419.985205,296.082377,-8044.002729,-666.185348
4419.985529,222.061783,-8656.879127,-592.164754
4419.985854,148.041188,-8427.050478,-814.226536
4419.986178,370.102971,-8503.660028,-666.185348
4419.986502,444.123565,-8656.879127,-1184.329507
4419.986827,296.082377,-8733.488677,-1036.288319
4419.987151,222.061783,-8580.269578,-888.247130
4419.987476,518.144159,-8503.660028,-1110.308913
4419.987800,148.041188,-8656.879127,-1110.308913
4419.988125,296.082377,-8580.269578,-962.267725
4419.988449,444.123565,-8963.317327,-740.205942
4419.988773,518.144159,-7660.954980,-370.102971
4419.989098,518.144159,-8733.488677,-1036.288319
4419.989422,296.082377,-8580.269578,-814.226536
4419.989747,518.144159,-8886.707777,-1036.288319
4419.990071,518.144159,-8503.660028,-1036.288319
4419.990396,740.205942,-8503.660028,-666.185348
4419.990720,666.185348,-8427.050478,-740.205942
4419.991044,592.164754,-8580.269578,-370.102971
4419.991369,592.164754,-8733.488677,-518.144159
4419.991693,444.123565,-8580.269578,-222.061783
4419.992018,740.205942,-8580.269578,-518.144159
4419.992342,370.102971,-8273.831378,-222.061783
4419.992667,222.061783,-8580.269578,-370.102971
4419.992991,592.164754,-8963.317327,-444.123565
4419.993315,518.144159,-8656.879127,-296.082377
4419.993640,296.082377,-8580.269578,-148.041188
4419.993964,148.041188,-8503.660028,0.000000
4419.994289,444.123565,-8503.660028,296.082377
4419.994613,592.164754,-8427.050478,0.000000
4419.994938,222.061783,-8810.098227,0.000000
4419.995262,296.082377,-8427.050478,0.000000
4419.995587,740.205942,-8273.831378,296.082377
4419.995911,814.226536,-8810.098227,0.000000
4419.996235,222.061783,-8580.269578,0.000000
4419.996560,148.041188,-8427.050478,-222.061783
4419.996884,222.061783,-8656.879127,0.000000
4419.997209,148.041188,-7354.516781,0.000000
4419.997533,444.123565,-8580.269578,296.082377
4419.997858,592.164754,-8273.831378,0.000000
4419.998182,444.123565,-8503.660028,0.000000
4419.998506,444.123565,-8273.831378,-222.061783
4419.998831,740.205942,-8427.050478,296.082377
4419.999155,666.185348,-8350.440928,0.000000
4419.999480,370.102971,-8427.050478,-296.082377
4419.999804,148.041188,-8503.660028,-222.061783
4420.000129,0.000000,-8044.002729,74.020594
4420.000453,222.061783,-8580.269578,-370.102971
4420.000777,222.061783,-8656.879127,-222.061783
4420.001102,148.041188,-8350.440928,-222.061783
4420.001426,518.144159,-8350.440928,-370.102971
4420.001751,296.082377,-8427.050478,-148.041188
4420.002075,518.144159,-8733.488677,-296.082377
4420.002400,518.144159,-8427.050478,-222.061783
4420.002724,444.123565,-8120.612279,-222.061783
4420.003048,444.123565,-8427.050478,-296.082377
4420.003373,444.123565,-8273.831378,-444.123565
4420.003697,740.205942,-8580.269578,-296.082377
4420.004022,296.082377,-8580.269578,-518.144159
4420.004346,0.000000,-8197.221829,-296.082377
4420.004671,222.061783,-8503.660028,-444.123565
4420.004995,296.082377,-8427.050478,-444.123565
4420.005319,518.144159,-8580.269578,-444.123565
4420.005644,148.041188,-8503.660028,-296.082377
4420.005968,740.205942,-8427.050478,-370.102971
4420.006293,296.082377,-8350.440928,-444.123565
4420.006617,148.041188,-8733.488677,-518.144159
4420.006942,74.020594,-8273.831378,-444.123565
4420.007266,0.000000,-8886.707777,0.000000
4420.007591,222.061783,-8656.879127,-740.205942
4420.007915,0.000000,-8503.660028,-592.164754
4420.008239,370.102971,-8580.269578,-592.164754
4420.008564,0.000000,-8656.879127,-74.020594
4420.008888,370.102971,-8427.050478,-814.226536
4420.009213,592.164754,-8427.050478,-444.123565
4420.009537,370.102971,-8120.612279,-518.144159
4420.009862,444.123565,-8503.660028,-592.164754
4420.010186,0.000000,-8197.221829,-814.226536
4420.010510,370.102971,-8580.269578,-518.144159
4420.010835,296.082377,-8427.050478,-592.164754
4420.011159,444.123565,-8656.879127,-814.226536
4420.011484,444.123565,-8273.831378,-1184.329507
4420.011808,444.123565,-8580.269578,-814.226536
4420.012133,296.082377,-8503.660028,-888.247130
4420.012457,148.041188,-8810.098227,-814.226536
4420.012781,592.164754,-8273.831378,-666.185348
4420.013106,296.082377,-8120.612279,-518.144159
4420.013430,518.144159,-8273.831378,-592.164754
4420.013755,518.144159,-8503.660028,-814.226536
4420.014079,592.164754,-8733.488677,-666.185348
4420.014404,888.247130,-8886.707777,-888.247130
4420.014728,370.102971,-8427.050478,-814.226536
4420.015052,222.061783,-8580.269578,-518.144159
4420.015377,296.082377,-9039.926876,-740.205942
4420.015701,370.102971,-8886.707777,-962.267725
4420.016026,296.082377,-8886.707777,-666.185348
4420.016350,444.123565,-8656.879127,-518.144159
4420.016675,296.082377,-8427.050478,-592.164754
4420.016999,444.123565,-9806.022374,-740.205942
4420.017324,444.123565,-8733.488677,-740.205942
4420.017648,814.226536,-8886.707777,-740.205942
4420.017972,592.164754,-8886.707777,-592.164754
4420.018297,370.102971,-8810.098227,-814.226536
4420.018621,444.123565,-8656.879127,-666.185348
4420.018946,518.144159,-8810.098227,-888.247130
4420.019270,592.164754,-8810.098227,-888.247130
4420.019595,666.185348,-8733.488677,-1036.288319
4420.019919,1110.308913,-9039.926876,-1332.370696
4420.020243,740.205942,-8656.879127,-1036.288319
4420.020568,814.226536,-8886.707777,-1258.350101
4420.020892,888.247130,-8656.879127,-1110.308913
4420.021217,740.205942,-9039.926876,-1258.350101
4420.021541,888.247130,-8503.660028,-1406.391290
4420.021866,740.205942,-8733.488677,-1258.350101
4420.022190,666.185348,-9039.926876,-1258.350101
4420.022514,740.205942,-9039.926876,-1110.308913
4420.022839,518.144159,-9039.926876,-1258.350101
4420.023163,888.247130,-8963.317327,-1258.350101
4420.023488,1110.308913,-8503.660028,-1184.329507
4420.023812,888.247130,-9039.926876,-1332.370696
4420.024137,962.267725,-9193.145976,-1184.329507
4420.024461,888.247130,-8810.098227,-1406.391290
4420.024785,592.164754,-8503.660028,-1406.391290
4420.025110,370.102971,-8733.488677,-1036.288319
4420.025434,666.185348,-8503.660028,-1184.329507
4420.025759,740.205942,-8810.098227,-1110.308913
4420.026083,592.164754,-8656.879127,-1406.391290
4420.026408,740.205942,-9039.926876,-962.267725
4420.026732,666.185348,-8963.317327,-1036.288319
4420.027057,518.144159,-8656.879127,-1480.411884
4420.027381,592.164754,-8963.317327,-1258.350101
4420.027705,370.102971,-8733.488677,-1036.288319
4420.028030,518.144159,-8427.050478,-1258.350101
4420.028354,148.041188,-8733.488677,-814.226536
4420.028679,296.082377,-8810.098227,-814.226536
4420.029003,296.082377,-8656.879127,-740.205942
4420.029328,296.082377,-8350.440928,-814.226536
4420.029652,370.102971,-8810.098227,-740.205942
4420.029976,296.082377,-8810.098227,-592.164754
4420.030301,444.123565,-8350.440928,-370.102971
4420.030625,222.061783,-8350.440928,-592.164754
4420.030950,222.061783,-8427.050478,-666.185348
4420.031274,518.144159,-8810.098227,-148.041188
4420.031599,296.082377,-8427.050478,-666.185348
4420.031923,148.041188,-8427.050478,-444.123565
4420.032247,370.102971,-8197.221829,-370.102971
4420.032572,296.082377,-8197.221829,-518.144159
4420.032896,74.020594,-8273.831378,-296.082377
4420.033221,370.102971,-8350.440928,-592.164754
4420.033545,518.144159,-8427.050478,-296.082377
4420.033870,296.082377,-8197.221829,-148.041188
4420.034194,444.123565,-8427.050478,0.000000
4420.034518,370.102971,-8427.050478,-296.082377
4420.034843,444.123565,-8197.221829,-370.102971
4420.035167,518.144159,-8503.660028,-296.082377
4420.035492,148.041188,-8427.050478,148.041188
4420.035816,148.041188,-8350.440928,74.020594
4420.036141,518.144159,-8273.831378,-148.041188
4420.036465,444.123565,-8273.831378,-222.061783
4420.036789,740.205942,-8427.050478,-222.061783
4420.037114,518.144159,-8427.050478,0.000000
4420.037438,296.082377,-8273.831378,0.000000
4420.037763,296.082377,-8580.269578,-222.061783
4420.038087,518.144159,-8427.050478,0.000000
4420.038412,370.102971,-8503.660028,0.000000
4420.038736,370.102971,-8580.269578,-222.061783
4420.039061,444.123565,-8656.879127,0.000000
4420.039385,444.123565,-8427.050478,-222.061783
4420.039709,592.164754,-8503.660028,-222.061783
4420.040034,518.144159,-8427.050478,74.020594
4420.040358,740.205942,-8963.317327,0.000000
4420.040683,518.144159,-8273.831378,74.020594
4420.041007,592.164754,-8580.269578,0.000000
4420.041332,518.144159,-8810.098227,148.041188
4420.041656,222.061783,-8427.050478,74.020594
4420.041980,222.061783,-8503.660028,-148.041188
4420.042305,296.082377,-8656.879127,0.000000
4420.042629,666.185348,-8733.488677,0.000000
4420.042954,370.102971,-8427.050478,0.000000
4420.043278,666.185348,-8427.050478,0.000000
4420.043603,518.144159,-8503.660028,0.000000
4420.043927,518.144159,-8580.269578,-148.041188
4420.044251,814.226536,-8350.440928,74.020594
4420.044576,444.123565,-8350.440928,-148.041188
4420.044900,296.082377,-8656.879127,0.000000
4420.045225,444.123565,-8197.221829,-296.082377
4420.045549,666.185348,-8733.488677,-148.041188
4420.045874,370.102971,-8810.098227,-148.041188
4420.046198,296.082377,-8580.269578,0.000000
4420.046522,518.144159,-8810.098227,-518.144159
4420.046847,1036.288319,-8503.660028,-370.102971
4420.047171,518.144159,-8810.098227,-518.144159
4420.047495,296.082377,-8656.879127,0.000000
4420.047819,814.226536,-8503.660028,74.020594
4420.048144,370.102971,-9039.926876,0.000000
4420.048468,296.082377,-8656.879127,-296.082377
4420.048792,740.205942,-8580.269578,0.000000
4420.049117,370.102971,-8656.879127,-296.082377
4420.049441,444.123565,-8656.879127,74.020594
4420.049765,518.144159,-8733.488677,0.000000
4420.050090,74.020594,-8656.879127,0.000000
4420.050414,74.020594,-8503.660028,-222.061783
4420.050738,0.000000,-8733.488677,-370.102971
4420.051063,592.164754,-8810.098227,74.020594
4420.051387,148.041188,-8120.612279,0.000000
4420.051711,518.144159,-8656.879127,-148.041188
4420.052036,444.123565,-8733.488677,-518.144159
4420.052360,592.164754,-8733.488677,-370.102971
4420.052684,518.144159,-8810.098227,-518.144159
4420.053009,444.123565,-8273.831378,-222.061783
4420.053333,518.144159,-8350.440928,-518.144159
4420.053657,444.123565,-8427.050478,-296.082377
4420.053982,666.185348,-8350.440928,-592.164754
4420.054306,592.164754,-8656.879127,-666.185348
4420.054630,592.164754,-8197.221829,-296.082377
4420.054954,296.082377,-8427.050478,-444.123565
4420.055279,666.185348,-8886.707777,-296.082377
4420.055603,518.144159,-8503.660028,-518.144159
4420.055927,666.185348,-8503.660028,-518.144159
4420.056252,592.164754,-8427.050478,-592.164754
4420.056576,222.061783,-8733.488677,-296.082377
4420.056900,296.082377,-8580.269578,-296.082377
4420.057225,518.144159,-8350.440928,-444.123565
4420.057549,666.185348,-8580.269578,-518.144159
4420.057873,518.144159,-8273.831378,-444.123565
4420.058198,814.226536,-8886.707777,-296.082377
4420.058522,518.144159,-8427.050478,-296.082377
4420.058846,592.164754,-8427.050478,-370.102971
4420.059171,518.144159,-8350.440928,-370.102971
4420.059495,444.123565,-8656.879127,-444.123565
4420.059819,370.102971,-8810.098227,0.000000
4420.060144,444.123565,-8350.440928,-518.144159
4420.060468,370.102971,-8733.488677,0.000000
4420.060792,296.082377,-8273.831378,-518.144159
4420.061116,444.123565,-8886.707777,0.000000
4420.061441,370.102971,-8427.050478,-370.102971
4420.061765,518.144159,-8810.098227,-148.041188
4420.062089,222.061783,-8656.879127,-518.144159
4420.062414,296.082377,-8273.831378,0.000000
4420.062738,222.061783,-8350.440928,-148.041188
4420.063062,148.041188,-8733.488677,0.000000
4420.063387,0.000000,-8580.269578,0.000000
4420.063711,74.020594,-8810.098227,444.123565
4420.064035,222.061783,-8656.879127,0.000000
4420.064360,370.102971,-8503.660028,-222.061783
4420.064684,296.082377,-8733.488677,-222.061783
4420.065008,370.102971,-8427.050478,0.000000
4420.065333,370.102971,-7890.783629,-370.102971
4420.065657,370.102971,-8503.660028,74.020594
4420.065981,222.061783,-8197.221829,0.000000
4420.066306,518.144159,-8886.707777,0.000000
4420.066630,222.061783,-7967.393179,148.041188
4420.066954,148.041188,-8350.440928,222.061783
4420.067278,296.082377,-8580.269578,0.000000
4420.067603,222.061783,-8350.440928,0.000000
4420.067927,592.164754,-8733.488677,0.000000
4420.068251,592.164754,-8656.879127,0.000000
4420.068576,518.144159,-8350.440928,0.000000
4420.068900,370.102971,-8427.050478,0.000000
4420.069224,444.123565,-8427.050478,0.000000
4420.069549,592.164754,-8503.660028,0.000000
4420.069873,666.185348,-8886.707777,-222.061783
4420.070197,444.123565,-8503.660028,0.000000
4420.070522,444.123565,-8656.879127,0.000000
4420.070846,814.226536,-8580.269578,-296.082377
4420.071170,740.205942,-8733.488677,0.000000
4420.071495,740.205942,-8580.269578,-222.061783
4420.071819,592.164754,-9039.926876,0.000000
4420.072143,666.185348,-8350.440928,0.000000
4420.072468,370.102971,-8810.098227,-296.082377
4420.072792,518.144159,-8580.269578,-222.061783
4420.073116,592.164754,-8656.879127,-296.082377
4420.073441,148.041188,-8503.660028,74.020594
4420.073765,888.247130,-8886.707777,74.020594
4420.074089,444.123565,-8733.488677,0.000000
4420.074413,518.144159,-8656.879127,0.000000
4420.074738,592.164754,-8656.879127,0.000000
4420.075062,444.123565,-9039.926876,0.000000
4420.075386,666.185348,-8656.879127,0.000000
4420.075711,666.185348,-8656.879127,0.000000
4420.076035,444.123565,-8810.098227,-296.082377
4420.076359,222.061783,-8810.098227,0.000000
4420.076684,814.226536,-8580.269578,-296.082377
4420.077008,666.185348,-8886.707777,-296.082377
4420.077332,518.144159,-8810.098227,0.000000
4420.077657,444.123565,-8733.488677,-148.041188
4420.077981,740.205942,-8427.050478,0.000000
4420.078305,666.185348,-8580.269578,-148.041188
4420.078630,740.205942,-8963.317327,-444.123565
4420.078954,740.205942,-8350.440928,-370.102971
4420.079278,592.164754,-8810.098227,0.000000
4420.079603,222.061783,-8810.098227,-222.061783
4420.079927,444.123565,-8656.879127,-444.123565
4420.080251,592.164754,-8733.488677,-444.123565
4420.080575,592.164754,-8810.098227,-296.082377
4420.080900,592.164754,-8656.879127,-296.082377
4420.081224,592.164754,-8580.269578,0.000000
4420.081548,592.164754,-8810.098227,-222.061783
4420.081873,666.185348,-8886.707777,-518.144159
4420.082197,1332.370696,-8503.660028,-444.123565
4420.082521,518.144159,-8503.660028,-222.061783
4420.082846,370.102971,-8733.488677,0.000000
4420.083170,370.102971,-8580.269578,-222.061783
4420.083494,444.123565,-8886.707777,0.000000
4420.083819,740.205942,-8503.660028,-296.082377
4420.084143,296.082377,-8733.488677,222.061783
4420.084467,444.123565,-8656.879127,0.000000
4420.084792,222.061783,-8733.488677,148.041188
4420.085116,74.020594,-8580.269578,0.000000
4420.085440,222.061783,-8656.879127,0.000000
4420.085765,518.144159,-8733.488677,0.000000
4420.086089,74.020594,-8580.269578,0.000000
4420.086413,74.020594,-8273.831378,74.020594
4420.086737,222.061783,-8427.050478,74.020594
4420.087062,222.061783,-8427.050478,0.000000
4420.087386,296.082377,-8656.879127,74.020594
4420.087710,370.102971,-8580.269578,0.000000
4420.088035,0.000000,-8503.660028,148.041188
4420.088359,0.000000,-8350.440928,0.000000
4420.088683,222.061783,-8427.050478,-222.061783
4420.089008,222.061783,-8427.050478,-370.102971
4420.089332,444.123565,-8197.221829,-518.144159
4420.089656,222.061783,-8427.050478,-444.123565
4420.089981,222.061783,-8656.879127,-222.061783
4420.090305,222.061783,-8503.660028,-296.082377
4420.090629,592.164754,-8350.440928,148.041188
4420.090954,444.123565,-8273.831378,-592.164754
4420.091278,444.123565,-8503.660028,-296.082377
4420.091602,518.144159,-8273.831378,-740.205942
4420.091927,222.061783,-8503.660028,-148.041188
4420.092251,296.082377,-8273.831378,-592.164754
4420.092575,222.061783,-8580.269578,-444.123565
4420.092900,222.061783,-8273.831378,-666.185348
4420.093224,148.041188,-8810.098227,-296.082377
4420.093548,74.020594,-8273.831378,0.000000
4420.093872,518.144159,-8733.488677,-296.082377
4420.094197,592.164754,-8503.660028,-666.185348
4420.094521,518.144159,-8886.707777,-296.082377
4420.094845,444.123565,-7967.393179,-444.123565
4420.095170,370.102971,-9039.926876,-296.082377
4420.095494,222.061783,-8273.831378,-518.144159
4420.095818,148.041188,-8810.098227,-370.102971
4420.096143,444.123565,-8810.098227,-666.185348
4420.096467,444.123565,-8350.440928,-444.123565
4420.096791,222.061783,-8886.707777,-518.144159
4420.097116,148.041188,-8656.879127,-296.082377
4420.097440,222.061783,-8733.488677,-222.061783
4420.097764,518.144159,-9882.631924,0.000000
4420.098089,740.205942,-8580.269578,-592.164754
4420.098413,592.164754,-8656.879127,0.000000
4420.098737,444.123565,-8580.269578,-370.102971
4420.099062,148.041188,-8733.488677,-444.123565
4420.099386,296.082377,-8503.660028,-666.185348
4420.099710,296.082377,-8503.660028,-74.020594
4420.100034,74.020594,-8810.098227,-222.061783
4420.100359,370.102971,-8733.488677,-740.205942
4420.100683,888.247130,-8656.879127,-518.144159
4420.101007,444.123565,-8656.879127,-370.102971
4420.101332,518.144159,-8733.488677,-296.082377
4420.101656,74.020594,-8580.269578,0.000000
4420.101980,814.226536,-8963.317327,-518.144159
4420.102305,148.041188,-8580.269578,-518.144159
4420.102629,0.000000,-8656.879127,-370.102971
4420.102953,370.102971,-8733.488677,-296.082377
4420.103278,518.144159,-8197.221829,-296.082377
4420.103602,592.164754,-8886.707777,-592.164754
4420.103926,518.144159,-8656.879127,-296.082377
4420.104251,370.102971,-8427.050478,-296.082377
4420.104575,296.082377,-8580.269578,-370.102971
4420.104899,666.185348,-8580.269578,148.041188
4420.105224,444.123565,-8580.269578,0.000000
4420.105548,296.082377,-8503.660028,-296.082377
4420.105872,296.082377,-8350.440928,-296.082377
4420.106196,888.247130,-8963.317327,-444.123565
4420.106521,296.082377,-8503.660028,-148.041188
4420.106845,444.123565,-8503.660028,0.000000
4420.107169,222.061783,-8656.879127,-148.041188
4420.107494,296.082377,-8427.050478,-148.041188
4420.107818,222.061783,-8350.440928,-222.061783
4420.108142,222.061783,-8273.831378,0.000000
4420.108467,296.082377,-8427.050478,0.000000
4420.108791,148.041188,-8350.440928,0.000000
4420.109115,518.144159,-8427.050478,0.000000
4420.109440,518.144159,-8350.440928,-222.061783
4420.109764,370.102971,-9039.926876,0.000000
4420.110088,444.123565,-8273.831378,-148.041188
4420.110413,222.061783,-8197.221829,0.000000
4420.110737,0.000000,-8350.440928,-518.144159
4420.111061,444.123565,-8273.831378,-222.061783
4420.111386,444.123565,-8350.440928,-222.061783
4420.111710,444.123565,-8580.269578,-444.123565
4420.112034,444.123565,-8197.221829,-518.144159
4420.112359,148.041188,-8427.050478,-296.082377
4420.112683,370.102971,-8197.221829,-444.123565
4420.113007,592.164754,-8656.879127,-592.164754
4420.113331,740.205942,-8273.831378,-666.185348
4420.113656,592.164754,-8044.002729,-444.123565
4420.113980,370.102971,-8733.488677,-518.144159
4420.114304,444.123565,-8733.488677,-814.226536
4420.114629,592.164754,-8503.660028,-888.247130
4420.114953,444.123565,-8810.098227,-740.205942
4420.115277,296.082377,-8503.660028,-666.185348
4420.115602,444.123565,-8580.269578,-518.144159
4420.115926,518.144159,-8427.050478,-814.226536
4420.116250,592.164754,-8886.707777,0.000000
4420.116575,518.144159,-8580.269578,-814.226536
4420.116899,740.205942,-8886.707777,-518.144159
4420.117223,666.185348,-8427.050478,-740.205942
4420.117548,518.144159,-9422.974625,-222.061783
4420.117872,222.061783,-8580.269578,-370.102971
4420.118196,518.144159,-8810.098227,-518.144159
4420.118521,518.144159,-8810.098227,-814.226536
4420.118845,592.164754,-8580.269578,-444.123565
4420.119169,518.144159,-8503.660028,-518.144159
4420.119493,592.164754,-8427.050478,-296.082377
4420.119818,518.144159,-8427.050478,-592.164754
4420.120142,666.185348,-8963.317327,-518.144159
4420.120466,592.164754,-8503.660028,-148.041188
4420.120791,666.185348,-8656.879127,-148.041188
4420.121115,518.144159,-8810.098227,-370.102971
4420.121439,592.164754,-8427.050478,-592.164754
4420.121764,740.205942,-8350.440928,-518.144159
4420.122088,444.123565,-8503.660028,-740.205942
4420.122412,518.144159,-8580.269578,-296.082377
4420.122737,592.164754,-8273.831378,-444.123565
4420.123061,666.185348,-8044.002729,-740.205942
4420.123385,222.061783,-8273.831378,-740.205942
4420.123710,666.185348,-8580.269578,-592.164754
4420.124034,592.164754,-7967.393179,-370.102971
4420.124358,740.205942,-8580.269578,-666.185348
4420.124683,74.020594,-8273.831378,-592.164754
4420.125007,592.164754,-8273.831378,-740.205942
4420.125331,666.185348,-8733.488677,-666.185348
4420.125655,592.164754,-8503.660028,-814.226536
4420.125980,666.185348,-8580.269578,-1332.370696
4420.126304,814.226536,-8810.098227,-962.267725
4420.126628,740.205942,-8350.440928,-814.226536
4420.126953,814.226536,-8810.098227,-740.205942
4420.127277,1110.308913,-8427.050478,-518.144159
4420.127601,888.247130,-8197.221829,-592.164754
4420.127926,518.144159,-8733.488677,-666.185348
4420.128250,370.102971,-8350.440928,-592.164754
4420.128574,592.164754,-8810.098227,-666.185348
4420.128899,518.144159,-8886.707777,-888.247130
4420.129223,518.144159,-8350.440928,-444.123565
4420.129547,518.144159,-8503.660028,-370.102971
4420.129872,444.123565,-8503.660028,-666.185348
4420.130196,592.164754,-8733.488677,-370.102971
4420.130520,518.144159,-8963.317327,-592.164754
4420.130845,444.123565,-8656.879127,-592.164754
4420.131169,296.082377,-8427.050478,-518.144159
4420.131493,444.123565,-8810.098227,-444.123565
4420.131818,666.185348,-8656.879127,-740.205942
4420.132142,518.144159,-8886.707777,-666.185348
4420.132466,518.144159,-8810.098227,-666.185348
4420.132790,518.144159,-8580.269578,-370.102971
4420.133115,444.123565,-8886.707777,-666.185348
4420.133439,370.102971,-8656.879127,-592.164754
4420.133763,222.061783,-8503.660028,-740.205942
4420.134088,222.061783,-8810.098227,-592.164754
4420.134412,518.144159,-8197.221829,-518.144159
4420.134736,444.123565,-8733.488677,-740.205942
4420.135061,592.164754,-8810.098227,-444.123565
4420.135385,740.205942,-8350.440928,-592.164754
4420.135709,740.205942,-8963.317327,-518.144159
4420.136034,444.123565,-8503.660028,-444.123565
4420.136358,592.164754,-8733.488677,-518.144159
4420.136682,444.123565,-8656.879127,-814.226536
4420.137007,444.123565,-8580.269578,-592.164754
4420.137331,444.123565,-9193.145976,-740.205942
4420.137655,814.226536,-8810.098227,-592.164754
4420.137980,518.144159,-8350.440928,-518.144159
4420.138304,370.102971,-8656.879127,-592.164754
4420.138628,370.102971,-8810.098227,-296.082377
4420.138952,518.144159,-8656.879127,-518.144159
4420.139277,666.185348,-8580.269578,-370.102971
4420.139601,518.144159,-8044.002729,-444.123565
4420.139925,370.102971,-8886.707777,-296.082377
4420.140250,370.102971,-8580.269578,-222.061783
4420.140574,444.123565,-8733.488677,-370.102971
4420.140898,444.123565,-8886.707777,-814.226536
4420.141223,444.123565,-8963.317327,-148.041188
4420.141547,148.041188,-8273.831378,-370.102971
4420.141871,74.020594,-8810.098227,-222.061783
4420.142196,444.123565,-8427.050478,-592.164754
4420.142520,444.123565,-8963.317327,-148.041188
4420.142844,518.144159,-8350.440928,-518.144159
4420.143169,518.144159,-8580.269578,-222.061783
4420.143493,666.185348,-8810.098227,-296.082377
4420.143817,444.123565,-8503.660028,-296.082377
4420.144142,370.102971,-8503.660028,-296.082377
4420.144466,814.226536,-8886.707777,-592.164754
4420.144790,444.123565,-8273.831378,-370.102971
4420.145114,148.041188,-8656.879127,-296.082377
4420.145439,444.123565,-8580.269578,-296.082377
4420.145763,444.123565,-8427.050478,-148.041188
4420.146087,592.164754,-8733.488677,-296.082377
4420.146412,592.164754,-8427.050478,-518.144159
4420.146736,148.041188,-8503.660028,0.000000
4420.147060,370.102971,-8580.269578,-444.123565
4420.147385,592.164754,-8273.831378,-444.123565
4420.147709,666.185348,-8503.660028,-592.164754
4420.148033,592.164754,-8580.269578,-444.123565
4420.148357,666.185348,-8427.050478,-148.041188
4420.148682,444.123565,-9193.145976,-370.102971
4420.149006,518.144159,-8580.269578,-296.082377
4420.149330,296.082377,-8427.050478,-444.123565
4420.149654,666.185348,-8810.098227,-370.102971
4420.149978,444.123565,-8503.660028,-370.102971
4420.150303,444.123565,-8350.440928,-148.041188
4420.150627,592.164754,-8580.269578,-370.102971
4420.150951,296.082377,-8427.050478,-518.144159
4420.151275,666.185348,-8580.269578,-444.123565
4420.151599,518.144159,-8427.050478,-444.123565
4420.151923,444.123565,-8656.879127,-148.041188
4420.152248,222.061783,-8503.660028,-296.082377
4420.152572,296.082377,-8656.879127,-296.082377
4420.152896,740.205942,-8810.098227,0.000000
4420.153220,148.041188,-8580.269578,-222.061783
4420.153544,370.102971,-8503.660028,-222.061783
4420.153869,222.061783,-8427.050478,-296.082377
4420.154193,222.061783,-8886.707777,-148.041188
4420.154517,444.123565,-8273.831378,-444.123565
4420.154841,296.082377,-8810.098227,-370.102971
4420.155165,222.061783,-8350.440928,0.000000
4420.155490,370.102971,-8427.050478,-370.102971
4420.155814,370.102971,-8580.269578,-222.061783
4420.156138,444.123565,-8580.269578,-370.102971
4420.156462,296.082377,-8503.660028,-444.123565
4420.156786,444.123565,-8580.269578,-370.102971
4420.157111,296.082377,-9116.536426,148.041188
4420.157435,444.123565,-8656.879127,-296.082377
4420.157759,370.102971,-8503.660028,-518.144159
4420.158083,444.123565,-8733.488677,-592.164754
4420.158407,444.123565,-8656.879127,-518.144159
4420.158731,296.082377,-8656.879127,-296.082377
4420.159056,222.061783,-8656.879127,-296.082377
4420.159380,296.082377,-8580.269578,-592.164754
4420.159704,222.061783,-8886.707777,-592.164754
4420.160028,444.123565,-8350.440928,-370.102971
4420.160352,370.102971,-8580.269578,-888.247130
4420.160677,444.123565,-8656.879127,-740.205942
4420.161001,518.144159,-8733.488677,-740.205942
4420.161325,592.164754,-9193.145976,-444.123565
4420.161649,666.185348,-8810.098227,-666.185348
4420.161973,518.144159,-8580.269578,-814.226536
4420.162298,666.185348,-8733.488677,-444.123565
4420.162622,370.102971,-8963.317327,-444.123565
4420.162946,814.226536,-8733.488677,-740.205942
4420.163270,296.082377,-8810.098227,-740.205942
4420.163594,222.061783,-9039.926876,-444.123565
4420.163918,444.123565,-8656.879127,-296.082377
4420.164243,962.267725,-8963.317327,-296.082377
4420.164567,296.082377,-8810.098227,-296.082377
4420.164891,444.123565,-8656.879127,-222.061783
4420.165215,296.082377,-8656.879127,-148.041188
4420.165539,518.144159,-8503.660028,-148.041188
4420.165864,222.061783,-8350.440928,0.000000
4420.166188,222.061783,-8810.098227,-222.061783
4420.166512,148.041188,-8580.269578,-370.102971
4420.166836,222.061783,-8580.269578,-222.061783
4420.167160,444.123565,-8503.660028,-370.102971
4420.167485,370.102971,-8427.050478,0.000000
4420.167809,444.123565,-8733.488677,-296.082377
4420.168133,296.082377,-8427.050478,-296.082377
4420.168457,296.082377,-8427.050478,-370.102971
4420.168781,518.144159,-8733.488677,-444.123565
4420.169106,444.123565,-8350.440928,-296.082377
4420.169430,74.020594,-8580.269578,0.000000
4420.169754,370.102971,-8656.879127,-222.061783
4420.170078,518.144159,-8427.050478,-148.041188
4420.170402,518.144159,-8580.269578,-148.041188
4420.170726,444.123565,-8503.660028,0.000000
4420.171051,370.102971,-8044.002729,-222.061783
4420.171375,888.247130,-8580.269578,0.000000
4420.171699,370.102971,-8197.221829,0.000000
4420.172023,444.123565,-8503.660028,-296.082377
4420.172347,518.144159,-8503.660028,-296.082377
4420.172672,518.144159,-7584.345430,370.102971
4420.172996,592.164754,-8427.050478,-296.082377
4420.173320,444.123565,-8503.660028,0.000000
4420.173644,814.226536,-8350.440928,-296.082377
4420.173968,666.185348,-8503.660028,-74.020594
4420.174293,666.185348,-8427.050478,-222.061783
4420.174617,666.185348,-8350.440928,0.000000
4420.174941,592.164754,-8273.831378,0.000000
4420.175265,296.082377,-8580.269578,0.000000
4420.175589,518.144159,-8273.831378,222.061783
4420.175913,444.123565,-8350.440928,0.000000
4420.176238,222.061783,-8503.660028,-370.102971
4420.176562,444.123565,-8733.488677,0.000000
4420.176886,444.123565,-8656.879127,0.000000
4420.177210,592.164754,-8503.660028,-222.061783
4420.177534,444.123565,-8273.831378,-222.061783
4420.177859,518.144159,-8733.488677,0.000000
4420.178183,444.123565,-8810.098227,-148.041188
4420.178507,296.082377,-8044.002729,222.061783
4420.178831,296.082377,-8656.879127,-370.102971
4420.179155,444.123565,-8656.879127,0.000000
4420.179480,370.102971,-8120.612279,-74.020594
4420.179804,148.041188,-8197.221829,148.041188
4420.180128,444.123565,-8580.269578,-370.102971
4420.180452,518.144159,-8427.050478,74.020594
4420.180776,740.205942,-8580.269578,-370.102971
4420.181101,592.164754,-8656.879127,222.061783
4420.181425,444.123565,-8427.050478,-444.123565
4420.181749,666.185348,-8733.488677,-370.102971
4420.182073,444.123565,-8427.050478,-518.144159
4420.182397,592.164754,-8427.050478,-370.102971
4420.182721,740.205942,-8656.879127,-592.164754
4420.183046,444.123565,-8503.660028,-296.082377
4420.183370,370.102971,-8350.440928,-444.123565
4420.183694,592.164754,-8886.707777,-296.082377
4420.184018,888.247130,-8427.050478,-518.144159
4420.184342,444.123565,-8810.098227,-222.061783
4420.184667,518.144159,-8656.879127,-148.041188
4420.184991,296.082377,-8580.269578,-296.082377
4420.185315,148.041188,-8810.098227,-148.041188
4420.185639,444.123565,-8503.660028,-370.102971
4420.185963,518.144159,-8656.879127,-222.061783
4420.186288,444.123565,-8656.879127,-148.041188
4420.186612,592.164754,-8580.269578,0.000000
4420.186936,518.144159,-8733.488677,-222.061783
4420.187260,296.082377,-8503.660028,0.000000
4420.187584,74.020594,-8580.269578,0.000000
4420.187908,222.061783,-8886.707777,0.000000
4420.188233,518.144159,-8656.879127,-148.041188
4420.188557,222.061783,-8656.879127,148.041188
4420.188881,0.000000,-8273.831378,296.082377
4420.189205,74.020594,-8503.660028,0.000000
4420.189529,592.164754,-8656.879127,-222.061783
4420.189854,814.226536,-8197.221829,0.000000
4420.190178,444.123565,-8503.660028,74.020594
4420.190502,222.061783,-8503.660028,0.000000
4420.190826,444.123565,-8503.660028,0.000000
4420.191150,592.164754,-8427.050478,0.000000
4420.191475,296.082377,-8503.660028,0.000000
4420.191799,74.020594,-8350.440928,-74.020594
4420.192123,370.102971,-8656.879127,0.000000
4420.192447,962.267725,-8656.879127,-296.082377
4420.192771,370.102971,-8503.660028,-222.061783
4420.193096,666.185348,-8733.488677,-222.061783
4420.193420,518.144159,-7967.393179,0.000000
4420.193744,444.123565,-8733.488677,-370.102971
4420.194068,666.185348,-7890.783629,-370.102971
4420.194392,740.205942,-8503.660028,-296.082377
4420.194716,592.164754,-8580.269578,-444.123565
4420.195041,444.123565,-8580.269578,-296.082377
4420.195365,222.061783,-8273.831378,-518.144159
4420.195689,592.164754,-8580.269578,-370.102971
4420.196013,592.164754,-8580.269578,-222.061783
4420.196337,518.144159,-8886.707777,-148.041188
4420.196662,444.123565,-7890.783629,-148.041188
4420.196986,444.123565,-8656.879127,0.000000
4420.197310,592.164754,-8580.269578,0.000000
4420.197634,444.123565,-8733.488677,0.000000
4420.197958,370.102971,-8810.098227,-296.082377
4420.198283,296.082377,-8580.269578,-222.061783
4420.198607,296.082377,-8733.488677,0.000000
4420.198931,444.123565,-8810.098227,-296.082377
4420.199255,296.082377,-8503.660028,-296.082377
4420.199579,148.041188,-8273.831378,74.020594
4420.199903,370.102971,-8733.488677,0.000000
4420.200228,370.102971,-8580.269578,-222.061783
4420.200552,518.144159,-8580.269578,0.000000
4420.200876,518.144159,-8810.098227,-222.061783
4420.201200,296.082377,-8273.831378,0.000000
4420.201524,296.082377,-8427.050478,-370.102971
4420.201849,222.061783,-8810.098227,-444.123565
4420.202173,222.061783,-8350.440928,-222.061783
4420.202497,666.185348,-8656.879127,-592.164754
4420.202821,296.082377,-8427.050478,-222.061783
4420.203145,592.164754,-8656.879127,-296.082377
4420.203470,370.102971,-8350.440928,-222.061783
4420.203794,666.185348,-8503.660028,-518.144159
4420.204118,666.185348,-8810.098227,-222.061783
4420.204442,518.144159,-8503.660028,-444.123565
4420.204766,666.185348,-8580.269578,-666.185348
4420.205091,444.123565,-8656.879127,-444.123565
4420.205415,370.102971,-8963.317327,0.000000
4420.205739,74.020594,-8580.269578,-444.123565
4420.206063,444.123565,-8656.879127,0.000000
4420.206387,296.082377,-8427.050478,-592.164754
4420.206711,814.226536,-8810.098227,-148.041188
4420.207036,740.205942,-8580.269578,-296.082377
4420.207360,592.164754,-8503.660028,-148.041188
4420.207684,444.123565,-8656.879127,-444.123565
4420.208008,666.185348,-8656.879127,-148.041188
4420.208332,666.185348,-8580.269578,0.000000
4420.208657,370.102971,-8733.488677,-222.061783
4420.208981,370.102971,-8733.488677,-222.061783
4420.209305,148.041188,-8350.440928,-148.041188
4420.209629,444.123565,-8733.488677,0.000000
4420.209953,222.061783,-8427.050478,0.000000
4420.210278,444.123565,-8656.879127,-222.061783
4420.210602,222.061783,-8503.660028,0.000000
4420.210926,592.164754,-8886.707777,0.000000
4420.211250,0.000000,-8503.660028,-370.102971
4420.211574,518.144159,-8427.050478,0.000000
4420.211898,444.123565,-8810.098227,0.000000
4420.212223,370.102971,-9116.536426,0.000000
4420.212547,296.082377,-8580.269578,0.000000
4420.212871,296.082377,-8580.269578,0.000000
4420.213195,518.144159,-8656.879127,-370.102971
4420.213519,296.082377,-8273.831378,-296.082377
4420.213844,296.082377,-8503.660028,0.000000
4420.214168,666.185348,-8197.221829,-222.061783
4420.214492,296.082377,-8580.269578,-222.061783
4420.214816,370.102971,-8656.879127,-592.164754
4420.215140,666.185348,-9116.536426,-222.061783
4420.215465,222.061783,-8503.660028,-148.041188
4420.215789,592.164754,-8886.707777,-222.061783
4420.216113,370.102971,-8810.098227,-444.123565
4420.216437,518.144159,-8733.488677,-444.123565
4420.216761,518.144159,-8427.050478,-370.102971
4420.217086,666.185348,-8886.707777,-296.082377
4420.217410,592.164754,-8733.488677,-592.164754
4420.217734,592.164754,-8733.488677,-444.123565
4420.218058,518.144159,-9039.926876,-666.185348
4420.218382,444.123565,-8656.879127,-444.123565
4420.218706,740.205942,-8733.488677,-740.205942
4420.219031,296.082377,-8810.098227,-666.185348
4420.219355,592.164754,-9499.584175,-740.205942
4420.219679,370.102971,-8580.269578,-592.164754
4420.220003,592.164754,-8810.098227,-518.144159
4420.220327,592.164754,-8656.879127,-740.205942
4420.220652,814.226536,-8733.488677,-814.226536
4420.220976,740.205942,-8503.660028,-592.164754
4420.221300,518.144159,-8427.050478,-740.205942
4420.221624,296.082377,-8886.707777,-666.185348
4420.221948,296.082377,-8810.098227,-518.144159
4420.222273,592.164754,-9193.145976,-1036.288319
4420.222597,0.000000,-8810.098227,-518.144159
4420.222921,370.102971,-8580.269578,-222.061783
4420.223245,370.102971,-8580.269578,-222.061783
4420.223569,444.123565,-9422.974625,-222.061783
4420.223893,592.164754,-8656.879127,-592.164754
4420.224218,444.123565,-8656.879127,-518.144159
4420.224542,592.164754,-8273.831378,-444.123565
4420.224866,370.102971,-8656.879127,-592.164754
4420.225190,592.164754,-8503.660028,-444.123565
4420.225514,592.164754,-8503.660028,-518.144159
4420.225839,592.164754,-8503.660028,-592.164754
4420.226163,370.102971,-8810.098227,-518.144159
4420.226487,222.061783,-8963.317327,0.000000
4420.226811,296.082377,-8656.879127,-296.082377
4420.227135,814.226536,-8350.440928,-740.205942
4420.227460,740.205942,-8427.050478,-814.226536
4420.227784,592.164754,-9116.536426,-592.164754
4420.228108,518.144159,-7967.393179,-814.226536
4420.228432,370.102971,-8273.831378,-740.205942
4420.228756,444.123565,-8810.098227,-370.102971
4420.229081,518.144159,-8273.831378,-814.226536
4420.229405,1036.288319,-8503.660028,-962.267725
4420.229729,740.205942,-8580.269578,-740.205942
4420.230053,592.164754,-8656.879127,-296.082377
4420.230377,518.144159,-8656.879127,-370.102971
4420.230701,222.061783,-8273.831378,-370.102971
4420.231026,888.247130,-8886.707777,-444.123565
4420.231350,592.164754,-8350.440928,-444.123565
4420.231674,518.144159,-8350.440928,-444.123565
4420.231998,222.061783,-9039.926876,-370.102971
4420.232322,444.123565,-8656.879127,-296.082377
4420.232647,370.102971,-8810.098227,-518.144159
4420.232971,370.102971,-8580.269578,-444.123565
4420.233295,222.061783,-8886.707777,-222.061783
4420.233619,296.082377,-8733.488677,-222.061783
4420.233943,444.123565,-8656.879127,-296.082377
4420.234268,444.123565,-8733.488677,-518.144159
4420.234592,518.144159,-8886.707777,-518.144159
4420.234916,296.082377,-8580.269578,-740.205942
4420.235240,444.123565,-8733.488677,-518.144159
4420.235564,148.041188,-8580.269578,-592.164754
4420.235888,148.041188,-8656.879127,-444.123565
4420.236213,222.061783,-8580.269578,-666.185348
4420.236537,592.164754,-8733.488677,-518.144159
4420.236861,296.082377,-8810.098227,-592.164754
4420.237185,296.082377,-8580.269578,-666.185348
4420.237509,370.102971,-8580.269578,-740.205942
4420.237834,592.164754,-8580.269578,-814.226536
4420.238158,666.185348,-8810.098227,-740.205942
4420.238482,518.144159,-8427.050478,-666.185348
4420.238806,518.144159,-8810.098227,-518.144159
4420.239130,444.123565,-8963.317327,-1036.288319
4420.239455,666.185348,-8656.879127,-740.205942
4420.239779,296.082377,-8503.660028,-814.226536
4420.240103,444.123565,-8580.269578,-592.164754
4420.240427,370.102971,-8810.098227,-666.185348
4420.240751,370.102971,-8580.269578,-592.164754
4420.241076,444.123565,-8580.269578,-666.185348
4420.241400,518.144159,-8733.488677,-888.247130
4420.241724,814.226536,-8733.488677,-666.185348
4420.242048,1110.308913,-8350.440928,-666.185348
4420.242372,518.144159,-8810.098227,-814.226536
4420.242696,444.123565,-8656.879127,-444.123565
4420.243021,222.061783,-8427.050478,-518.144159
4420.243345,444.123565,-8503.660028,-518.144159
4420.243669,148.041188,-8580.269578,-370.102971
4420.243993,370.102971,-8580.269578,-518.144159
4420.244317,148.041188,-8656.879127,-296.082377
4420.244642,148.041188,-8350.440928,-518.144159
4420.244966,518.144159,-8580.269578,-592.164754
4420.245290,370.102971,-7967.393179,-370.102971
4420.245614,296.082377,-8427.050478,-222.061783
4420.245938,296.082377,-8273.831378,-444.123565
4420.246263,740.205942,-8503.660028,-666.185348
4420.246587,444.123565,-8427.050478,-814.226536
4420.246911,444.123565,-8656.879127,-296.082377
4420.247235,444.123565,-8503.660028,-296.082377
4420.247559,296.082377,-8273.831378,-296.082377
4420.247883,370.102971,-8273.831378,-444.123565
4420.248208,370.102971,-8427.050478,-370.102971
4420.248532,444.123565,-8044.002729,-592.164754
4420.248856,666.185348,-8197.221829,-370.102971
4420.249180,518.144159,-8503.660028,-444.123565
4420.249505,222.061783,-8350.440928,-296.082377
4420.249829,444.123565,-8044.002729,-518.144159
4420.250153,666.185348,-8656.879127,-518.144159
4420.250477,592.164754,-7890.783629,0.000000
4420.250802,370.102971,-8580.269578,0.000000
4420.251126,518.144159,-8350.440928,-296.082377
4420.251450,444.123565,-8197.221829,-592.164754
4420.251774,592.164754,-8810.098227,-444.123565
4420.252098,666.185348,-8503.660028,-296.082377
4420.252423,518.144159,-8580.269578,-370.102971
4420.252747,518.144159,-8886.707777,-444.123565
4420.253071,518.144159,-8656.879127,-518.144159
4420.253395,666.185348,-7967.393179,0.000000
4420.253720,444.123565,-8733.488677,-296.082377
4420.254044,296.082377,-8656.879127,-148.041188
4420.254368,666.185348,-8810.098227,-222.061783
4420.254692,592.164754,-9116.536426,0.000000
4420.255016,296.082377,-8503.660028,-222.061783
4420.255341,370.102971,-8656.879127,-518.144159
4420.255665,222.061783,-8733.488677,-444.123565
4420.255989,222.061783,-8580.269578,-296.082377
4420.256313,148.041188,-9039.926876,-296.082377
4420.256638,370.102971,-8580.269578,-148.041188
4420.256962,148.041188,-8656.879127,-370.102971
4420.257286,296.082377,-8886.707777,-370.102971
4420.257610,74.020594,-8427.050478,74.020594
4420.257935,296.082377,-8580.269578,0.000000
4420.258259,148.041188,-8733.488677,-222.061783
4420.258583,370.102971,-8503.660028,-148.041188
4420.258907,740.205942,-8886.707777,0.000000
4420.259231,592.164754,-8044.002729,-370.102971
4420.259556,370.102971,-8733.488677,-444.123565
4420.259880,222.061783,-8350.440928,-370.102971
4420.260204,370.102971,-8427.050478,-370.102971
4420.260528,444.123565,-8963.317327,-222.061783
4420.260853,592.164754,-8197.221829,0.000000
4420.261177,370.102971,-8733.488677,0.000000
4420.261501,592.164754,-8580.269578,-518.144159
4420.261825,740.205942,-8656.879127,-296.082377
4420.262150,444.123565,-8656.879127,-296.082377
4420.262474,592.164754,-8656.879127,-296.082377
4420.262798,444.123565,-8197.221829,0.000000
4420.263122,444.123565,-8427.050478,-370.102971
4420.263446,222.061783,-8427.050478,-370.102971
4420.263771,444.123565,-8427.050478,0.000000
4420.264095,296.082377,-8580.269578,-444.123565
4420.264419,296.082377,-8503.660028,0.000000
4420.264743,518.144159,-8427.050478,-370.102971
4420.265068,370.102971,-8427.050478,-296.082377
4420.265392,370.102971,-8120.612279,-222.061783
4420.265716,740.205942,-8886.707777,-370.102971
4420.266040,962.267725,-7814.174080,0.000000
4420.266364,222.061783,-8350.440928,-296.082377
4420.266689,148.041188,-8733.488677,-148.041188
4420.267013,222.061783,-8427.050478,-444.123565
4420.267337,370.102971,-9039.926876,-222.061783
4420.267661,148.041188,-8273.831378,-296.082377
4420.267986,222.061783,-8886.707777,0.000000
4420.268310,222.061783,-8656.879127,-222.061783
4420.268634,296.082377,-8656.879127,-296.082377
4420.268958,518.144159,-8427.050478,-444.123565
4420.269283,222.061783,-8580.269578,-370.102971
4420.269607,370.102971,-8120.612279,-370.102971
4420.269931,74.020594,-8427.050478,-370.102971
4420.270255,592.164754,-8503.660028,-370.102971
4420.270579,296.082377,-8427.050478,-518.144159
4420.270904,222.061783,-8810.098227,-296.082377
4420.271228,296.082377,-8503.660028,-444.123565
4420.271552,370.102971,-8197.221829,-222.061783
4420.271876,592.164754,-8503.660028,-592.164754
4420.272201,518.144159,-8427.050478,-444.123565
4420.272525,740.205942,-8580.269578,-592.164754
4420.272849,740.205942,-8733.488677,-592.164754
4420.273173,518.144159,-8197.221829,-1036.288319
4420.273498,518.144159,-8580.269578,-592.164754
4420.273822,444.123565,-8503.660028,-666.185348
4420.274146,518.144159,-8503.660028,-666.185348
4420.274470,814.226536,-8120.612279,-518.144159
4420.274794,592.164754,-8503.660028,-814.226536
4420.275119,592.164754,-8503.660028,-814.226536
4420.275443,666.185348,-8656.879127,-666.185348
4420.275767,444.123565,-8580.269578,-592.164754
4420.276091,444.123565,-8503.660028,-444.123565
4420.276416,666.185348,-8503.660028,-518.144159
4420.276740,370.102971,-8733.488677,-296.082377
4420.277064,370.102971,-8886.707777,-296.082377
4420.277388,518.144159,-8350.440928,0.000000
4420.277712,666.185348,-8656.879127,-296.082377
4420.278037,592.164754,-8810.098227,-370.102971
4420.278361,666.185348,-8886.707777,-370.102971
4420.278685,518.144159,-8886.707777,0.000000
4420.279009,444.123565,-8656.879127,0.000000
4420.279334,370.102971,-8580.269578,-296.082377
4420.279658,444.123565,-8656.879127,-370.102971
4420.279982,444.123565,-8503.660028,0.000000
4420.280306,222.061783,-8120.612279,0.000000
4420.280631,518.144159,-8656.879127,0.000000
4420.280955,222.061783,-8580.269578,0.000000
4420.281279,296.082377,-8656.879127,0.000000
4420.281603,592.164754,-8810.098227,-222.061783
4420.281927,296.082377,-8350.440928,0.000000
4420.282252,444.123565,-8427.050478,0.000000
4420.282576,296.082377,-8427.050478,0.000000
4420.282900,444.123565,-8656.879127,-148.041188
4420.283224,222.061783,-8810.098227,74.020594
4420.283549,296.082377,-8427.050478,222.061783
4420.283873,296.082377,-8503.660028,0.000000
4420.284197,0.000000,-8733.488677,222.061783
4420.284521,370.102971,-8273.831378,-296.082377
4420.284845,296.082377,-8656.879127,-222.061783
4420.285170,370.102971,-8963.317327,0.000000
4420.285494,222.061783,-8503.660028,0.000000
4420.285818,518.144159,-8733.488677,0.000000
4420.286142,222.061783,-8350.440928,0.000000
4420.286467,518.144159,-8810.098227,-518.144159
4420.286791,296.082377,-8503.660028,0.000000
4420.287115,296.082377,-8503.660028,0.000000
4420.287439,222.061783,-8733.488677,0.000000
4420.287764,222.061783,-9116.536426,0.000000
4420.288088,444.123565,-8810.098227,0.000000
4420.288412,370.102971,-8580.269578,-296.082377
4420.288736,296.082377,-8503.660028,0.000000
4420.289060,148.041188,-8733.488677,0.000000
4420.289385,222.061783,-8580.269578,-148.041188
4420.289709,148.041188,-8656.879127,-222.061783
4420.290033,370.102971,-8427.050478,-148.041188
4420.290357,222.061783,-8427.050478,0.000000
4420.290682,444.123565,-8503.660028,0.000000
4420.291006,74.020594,-8656.879127,0.000000
4420.291330,296.082377,-8503.660028,0.000000
4420.291654,592.164754,-8656.879127,-592.164754
4420.291979,444.123565,-8733.488677,-296.082377
4420.292303,296.082377,-8580.269578,-74.020594
4420.292627,444.123565,-8580.269578,-296.082377
4420.292951,148.041188,-8044.002729,-222.061783
4420.293275,444.123565,-8580.269578,-444.123565
4420.293600,518.144159,-8427.050478,-592.164754
4420.293924,518.144159,-8273.831378,-370.102971
4420.294248,370.102971,-7967.393179,-592.164754
4420.294572,444.123565,-8810.098227,-592.164754
4420.294897,444.123565,-8580.269578,-666.185348
4420.295221,592.164754,-8733.488677,-666.185348
4420.295545,518.144159,-8503.660028,-666.185348
4420.295869,148.041188,-8427.050478,-222.061783
4420.296193,666.185348,-8656.879127,-148.041188
4420.296518,592.164754,-8503.660028,-666.185348
4420.296842,518.144159,-8810.098227,-666.185348
4420.297166,740.205942,-8273.831378,-148.041188
4420.297490,296.082377,-8273.831378,-222.061783
4420.297815,370.102971,-8273.831378,-444.123565
4420.298139,518.144159,-8503.660028,-518.144159
4420.298463,666.185348,-8503.660028,-296.082377
4420.298787,444.123565,-8656.879127,-296.082377
4420.299112,518.144159,-8580.269578,-370.102971
4420.299436,518.144159,-8656.879127,0.000000
4420.299760,444.123565,-8503.660028,-148.041188
4420.300084,222.061783,-8503.660028,0.000000
4420.300408,370.102971,-8503.660028,-444.123565
4420.300733,740.205942,-8580.269578,-148.041188
4420.301057,296.082377,-8427.050478,0.000000
4420.301381,222.061783,-8733.488677,-592.164754
4420.301705,444.123565,-8427.050478,-222.061783
4420.302030,370.102971,-8656.879127,-222.061783
4420.302354,296.082377,-8427.050478,-222.061783
4420.302678,370.102971,-8733.488677,0.000000
4420.303002,222.061783,-8580.269578,0.000000
4420.303327,222.061783,-8656.879127,0.000000
4420.303651,222.061783,-8733.488677,0.000000
4420.303975,444.123565,-8656.879127,148.041188
4420.304299,370.102971,-8350.440928,0.000000
4420.304623,0.000000,-8580.269578,0.000000
4420.304948,370.102971,-8580.269578,0.000000
4420.305272,148.041188,-8427.050478,-222.061783
4420.305596,444.123565,-8886.707777,-444.123565
4420.305920,296.082377,-8503.660028,0.000000
4420.306245,370.102971,-8580.269578,0.000000
4420.306569,518.144159,-8503.660028,0.000000
4420.306893,370.102971,-8350.440928,0.000000
4420.307217,296.082377,-8886.707777,0.000000
4420.307541,222.061783,-8580.269578,0.000000
4420.307866,518.144159,-8656.879127,0.000000
4420.308190,74.020594,-8580.269578,0.000000
4420.308514,814.226536,-8733.488677,-444.123565
4420.308838,370.102971,-8427.050478,-296.082377
4420.309163,666.185348,-8810.098227,-296.082377
4420.309487,370.102971,-8503.660028,-518.144159
4420.309811,666.185348,-9269.755526,-592.164754
4420.310135,592.164754,-8503.660028,-444.123565
4420.310460,370.102971,-8580.269578,-444.123565
4420.310784,444.123565,-9039.926876,-518.144159
4420.311108,592.164754,-8350.440928,-296.082377
4420.311432,518.144159,-8656.879127,-222.061783
4420.311756,222.061783,-8733.488677,-592.164754
4420.312081,444.123565,-8427.050478,-370.102971
4420.312405,518.144159,-8733.488677,-296.082377
4420.312729,444.123565,-9039.926876,0.000000
4420.313053,370.102971,-8580.269578,-444.123565
4420.313378,222.061783,-8580.269578,-592.164754
4420.313702,296.082377,-8656.879127,-370.102971
4420.314026,444.123565,-9116.536426,-592.164754
4420.314350,148.041188,-8733.488677,-222.061783
4420.314675,592.164754,-8503.660028,-518.144159
4420.314999,370.102971,-8733.488677,-296.082377
4420.315323,222.061783,-8963.317327,-296.082377
4420.315647,444.123565,-8503.660028,0.000000
4420.315971,296.082377,-8503.660028,-370.102971
4420.316296,370.102971,-8503.660028,-518.144159
4420.316620,74.020594,-8273.831378,-296.082377
4420.316944,0.000000,-8580.269578,-222.061783
4420.317268,370.102971,-8503.660028,-444.123565
4420.317593,592.164754,-8580.269578,-222.061783
4420.317917,518.144159,-8656.879127,-370.102971
4420.318241,592.164754,-8427.050478,-148.041188
4420.318565,74.020594,-8350.440928,-222.061783
4420.318889,222.061783,-8503.660028,-222.061783
4420.319214,518.144159,-8580.269578,-592.164754
4420.319538,222.061783,-8886.707777,-370.102971
4420.319862,148.041188,-8120.612279,-444.123565
4420.320186,148.041188,-8427.050478,-296.082377
4420.320511,370.102971,-8350.440928,-592.164754
4420.320835,370.102971,-8580.269578,-666.185348
4420.321159,592.164754,-8503.660028,-888.247130
4420.321483,444.123565,-8733.488677,-148.041188
4420.321808,370.102971,-8120.612279,-370.102971
4420.322132,444.123565,-8656.879127,-444.123565
4420.322456,444.123565,-8580.269578,-666.185348
4420.322780,0.000000,-8656.879127,-444.123565
4420.323104,148.041188,-8427.050478,-296.082377
4420.323429,370.102971,-8503.660028,0.000000
4420.323753,296.082377,-8503.660028,-148.041188
4420.324077,148.041188,-8044.002729,0.000000
4420.324401,444.123565,-8427.050478,-370.102971
4420.324726,444.123565,-8733.488677,-518.144159
4420.325050,814.226536,-8733.488677,-296.082377
4420.325374,296.082377,-9346.365076,-148.041188
4420.325698,296.082377,-8963.317327,0.000000
4420.326023,444.123565,-8427.050478,-444.123565
4420.326347,370.102971,-8580.269578,-370.102971
4420.326671,518.144159,-8580.269578,-370.102971
4420.326995,518.144159,-8350.440928,-296.082377
4420.327319,518.144159,-8810.098227,-518.144159
4420.327644,370.102971,-8427.050478,-370.102971
4420.327968,888.247130,-8580.269578,-666.185348
4420.328292,814.226536,-8350.440928,-518.144159
4420.328616,444.123565,-8273.831378,-444.123565
4420.328941,444.123565,-8503.660028,-370.102971
4420.329265,370.102971,-8733.488677,-666.185348
4420.329589,518.144159,-8886.707777,-518.144159
4420.329913,518.144159,-8733.488677,-518.144159
4420.330237,148.041188,-8503.660028,-444.123565
4420.330562,666.185348,-8733.488677,-444.123565
4420.330886,666.185348,-8733.488677,-740.205942
4420.331210,814.226536,-8580.269578,-444.123565
4420.331534,592.164754,-8810.098227,-740.205942
4420.331859,740.205942,-8580.269578,-296.082377
4420.332183,518.144159,-8656.879127,-444.123565
4420.332507,666.185348,-9269.755526,-740.205942
4420.332831,444.123565,-8656.879127,-444.123565
4420.333156,370.102971,-8733.488677,-518.144159
4420.333480,296.082377,-8886.707777,-592.164754
4420.333804,370.102971,-9116.536426,-296.082377
4420.334128,444.123565,-8886.707777,-370.102971
4420.334452,296.082377,-8580.269578,-222.061783
4420.334777,222.061783,-8580.269578,-370.102971
4420.335101,370.102971,-8810.098227,-444.123565
4420.335425,518.144159,-8273.831378,-370.102971
4420.335749,74.020594,-8810.098227,-592.164754
4420.336074,148.041188,-8656.879127,-740.205942
4420.336398,370.102971,-8886.707777,-222.061783
4420.336722,296.082377,-9346.365076,-592.164754
4420.337046,222.061783,-8656.879127,0.000000
4420.337371,148.041188,-8733.488677,-296.082377
4420.337695,296.082377,-8656.879127,-370.102971
4420.338019,222.061783,-8580.269578,0.000000
4420.338343,370.102971,-8733.488677,-296.082377
4420.338667,296.082377,-8886.707777,-370.102971
4420.338992,370.102971,-8273.831378,-222.061783
4420.339316,444.123565,-8733.488677,-222.061783
4420.339640,518.144159,-9039.926876,-222.061783
4420.339964,296.082377,-8273.831378,-296.082377
4420.340289,444.123565,-8656.879127,-296.082377
4420.340613,370.102971,-8350.440928,-296.082377
4420.340937,370.102971,-8197.221829,-222.061783
4420.341261,592.164754,-8656.879127,0.000000
4420.341585,592.164754,-8197.221829,-592.164754
4420.341910,740.205942,-8810.098227,-518.144159
4420.342234,814.226536,-8273.831378,-518.144159
4420.342558,814.226536,-8810.098227,-296.082377
4420.342882,148.041188,-8580.269578,-592.164754
4420.343207,444.123565,-8810.098227,-592.164754
4420.343531,444.123565,-8350.440928,-740.205942
4420.343855,740.205942,-8580.269578,-740.205942
4420.344179,370.102971,-8656.879127,-370.102971
4420.344504,592.164754,-8503.660028,-666.185348
4420.344828,592.164754,-8503.660028,-370.102971
4420.345152,370.102971,-8350.440928,-592.164754
4420.345476,666.185348,-8810.098227,-592.164754
4420.345800,518.144159,-8273.831378,-592.164754
4420.346125,444.123565,-8580.269578,-592.164754
4420.346449,296.082377,-8580.269578,-592.164754
4420.346773,444.123565,-8580.269578,-666.185348
4420.347097,444.123565,-8656.879127,-666.185348
4420.347422,296.082377,-8886.707777,-296.082377
4420.347746,370.102971,-8580.269578,-666.185348
4420.348070,592.164754,-8886.707777,-666.185348
4420.348394,370.102971,-8580.269578,-592.164754
4420.348719,370.102971,-9039.926876,-740.205942
4420.349043,666.185348,-8963.317327,-814.226536
4420.349367,444.123565,-8503.660028,-444.123565
4420.349691,296.082377,-8810.098227,-666.185348
4420.350015,370.102971,-8886.707777,-592.164754
4420.350340,444.123565,-8503.660028,-592.164754
4420.350664,296.082377,-8733.488677,-518.144159
4420.350988,296.082377,-8503.660028,-370.102971
4420.351312,222.061783,-8427.050478,-592.164754
4420.351637,296.082377,-8733.488677,-740.205942
4420.351961,370.102971,-8733.488677,-592.164754
4420.352285,0.000000,-8810.098227,0.000000
4420.352609,592.164754,-8580.269578,-518.144159
4420.352934,296.082377,-8427.050478,-518.144159
4420.353258,666.185348,-8810.098227,-740.205942
4420.353582,444.123565,-8580.269578,-666.185348
4420.353906,444.123565,-8580.269578,-518.144159
4420.354231,444.123565,-8427.050478,-666.185348
4420.354555,666.185348,-8733.488677,-888.247130
4420.354879,444.123565,-8580.269578,-592.164754
4420.355203,518.144159,-8733.488677,-148.041188
4420.355528,444.123565,-8273.831378,-592.164754
4420.355852,370.102971,-8733.488677,-370.102971
4420.356176,518.144159,-8120.612279,-518.144159
4420.356500,0.000000,-8886.707777,0.000000
4420.356825,222.061783,-8656.879127,-222.061783
4420.357149,592.164754,-8350.440928,-296.082377
4420.357473,370.102971,-8580.269578,-592.164754
4420.357798,666.185348,-8503.660028,-222.061783
4420.358122,444.123565,-8810.098227,0.000000
4420.358446,296.082377,-8427.050478,-148.041188
4420.358770,74.020594,-8427.050478,0.000000
4420.359095,222.061783,-8580.269578,-148.041188
4420.359419,74.020594,-8963.317327,148.041188
4420.359743,518.144159,-8427.050478,0.000000
4420.360067,296.082377,-8427.050478,-74.020594
4420.360392,444.123565,-8733.488677,-148.041188
4420.360716,592.164754,-9193.145976,148.041188
4420.361040,592.164754,-8580.269578,0.000000
4420.361364,666.185348,-8427.050478,-148.041188
4420.361689,296.082377,-8350.440928,-148.041188
4420.362013,444.123565,-8350.440928,-444.123565
4420.362337,296.082377,-8273.831378,-222.061783
4420.362661,814.226536,-8197.221829,-444.123565
4420.362986,370.102971,-8503.660028,0.000000
4420.363310,592.164754,-8044.002729,-444.123565
4420.363634,740.205942,-8580.269578,-518.144159
4420.363959,444.123565,-8580.269578,-592.164754
4420.364283,592.164754,-8350.440928,-222.061783
4420.364607,444.123565,-8733.488677,-444.123565
4420.364931,74.020594,-8503.660028,-370.102971
4420.365256,592.164754,-8350.440928,-444.123565
4420.365580,444.123565,-8656.879127,-666.185348
4420.365904,370.102971,-8580.269578,-518.144159
4420.366228,518.144159,-8733.488677,-666.185348
4420.366553,888.247130,-8273.831378,-592.164754
4420.366877,518.144159,-8503.660028,-666.185348
4420.367201,444.123565,-8963.317327,0.000000
4420.367525,814.226536,-8427.050478,-592.164754
4420.367850,296.082377,-8503.660028,74.020594
4420.368174,592.164754,-8580.269578,-518.144159
4420.368498,296.082377,-8810.098227,-444.123565
4420.368822,444.123565,-8733.488677,-518.144159
4420.369147,444.123565,-8886.707777,-444.123565
4420.369471,444.123565,-8656.879127,-666.185348
4420.369795,222.061783,-8733.488677,-592.164754
4420.370119,296.082377,-8580.269578,-296.082377
4420.370444,518.144159,-8886.707777,-592.164754
4420.370768,592.164754,-8427.050478,-666.185348
4420.371092,444.123565,-8273.831378,-148.041188
4420.371417,740.205942,-8733.488677,-592.164754
4420.371741,518.144159,-8580.269578,-518.144159
4420.372065,740.205942,-8656.879127,-222.061783
4420.372389,444.123565,-8580.269578,-444.123565
4420.372714,444.123565,-8580.269578,0.000000
4420.373038,222.061783,-8656.879127,-370.102971
4420.373362,370.102971,-8810.098227,-148.041188
4420.373686,444.123565,-8427.050478,0.000000
4420.374011,222.061783,-8120.612279,-296.082377
4420.374335,222.061783,-8427.050478,0.000000
4420.374659,518.144159,-8350.440928,-148.041188
4420.374983,444.123565,-8197.221829,0.000000
4420.375308,444.123565,-8350.440928,-296.082377
4420.375632,444.123565,-8427.050478,0.000000
4420.375956,518.144159,-8503.660028,-370.102971
4420.376280,518.144159,-8733.488677,74.020594
4420.376605,518.144159,-8886.707777,-296.082377
4420.376929,666.185348,-8503.660028,-222.061783
4420.377253,370.102971,-8273.831378,-148.041188
4420.377578,444.123565,-8580.269578,-444.123565
4420.377902,370.102971,-8580.269578,-148.041188
4420.378226,370.102971,-8503.660028,-370.102971
4420.378550,148.041188,-8197.221829,-222.061783
4420.378875,518.144159,-8580.269578,0.000000
4420.379199,222.061783,-8580.269578,296.082377
4420.379523,444.123565,-8273.831378,0.000000
4420.379847,222.061783,-8503.660028,-370.102971
4420.380172,296.082377,-8656.879127,-222.061783
4420.380496,518.144159,-8656.879127,148.041188
4420.380820,74.020594,-8503.660028,-222.061783
4420.381144,222.061783,-9039.926876,-296.082377
4420.381469,518.144159,-8733.488677,-296.082377
4420.381793,148.041188,-8580.269578,-296.082377
4420.382117,518.144159,-8810.098227,0.000000
4420.382441,296.082377,-8503.660028,-148.041188
4420.382766,370.102971,-8580.269578,0.000000
4420.383090,296.082377,-8656.879127,0.000000
4420.383414,666.185348,-8197.221829,0.000000
4420.383739,444.123565,-8656.879127,-296.082377
4420.384063,518.144159,-8427.050478,0.000000
4420.384387,370.102971,-8886.707777,-222.061783
4420.384711,296.082377,-9039.926876,-740.205942
4420.385036,666.185348,-8503.660028,-296.082377
4420.385360,592.164754,-8427.050478,-444.123565
4420.385684,518.144159,-8580.269578,-444.123565
4420.386008,740.205942,-8427.050478,-296.082377
4420.386333,740.205942,-8044.002729,-518.144159
4420.386657,740.205942,-8350.440928,-888.247130
4420.386981,518.144159,-8656.879127,-444.123565
4420.387305,444.123565,-8886.707777,-592.164754
4420.387630,222.061783,-8580.269578,-222.061783
4420.387954,296.082377,-8580.269578,-518.144159
4420.388278,444.123565,-8580.269578,-518.144159
4420.388602,518.144159,-8580.269578,-592.164754
4420.388927,518.144159,-8886.707777,-592.164754
4420.389251,592.164754,-8273.831378,-518.144159
4420.389575,666.185348,-8503.660028,-444.123565
4420.389900,666.185348,-8580.269578,-370.102971
4420.390224,518.144159,-8350.440928,-592.164754
4420.390548,370.102971,-8580.269578,-444.123565
4420.390872,518.144159,-8733.488677,-148.041188
4420.391197,370.102971,-8810.098227,-148.041188
4420.391521,296.082377,-8810.098227,-518.144159
4420.391845,444.123565,-8580.269578,0.000000
4420.392169,518.144159,-8427.050478,-444.123565
4420.392494,444.123565,-8580.269578,-222.061783
4420.392818,296.082377,-8656.879127,-74.020594
4420.393142,444.123565,-8656.879127,-222.061783
4420.393466,296.082377,-8427.050478,-296.082377
4420.393791,222.061783,-8580.269578,-148.041188
4420.394115,666.185348,-8810.098227,-296.082377
4420.394439,74.020594,-8580.269578,0.000000
4420.394763,296.082377,-8963.317327,0.000000
4420.395088,296.082377,-8656.879127,0.000000
4420.395412,296.082377,-8580.269578,0.000000
4420.395736,296.082377,-8350.440928,0.000000
4420.396060,370.102971,-8427.050478,148.041188
4420.396385,296.082377,-8580.269578,0.000000
4420.396709,222.061783,-8350.440928,0.000000
4420.397033,296.082377,-8427.050478,0.000000
4420.397358,444.123565,-8733.488677,-444.123565
4420.397682,592.164754,-8427.050478,-222.061783
4420.398006,592.164754,-8503.660028,0.000000
4420.398330,222.061783,-8580.269578,-148.041188
4420.398655,296.082377,-8580.269578,-370.102971
4420.398979,370.102971,-7814.174080,-148.041188
4420.399303,592.164754,-8580.269578,-518.144159
4420.399627,592.164754,-8580.269578,-148.041188
4420.399952,370.102971,-8427.050478,-518.144159
4420.400276,296.082377,-8580.269578,-222.061783
4420.400600,148.041188,-8273.831378,-370.102971
4420.400924,592.164754,-8580.269578,-592.164754
4420.401249,444.123565,-8273.831378,-444.123565
4420.401573,444.123565,-8350.440928,-370.102971
4420.401897,740.205942,-8197.221829,-592.164754
4420.402221,518.144159,-8580.269578,-296.082377
4420.402546,592.164754,-8427.050478,-370.102971
4420.402870,370.102971,-8580.269578,-296.082377
4420.403194,296.082377,-8886.707777,0.000000
4420.403519,592.164754,-8810.098227,-148.041188
4420.403843,222.061783,-8656.879127,0.000000
4420.404167,370.102971,-8886.707777,-148.041188
4420.404491,444.123565,-8810.098227,-222.061783
4420.404816,518.144159,-8197.221829,0.000000
4420.405140,222.061783,-8350.440928,0.000000
4420.405464,148.041188,-8656.879127,-222.061783
4420.405788,296.082377,-8503.660028,0.000000
4420.406113,666.185348,-8580.269578,148.041188
4420.406437,444.123565,-8810.098227,0.000000
4420.406761,592.164754,-8656.879127,-296.082377
4420.407085,444.123565,-8580.269578,0.000000
4420.407410,222.061783,-7354.516781,0.000000
4420.407734,444.123565,-8580.269578,-222.061783
4420.408058,518.144159,-8427.050478,-296.082377
4420.408382,518.144159,-8656.879127,0.000000
4420.408707,222.061783,-8350.440928,-296.082377
4420.409031,592.164754,-8427.050478,0.000000
4420.409355,592.164754,-8273.831378,-148.041188
4420.409680,740.205942,-8810.098227,-222.061783
4420.410004,444.123565,-8503.660028,-296.082377
4420.410328,814.226536,-8044.002729,74.020594
4420.410652,518.144159,-8580.269578,-222.061783
4420.410977,518.144159,-8273.831378,-296.082377
4420.411301,296.082377,-8503.660028,-592.164754
4420.411625,518.144159,-8503.660028,148.041188
4420.411949,296.082377,-8580.269578,0.000000
4420.412274,222.061783,-8733.488677,-370.102971
4420.412598,518.144159,-8580.269578,-148.041188
4420.412922,518.144159,-8656.879127,-296.082377
4420.413246,148.041188,-8273.831378,0.000000
4420.413571,370.102971,-8503.660028,0.000000
4420.413895,370.102971,-8733.488677,-296.082377
4420.414219,148.041188,-8656.879127,74.020594
4420.414543,0.000000,-8503.660028,74.020594
4420.414868,518.144159,-8503.660028,0.000000
4420.415192,444.123565,-8503.660028,-74.020594
4420.415516,148.041188,-8656.879127,-370.102971
4420.415841,148.041188,-8810.098227,-370.102971
4420.416165,370.102971,-8350.440928,-296.082377
4420.416489,370.102971,-8580.269578,-518.144159
4420.416813,74.020594,-8656.879127,-222.061783
4420.417138,148.041188,-8580.269578,-222.061783
4420.417462,814.226536,-8733.488677,-296.082377
4420.417786,148.041188,-8580.269578,-370.102971
4420.418110,518.144159,-8656.879127,-740.205942
4420.418435,592.164754,-8580.269578,-296.082377
4420.418759,296.082377,-8197.221829,-296.082377
4420.419083,296.082377,-8656.879127,-370.102971
4420.419407,148.041188,-8273.831378,-444.123565
4420.419732,518.144159,-8273.831378,-666.185348
4420.420056,518.144159,-8656.879127,-666.185348
4420.420380,444.123565,-8733.488677,-592.164754
4420.420704,592.164754,-8810.098227,-666.185348
4420.421029,518.144159,-8350.440928,-740.205942
4420.421353,444.123565,-8427.050478,-814.226536
4420.421677,814.226536,-8580.269578,-1184.329507
4420.422002,444.123565,-8503.660028,-666.185348
4420.422326,518.144159,-8350.440928,-888.247130
4420.422650,444.123565,-8810.098227,-888.247130
4420.422974,518.144159,-8120.612279,-518.144159
4420.423299,592.164754,-8580.269578,-592.164754
4420.423623,518.144159,-8810.098227,-962.267725
4420.423947,518.144159,-8580.269578,-740.205942
4420.424271,518.144159,-8197.221829,-740.205942
4420.424596,666.185348,-8580.269578,-444.123565
4420.424920,592.164754,-8733.488677,-814.226536
4420.425244,740.205942,-8963.317327,-518.144159
4420.425568,592.164754,-8273.831378,-222.061783
4420.425893,888.247130,-8656.879127,-518.144159
4420.426217,444.123565,-8810.098227,-370.102971
4420.426541,444.123565,-8503.660028,-444.123565
4420.426865,592.164754,-8580.269578,-740.205942
4420.427190,814.226536,-8656.879127,-518.144159
4420.427514,222.061783,-8810.098227,-222.061783
4420.427838,444.123565,-8580.269578,-222.061783
4420.428162,296.082377,-8580.269578,-370.102971
4420.428487,370.102971,-8810.098227,-370.102971
4420.428811,666.185348,-8427.050478,0.000000
4420.429135,444.123565,-8580.269578,0.000000
4420.429460,222.061783,-8733.488677,-370.102971
4420.429784,370.102971,-8580.269578,-296.082377
4420.430108,444.123565,-8350.440928,-518.144159
4420.430432,148.041188,-8656.879127,-296.082377
4420.430757,148.041188,-8656.879127,-74.020594
4420.431081,148.041188,-8503.660028,-148.041188
4420.431405,370.102971,-7660.954980,-296.082377
4420.431729,370.102971,-8120.612279,0.000000
4420.432054,444.123565,-8427.050478,-370.102971
4420.432378,518.144159,-8656.879127,0.000000
4420.432702,444.123565,-8197.221829,0.000000
4420.433026,296.082377,-8503.660028,-222.061783
4420.433351,444.123565,-8503.660028,-370.102971
4420.433675,370.102971,-8656.879127,-296.082377
4420.433999,296.082377,-8656.879127,-222.061783
4420.434323,74.020594,-8197.221829,0.000000
4420.434648,296.082377,-8733.488677,0.000000
4420.434972,444.123565,-8656.879127,-370.102971
4420.435296,370.102971,-8427.050478,-296.082377
4420.435621,518.144159,-8810.098227,-222.061783
4420.435945,592.164754,-8350.440928,0.000000
4420.436269,370.102971,-8580.269578,-370.102971
4420.436593,296.082377,-8810.098227,-222.061783
4420.436918,592.164754,-8656.879127,-148.041188
4420.437242,666.185348,-8733.488677,-518.144159
4420.437566,518.144159,-8733.488677,-444.123565
4420.437890,444.123565,-8886.707777,-444.123565
4420.438215,74.020594,-8810.098227,-222.061783
4420.438539,74.020594,-8886.707777,-222.061783
4420.438863,296.082377,-8810.098227,-518.144159
4420.439187,370.102971,-8963.317327,-592.164754
4420.439512,444.123565,-8580.269578,-296.082377
4420.439836,592.164754,-8580.269578,-296.082377
4420.440160,592.164754,-8886.707777,-518.144159
4420.440484,518.144159,-8273.831378,-518.144159
4420.440809,444.123565,-8733.488677,-222.061783
4420.441133,296.082377,-8580.269578,-518.144159
4420.441457,370.102971,-9193.145976,-592.164754
4420.441782,444.123565,-8580.269578,-666.185348
4420.442106,222.061783,-8503.660028,-518.144159
4420.442430,518.144159,-8503.660028,-962.267725
4420.442754,814.226536,-8427.050478,-592.164754
4420.443079,518.144159,-8120.612279,-888.247130
4420.443403,592.164754,-8810.098227,-666.185348
4420.443727,222.061783,-8197.221829,-518.144159
4420.444051,666.185348,-8503.660028,-666.185348
4420.444376,666.185348,-8656.879127,-1036.288319
4420.444700,444.123565,-8580.269578,-888.247130
4420.445024,370.102971,-8503.660028,-444.123565
4420.445348,296.082377,-8197.221829,-888.247130
4420.445673,666.185348,-9039.926876,-1184.329507
4420.445997,444.123565,-8656.879127,-1184.329507
4420.446321,814.226536,-8733.488677,-666.185348
4420.446645,296.082377,-8273.831378,-888.247130
4420.446970,444.123565,-9193.145976,-370.102971
4420.447294,592.164754,-8733.488677,-814.226536
4420.447618,296.082377,-8427.050478,-666.185348
4420.447943,222.061783,-8427.050478,-518.144159
4420.448267,370.102971,-8503.660028,-666.185348
4420.448591,518.144159,-8886.707777,-740.205942
4420.448915,370.102971,-8503.660028,-592.164754
4420.449240,740.205942,-8503.660028,-666.185348
4420.449564,148.041188,-8656.879127,-592.164754
4420.449888,814.226536,-9499.584175,-296.082377
4420.450212,0.000000,-8733.488677,-296.082377
4420.450537,296.082377,-8656.879127,-74.020594
4420.450861,222.061783,-8580.269578,-370.102971
4420.451185,518.144159,-8733.488677,-222.061783
4420.451509,592.164754,-8810.098227,-222.061783
4420.451834,222.061783,-8580.269578,0.000000
4420.452158,296.082377,-8733.488677,0.000000
4420.452482,148.041188,-8273.831378,0.000000
4420.452806,370.102971,-8963.317327,0.000000
4420.453131,592.164754,-8273.831378,-148.041188
4420.453455,370.102971,-8350.440928,-148.041188
4420.453779,222.061783,-8350.440928,-222.061783
4420.454103,888.247130,-8963.317327,-296.082377
4420.454428,592.164754,-8427.050478,-444.123565
4420.454752,592.164754,-8350.440928,-222.061783
4420.455076,296.082377,-8503.660028,-296.082377
4420.455400,518.144159,-8580.269578,-296.082377
4420.455725,592.164754,-8580.269578,-296.082377
4420.456049,444.123565,-8810.098227,0.000000
4420.456373,518.144159,-8503.660028,-518.144159
4420.456697,518.144159,-8580.269578,-148.041188
4420.457022,592.164754,-9039.926876,-296.082377
4420.457346,296.082377,-8580.269578,-148.041188
4420.457670,666.185348,-8580.269578,-444.123565
4420.457994,666.185348,-8733.488677,-370.102971
4420.458319,592.164754,-8503.660028,-518.144159
4420.458643,592.164754,-8656.879127,-370.102971
4420.458967,666.185348,-8733.488677,-518.144159
4420.459291,444.123565,-8656.879127,-296.082377
4420.459616,888.247130,-8733.488677,-296.082377
4420.459940,666.185348,-8810.098227,-592.164754
4420.460264,518.144159,-8580.269578,-222.061783
4420.460589,444.123565,-8503.660028,-370.102971
4420.460913,296.082377,-8886.707777,-296.082377
4420.461237,592.164754,-8044.002729,-222.061783
4420.461561,444.123565,-8580.269578,-666.185348
4420.461886,444.123565,-8656.879127,-222.061783
4420.462210,370.102971,-8656.879127,0.000000
4420.462534,666.185348,-8656.879127,-148.041188
4420.462858,666.185348,-8503.660028,-370.102971
4420.463183,592.164754,-8810.098227,-296.082377
4420.463507,518.144159,-8733.488677,-370.102971
4420.463831,296.082377,-8427.050478,-222.061783
4420.464155,0.000000,-8656.879127,-370.102971
4420.464480,222.061783,-8656.879127,-370.102971
4420.464804,370.102971,-8273.831378,-222.061783
4420.465128,370.102971,-8580.269578,-370.102971
4420.465452,592.164754,-8044.002729,-74.020594
4420.465777,296.082377,-8656.879127,-370.102971
4420.466101,296.082377,-8503.660028,-296.082377
4420.466425,296.082377,-8656.879127,-222.061783
4420.466749,222.061783,-8580.269578,-518.144159
4420.467074,370.102971,-8350.440928,-444.123565
4420.467398,296.082377,-8503.660028,-444.123565
4420.467722,296.082377,-8656.879127,-222.061783
4420.468046,518.144159,-8580.269578,-296.082377
4420.468371,148.041188,-8503.660028,-296.082377
4420.468695,222.061783,-8503.660028,-444.123565
4420.469019,222.061783,-8273.831378,-296.082377
4420.469343,222.061783,-8427.050478,-592.164754
4420.469668,74.020594,-8197.221829,-740.205942
4420.469992,222.061783,-8580.269578,-222.061783
4420.470316,592.164754,-8427.050478,-518.144159
4420.470640,518.144159,-8350.440928,-370.102971
4420.470965,518.144159,-8656.879127,-592.164754
4420.471289,370.102971,-8120.612279,-296.082377
4420.471613,444.123565,-8350.440928,-592.164754
4420.471937,592.164754,-8503.660028,-444.123565
4420.472262,148.041188,-8656.879127,0.000000
4420.472586,148.041188,-8580.269578,-444.123565
4420.472910,148.041188,-8656.879127,-370.102971
4420.473234,296.082377,-8503.660028,-370.102971
4420.473559,518.144159,-8580.269578,-370.102971
4420.473883,592.164754,-8427.050478,0.000000
4420.474207,592.164754,-8350.440928,0.000000
4420.474531,148.041188,-8656.879127,-222.061783
4420.474856,444.123565,-8580.269578,-222.061783
4420.475180,296.082377,-8656.879127,-370.102971
4420.475504,444.123565,-8656.879127,-518.144159
4420.475828,296.082377,-8427.050478,0.000000
4420.476153,370.102971,-8580.269578,0.000000
4420.476477,518.144159,-8350.440928,-444.123565
4420.476801,518.144159,-8044.002729,0.000000
4420.477125,592.164754,-8733.488677,-666.185348
4420.477450,518.144159,-8273.831378,-592.164754
4420.477774,518.144159,-8427.050478,-518.144159
4420.478098,222.061783,-8656.879127,-444.123565
4420.478422,592.164754,-8503.660028,-444.123565
4420.478747,666.185348,-8503.660028,-814.226536
4420.479071,592.164754,-8810.098227,-592.164754
4420.479395,518.144159,-8656.879127,-370.102971
4420.479719,296.082377,-8810.098227,-296.082377
4420.480044,444.123565,-8810.098227,-814.226536
4420.480368,666.185348,-8810.098227,-740.205942
4420.480692,370.102971,-8810.098227,-814.226536
4420.481016,370.102971,-8044.002729,-518.144159
4420.481341,222.061783,-8580.269578,-444.123565
4420.481665,370.102971,-8963.317327,-518.144159
4420.481989,444.123565,-8580.269578,-814.226536
4420.482313,296.082377,-8886.707777,-518.144159
4420.482638,518.144159,-8963.317327,-518.144159
4420.482962,296.082377,-8656.879127,-296.082377
4420.483286,296.082377,-8963.317327,-296.082377
4420.483610,370.102971,-8503.660028,-222.061783
4420.483935,222.061783,-9422.974625,-222.061783
4420.484259,222.061783,-8580.269578,-74.020594
4420.484583,296.082377,-8503.660028,0.000000
4420.484907,222.061783,-8886.707777,0.000000
4420.485232,222.061783,-9346.365076,74.020594
4420.485556,370.102971,-8427.050478,0.000000
4420.485880,444.123565,-8656.879127,0.000000
4420.486204,444.123565,-8886.707777,-222.061783
4420.486529,74.020594,-8580.269578,0.000000
4420.486853,370.102971,-8886.707777,148.041188
4420.487177,148.041188,-8810.098227,-148.041188
4420.487501,370.102971,-8427.050478,0.000000
4420.487826,444.123565,-8044.002729,-222.061783
4420.488150,296.082377,-8886.707777,0.000000
4420.488474,222.061783,-8580.269578,-222.061783
4420.488798,222.061783,-8503.660028,0.000000
4420.489123,444.123565,-8350.440928,-296.082377
4420.489447,444.123565,-8580.269578,0.000000
4420.489771,444.123565,-8733.488677,-148.041188
4420.490095,518.144159,-8503.660028,-148.041188
4420.490420,518.144159,-8503.660028,-148.041188
4420.490744,296.082377,-8350.440928,-444.123565
4420.491068,0.000000,-8427.050478,-296.082377
4420.491392,518.144159,-8197.221829,0.000000
4420.491717,296.082377,-8427.050478,0.000000
4420.492041,518.144159,-8503.660028,0.000000
4420.492365,296.082377,-8044.002729,-296.082377
4420.492689,296.082377,-8503.660028,-370.102971
4420.493014,518.144159,-8427.050478,-370.102971
4420.493338,592.164754,-8044.002729,-444.123565
4420.493662,592.164754,-8580.269578,0.000000
4420.493987,444.123565,-8427.050478,0.000000
4420.494311,666.185348,-8733.488677,-518.144159
4420.494635,518.144159,-8810.098227,-444.123565
4420.494959,518.144159,-8273.831378,-222.061783
4420.495284,592.164754,-8733.488677,-370.102971
4420.495608,370.102971,-8427.050478,-592.164754
4420.495932,444.123565,-8503.660028,-370.102971
4420.496256,370.102971,-8733.488677,-444.123565
4420.496581,888.247130,-8733.488677,-148.041188
4420.496905,666.185348,-8580.269578,-370.102971
4420.497229,518.144159,-8580.269578,-370.102971
4420.497553,444.123565,-8580.269578,-370.102971
4420.497878,222.061783,-8886.707777,-444.123565
4420.498202,444.123565,-8656.879127,-148.041188
4420.498526,444.123565,-8656.879127,-148.041188
4420.498850,296.082377,-8810.098227,-592.164754
4420.499175,222.061783,-8656.879127,-148.041188
4420.499499,666.185348,-8503.660028,-148.041188
4420.499823,518.144159,-8733.488677,-222.061783
4420.500147,370.102971,-8503.660028,-592.164754
4420.500472,518.144159,-8733.488677,-444.123565
4420.500796,370.102971,-8810.098227,-518.144159
4420.501120,518.144159,-8503.660028,-222.061783
4420.501444,444.123565,-8580.269578,-444.123565
4420.501769,370.102971,-8503.660028,-148.041188
4420.502093,296.082377,-8656.879127,-296.082377
4420.502417,518.144159,-8810.098227,-444.123565
4420.502741,370.102971,-8580.269578,-370.102971
4420.503066,444.123565,-8733.488677,-296.082377
4420.503390,222.061783,-8656.879127,-222.061783
4420.503714,296.082377,-9039.926876,74.020594
4420.504038,444.123565,-8580.269578,-518.144159
4420.504363,370.102971,-8656.879127,-518.144159
4420.504687,444.123565,-8886.707777,-370.102971
4420.505011,0.000000,-9346.365076,0.000000
4420.505335,370.102971,-8427.050478,0.000000
4420.505660,222.061783,-8810.098227,-148.041188
4420.505984,370.102971,-8580.269578,0.000000
4420.506308,148.041188,-8427.050478,0.000000
4420.506632,518.144159,-8733.488677,-296.082377
4420.506957,296.082377,-8350.440928,0.000000
4420.507281,296.082377,-8350.440928,0.000000
4420.507605,296.082377,-8503.660028,0.000000
4420.507929,814.226536,-8427.050478,0.000000
4420.508254,222.061783,-8810.098227,-222.061783
4420.508578,518.144159,-8886.707777,0.000000
4420.508902,296.082377,-8503.660028,0.000000
4420.509226,444.123565,-9269.755526,222.061783
4420.509551,666.185348,-8580.269578,0.000000
4420.509875,370.102971,-8580.269578,0.000000
4420.510199,518.144159,-8580.269578,0.000000
4420.510523,444.123565,-8503.660028,0.000000
4420.510848,592.164754,-8733.488677,-222.061783
4420.511172,296.082377,-8197.221829,-370.102971
4420.511496,518.144159,-8733.488677,-148.041188
4420.511820,296.082377,-8580.269578,-444.123565
4420.512145,814.226536,-8963.317327,222.061783
4420.512469,222.061783,-8427.050478,-296.082377
4420.512793,370.102971,-8810.098227,-222.061783
4420.513117,444.123565,-8350.440928,-296.082377
4420.513442,740.205942,-8580.269578,-296.082377
4420.513766,518.144159,-8810.098227,-518.144159
4420.514090,592.164754,-8656.879127,-444.123565
4420.514414,518.144159,-8580.269578,-592.164754
4420.514739,518.144159,-8580.269578,-444.123565
4420.515063,222.061783,-8580.269578,-222.061783
4420.515387,370.102971,-8580.269578,-592.164754
4420.515711,444.123565,-8427.050478,-518.144159
4420.516036,740.205942,-8656.879127,-444.123565
4420.516360,518.144159,-7890.783629,-592.164754
4420.516684,592.164754,-8810.098227,-592.164754
4420.517008,592.164754,-8733.488677,-592.164754
4420.517333,370.102971,-8656.879127,-666.185348
4420.517657,518.144159,-8733.488677,-518.144159
4420.517981,296.082377,-8733.488677,-518.144159
4420.518305,592.164754,-8733.488677,-592.164754
4420.518630,296.082377,-8810.098227,-592.164754
4420.518954,592.164754,-8656.879127,-518.144159
4420.519278,666.185348,-8197.221829,-592.164754
4420.519602,370.102971,-8810.098227,-296.082377
4420.519927,296.082377,-8810.098227,0.000000
4420.520251,592.164754,-8656.879127,-592.164754
4420.520575,1036.288319,-8273.831378,-666.185348
4420.520899,370.102971,-8810.098227,-370.102971
4420.521224,518.144159,-8656.879127,-222.061783
4420.521548,444.123565,-8656.879127,-148.041188
4420.521872,222.061783,-8427.050478,-444.123565
4420.522196,592.164754,-8656.879127,-592.164754
4420.522521,666.185348,-8350.440928,-148.041188
4420.522845,296.082377,-8350.440928,-296.082377
4420.523169,518.144159,-8810.098227,-296.082377
4420.523493,666.185348,-8580.269578,-518.144159
4420.523818,370.102971,-8580.269578,-296.082377
4420.524142,296.082377,-8350.440928,-296.082377
4420.524466,518.144159,-8503.660028,0.000000
4420.524790,592.164754,-8503.660028,-296.082377
4420.525115,592.164754,-8350.440928,-296.082377
4420.525439,296.082377,-8503.660028,-370.102971
4420.525763,592.164754,-8656.879127,-296.082377
4420.526088,740.205942,-8580.269578,0.000000
4420.526412,666.185348,-8580.269578,-592.164754
4420.526736,296.082377,-8273.831378,0.000000
4420.527060,444.123565,-8197.221829,-370.102971
4420.527385,444.123565,-8580.269578,-222.061783
4420.527709,962.267725,-8810.098227,-296.082377
4420.528033,444.123565,-8580.269578,0.000000
4420.528357,444.123565,-8656.879127,0.000000
4420.528682,444.123565,-8503.660028,0.000000
4420.529006,666.185348,-8656.879127,148.041188
4420.529330,518.144159,-8656.879127,0.000000
4420.529654,222.061783,-8273.831378,0.000000
4420.529979,74.020594,-8580.269578,-296.082377
4420.530303,518.144159,-8733.488677,-222.061783
4420.530627,592.164754,-8427.050478,-222.061783
4420.530951,0.000000,-8503.660028,0.000000
4420.531276,296.082377,-8503.660028,0.000000
4420.531600,444.123565,-8656.879127,-296.082377
4420.531924,296.082377,-9422.974625,148.041188
4420.532248,296.082377,-8580.269578,-222.061783
4420.532573,370.102971,-9039.926876,0.000000
4420.532897,222.061783,-8350.440928,-296.082377
4420.533221,0.000000,-8810.098227,-222.061783
4420.533545,222.061783,-8810.098227,-148.041188
4420.533870,296.082377,-8580.269578,-296.082377
4420.534194,222.061783,-8427.050478,-592.164754
4420.534518,444.123565,-8810.098227,-296.082377
4420.534842,222.061783,-8656.879127,-148.041188
4420.535167,370.102971,-8810.098227,-296.082377
4420.535491,444.123565,-8503.660028,-370.102971
4420.535815,370.102971,-8503.660028,-370.102971
4420.536139,814.226536,-8656.879127,-444.123565
4420.536464,518.144159,-8580.269578,0.000000
4420.536788,444.123565,-8656.879127,-444.123565
4420.537112,370.102971,-8886.707777,-370.102971
4420.537436,444.123565,-8580.269578,-666.185348
4420.537761,888.247130,-8886.707777,-444.123565
4420.538085,518.144159,-8656.879127,-592.164754
4420.538409,518.144159,-8580.269578,-444.123565
4420.538733,592.164754,-8503.660028,-444.123565
4420.539058,296.082377,-8044.002729,-962.267725
4420.539382,518.144159,-8503.660028,-518.144159
4420.539706,888.247130,-8427.050478,-518.144159
4420.540030,740.205942,-8580.269578,-222.061783
4420.540355,518.144159,-8120.612279,-148.041188
4420.540679,222.061783,-8580.269578,-296.082377
4420.541003,592.164754,-8427.050478,-370.102971
4420.541327,518.144159,-8580.269578,-296.082377
4420.541652,148.041188,-8580.269578,-148.041188
4420.541976,296.082377,-8427.050478,-296.082377
4420.542300,444.123565,-8733.488677,-518.144159
4420.542624,296.082377,-8273.831378,-222.061783
4420.542949,444.123565,-8580.269578,-296.082377
4420.543273,740.205942,-8350.440928,74.020594
4420.543597,444.123565,-8273.831378,-296.082377
4420.543921,444.123565,-8656.879127,-296.082377
4420.544246,370.102971,-8503.660028,-370.102971
4420.544570,592.164754,-8733.488677,0.000000
4420.544894,592.164754,-8656.879127,-592.164754
4420.545218,518.144159,-8120.612279,-222.061783
4420.545543,444.123565,-8733.488677,-518.144159
4420.545867,518.144159,-8350.440928,-296.082377
4420.546191,222.061783,-8350.440928,-444.123565
4420.546515,444.123565,-8656.879127,-444.123565
4420.546840,740.205942,-8350.440928,-296.082377
4420.547164,296.082377,-8503.660028,-518.144159
4420.547488,444.123565,-8656.879127,-518.144159
4420.547812,444.123565,-8427.050478,-518.144159
4420.548137,740.205942,-8963.317327,-518.144159
4420.548461,444.123565,-8120.612279,-740.205942
4420.548785,518.144159,-8886.707777,-296.082377
4420.549109,296.082377,-8656.879127,-518.144159
4420.549434,370.102971,-8656.879127,-222.061783
4420.549758,370.102971,-8656.879127,-814.226536
4420.550082,296.082377,-8656.879127,-518.144159
4420.550406,444.123565,-8503.660028,-740.205942
4420.550731,296.082377,-8350.440928,-518.144159
4420.551055,296.082377,-8656.879127,-222.061783
4420.551379,370.102971,-8733.488677,-296.082377
4420.551703,814.226536,-9039.926876,-444.123565
4420.552028,222.061783,-8656.879127,0.000000
4420.552352,370.102971,-8810.098227,-296.082377
4420.552676,296.082377,-9039.926876,-370.102971
4420.553000,148.041188,-8580.269578,-518.144159
4420.553325,0.000000,-8733.488677,-222.061783
4420.553649,296.082377,-8656.879127,-296.082377
4420.553973,518.144159,-8503.660028,-222.061783
4420.554298,518.144159,-8963.317327,-518.144159
4420.554622,444.123565,-8886.707777,148.041188
4420.554946,370.102971,-8656.879127,-370.102971
4420.555271,296.082377,-8810.098227,0.000000
4420.555595,296.082377,-8350.440928,-370.102971
4420.555920,740.205942,-8886.707777,-518.144159
4420.556244,296.082377,-8350.440928,-444.123565
4420.556568,370.102971,-8886.707777,-148.041188
4420.556893,518.144159,-8733.488677,-666.185348
4420.557217,296.082377,-8580.269578,-222.061783
4420.557541,148.041188,-8350.440928,0.000000
4420.557866,296.082377,-8656.879127,-592.164754
4420.558190,444.123565,-8503.660028,-592.164754
4420.558514,444.123565,-8580.269578,-296.082377
4420.558839,592.164754,-8120.612279,-518.144159
4420.559163,518.144159,-8656.879127,-444.123565
4420.559487,222.061783,-8273.831378,-444.123565
4420.559812,444.123565,-8427.050478,-518.144159
4420.560136,666.185348,-7814.174080,-370.102971
4420.560460,592.164754,-8656.879127,-370.102971
4420.560785,370.102971,-8503.660028,-518.144159
4420.561109,370.102971,-8656.879127,-518.144159
4420.561433,592.164754,-8580.269578,-370.102971
4420.561758,666.185348,-8656.879127,-592.164754
4420.562082,592.164754,-8503.660028,-370.102971
4420.562406,370.102971,-8503.660028,-296.082377
4420.562731,444.123565,-8350.440928,-518.144159
4420.563055,740.205942,-9193.145976,-370.102971
4420.563379,444.123565,-8503.660028,-148.041188
4420.563704,518.144159,-8580.269578,-444.123565
4420.564028,296.082377,-8427.050478,0.000000
4420.564352,296.082377,-8580.269578,74.020594
4420.564677,148.041188,-9039.926876,-296.082377
4420.565001,444.123565,-8656.879127,-444.123565
4420.565325,222.061783,-8427.050478,-296.082377
4420.565650,296.082377,-8656.879127,-444.123565
4420.565974,0.000000,-8656.879127,0.000000
4420.566298,296.082377,-8810.098227,-444.123565
4420.566623,370.102971,-8733.488677,-370.102971
4420.566947,444.123565,-8350.440928,-444.123565
4420.567271,740.205942,-9116.536426,-296.082377
4420.567596,444.123565,-8427.050478,-296.082377
4420.567920,148.041188,-8580.269578,-296.082377
4420.568244,222.061783,-8580.269578,-296.082377
4420.568569,222.061783,-8273.831378,-592.164754
4420.568893,592.164754,-8580.269578,-666.185348
4420.569217,222.061783,-8427.050478,-592.164754
4420.569542,444.123565,-8580.269578,-444.123565
4420.569866,444.123565,-8273.831378,-444.123565
4420.570190,296.082377,-8886.707777,0.000000
4420.570515,370.102971,-8427.050478,-962.267725
4420.570839,518.144159,-8580.269578,-740.205942
4420.571163,592.164754,-8197.221829,-518.144159
4420.571488,518.144159,-8733.488677,-370.102971
4420.571812,444.123565,-8656.879127,-666.185348
4420.572136,444.123565,-8580.269578,-518.144159
4420.572461,518.144159,-8503.660028,-814.226536
4420.572785,222.061783,-8580.269578,-222.061783
4420.573109,666.185348,-8503.660028,-592.164754
4420.573434,444.123565,-8733.488677,-148.041188
4420.573758,740.205942,-8427.050478,-592.164754
4420.574082,444.123565,-8963.317327,-296.082377
4420.574407,592.164754,-8580.269578,-814.226536
4420.574731,296.082377,-8427.050478,-444.123565
4420.575056,370.102971,-8810.098227,-518.144159
4420.575380,518.144159,-8656.879127,-370.102971
4420.575704,518.144159,-8810.098227,-740.205942
4420.576029,370.102971,-8580.269578,-148.041188
4420.576353,296.082377,-8656.879127,-222.061783
4420.576677,222.061783,-8810.098227,-296.082377
4420.577002,518.144159,-8503.660028,-148.041188
4420.577326,370.102971,-8427.050478,-148.041188
4420.577650,370.102971,-8656.879127,-222.061783
4420.577975,296.082377,-8350.440928,0.000000
4420.578299,148.041188,-8580.269578,0.000000
4420.578623,222.061783,-8427.050478,-518.144159
4420.578948,296.082377,-8810.098227,0.000000
4420.579272,296.082377,-8273.831378,0.000000
4420.579596,370.102971,-8580.269578,0.000000
4420.579921,222.061783,-8273.831378,-148.041188
4420.580245,444.123565,-8580.269578,-148.041188
4420.580569,518.144159,-8273.831378,-296.082377
4420.580894,444.123565,-8503.660028,-148.041188
4420.581218,444.123565,-8656.879127,-370.102971
4420.581542,888.247130,-8427.050478,0.000000
4420.581867,222.061783,-8580.269578,-222.061783
4420.582191,0.000000,-8580.269578,-296.082377
4420.582515,518.144159,-8580.269578,-592.164754
4420.582840,518.144159,-8656.879127,-666.185348
4420.583164,518.144159,-8503.660028,-296.082377
4420.583488,444.123565,-8350.440928,-370.102971
4420.583813,444.123565,-8503.660028,-666.185348
4420.584137,518.144159,-8656.879127,-296.082377
4420.584461,666.185348,-8656.879127,-518.144159
4420.584786,296.082377,-8656.879127,0.000000
4420.585110,296.082377,-8350.440928,-148.041188
4420.585434,222.061783,-8810.098227,-148.041188
4420.585759,592.164754,-8656.879127,-370.102971
4420.586083,370.102971,-8580.269578,-370.102971
4420.586407,518.144159,-8810.098227,-296.082377
4420.586732,74.020594,-8580.269578,-148.041188
4420.587056,592.164754,-8580.269578,-518.144159
4420.587380,444.123565,-8427.050478,-370.102971
4420.587705,444.123565,-8656.879127,-296.082377
4420.588029,518.144159,-8580.269578,-518.144159
4420.588353,518.144159,-8427.050478,-222.061783
4420.588678,222.061783,-8350.440928,-518.144159
4420.589002,518.144159,-8733.488677,-370.102971
4420.589326,444.123565,-8273.831378,-592.164754
4420.589651,592.164754,-8580.269578,-370.102971
4420.589975,740.205942,-8580.269578,-666.185348
4420.590299,518.144159,-8656.879127,-296.082377
4420.590624,592.164754,-8503.660028,-592.164754
4420.590948,296.082377,-8427.050478,-370.102971
4420.591272,592.164754,-8580.269578,-1332.370696
4420.591597,518.144159,-8503.660028,-962.267725
4420.591921,518.144159,-8273.831378,-592.164754
4420.592245,444.123565,-8350.440928,-592.164754
4420.592570,518.144159,-8580.269578,-814.226536
4420.592894,518.144159,-8197.221829,-592.164754
4420.593218,814.226536,-8580.269578,-888.247130
4420.593543,518.144159,-8656.879127,-444.123565
4420.593867,444.123565,-8427.050478,-592.164754
4420.594192,0.000000,-8963.317327,222.061783
4420.594516,370.102971,-8503.660028,-370.102971
4420.594840,666.185348,-8580.269578,-666.185348
4420.595165,592.164754,-8350.440928,-592.164754
4420.595489,518.144159,-8273.831378,-148.041188
4420.595813,444.123565,-8427.050478,-370.102971
4420.596138,444.123565,-8886.707777,-296.082377
4420.596462,518.144159,-8427.050478,-444.123565
4420.596786,222.061783,-9039.926876,-148.041188
4420.597111,222.061783,-8427.050478,0.000000
4420.597435,222.061783,-8810.098227,0.000000
4420.597759,444.123565,-8427.050478,-222.061783
4420.598084,296.082377,-8580.269578,0.000000
4420.598408,370.102971,-8886.707777,-222.061783
4420.598732,296.082377,-8427.050478,0.000000
4420.599057,222.061783,-8580.269578,0.000000
4420.599381,148.041188,-8886.707777,0.000000
4420.599705,370.102971,-8733.488677,0.000000
4420.600030,148.041188,-8580.269578,-222.061783
4420.600354,222.061783,-8656.879127,0.000000
4420.600678,222.061783,-8733.488677,0.000000
4420.601003,296.082377,-8427.050478,-148.041188
4420.601327,370.102971,-8503.660028,0.000000
4420.601651,296.082377,-8350.440928,-222.061783
4420.601976,518.144159,-8580.269578,0.000000
4420.602300,592.164754,-8273.831378,0.000000
4420.602624,296.082377,-8503.660028,-222.061783
4420.602949,222.061783,-8503.660028,-518.144159
4420.603273,222.061783,-8427.050478,0.000000
4420.603597,222.061783,-8197.221829,-296.082377
4420.603922,296.082377,-8733.488677,0.000000
4420.604246,370.102971,-8503.660028,0.000000
4420.604570,296.082377,-8503.660028,0.000000
4420.604895,740.205942,-8273.831378,-222.061783
4420.605219,666.185348,-8810.098227,-444.123565
4420.605543,1110.308913,-9269.755526,-148.041188
4420.605868,370.102971,-8350.440928,-518.144159
4420.606192,444.123565,-8580.269578,-444.123565
4420.606516,296.082377,-8580.269578,-370.102971
4420.606841,370.102971,-8427.050478,-370.102971
4420.607165,444.123565,-8580.269578,-370.102971
4420.607489,666.185348,-8810.098227,-222.061783
4420.607814,592.164754,-8503.660028,-370.102971
4420.608138,592.164754,-8580.269578,0.000000
4420.608462,740.205942,-8733.488677,-370.102971
4420.608787,370.102971,-8503.660028,-370.102971
4420.609111,592.164754,-8427.050478,-296.082377
4420.609435,222.061783,-8427.050478,-222.061783
4420.609760,296.082377,-8963.317327,0.000000
4420.610084,222.061783,-8656.879127,-296.082377
4420.610408,518.144159,-8656.879127,-222.061783
4420.610733,370.102971,-8580.269578,-148.041188
4420.611057,444.123565,-8273.831378,0.000000
4420.611381,222.061783,-8656.879127,0.000000
4420.611706,222.061783,-8580.269578,0.000000
4420.612030,296.082377,-8503.660028,0.000000
4420.612354,222.061783,-8733.488677,-296.082377
4420.612679,74.020594,-8273.831378,0.000000
4420.613003,222.061783,-8273.831378,-148.041188
4420.613327,148.041188,-8810.098227,0.000000
4420.613652,444.123565,-8197.221829,-444.123565
4420.613976,666.185348,-8963.317327,-296.082377
4420.614301,296.082377,-8273.831378,-444.123565
4420.614625,222.061783,-8503.660028,0.000000
4420.614949,296.082377,-8580.269578,-518.144159
4420.615274,370.102971,-9039.926876,-370.102971
4420.615598,370.102971,-8350.440928,-666.185348
4420.615922,592.164754,-8810.098227,-370.102971
4420.616247,518.144159,-8273.831378,-592.164754
4420.616571,444.123565,-8580.269578,-296.082377
4420.616895,296.082377,-8427.050478,-518.144159
4420.617220,370.102971,-8503.660028,-518.144159
4420.617544,296.082377,-8503.660028,-592.164754
4420.617868,592.164754,-8503.660028,-370.102971
4420.618193,296.082377,-8273.831378,-888.247130
4420.618517,592.164754,-8580.269578,-518.144159
4420.618841,444.123565,-8197.221829,-814.226536
4420.619166,296.082377,-9039.926876,-370.102971
4420.619490,592.164754,-8197.221829,-666.185348
4420.619814,370.102971,-8580.269578,0.000000
4420.620139,222.061783,-8580.269578,-370.102971
4420.620463,518.144159,-8273.831378,-444.123565
4420.620787,444.123565,-8580.269578,-518.144159
4420.621112,592.164754,-8886.707777,-814.226536
4420.621436,296.082377,-8733.488677,-518.144159
4420.621760,148.041188,-8350.440928,-296.082377
4420.622085,444.123565,-8656.879127,-296.082377
4420.622409,666.185348,-8503.660028,-370.102971
4420.622733,666.185348,-8427.050478,-444.123565
4420.623058,666.185348,-8503.660028,-370.102971
4420.623382,740.205942,-8580.269578,-222.061783
4420.623706,370.102971,-8810.098227,-370.102971
4420.624031,444.123565,-8580.269578,-444.123565
4420.624355,518.144159,-8656.879127,-444.123565
4420.624679,296.082377,-8656.879127,-444.123565
4420.625004,370.102971,-8503.660028,-296.082377
4420.625328,1036.288319,-8580.269578,-518.144159
4420.625652,444.123565,-8273.831378,-518.144159
4420.625977,518.144159,-8350.440928,-592.164754
4420.626301,592.164754,-8656.879127,-518.144159
4420.626625,592.164754,-8197.221829,-222.061783
4420.626950,592.164754,-8733.488677,-296.082377
4420.627274,592.164754,-8810.098227,-592.164754
4420.627598,592.164754,-8580.269578,-518.144159
4420.627923,518.144159,-8963.317327,-592.164754
4420.628247,296.082377,-8886.707777,-370.102971
4420.628571,148.041188,-8656.879127,-222.061783
4420.628896,296.082377,-8656.879127,-296.082377
4420.629220,148.041188,-8503.660028,-444.123565
4420.629544,666.185348,-8963.317327,-148.041188
4420.629869,592.164754,-8810.098227,-296.082377
4420.630193,814.226536,-8350.440928,-370.102971
4420.630517,444.123565,-8656.879127,-370.102971
4420.630842,592.164754,-8810.098227,296.082377
4420.631166,296.082377,-8427.050478,-148.041188
4420.631490,296.082377,-8733.488677,-444.123565
4420.631815,222.061783,-8656.879127,-296.082377
4420.632139,370.102971,-8810.098227,0.000000
4420.632463,0.000000,-8580.269578,296.082377
4420.632788,222.061783,-8503.660028,0.000000
4420.633112,370.102971,-8886.707777,-222.061783
4420.633437,370.102971,-8656.879127,0.000000
4420.633761,518.144159,-7584.345430,296.082377
4420.634085,370.102971,-8656.879127,0.000000
4420.634410,592.164754,-8350.440928,-370.102971
4420.634734,518.144159,-8580.269578,-296.082377
4420.635058,444.123565,-8656.879127,0.000000
4420.635383,296.082377,-8580.269578,0.000000
4420.635707,296.082377,-8273.831378,-148.041188
4420.636031,222.061783,-8503.660028,0.000000
4420.636356,222.061783,-8350.440928,-222.061783
4420.636680,296.082377,-8120.612279,0.000000
4420.637004,370.102971,-8503.660028,-148.041188
4420.637329,444.123565,-8503.660028,-370.102971
4420.637653,592.164754,-8350.440928,-518.144159
4420.637977,222.061783,-8273.831378,0.000000
4420.638302,740.205942,-8580.269578,-296.082377
4420.638626,592.164754,-8503.660028,0.000000
4420.638950,222.061783,-8427.050478,0.000000
4420.639275,518.144159,-8656.879127,-148.041188
4420.639599,666.185348,-8350.440928,-370.102971
4420.639923,592.164754,-8427.050478,-518.144159
4420.640248,740.205942,-8427.050478,-370.102971
4420.640572,518.144159,-8503.660028,-74.020594
4420.640896,814.226536,-8580.269578,-370.102971
4420.641221,592.164754,-8273.831378,-592.164754
4420.641545,666.185348,-8656.879127,-370.102971
4420.641869,592.164754,-8580.269578,-370.102971
4420.642194,592.164754,-7814.174080,74.020594
4420.642518,592.164754,-8886.707777,-296.082377
4420.642842,444.123565,-8273.831378,-666.185348
4420.643167,518.144159,-8503.660028,-518.144159
4420.643491,518.144159,-8580.269578,-592.164754
4420.643815,814.226536,-8273.831378,-222.061783
4420.644140,222.061783,-8503.660028,-518.144159
4420.644464,74.020594,-8580.269578,-592.164754
4420.644788,444.123565,-8810.098227,-518.144159
4420.645113,148.041188,-8503.660028,-296.082377
4420.645437,370.102971,-8810.098227,-518.144159
4420.645761,444.123565,-8810.098227,-370.102971
4420.646086,296.082377,-8656.879127,-518.144159
4420.646410,518.144159,-8350.440928,-444.123565
4420.646734,370.102971,-8733.488677,-592.164754
4420.647059,370.102971,-8810.098227,-296.082377
4420.647383,370.102971,-8273.831378,-296.082377
4420.647707,296.082377,-8580.269578,-296.082377
4420.648032,148.041188,-8427.050478,-148.041188
4420.648356,222.061783,-8580.269578,-370.102971
4420.648680,370.102971,-8580.269578,-592.164754
4420.649005,296.082377,-8427.050478,-370.102971
4420.649329,814.226536,-9422.974625,-296.082377
4420.649653,592.164754,-8503.660028,-592.164754
4420.649978,592.164754,-8503.660028,-370.102971
4420.650302,666.185348,-8656.879127,-518.144159
4420.650626,740.205942,-8810.098227,-370.102971
4420.650951,592.164754,-8273.831378,-592.164754
4420.651275,222.061783,-8580.269578,-296.082377
4420.651599,444.123565,-8273.831378,-518.144159
4420.651924,666.185348,-8580.269578,-370.102971
4420.652248,814.226536,-9039.926876,-740.205942
4420.652573,518.144159,-8656.879127,-296.082377
4420.652897,370.102971,-8427.050478,-222.061783
4420.653221,444.123565,-8503.660028,0.000000
4420.653546,666.185348,-9039.926876,-370.102971
4420.653870,518.144159,-8656.879127,-370.102971
4420.654194,888.247130,-8197.221829,-296.082377
4420.654518,148.041188,-8427.050478,-222.061783
4420.654843,148.041188,-8656.879127,-296.082377
4420.655167,296.082377,-8656.879127,-444.123565
4420.655491,444.123565,-8733.488677,-222.061783
4420.655816,370.102971,-8886.707777,-222.061783
4420.656140,296.082377,-8580.269578,-148.041188
4420.656464,592.164754,-9116.536426,0.000000
4420.656789,296.082377,-8656.879127,-222.061783
4420.657113,370.102971,-8503.660028,0.000000
4420.657437,518.144159,-8580.269578,-666.185348
4420.657762,666.185348,-8503.660028,0.000000
4420.658086,0.000000,-8580.269578,-296.082377
4420.658410,296.082377,-8656.879127,-148.041188
4420.658735,296.082377,-8197.221829,0.000000
4420.659059,518.144159,-8733.488677,-296.082377
4420.659383,814.226536,-8503.660028,-296.082377
4420.659708,296.082377,-8733.488677,0.000000
4420.660032,148.041188,-8886.707777,-296.082377
4420.660356,222.061783,-8503.660028,-592.164754
4420.660681,666.185348,-8350.440928,-296.082377
4420.661005,444.123565,-8580.269578,-666.185348
4420.661329,592.164754,-8427.050478,-370.102971
4420.661653,444.123565,-8733.488677,-444.123565
4420.661978,0.000000,-8197.221829,-592.164754
4420.662302,518.144159,-8733.488677,-740.205942
4420.662626,370.102971,-8963.317327,-666.185348
4420.662951,370.102971,-8580.269578,-740.205942
4420.663275,518.144159,-8886.707777,-592.164754
4420.663599,444.123565,-8656.879127,-444.123565
4420.663924,518.144159,-8350.440928,-592.164754
4420.664248,444.123565,-8733.488677,-962.267725
4420.664572,592.164754,-8580.269578,-592.164754
4420.664897,444.123565,-8733.488677,-296.082377
4420.665221,296.082377,-8656.879127,-370.102971
4420.665545,518.144159,-8503.660028,-370.102971
4420.665870,666.185348,-8733.488677,-814.226536
4420.666194,518.144159,-8427.050478,-666.185348
4420.666518,370.102971,-8503.660028,-370.102971
4420.666843,222.061783,-8503.660028,-222.061783
4420.667167,222.061783,-8427.050478,-370.102971
4420.667491,74.020594,-8427.050478,0.000000
4420.667816,0.000000,-8273.831378,0.000000
4420.668140,444.123565,-8427.050478,0.000000
4420.668464,444.123565,-8197.221829,-296.082377
4420.668788,370.102971,-8580.269578,0.000000
4420.669113,814.226536,-8656.879127,-148.041188
4420.669437,370.102971,-8427.050478,0.000000
4420.669761,518.144159,-8656.879127,0.000000
4420.670086,444.123565,-8503.660028,0.000000
4420.670410,518.144159,-8733.488677,-74.020594
4420.670734,370.102971,-7967.393179,0.000000
4420.671059,222.061783,-8427.050478,0.000000
4420.671383,518.144159,-8273.831378,-148.041188
4420.671707,592.164754,-8197.221829,-148.041188
4420.672032,518.144159,-8886.707777,-370.102971
4420.672356,444.123565,-8273.831378,-222.061783
4420.672680,666.185348,-8350.440928,-222.061783
4420.673005,666.185348,-8580.269578,-444.123565
4420.673329,518.144159,-9652.803275,0.000000
4420.673653,444.123565,-8733.488677,-222.061783
4420.673978,444.123565,-8350.440928,-148.041188
4420.674302,518.144159,-8580.269578,-296.082377
4420.674626,296.082377,-8656.879127,-370.102971
4420.674951,740.205942,-8656.879127,-74.020594
4420.675275,444.123565,-8350.440928,0.000000
4420.675599,444.123565,-8656.879127,0.000000
4420.675923,296.082377,-8427.050478,0.000000
4420.676248,814.226536,-9116.536426,-666.185348
4420.676572,296.082377,-8656.879127,-444.123565
4420.676896,296.082377,-8580.269578,-74.020594
4420.677221,222.061783,-8503.660028,-370.102971
4420.677545,444.123565,-8810.098227,0.000000
4420.677869,370.102971,-8503.660028,-296.082377
4420.678194,296.082377,-8427.050478,-518.144159
4420.678518,518.144159,-8427.050478,-148.041188
4420.678842,222.061783,-8733.488677,-444.123565
4420.679167,74.020594,-8810.098227,-592.164754
4420.679491,222.061783,-8733.488677,0.000000
4420.679815,74.020594,-8810.098227,-222.061783
4420.680140,444.123565,-8733.488677,-370.102971
4420.680464,592.164754,-9422.974625,-518.144159
4420.680788,592.164754,-9039.926876,-296.082377
4420.681113,518.144159,-8656.879127,-444.123565
4420.681437,592.164754,-8963.317327,-370.102971
4420.681761,666.185348,-8656.879127,-444.123565
4420.682086,518.144159,-8427.050478,-296.082377
4420.682410,518.144159,-8733.488677,-444.123565
4420.682734,370.102971,-8580.269578,-592.164754
4420.683058,370.102971,-8810.098227,-814.226536
4420.683383,296.082377,-8503.660028,-666.185348
4420.683707,296.082377,-8580.269578,-222.061783
4420.684031,518.144159,-8580.269578,-370.102971
4420.684356,518.144159,-8656.879127,-518.144159
4420.684680,296.082377,-8580.269578,-370.102971
4420.685004,518.144159,-8580.269578,-444.123565
4420.685329,740.205942,-8580.269578,-296.082377
4420.685653,444.123565,-8656.879127,-666.185348
4420.685977,666.185348,-8963.317327,-740.205942
4420.686302,370.102971,-8503.660028,-740.205942
4420.686626,592.164754,-8503.660028,-814.226536
4420.686950,370.102971,-8810.098227,-518.144159
4420.687275,518.144159,-8656.879127,-296.082377
4420.687599,444.123565,-8733.488677,-370.102971
4420.687923,444.123565,-8503.660028,-222.061783
4420.688248,296.082377,-8733.488677,-444.123565
4420.688572,518.144159,-8733.488677,-666.185348
4420.688896,518.144159,-9346.365076,0.000000
4420.689221,74.020594,-8580.269578,-296.082377
4420.689545,148.041188,-8886.707777,-666.185348
4420.689869,222.061783,-8810.098227,-444.123565
4420.690193,370.102971,-8810.098227,-370.102971
4420.690518,-148.041188,-8580.269578,-222.061783
4420.690842,666.185348,-8580.269578,-370.102971
4420.691166,370.102971,-8810.098227,-518.144159
4420.691491,444.123565,-8427.050478,0.000000
4420.691815,148.041188,-8273.831378,-222.061783
4420.692139,444.123565,-8427.050478,-444.123565
4420.692464,518.144159,-8580.269578,-296.082377
4420.692788,222.061783,-8427.050478,-444.123565
4420.693112,518.144159,-8733.488677,-296.082377
4420.693437,222.061783,-8044.002729,-518.144159
4420.693761,592.164754,-8733.488677,-296.082377
4420.694085,444.123565,-8044.002729,-518.144159
4420.694410,370.102971,-8733.488677,-148.041188
4420.694734,666.185348,-8733.488677,-740.205942
4420.695058,518.144159,-8503.660028,-296.082377
4420.695383,666.185348,-8580.269578,-666.185348
4420.695707,518.144159,-8733.488677,-296.082377
4420.696031,518.144159,-8963.317327,0.000000
4420.696356,222.061783,-8886.707777,-296.082377
4420.696680,592.164754,-8427.050478,-666.185348
4420.697004,518.144159,-8656.879127,-444.123565
4420.697328,666.185348,-9116.536426,-518.144159
4420.697653,518.144159,-8427.050478,-518.144159
4420.697977,518.144159,-8503.660028,-740.205942
4420.698301,444.123565,-8503.660028,-296.082377
4420.698626,592.164754,-8580.269578,-518.144159
4420.698950,592.164754,-9193.145976,-592.164754
4420.699274,666.185348,-8503.660028,-444.123565
4420.699599,740.205942,-8733.488677,-370.102971
4420.699923,370.102971,-8733.488677,-518.144159
4420.700247,518.144159,-8963.317327,-370.102971
4420.700572,518.144159,-8810.098227,-592.164754
4420.700896,370.102971,-8810.098227,-222.061783
4420.701220,222.061783,-8656.879127,-296.082377
4420.701545,74.020594,-8580.269578,0.000000
4420.701869,370.102971,-8427.050478,-370.102971
4420.702193,592.164754,-8733.488677,-222.061783
4420.702518,740.205942,-8503.660028,-370.102971
4420.702842,666.185348,-8656.879127,0.000000
4420.703166,592.164754,-9039.926876,-296.082377
4420.703490,296.082377,-8733.488677,0.000000
4420.703815,444.123565,-8503.660028,-222.061783
4420.704139,296.082377,-8886.707777,0.000000
4420.704463,0.000000,-8810.098227,222.061783
4420.704788,222.061783,-8656.879127,0.000000
4420.705112,370.102971,-8656.879127,0.000000
4420.705436,370.102971,-8350.440928,-222.061783
4420.705761,444.123565,-8503.660028,-296.082377
4420.706085,444.123565,-8273.831378,-370.102971
4420.706409,666.185348,-8350.440928,0.000000
4420.706734,444.123565,-8427.050478,-148.041188
4420.707058,222.061783,-8580.269578,0.000000
4420.707382,370.102971,-8656.879127,0.000000
4420.707707,296.082377,-8580.269578,0.000000
4420.708031,444.123565,-8810.098227,-222.061783
4420.708355,222.061783,-8427.050478,-296.082377
4420.708680,518.144159,-9039.926876,0.000000
4420.709004,296.082377,-8503.660028,-518.144159
4420.709328,444.123565,-8733.488677,-518.144159
4420.709653,444.123565,-8503.660028,-222.061783
4420.709977,296.082377,-8503.660028,-148.041188
4420.710301,222.061783,-8810.098227,-148.041188
4420.710625,518.144159,-8503.660028,-222.061783
4420.710950,518.144159,-8656.879127,0.000000
4420.711274,148.041188,-8810.098227,0.000000
4420.711598,0.000000,-9346.365076,592.164754
4420.711923,148.041188,-8810.098227,-370.102971
4420.712247,444.123565,-8580.269578,0.000000
4420.712571,222.061783,-8580.269578,-296.082377
4420.712896,370.102971,-9499.584175,0.000000
4420.713220,296.082377,-8350.440928,0.000000
4420.713544,370.102971,-8733.488677,-222.061783
4420.713869,518.144159,-8656.879127,-296.082377
4420.714193,592.164754,-8503.660028,0.000000
4420.714517,518.144159,-8427.050478,-444.123565
4420.714842,296.082377,-8580.269578,0.000000
4420.715166,296.082377,-8580.269578,-222.061783
4420.715490,518.144159,-8503.660028,-444.123565
4420.715815,0.000000,-8580.269578,-370.102971
4420.716139,592.164754,-8886.707777,-296.082377
4420.716463,740.205942,-8273.831378,-518.144159
4420.716788,592.164754,-8197.221829,-296.082377
4420.717112,518.144159,-9039.926876,-666.185348
4420.717436,296.082377,-8273.831378,-296.082377
4420.717760,296.082377,-8350.440928,-444.123565
4420.718085,370.102971,-8503.660028,-666.185348
4420.718409,444.123565,-8503.660028,-518.144159
4420.718733,444.123565,-8197.221829,-296.082377
4420.719058,518.144159,-8656.879127,-296.082377
4420.719382,518.144159,-8350.440928,-444.123565
4420.719706,222.061783,-8580.269578,-444.123565
4420.720031,814.226536,-8656.879127,-740.205942
4420.720355,518.144159,-8503.660028,-296.082377
4420.720679,296.082377,-8580.269578,-666.185348
4420.721004,592.164754,-8886.707777,-592.164754
4420.721328,518.144159,-8656.879127,-888.247130
4420.721652,296.082377,-8963.317327,-444.123565
4420.721977,296.082377,-8503.660028,0.000000
4420.722301,444.123565,-8810.098227,-296.082377
4420.722625,592.164754,-8350.440928,-444.123565
4420.722950,148.041188,-8427.050478,-444.123565
4420.723274,370.102971,-8733.488677,-444.123565
4420.723598,518.144159,-8580.269578,-370.102971
4420.723923,148.041188,-8427.050478,-370.102971
4420.724247,518.144159,-9039.926876,-370.102971
4420.724571,0.000000,-8580.269578,-444.123565
4420.724895,370.102971,-8656.879127,-370.102971
4420.725220,74.020594,-8810.098227,-296.082377
4420.725544,296.082377,-8656.879127,-296.082377
4420.725868,444.123565,-8656.879127,-370.102971
4420.726193,370.102971,-8656.879127,0.000000
4420.726517,370.102971,-8810.098227,-296.082377
4420.726841,666.185348,-8656.879127,-148.041188
4420.727166,444.123565,-8503.660028,-518.144159
4420.727490,222.061783,-8733.488677,-296.082377
4420.727814,0.000000,-8656.879127,-222.061783
4420.728139,148.041188,-8197.221829,-296.082377
4420.728463,370.102971,-8886.707777,-296.082377
4420.728787,518.144159,-8656.879127,-518.144159
4420.729112,444.123565,-8503.660028,-222.061783
4420.729436,518.144159,-8656.879127,-148.041188
4420.729760,370.102971,-8733.488677,-518.144159
4420.730085,518.144159,-8886.707777,-518.144159
4420.730409,666.185348,-8656.879127,-518.144159
4420.730733,148.041188,-8580.269578,-148.041188
4420.731058,296.082377,-8580.269578,-370.102971
4420.731382,370.102971,-8963.317327,148.041188
4420.731706,666.185348,-8810.098227,-370.102971
4420.732030,444.123565,-8350.440928,-148.041188
4420.732355,518.144159,-8656.879127,0.000000
4420.732679,370.102971,-8886.707777,-370.102971
4420.733003,444.123565,-8656.879127,-222.061783
4420.733328,518.144159,-8427.050478,-148.041188
4420.733652,444.123565,-8810.098227,0.000000
4420.733976,666.185348,-8580.269578,0.000000
4420.734301,444.123565,-8733.488677,0.000000
4420.734625,370.102971,-8963.317327,0.000000
4420.734949,222.061783,-8810.098227,-222.061783
4420.735274,592.164754,-8810.098227,-370.102971
4420.735598,444.123565,-9193.145976,148.041188
4420.735922,444.123565,-8656.879127,0.000000
4420.736247,444.123565,-8580.269578,-518.144159
4420.736571,222.061783,-8810.098227,-296.082377
4420.736895,592.164754,-8733.488677,-222.061783
4420.737220,666.185348,-8810.098227,0.000000
4420.737544,592.164754,-8503.660028,0.000000
4420.737868,296.082377,-8733.488677,-296.082377
4420.738193,444.123565,-8656.879127,-296.082377
4420.738517,370.102971,-8656.879127,0.000000
4420.738841,444.123565,-8810.098227,-222.061783
4420.739165,0.000000,-8350.440928,-296.082377
4420.739490,444.123565,-8580.269578,-370.102971
4420.739814,0.000000,-8656.879127,-222.061783
4420.740138,444.123565,-8656.879127,-296.082377
4420.740463,444.123565,-8810.098227,-888.247130
4420.740787,370.102971,-8810.098227,-592.164754
4420.741111,222.061783,-8350.440928,-370.102971
4420.741436,370.102971,-8733.488677,-518.144159
4420.741760,222.061783,-8656.879127,-518.144159
4420.742084,592.164754,-8503.660028,-518.144159
4420.742409,518.144159,-8810.098227,-740.205942
4420.742733,370.102971,-8580.269578,-444.123565
4420.743057,518.144159,-8580.269578,-666.185348
4420.743382,296.082377,-8656.879127,-592.164754
4420.743706,370.102971,-8197.221829,-740.205942
4420.744030,740.205942,-8656.879127,-592.164754
4420.744355,666.185348,-8580.269578,-370.102971
4420.744679,370.102971,-8197.221829,-444.123565
4420.745003,444.123565,-8580.269578,-444.123565
4420.745328,444.123565,-8427.050478,-370.102971
4420.745652,518.144159,-8733.488677,-370.102971
4420.745976,444.123565,-8503.660028,0.000000
4420.746300,222.061783,-8427.050478,0.000000
4420.746625,296.082377,-8580.269578,-222.061783
4420.746949,444.123565,-8810.098227,-148.041188
4420.747273,444.123565,-8886.707777,-222.061783
4420.747598,666.185348,-8656.879127,-518.144159
4420.747922,666.185348,-8733.488677,-148.041188
4420.748246,222.061783,-8886.707777,-74.020594
4420.748571,222.061783,-8656.879127,0.000000
4420.748895,444.123565,-8350.440928,0.000000
4420.749219,592.164754,-8733.488677,0.000000
4420.749544,444.123565,-8503.660028,0.000000
4420.749868,222.061783,-8350.440928,74.020594
4420.750192,148.041188,-8197.221829,-222.061783
4420.750517,444.123565,-8350.440928,-296.082377
4420.750841,518.144159,-8350.440928,0.000000
4420.751165,296.082377,-8580.269578,-296.082377
4420.751490,666.185348,-8273.831378,-370.102971
4420.751814,222.061783,-8656.879127,0.000000
4420.752138,296.082377,-8580.269578,-296.082377
4420.752463,296.082377,-8350.440928,-222.061783
4420.752787,518.144159,-8733.488677,0.000000
4420.753111,444.123565,-8427.050478,-148.041188
4420.753435,370.102971,-8963.317327,0.000000
4420.753760,518.144159,-8580.269578,-370.102971
4420.754084,592.164754,-8503.660028,-740.205942
4420.754408,518.144159,-8733.488677,-518.144159
4420.754733,518.144159,-8580.269578,-296.082377
4420.755057,370.102971,-8810.098227,-370.102971
