#time,accel_x,accel_y,accel_z
4045.423862,-370.102971,-8886.707777,-962.267725
4045.424186,-666.185348,-8886.707777,-518.144159
4045.424511,296.082377,-8963.317327,-1406.391290
4045.424835,0.000000,-8656.879127,-962.267725
4045.425160,148.041188,-8427.050478,-1036.288319
4045.425484,148.041188,-8656.879127,-1332.370696
4045.425809,370.102971,-9039.926876,-740.205942
4045.426133,296.082377,-8886.707777,-1110.308913
4045.426457,0.000000,-9269.755526,-1332.370696
4045.426782,-814.226536,-9422.974625,-1036.288319
4045.427106,-962.267725,-9806.022374,-888.247130
4045.427431,-1924.535449,-9576.193725,-1258.350101
4045.427755,-2516.700203,-9882.631924,-962.267725
4045.428080,-2442.679609,-9576.193725,-666.185348
4045.428404,-2368.659014,-9576.193725,-444.123565
4045.428728,-2368.659014,-9422.974625,-518.144159
4045.429053,-2146.597232,-9039.926876,-666.185348
4045.429377,-1998.556043,-9039.926876,-888.247130
4045.429702,-2590.720797,-8503.660028,-592.164754
4045.430026,-1628.453072,-8656.879127,-592.164754
4045.430351,-2516.700203,-8963.317327,-666.185348
4045.430675,-2886.803174,-9193.145976,-962.267725
4045.430999,-3182.885551,-8733.488677,-592.164754
4045.431324,-3849.070898,-9269.755526,-814.226536
4045.431648,-3923.091493,-9193.145976,-518.144159
4045.431973,-4219.173869,-8427.050478,-518.144159
4045.432297,-4293.194464,-9039.926876,-518.144159
4045.432621,-3923.091493,-8503.660028,-148.041188
4045.432945,-2960.823768,-8350.440928,0.000000
4045.433270,-2738.761985,-7967.393179,-74.020594
4045.433594,-2220.617826,-7890.783629,0.000000
4045.433918,-2368.659014,-7814.174080,-370.102971
4045.434243,-2368.659014,-8350.440928,-222.061783
4045.434567,-2442.679609,-8427.050478,222.061783
4045.434891,-2368.659014,-8733.488677,444.123565
4045.435215,-2738.761985,-8350.440928,740.205942
4045.435540,-2368.659014,-8427.050478,814.226536
4045.435864,-2516.700203,-8197.221829,740.205942
4045.436188,-1776.494261,-8427.050478,888.247130
4045.436513,-740.205942,-8197.221829,666.185348
4045.436837,-592.164754,-8350.440928,740.205942
4045.437161,-592.164754,-8503.660028,740.205942
4045.437486,-370.102971,-8044.002729,370.102971
4045.437810,-1036.288319,-8120.612279,296.082377
4045.438134,-1110.308913,-8273.831378,444.123565
4045.438458,-1554.432478,-8273.831378,74.020594
4045.438783,-1480.411884,-8273.831378,592.164754
4045.439107,-2294.638420,-8197.221829,148.041188
4045.439431,-2146.597232,-8733.488677,296.082377
4045.439756,-2220.617826,-8273.831378,0.000000
4045.440080,-1258.350101,-8886.707777,-666.185348
4045.440404,-1554.432478,-8273.831378,-518.144159
4045.440728,-1480.411884,-8120.612279,-444.123565
4045.441053,-1924.535449,-7737.564530,-888.247130
4045.441377,-1776.494261,-8273.831378,-518.144159
4045.441701,-2368.659014,-8273.831378,-370.102971
4045.442026,-2220.617826,-8044.002729,-296.082377
4045.442350,-2072.576638,-8044.002729,-666.185348
4045.442674,-1406.391290,-8810.098227,-814.226536
4045.442998,-592.164754,-8350.440928,-962.267725
4045.443323,0.000000,-8886.707777,-1036.288319
4045.443647,1036.288319,-9039.926876,-888.247130
4045.443971,1110.308913,-9039.926876,-592.164754
4045.444296,1850.514855,-8886.707777,-1184.329507
4045.444620,1702.473667,-9193.145976,-1332.370696
4045.444944,1702.473667,-8963.317327,-1110.308913
4045.445269,1258.350101,-8963.317327,-1110.308913
4045.445593,1628.453072,-8656.879127,-888.247130
4045.445917,1258.350101,-8810.098227,-1332.370696
4045.446241,1110.308913,-9116.536426,-1332.370696
4045.446566,1924.535449,-9346.365076,-1406.391290
4045.446890,2294.638420,-9499.584175,-1332.370696
4045.447214,2146.597232,-9269.755526,-1480.411884
4045.447539,2368.659014,-9499.584175,-1036.288319
4045.447863,2368.659014,-9499.584175,-1332.370696
4045.448187,962.267725,-9806.022374,-1110.308913
4045.448511,1036.288319,-9346.365076,-1258.350101
4045.448836,148.041188,-9269.755526,-666.185348
4045.449160,-222.061783,-9193.145976,-814.226536
4045.449484,-666.185348,-8733.488677,-740.205942
4045.449809,-1110.308913,-8427.050478,-222.061783
4045.450133,-1184.329507,-7967.393179,-814.226536
4045.450457,-962.267725,-8350.440928,-370.102971
4045.450782,-814.226536,-8350.440928,-222.061783
4045.451106,0.000000,-8120.612279,-370.102971
4045.451430,666.185348,-7814.174080,-444.123565
4045.451754,1110.308913,-8273.831378,0.000000
4045.452079,1554.432478,-8427.050478,0.000000
4045.452403,1998.556043,-8656.879127,0.000000
4045.452727,1776.494261,-8503.660028,222.061783
4045.453052,888.247130,-7890.783629,74.020594
4045.453376,1110.308913,-7967.393179,0.000000
4045.453700,1110.308913,-7660.954980,0.000000
4045.454024,1480.411884,-7967.393179,0.000000
4045.454349,2072.576638,-7890.783629,74.020594
4045.454673,2220.617826,-7737.564530,370.102971
4045.454997,2886.803174,-7967.393179,222.061783
4045.455322,3034.844362,-8273.831378,222.061783
4045.455646,3552.988522,-9269.755526,592.164754
4045.455970,3108.864956,-8350.440928,1036.288319
4045.456295,2738.761985,-8810.098227,518.144159
4045.456619,1998.556043,-9269.755526,222.061783
4045.456943,1184.329507,-9729.412825,-222.061783
4045.457267,-444.123565,-8963.317327,296.082377
4045.457592,-1702.473667,-8427.050478,0.000000
4045.457916,-2220.617826,-8963.317327,444.123565
4045.458240,-2664.741391,-8044.002729,-296.082377
4045.458565,-2590.720797,-8503.660028,222.061783
4045.458889,-2886.803174,-8427.050478,222.061783
4045.459213,-2220.617826,-8580.269578,0.000000
4045.459537,-2220.617826,-8044.002729,148.041188
4045.459862,-1554.432478,-8810.098227,370.102971
4045.460186,-666.185348,-8580.269578,0.000000
4045.460510,370.102971,-8427.050478,444.123565
4045.460835,-1258.350101,-8503.660028,0.000000
4045.461159,370.102971,-9193.145976,-1036.288319
4045.461483,-518.144159,-8810.098227,444.123565
4045.461807,740.205942,-8580.269578,-1110.308913
4045.462132,-1110.308913,-8427.050478,-592.164754
4045.462456,-1258.350101,-8044.002729,-444.123565
4045.462780,-370.102971,-8503.660028,-814.226536
4045.463105,-222.061783,-8197.221829,-592.164754
4045.463429,1776.494261,-8503.660028,-666.185348
4045.463753,1924.535449,-8120.612279,-962.267725
4045.464078,3182.885551,-9039.926876,-1184.329507
4045.464402,3330.926739,-9269.755526,-1184.329507
4045.464726,2812.782580,-9116.536426,-1332.370696
4045.465050,2368.659014,-9269.755526,-740.205942
4045.465375,2294.638420,-9806.022374,-1036.288319
4045.465699,1036.288319,-9499.584175,-1332.370696
4045.466023,74.020594,-9346.365076,-1036.288319
4045.466348,-1258.350101,-9576.193725,-592.164754
4045.466672,-1480.411884,-9193.145976,-814.226536
4045.466996,-2368.659014,-9269.755526,-1036.288319
4045.467320,-1406.391290,-8733.488677,-444.123565
4045.467645,-1036.288319,-8273.831378,-592.164754
4045.467969,0.000000,-8733.488677,-370.102971
4045.468293,296.082377,-8733.488677,222.061783
4045.468618,1554.432478,-8810.098227,-296.082377
4045.468942,1184.329507,-8580.269578,-518.144159
4045.469266,1332.370696,-8656.879127,-666.185348
4045.469591,1332.370696,-8733.488677,-296.082377
4045.469915,888.247130,-8963.317327,-518.144159
4045.470239,148.041188,-8580.269578,-444.123565
4045.470563,-296.082377,-8350.440928,-370.102971
4045.470888,-962.267725,-7967.393179,-444.123565
4045.471212,148.041188,-8197.221829,-370.102971
4045.471536,222.061783,-7507.735880,-592.164754
4045.471861,1110.308913,-7814.174080,-148.041188
4045.472185,2516.700203,-7431.126331,-740.205942
4045.472509,3849.070898,-7890.783629,-222.061783
4045.472833,4811.338623,-7814.174080,-592.164754
4045.473158,5033.400406,-8427.050478,0.000000
4045.473482,4885.359217,-8580.269578,0.000000
4045.473806,4589.276840,-8886.707777,370.102971
4045.474131,3478.967927,-9116.536426,222.061783
4045.474455,2368.659014,-9269.755526,74.020594
4045.474779,888.247130,-8963.317327,444.123565
4045.475104,0.000000,-8963.317327,222.061783
4045.475428,-1184.329507,-8120.612279,148.041188
4045.475752,-1480.411884,-8733.488677,0.000000
4045.476076,-1702.473667,-8273.831378,148.041188
4045.476401,-1924.535449,-8656.879127,0.000000
4045.476725,-1110.308913,-8886.707777,296.082377
4045.477049,-1110.308913,-8580.269578,222.061783
4045.477374,-1110.308913,-8656.879127,0.000000
4045.477698,-888.247130,-8733.488677,-370.102971
4045.478022,-1036.288319,-8963.317327,148.041188
4045.478346,-814.226536,-9039.926876,0.000000
4045.478671,-1332.370696,-9039.926876,296.082377
4045.478995,-1332.370696,-8656.879127,0.000000
4045.479319,-2146.597232,-8427.050478,148.041188
4045.479644,-1480.411884,-7584.345430,-296.082377
4045.479968,-888.247130,-8427.050478,-370.102971
4045.480292,0.000000,-7967.393179,-74.020594
4045.480616,0.000000,-7967.393179,0.000000
4045.480941,592.164754,-8273.831378,-518.144159
4045.481265,1110.308913,-8273.831378,-444.123565
4045.481589,2220.617826,-8580.269578,-296.082377
4045.481914,2664.741391,-8580.269578,-296.082377
4045.482238,2738.761985,-9422.974625,0.000000
4045.482562,2664.741391,-9269.755526,0.000000
4045.482887,1998.556043,-9193.145976,-74.020594
4045.483211,814.226536,-9269.755526,-666.185348
4045.483535,296.082377,-9499.584175,-222.061783
4045.483859,-592.164754,-8733.488677,74.020594
4045.484184,-1850.514855,-8886.707777,-148.041188
4045.484508,-1332.370696,-9116.536426,-148.041188
4045.484832,-2146.597232,-8273.831378,-518.144159
4045.485157,-222.061783,-9116.536426,0.000000
4045.485481,-1480.411884,-8273.831378,-222.061783
4045.485805,0.000000,-9116.536426,-222.061783
4045.486129,-296.082377,-8120.612279,0.000000
4045.486454,296.082377,-8963.317327,74.020594
4045.486778,814.226536,-8273.831378,-740.205942
4045.487102,888.247130,-8733.488677,-148.041188
4045.487427,962.267725,-8580.269578,-666.185348
4045.487751,444.123565,-8886.707777,-888.247130
4045.488075,148.041188,-9729.412825,-740.205942
4045.488400,-370.102971,-8427.050478,-518.144159
4045.488724,-666.185348,-8580.269578,-1184.329507
4045.489048,0.000000,-8120.612279,-518.144159
4045.489372,222.061783,-7967.393179,-592.164754
4045.489697,740.205942,-7814.174080,-814.226536
4045.490021,2220.617826,-7584.345430,-814.226536
4045.490345,3478.967927,-8044.002729,-1036.288319
4045.490670,4737.318029,-7584.345430,-1036.288319
4045.490994,4959.379811,-8273.831378,-592.164754
4045.491318,4811.338623,-8810.098227,-740.205942
4045.491642,4737.318029,-8810.098227,-444.123565
4045.491967,4145.153275,-8810.098227,-370.102971
4045.492291,3034.844362,-9729.412825,-666.185348
4045.492615,1258.350101,-8810.098227,74.020594
4045.492940,592.164754,-9116.536426,0.000000
4045.493264,-296.082377,-8810.098227,-518.144159
4045.493588,-740.205942,-8580.269578,-296.082377
4045.493913,-1184.329507,-8656.879127,-444.123565
4045.494237,-1036.288319,-8580.269578,-666.185348
4045.494561,-1036.288319,-8886.707777,-740.205942
4045.494885,-1110.308913,-8810.098227,-666.185348
4045.495210,-1036.288319,-8963.317327,-444.123565
4045.495534,-888.247130,-8886.707777,-740.205942
4045.495858,-740.205942,-9193.145976,0.000000
4045.496183,-962.267725,-8656.879127,-296.082377
4045.496507,-814.226536,-9499.584175,-222.061783
4045.496831,-888.247130,-8656.879127,-444.123565
4045.497155,-962.267725,-8733.488677,-592.164754
4045.497480,-1110.308913,-8044.002729,-518.144159
4045.497804,-888.247130,-7890.783629,-296.082377
4045.498128,-666.185348,-8044.002729,-666.185348
4045.498453,74.020594,-7967.393179,-740.205942
4045.498777,1110.308913,-7814.174080,-666.185348
4045.499101,1776.494261,-8273.831378,-518.144159
4045.499426,1998.556043,-7967.393179,-222.061783
4045.499750,3108.864956,-8656.879127,-296.082377
4045.500074,2664.741391,-8886.707777,-222.061783
4045.500398,2368.659014,-8656.879127,-370.102971
4045.500723,1554.432478,-9806.022374,-740.205942
4045.501047,888.247130,-9193.145976,-296.082377
4045.501371,74.020594,-9039.926876,0.000000
4045.501696,-1406.391290,-9346.365076,0.000000
4045.502020,-2146.597232,-8963.317327,0.000000
4045.502344,-1998.556043,-9039.926876,148.041188
4045.502668,-2294.638420,-8886.707777,148.041188
4045.502993,-1406.391290,-8886.707777,370.102971
4045.503317,-1702.473667,-8044.002729,0.000000
4045.503641,-666.185348,-9576.193725,444.123565
4045.503966,-444.123565,-8044.002729,74.020594
4045.504290,444.123565,-8886.707777,296.082377
4045.504614,666.185348,-8427.050478,0.000000
4045.504938,370.102971,-8656.879127,444.123565
4045.505263,222.061783,-8733.488677,74.020594
4045.505587,0.000000,-8810.098227,0.000000
4045.505911,-592.164754,-8427.050478,0.000000
4045.506236,-518.144159,-8273.831378,0.000000
4045.506560,-592.164754,-8427.050478,-148.041188
4045.506884,-222.061783,-7737.564530,148.041188
4045.507209,814.226536,-7660.954980,-370.102971
4045.507533,888.247130,-7660.954980,-296.082377
4045.507857,1332.370696,-8044.002729,370.102971
4045.508181,3034.844362,-7967.393179,-148.041188
4045.508506,3404.947333,-8197.221829,-518.144159
4045.508830,3404.947333,-8503.660028,0.000000
4045.509154,3627.009116,-8580.269578,0.000000
4045.509479,3775.050304,-9116.536426,0.000000
4045.509803,3034.844362,-9116.536426,-296.082377
4045.510127,2664.741391,-9116.536426,0.000000
4045.510451,1998.556043,-9039.926876,148.041188
4045.510776,962.267725,-8886.707777,0.000000
4045.511100,592.164754,-8886.707777,-370.102971
4045.511424,0.000000,-8580.269578,-592.164754
4045.511749,0.000000,-8503.660028,-370.102971
4045.512073,-1036.288319,-8733.488677,-666.185348
4045.512397,-962.267725,-8886.707777,-592.164754
4045.512722,-1184.329507,-8120.612279,-962.267725
4045.513046,-148.041188,-9269.755526,-666.185348
4045.513370,-962.267725,-8427.050478,-1332.370696
4045.513694,-296.082377,-9269.755526,-814.226536
4045.514019,-592.164754,-8733.488677,-1258.350101
4045.514343,-666.185348,-9193.145976,-1110.308913
4045.514667,-666.185348,-8733.488677,-1332.370696
4045.514992,-814.226536,-8273.831378,0.000000
4045.515316,-740.205942,-8120.612279,-1036.288319
4045.515640,-444.123565,-8273.831378,-814.226536
4045.515964,-370.102971,-8273.831378,-814.226536
4045.516289,74.020594,-8273.831378,-888.247130
4045.516613,888.247130,-8503.660028,-1110.308913
4045.516937,1258.350101,-8427.050478,-1036.288319
4045.517262,2590.720797,-8580.269578,-666.185348
4045.517586,2442.679609,-8427.050478,-1110.308913
4045.517910,2960.823768,-9193.145976,-518.144159
4045.518235,2516.700203,-8810.098227,-592.164754
4045.518559,2146.597232,-9269.755526,-222.061783
4045.518883,1332.370696,-9269.755526,-444.123565
4045.519207,0.000000,-9116.536426,0.000000
4045.519532,-592.164754,-9269.755526,-222.061783
4045.519856,-1850.514855,-8963.317327,-296.082377
4045.520180,-2738.761985,-8886.707777,-444.123565
4045.520505,-2738.761985,-8733.488677,296.082377
4045.520829,-2738.761985,-8197.221829,0.000000
4045.521153,-1998.556043,-8656.879127,-444.123565
4045.521477,-666.185348,-8503.660028,0.000000
4045.521802,296.082377,-8733.488677,0.000000
4045.522126,518.144159,-8044.002729,0.000000
4045.522450,1184.329507,-7737.564530,222.061783
4045.522775,814.226536,-8427.050478,0.000000
4045.523099,518.144159,-8350.440928,0.000000
4045.523423,666.185348,-8427.050478,0.000000
4045.523747,-592.164754,-8350.440928,148.041188
4045.524072,-666.185348,-8120.612279,-148.041188
4045.524396,-666.185348,-8197.221829,0.000000
4045.524720,-666.185348,-8044.002729,-148.041188
4045.525045,-222.061783,-7967.393179,0.000000
4045.525369,518.144159,-7814.174080,-148.041188
4045.525693,1480.411884,-7507.735880,296.082377
4045.526018,2368.659014,-7660.954980,-148.041188
4045.526342,3034.844362,-8197.221829,74.020594
4045.526666,3775.050304,-8044.002729,-222.061783
4045.526990,3775.050304,-9116.536426,148.041188
4045.527315,2960.823768,-8427.050478,-148.041188
4045.527639,3034.844362,-8733.488677,296.082377
4045.527963,1406.391290,-8886.707777,74.020594
4045.528288,814.226536,-8733.488677,296.082377
4045.528612,74.020594,-8350.440928,-222.061783
4045.528936,0.000000,-8580.269578,-222.061783
4045.529260,-444.123565,-8503.660028,-148.041188
4045.529585,-222.061783,-8656.879127,-814.226536
4045.529909,74.020594,-8273.831378,-962.267725
4045.530233,-296.082377,-8044.002729,-518.144159
4045.530558,-148.041188,-8273.831378,0.000000
4045.530882,148.041188,-8503.660028,-592.164754
4045.531206,0.000000,-8580.269578,-962.267725
4045.531531,0.000000,-8810.098227,-1036.288319
4045.531855,0.000000,-8197.221829,-370.102971
4045.532179,-1036.288319,-9116.536426,-1036.288319
4045.532502,-1036.288319,-9269.755526,-518.144159
4045.532827,-1406.391290,-8886.707777,-666.185348
4045.533151,-962.267725,-8886.707777,-740.205942
4045.533475,-962.267725,-8427.050478,-814.226536
4045.533800,-296.082377,-8427.050478,-1036.288319
4045.534124,0.000000,-8350.440928,-740.205942
4045.534449,1184.329507,-8120.612279,-888.247130
4045.534773,2072.576638,-8197.221829,-666.185348
4045.535097,2590.720797,-8350.440928,-962.267725
4045.535422,3627.009116,-9499.584175,-740.205942
4045.535746,3330.926739,-9193.145976,-1036.288319
4045.536070,3330.926739,-9346.365076,-518.144159
4045.536395,2220.617826,-9269.755526,-444.123565
4045.536719,1110.308913,-9729.412825,-296.082377
4045.537044,0.000000,-9269.755526,-296.082377
4045.537368,-888.247130,-9346.365076,0.000000
4045.537692,-1776.494261,-8886.707777,-296.082377
4045.538017,-1850.514855,-8733.488677,-296.082377
4045.538341,-1850.514855,-8580.269578,0.000000
4045.538666,-1628.453072,-8350.440928,-370.102971
4045.538990,-1258.350101,-8044.002729,-1184.329507
4045.539314,-148.041188,-8273.831378,222.061783
4045.539639,-370.102971,-7967.393179,-296.082377
4045.539963,-148.041188,-8886.707777,74.020594
4045.540288,-296.082377,-7584.345430,0.000000
4045.540612,0.000000,-8886.707777,148.041188
4045.540936,-370.102971,-8350.440928,-444.123565
4045.541261,-148.041188,-9193.145976,518.144159
4045.541585,-814.226536,-8044.002729,0.000000
4045.541909,-962.267725,-8580.269578,74.020594
4045.542234,-1332.370696,-7507.735880,-222.061783
4045.542558,-518.144159,-8120.612279,-222.061783
4045.542883,-148.041188,-7660.954980,0.000000
4045.543207,740.205942,-8120.612279,0.000000
4045.543531,1480.411884,-7967.393179,-296.082377
4045.543856,2442.679609,-7814.174080,-296.082377
4045.544180,3330.926739,-8427.050478,0.000000
4045.544505,3627.009116,-8580.269578,-370.102971
4045.544829,3997.112087,-9116.536426,148.041188
4045.545153,2812.782580,-8810.098227,518.144159
4045.545478,2738.761985,-9116.536426,296.082377
4045.545802,1628.453072,-8580.269578,74.020594
4045.546126,962.267725,-9116.536426,518.144159
4045.546451,0.000000,-8273.831378,0.000000
4045.546775,-370.102971,-8963.317327,0.000000
4045.547100,-592.164754,-8427.050478,-518.144159
4045.547424,-592.164754,-8656.879127,-148.041188
4045.547748,-1258.350101,-8197.221829,-740.205942
4045.548073,-888.247130,-8656.879127,-370.102971
4045.548397,-888.247130,-8427.050478,-592.164754
4045.548722,-296.082377,-9039.926876,-666.185348
4045.549046,-148.041188,-8273.831378,-1036.288319
4045.549370,-148.041188,-8886.707777,-814.226536
4045.549695,-222.061783,-8503.660028,-666.185348
4045.550019,0.000000,-9039.926876,-814.226536
4045.550343,-814.226536,-8810.098227,-1258.350101
4045.550668,-740.205942,-8810.098227,-666.185348
4045.550992,-888.247130,-8580.269578,-1110.308913
4045.551317,-518.144159,-8886.707777,-740.205942
4045.551641,0.000000,-8886.707777,-1258.350101
4045.551965,444.123565,-8656.879127,-962.267725
4045.552290,1036.288319,-8656.879127,-962.267725
4045.552614,2294.638420,-8656.879127,-814.226536
4045.552939,2664.741391,-8810.098227,-1184.329507
4045.553263,3775.050304,-9193.145976,-666.185348
4045.553587,3478.967927,-8886.707777,-666.185348
4045.553912,3034.844362,-9729.412825,-740.205942
4045.554236,2368.659014,-9269.755526,-592.164754
4045.554561,1554.432478,-9806.022374,-592.164754
4045.554885,592.164754,-9729.412825,-148.041188
4045.555209,-666.185348,-9422.974625,-296.082377
4045.555534,-1036.288319,-9193.145976,0.000000
4045.555858,-1110.308913,-9346.365076,-592.164754
4045.556182,-1850.514855,-8810.098227,-74.020594
4045.556507,-1554.432478,-8273.831378,-222.061783
4045.556831,-962.267725,-7890.783629,-148.041188
4045.557156,-370.102971,-8044.002729,-666.185348
4045.557480,74.020594,-8197.221829,0.000000
4045.557804,444.123565,-8197.221829,-222.061783
4045.558129,370.102971,-8120.612279,-296.082377
4045.558453,370.102971,-8427.050478,-222.061783
4045.558778,-814.226536,-8810.098227,370.102971
4045.559102,-370.102971,-8503.660028,444.123565
4045.559426,-666.185348,-8350.440928,0.000000
4045.559751,-592.164754,-8503.660028,-296.082377
4045.560075,-518.144159,-8273.831378,0.000000
4045.560399,-222.061783,-7814.174080,0.000000
4045.560724,296.082377,-7967.393179,0.000000
4045.561048,962.267725,-7584.345430,0.000000
4045.561373,1998.556043,-7814.174080,74.020594
4045.561697,2294.638420,-7584.345430,74.020594
4045.562021,3627.009116,-8503.660028,370.102971
4045.562346,3627.009116,-8197.221829,0.000000
4045.562670,3923.091493,-8580.269578,518.144159
4045.562995,3552.988522,-8886.707777,148.041188
4045.563319,2368.659014,-9346.365076,370.102971
4045.563643,1628.453072,-8963.317327,518.144159
4045.563968,740.205942,-9269.755526,740.205942
4045.564292,-592.164754,-8733.488677,0.000000
4045.564617,-1110.308913,-8886.707777,148.041188
4045.564941,-1628.453072,-8197.221829,0.000000
4045.565265,-1480.411884,-8733.488677,0.000000
4045.565590,-1332.370696,-8273.831378,-444.123565
4045.565914,-222.061783,-8733.488677,0.000000
4045.566238,-296.082377,-8044.002729,-592.164754
4045.566563,0.000000,-8273.831378,-370.102971
4045.566887,370.102971,-8197.221829,-814.226536
4045.567212,370.102971,-8810.098227,-518.144159
4045.567536,-518.144159,-8427.050478,-370.102971
4045.567860,-814.226536,-9039.926876,-592.164754
4045.568185,-1036.288319,-8733.488677,-666.185348
4045.568509,-1258.350101,-9193.145976,-814.226536
4045.568834,-1258.350101,-8886.707777,-666.185348
4045.569158,-888.247130,-8580.269578,-888.247130
4045.569482,0.000000,-8503.660028,-666.185348
4045.569807,222.061783,-7890.783629,-1110.308913
4045.570131,1702.473667,-8503.660028,-962.267725
4045.570455,2442.679609,-8350.440928,-1036.288319
4045.570780,3182.885551,-8273.831378,-740.205942
4045.571104,3478.967927,-8656.879127,-888.247130
4045.571429,3552.988522,-9346.365076,-740.205942
4045.571753,2812.782580,-9346.365076,-814.226536
4045.572077,2294.638420,-9729.412825,-518.144159
4045.572402,1184.329507,-9269.755526,-666.185348
4045.572726,0.000000,-9499.584175,-296.082377
4045.573051,-296.082377,-9499.584175,-296.082377
4045.573375,-1036.288319,-9269.755526,0.000000
4045.573699,-1258.350101,-8733.488677,-962.267725
4045.574024,-1184.329507,-9193.145976,-222.061783
4045.574348,-592.164754,-7584.345430,-370.102971
4045.574672,-296.082377,-8580.269578,-444.123565
4045.574997,148.041188,-7814.174080,-666.185348
4045.575321,814.226536,-8503.660028,0.000000
4045.575646,814.226536,-8427.050478,-370.102971
4045.575970,888.247130,-8963.317327,-296.082377
4045.576294,148.041188,-8656.879127,-370.102971
4045.576619,0.000000,-9116.536426,-370.102971
4045.576943,-666.185348,-8503.660028,-296.082377
4045.577268,-1332.370696,-8656.879127,-148.041188
4045.577592,-666.185348,-8273.831378,0.000000
4045.577916,-888.247130,-8044.002729,-222.061783
4045.578241,-296.082377,-8197.221829,-296.082377
4045.578565,592.164754,-6818.249932,0.000000
4045.578890,1554.432478,-8044.002729,-74.020594
4045.579214,2516.700203,-7814.174080,0.000000
4045.579538,3404.947333,-7967.393179,0.000000
4045.579863,3997.112087,-8503.660028,0.000000
4045.580187,4071.132681,-8427.050478,148.041188
4045.580511,3701.029710,-8963.317327,74.020594
4045.580836,2960.823768,-9116.536426,296.082377
4045.581160,2590.720797,-8580.269578,370.102971
4045.581485,1480.411884,-8733.488677,296.082377
4045.581809,1036.288319,-9039.926876,222.061783
4045.582133,-370.102971,-8656.879127,222.061783
4045.582458,-592.164754,-8350.440928,222.061783
4045.582782,-1554.432478,-8273.831378,444.123565
4045.583107,-1184.329507,-8656.879127,0.000000
4045.583431,-1332.370696,-8273.831378,0.000000
4045.583755,-1406.391290,-8273.831378,0.000000
4045.584080,-814.226536,-8503.660028,-296.082377
4045.584404,-518.144159,-8273.831378,0.000000
4045.584728,-370.102971,-8656.879127,0.000000
4045.585053,-444.123565,-8503.660028,-666.185348
4045.585377,-444.123565,-9039.926876,-148.041188
4045.585702,-444.123565,-8273.831378,-962.267725
4045.586026,-962.267725,-8733.488677,0.000000
4045.586350,-888.247130,-8350.440928,-370.102971
4045.586675,-444.123565,-8427.050478,-370.102971
4045.586999,-888.247130,-8197.221829,-370.102971
4045.587324,0.000000,-8273.831378,-296.082377
4045.587648,518.144159,-8350.440928,-740.205942
4045.587972,1332.370696,-8580.269578,-296.082377
4045.588297,2516.700203,-8273.831378,-444.123565
4045.588621,3108.864956,-8427.050478,-814.226536
4045.588946,3256.906145,-8963.317327,-370.102971
4045.589270,3108.864956,-8810.098227,-740.205942
4045.589594,2664.741391,-9193.145976,-444.123565
4045.589919,2294.638420,-9882.631924,-1036.288319
4045.590243,888.247130,-9422.974625,-148.041188
4045.590567,0.000000,-9576.193725,-148.041188
4045.590892,-666.185348,-8963.317327,-592.164754
4045.591216,-962.267725,-9576.193725,0.000000
4045.591541,-1554.432478,-8427.050478,-444.123565
4045.591865,-1036.288319,-8810.098227,-370.102971
4045.592189,-1628.453072,-8427.050478,-740.205942
4045.592514,-962.267725,-8580.269578,-444.123565
4045.592838,-370.102971,-8733.488677,-814.226536
4045.593163,74.020594,-8733.488677,-592.164754
4045.593487,222.061783,-8350.440928,-888.247130
4045.593811,370.102971,-8503.660028,-518.144159
4045.594136,518.144159,-9193.145976,-1110.308913
4045.594460,0.000000,-8580.269578,-814.226536
4045.594784,-222.061783,-8886.707777,-518.144159
4045.595109,-814.226536,-7890.783629,-444.123565
4045.595433,-518.144159,-9039.926876,-370.102971
4045.595758,-1184.329507,-7737.564530,-666.185348
4045.596082,518.144159,-8044.002729,-370.102971
4045.596406,444.123565,-7890.783629,-518.144159
4045.596731,1998.556043,-8503.660028,-370.102971
4045.597055,2294.638420,-8197.221829,-518.144159
4045.597380,3775.050304,-8427.050478,0.000000
4045.597704,3701.029710,-8197.221829,-518.144159
4045.598028,4219.173869,-8503.660028,0.000000
4045.598353,3923.091493,-9576.193725,148.041188
4045.598677,3034.844362,-8656.879127,370.102971
4045.599002,2442.679609,-9193.145976,0.000000
4045.599326,1480.411884,-8810.098227,148.041188
4045.599650,1036.288319,-8810.098227,-222.061783
4045.599975,-740.205942,-8886.707777,222.061783
4045.600299,-888.247130,-8656.879127,-148.041188
4045.600623,-1998.556043,-8350.440928,0.000000
4045.600948,-1702.473667,-8273.831378,-222.061783
4045.601272,-1998.556043,-8197.221829,-592.164754
4045.601597,-1258.350101,-8503.660028,-666.185348
4045.601921,-740.205942,-8120.612279,-444.123565
4045.602245,-370.102971,-8197.221829,-1036.288319
4045.602570,-296.082377,-9116.536426,-444.123565
4045.602894,-370.102971,-8273.831378,-518.144159
4045.603219,-740.205942,-8886.707777,-592.164754
4045.603543,-962.267725,-8733.488677,-592.164754
4045.603867,-1480.411884,-9116.536426,0.000000
4045.604192,-1110.308913,-8350.440928,-592.164754
4045.604516,-1184.329507,-8580.269578,-370.102971
4045.604840,-740.205942,-8503.660028,-592.164754
4045.605165,0.000000,-8197.221829,-666.185348
4045.605489,888.247130,-7354.516781,-592.164754
4045.605814,1110.308913,-8197.221829,-370.102971
4045.606138,2368.659014,-8427.050478,-740.205942
4045.606462,2886.803174,-8503.660028,-740.205942
4045.606787,3552.988522,-9346.365076,-444.123565
4045.607111,3182.885551,-9269.755526,-518.144159
4045.607436,2590.720797,-9346.365076,-296.082377
4045.607760,1850.514855,-9422.974625,-148.041188
4045.608084,1036.288319,-9499.584175,0.000000
4045.608409,0.000000,-9422.974625,-222.061783
4045.608733,-1332.370696,-9193.145976,74.020594
4045.609057,-1628.453072,-8963.317327,0.000000
4045.609382,-2072.576638,-8810.098227,-222.061783
4045.609706,-1554.432478,-8427.050478,-370.102971
4045.610031,-1332.370696,-8120.612279,-444.123565
4045.610355,-296.082377,-8273.831378,-518.144159
4045.610679,0.000000,-8350.440928,0.000000
4045.611004,444.123565,-8580.269578,-740.205942
4045.611328,962.267725,-8197.221829,-518.144159
4045.611653,296.082377,-8350.440928,0.000000
4045.611977,0.000000,-9116.536426,-444.123565
4045.612301,-222.061783,-8733.488677,-666.185348
4045.612626,-666.185348,-8886.707777,-148.041188
4045.612950,-1702.473667,-8197.221829,-814.226536
4045.613275,-1480.411884,-8580.269578,-296.082377
4045.613599,-1406.391290,-7890.783629,-444.123565
4045.613923,-148.041188,-7584.345430,0.000000
4045.614248,592.164754,-7431.126331,-444.123565
4045.614572,2072.576638,-7737.564530,-296.082377
4045.614896,3330.926739,-7737.564530,-296.082377
4045.615221,4367.215058,-8503.660028,-296.082377
4045.615545,4885.359217,-8656.879127,-296.082377
4045.615870,5181.441594,-8733.488677,0.000000
4045.616194,4219.173869,-8580.269578,74.020594
4045.616518,3627.009116,-9193.145976,0.000000
4045.616843,2072.576638,-8886.707777,370.102971
4045.617167,1110.308913,-9269.755526,296.082377
4045.617492,0.000000,-8810.098227,-296.082377
4045.617816,-666.185348,-8810.098227,74.020594
4045.618140,-666.185348,-8427.050478,-296.082377
4045.618465,-1110.308913,-8503.660028,-296.082377
4045.618789,-1332.370696,-7584.345430,-962.267725
4045.619113,-962.267725,-8427.050478,-296.082377
4045.619438,-814.226536,-7890.783629,-740.205942
4045.619762,-148.041188,-8963.317327,-962.267725
4045.620087,-962.267725,-8503.660028,-814.226536
4045.620411,-592.164754,-8656.879127,-814.226536
4045.620735,-1258.350101,-9039.926876,-888.247130
4045.621060,-1480.411884,-9346.365076,-444.123565
4045.621384,-1776.494261,-8503.660028,-296.082377
4045.621709,-1702.473667,-8580.269578,-444.123565
4045.622033,-1776.494261,-8503.660028,-370.102971
4045.622357,-592.164754,-8350.440928,-666.185348
4045.622682,74.020594,-8656.879127,0.000000
4045.623006,296.082377,-7890.783629,-814.226536
4045.623331,1628.453072,-8044.002729,-592.164754
4045.623655,2072.576638,-8120.612279,-592.164754
4045.623979,2960.823768,-8503.660028,-370.102971
4045.624304,3108.864956,-8656.879127,-888.247130
4045.624628,3330.926739,-9269.755526,-222.061783
4045.624952,2664.741391,-9116.536426,-370.102971
4045.625277,2220.617826,-10189.070123,-444.123565
4045.625601,1554.432478,-9039.926876,-222.061783
4045.625926,370.102971,-9269.755526,0.000000
4045.626250,-592.164754,-9116.536426,-222.061783
4045.626574,-1258.350101,-9422.974625,0.000000
4045.626899,-1850.514855,-8580.269578,-370.102971
4045.627223,-1776.494261,-8656.879127,-370.102971
4045.627548,-1554.432478,-8656.879127,-296.082377
4045.627872,-962.267725,-8197.221829,-518.144159
4045.628196,-962.267725,-8656.879127,-296.082377
4045.628521,-518.144159,-7890.783629,148.041188
4045.628845,222.061783,-8656.879127,-518.144159
4045.629169,222.061783,-7890.783629,-370.102971
4045.629494,444.123565,-8120.612279,0.000000
4045.629818,-222.061783,-7967.393179,-444.123565
4045.630143,-444.123565,-8580.269578,0.000000
4045.630467,-1036.288319,-8580.269578,-370.102971
4045.630791,-962.267725,-8197.221829,-444.123565
4045.631116,-962.267725,-7890.783629,-370.102971
4045.631440,-1184.329507,-8197.221829,222.061783
4045.631765,0.000000,-7967.393179,0.000000
4045.632089,1480.411884,-7890.783629,-296.082377
4045.632413,2368.659014,-8273.831378,0.000000
4045.632738,3330.926739,-7660.954980,-888.247130
4045.633062,4737.318029,-8580.269578,74.020594
4045.633387,4737.318029,-7967.393179,-296.082377
4045.633711,4959.379811,-9806.022374,0.000000
4045.634036,3997.112087,-8733.488677,-296.082377
4045.634360,3182.885551,-9499.584175,444.123565
4045.634684,2146.597232,-9116.536426,0.000000
4045.635009,962.267725,-9576.193725,740.205942
4045.635333,148.041188,-9116.536426,0.000000
4045.635658,-296.082377,-9193.145976,0.000000
4045.635982,-814.226536,-8733.488677,-592.164754
4045.636307,-1110.308913,-8810.098227,-444.123565
4045.636631,-888.247130,-8427.050478,-518.144159
4045.636956,-962.267725,-8197.221829,-518.144159
4045.637280,-740.205942,-8273.831378,-888.247130
4045.637604,-666.185348,-8427.050478,-962.267725
4045.637929,-1184.329507,-9422.974625,-1184.329507
4045.638253,-1036.288319,-8810.098227,-740.205942
4045.638578,-1258.350101,-8886.707777,-814.226536
4045.638902,-1480.411884,-9422.974625,-592.164754
4045.639227,-1332.370696,-8733.488677,-814.226536
4045.639551,-1332.370696,-8886.707777,-814.226536
4045.639876,-1036.288319,-8503.660028,-814.226536
4045.640200,-296.082377,-8044.002729,-666.185348
4045.640524,222.061783,-8580.269578,-518.144159
4045.640849,1036.288319,-8120.612279,-666.185348
4045.641173,1998.556043,-8120.612279,-592.164754
4045.641498,2294.638420,-8273.831378,-370.102971
4045.641822,3182.885551,-8733.488677,-444.123565
4045.642147,3256.906145,-8733.488677,-518.144159
4045.642471,4367.215058,-9422.974625,-222.061783
4045.642796,2146.597232,-9193.145976,-444.123565
4045.643120,2738.761985,-9422.974625,-222.061783
4045.643445,1554.432478,-8886.707777,-296.082377
4045.643769,296.082377,-9729.412825,296.082377
4045.644093,-1110.308913,-8580.269578,-222.061783
4045.644418,-1406.391290,-9193.145976,444.123565
4045.644742,-2072.576638,-8503.660028,-370.102971
4045.645067,-814.226536,-9039.926876,74.020594
4045.645391,-1850.514855,-8120.612279,0.000000
4045.645716,-740.205942,-8580.269578,-222.061783
4045.646040,-370.102971,-8120.612279,-222.061783
4045.646365,148.041188,-8963.317327,0.000000
4045.646689,-296.082377,-7890.783629,-666.185348
4045.647013,518.144159,-8350.440928,0.000000
4045.647338,-148.041188,-7890.783629,-444.123565
4045.647662,-592.164754,-8963.317327,0.000000
4045.647987,-814.226536,-8044.002729,-1184.329507
4045.648311,-740.205942,-8503.660028,148.041188
4045.648636,-1628.453072,-7814.174080,-592.164754
4045.648960,-592.164754,-8580.269578,148.041188
4045.649285,-444.123565,-7507.735880,-370.102971
4045.649609,222.061783,-8580.269578,296.082377
4045.649933,1406.391290,-7277.907231,-370.102971
4045.650258,2664.741391,-8503.660028,0.000000
4045.650582,3775.050304,-7890.783629,-370.102971
4045.650907,4589.276840,-8427.050478,296.082377
4045.651231,4145.153275,-8503.660028,-222.061783
4045.651556,4441.235652,-9193.145976,222.061783
4045.651880,3108.864956,-8580.269578,0.000000
4045.652205,2368.659014,-9193.145976,518.144159
4045.652529,1480.411884,-8886.707777,74.020594
4045.652853,1036.288319,-9576.193725,296.082377
4045.653178,-444.123565,-8427.050478,-296.082377
4045.653502,148.041188,-9576.193725,296.082377
4045.653827,-1184.329507,-8427.050478,0.000000
4045.654151,-666.185348,-8503.660028,-518.144159
4045.654476,-1036.288319,-8273.831378,-444.123565
4045.654800,-666.185348,-8503.660028,-814.226536
4045.655125,-814.226536,-8503.660028,-888.247130
4045.655449,-518.144159,-8656.879127,-1110.308913
4045.655774,-592.164754,-8656.879127,-962.267725
4045.656098,-888.247130,-8656.879127,-1110.308913
4045.656422,-1110.308913,-9039.926876,-666.185348
4045.656747,-1628.453072,-8656.879127,-814.226536
4045.657071,-1110.308913,-8963.317327,-740.205942
4045.657396,-1332.370696,-8810.098227,-592.164754
4045.657720,-296.082377,-8427.050478,-1036.288319
4045.658045,-962.267725,-8580.269578,-518.144159
4045.658369,148.041188,-8810.098227,-814.226536
4045.658694,666.185348,-8197.221829,-740.205942
4045.659018,2072.576638,-8197.221829,-592.164754
4045.659342,2590.720797,-8120.612279,-296.082377
4045.659667,3108.864956,-8656.879127,-74.020594
4045.659991,3923.091493,-8886.707777,-740.205942
4045.660316,3552.988522,-9346.365076,-370.102971
4045.660640,3330.926739,-9499.584175,-888.247130
4045.660965,2294.638420,-9269.755526,0.000000
4045.661289,1924.535449,-9499.584175,0.000000
4045.661614,0.000000,-9269.755526,0.000000
4045.661938,-1110.308913,-9039.926876,444.123565
4045.662262,-1480.411884,-9116.536426,0.000000
4045.662587,-1924.535449,-8656.879127,-296.082377
4045.662911,-2146.597232,-8733.488677,0.000000
4045.663236,-1776.494261,-8273.831378,0.000000
4045.663560,-962.267725,-8733.488677,-592.164754
4045.663885,-814.226536,-8120.612279,-518.144159
4045.664209,-148.041188,-8656.879127,-296.082377
4045.664534,-148.041188,-8044.002729,-296.082377
4045.664858,0.000000,-9193.145976,-222.061783
4045.665183,-296.082377,-8503.660028,-148.041188
4045.665507,-740.205942,-8656.879127,-222.061783
4045.665831,-962.267725,-8273.831378,-148.041188
4045.666156,-1036.288319,-8350.440928,0.000000
4045.666480,-1184.329507,-8427.050478,0.000000
4045.666805,-592.164754,-8273.831378,0.000000
4045.667129,74.020594,-8044.002729,0.000000
4045.667454,666.185348,-7814.174080,0.000000
4045.667778,1480.411884,-7660.954980,74.020594
4045.668103,2886.803174,-7660.954980,74.020594
4045.668427,3552.988522,-7890.783629,-148.041188
4045.668751,4219.173869,-8886.707777,74.020594
4045.669076,3775.050304,-8350.440928,-370.102971
4045.669400,4293.194464,-9269.755526,296.082377
4045.669725,3478.967927,-9193.145976,592.164754
4045.670049,2442.679609,-9422.974625,370.102971
4045.670374,1850.514855,-9422.974625,370.102971
4045.670698,888.247130,-8886.707777,296.082377
4045.671023,0.000000,-8810.098227,296.082377
4045.671347,-296.082377,-8656.879127,148.041188
4045.671671,-1184.329507,-8350.440928,148.041188
4045.671996,-1406.391290,-7967.393179,-666.185348
4045.672320,-1554.432478,-8273.831378,-296.082377
4045.672645,-1036.288319,-8197.221829,-1184.329507
4045.672969,-1036.288319,-8427.050478,-592.164754
4045.673294,-888.247130,-8503.660028,-1406.391290
4045.673618,-148.041188,-8656.879127,-592.164754
4045.673943,-962.267725,-8733.488677,-1184.329507
4045.674267,-740.205942,-8656.879127,-814.226536
4045.674592,-1554.432478,-8810.098227,-888.247130
4045.674916,-1332.370696,-8963.317327,-444.123565
4045.675240,-1702.473667,-8580.269578,-740.205942
4045.675565,-1036.288319,-9039.926876,-888.247130
4045.675889,-740.205942,-8120.612279,-888.247130
4045.676214,370.102971,-8580.269578,-1036.288319
4045.676538,1332.370696,-8427.050478,-814.226536
4045.676863,2072.576638,-8580.269578,-888.247130
4045.677187,3256.906145,-8503.660028,-592.164754
4045.677512,3775.050304,-8503.660028,-740.205942
4045.677836,4219.173869,-8963.317327,-888.247130
4045.678160,4219.173869,-9499.584175,-814.226536
4045.678485,2960.823768,-9269.755526,0.000000
4045.678809,2368.659014,-9652.803275,-296.082377
4045.679134,962.267725,-9652.803275,-370.102971
4045.679458,0.000000,-9729.412825,222.061783
4045.679783,-814.226536,-9269.755526,-444.123565
4045.680107,-1406.391290,-9116.536426,-222.061783
4045.680432,-1628.453072,-8656.879127,0.000000
4045.680756,-1850.514855,-8963.317327,0.000000
4045.681080,-1776.494261,-8427.050478,-592.164754
4045.681405,-962.267725,-8427.050478,-666.185348
4045.681729,-888.247130,-8273.831378,-518.144159
4045.682054,-148.041188,-8427.050478,-444.123565
4045.682378,74.020594,-8197.221829,-296.082377
4045.682703,-222.061783,-8810.098227,-296.082377
4045.683027,0.000000,-8197.221829,-518.144159
4045.683352,0.000000,-9039.926876,-444.123565
4045.683676,-1036.288319,-8733.488677,-518.144159
4045.684001,-1184.329507,-8503.660028,0.000000
4045.684325,-888.247130,-8503.660028,-222.061783
4045.684649,-518.144159,-8350.440928,-222.061783
4045.684974,0.000000,-7967.393179,-148.041188
4045.685298,740.205942,-8120.612279,-222.061783
4045.685623,1554.432478,-7660.954980,0.000000
4045.685947,2960.823768,-8197.221829,0.000000
4045.686272,3923.091493,-7890.783629,222.061783
4045.686596,4367.215058,-8273.831378,0.000000
4045.686921,4441.235652,-8427.050478,74.020594
4045.687245,3701.029710,-8963.317327,518.144159
4045.687569,2664.741391,-8733.488677,962.267725
4045.687894,2368.659014,-9193.145976,444.123565
4045.688218,1184.329507,-9039.926876,962.267725
4045.688543,518.144159,-9039.926876,148.041188
4045.688867,-222.061783,-8733.488677,666.185348
4045.689192,-1184.329507,-8503.660028,0.000000
4045.689516,-1184.329507,-8810.098227,0.000000
4045.689841,-1184.329507,-8044.002729,-592.164754
4045.690165,-1332.370696,-8656.879127,-296.082377
4045.690489,-888.247130,-8427.050478,-1036.288319
4045.690814,-962.267725,-8580.269578,-518.144159
4045.691138,-1184.329507,-8120.612279,-888.247130
4045.691463,-814.226536,-8886.707777,-518.144159
4045.691787,-370.102971,-8733.488677,-888.247130
4045.692112,-1036.288319,-9193.145976,-370.102971
4045.692436,-1480.411884,-8503.660028,-592.164754
4045.692761,-1554.432478,-8197.221829,-444.123565
4045.693085,-1184.329507,-8886.707777,-444.123565
4045.693410,-888.247130,-8273.831378,-740.205942
4045.693734,148.041188,-8503.660028,-444.123565
4045.694058,148.041188,-8503.660028,-592.164754
4045.694383,1184.329507,-8503.660028,-740.205942
4045.694707,2072.576638,-8656.879127,-444.123565
4045.695032,2886.803174,-8350.440928,-740.205942
4045.695356,3478.967927,-8810.098227,-444.123565
4045.695681,3552.988522,-8733.488677,-666.185348
4045.696005,3256.906145,-9959.241474,0.000000
4045.696330,2664.741391,-9422.974625,-444.123565
4045.696654,2146.597232,-9269.755526,-592.164754
4045.696978,1554.432478,-9499.584175,0.000000
4045.697303,222.061783,-9269.755526,-296.082377
4045.697627,-444.123565,-9346.365076,74.020594
4045.697952,-740.205942,-9116.536426,-222.061783
4045.698276,-1036.288319,-8273.831378,-370.102971
4045.698601,-888.247130,-8273.831378,-666.185348
4045.698925,-1554.432478,-8503.660028,-518.144159
4045.699250,-592.164754,-8427.050478,-740.205942
4045.699574,-740.205942,-8044.002729,-962.267725
4045.699898,0.000000,-8963.317327,-740.205942
4045.700223,0.000000,-7660.954980,-592.164754
4045.700547,-296.082377,-8733.488677,-592.164754
4045.700872,-740.205942,-8580.269578,-888.247130
4045.701196,-814.226536,-8963.317327,-518.144159
4045.701521,-888.247130,-8733.488677,-666.185348
4045.701845,-962.267725,-8427.050478,-592.164754
4045.702170,-962.267725,-8427.050478,-444.123565
4045.702494,-814.226536,-8197.221829,-444.123565
4045.702819,518.144159,-8120.612279,-148.041188
4045.703143,370.102971,-7584.345430,-370.102971
4045.703467,2220.617826,-8120.612279,0.000000
4045.703792,2664.741391,-7584.345430,-518.144159
4045.704116,3997.112087,-8580.269578,74.020594
4045.704441,4145.153275,-8427.050478,-296.082377
4045.704765,4219.173869,-9193.145976,296.082377
4045.705090,3923.091493,-8810.098227,74.020594
4045.705414,3034.844362,-9116.536426,370.102971
4045.705739,2516.700203,-9346.365076,74.020594
4045.706063,1184.329507,-9039.926876,740.205942
4045.706387,666.185348,-8733.488677,222.061783
4045.706712,-370.102971,-8733.488677,0.000000
4045.707036,-888.247130,-8733.488677,-370.102971
4045.707361,-1184.329507,-8044.002729,-296.082377
4045.707685,-1184.329507,-8273.831378,-592.164754
4045.708010,-1332.370696,-8580.269578,-296.082377
4045.708334,-1554.432478,-8197.221829,-740.205942
4045.708659,-1184.329507,-8197.221829,0.000000
4045.708983,-1332.370696,-7967.393179,-1036.288319
4045.709307,-888.247130,-8886.707777,-518.144159
4045.709632,-814.226536,-8427.050478,-1036.288319
4045.709956,-1110.308913,-9039.926876,-222.061783
4045.710281,-1184.329507,-8656.879127,-1036.288319
4045.710605,-1184.329507,-9039.926876,-444.123565
4045.710930,-1184.329507,-8350.440928,-814.226536
4045.711254,-740.205942,-9039.926876,-370.102971
4045.711579,-888.247130,-8503.660028,-740.205942
4045.711903,0.000000,-8273.831378,-370.102971
4045.712227,740.205942,-8273.831378,-370.102971
4045.712552,1480.411884,-8503.660028,-370.102971
4045.712876,2812.782580,-9499.584175,-296.082377
4045.713201,3552.988522,-8503.660028,-666.185348
4045.713525,3552.988522,-8963.317327,-222.061783
4045.713850,3478.967927,-8886.707777,-222.061783
4045.714174,3182.885551,-9652.803275,0.000000
4045.714499,1998.556043,-9116.536426,-222.061783
4045.714823,1332.370696,-9499.584175,0.000000
4045.715148,0.000000,-9652.803275,-444.123565
4045.715472,-444.123565,-9193.145976,148.041188
4045.715796,-1554.432478,-8273.831378,-296.082377
4045.716121,-1036.288319,-9116.536426,74.020594
4045.716445,-1406.391290,-8427.050478,-666.185348
4045.716770,-740.205942,-8580.269578,0.000000
4045.717094,-888.247130,-7814.174080,-592.164754
4045.717419,-222.061783,-8427.050478,-518.144159
4045.717743,0.000000,-8197.221829,-962.267725
4045.718068,222.061783,-8810.098227,-444.123565
4045.718392,0.000000,-8656.879127,-740.205942
4045.718716,-222.061783,-8733.488677,-444.123565
4045.719041,-444.123565,-8963.317327,-740.205942
4045.719365,-1332.370696,-8963.317327,-148.041188
4045.719690,-962.267725,-8503.660028,-888.247130
4045.720014,-740.205942,-8810.098227,-666.185348
4045.720339,-222.061783,-8197.221829,0.000000
4045.720663,0.000000,-7660.954980,-222.061783
4045.720988,1332.370696,-8197.221829,-592.164754
4045.721312,2072.576638,-7660.954980,0.000000
4045.721636,3849.070898,-8503.660028,0.000000
4045.721961,4219.173869,-8197.221829,-222.061783
4045.722285,4441.235652,-8580.269578,148.041188
4045.722610,4441.235652,-8656.879127,74.020594
4045.722934,3775.050304,-8963.317327,518.144159
4045.723259,3478.967927,-9346.365076,148.041188
4045.723583,2072.576638,-8963.317327,148.041188
4045.723908,1406.391290,-9346.365076,592.164754
4045.724232,-296.082377,-8963.317327,-222.061783
4045.724557,-222.061783,-9269.755526,0.000000
4045.724881,-740.205942,-8197.221829,-370.102971
4045.725205,-1036.288319,-8580.269578,-296.082377
4045.725530,-1258.350101,-7890.783629,-814.226536
4045.725854,-666.185348,-9116.536426,-370.102971
4045.726179,-1480.411884,-7967.393179,-1110.308913
4045.726503,-1258.350101,-8427.050478,-814.226536
4045.726828,-1110.308913,-8427.050478,-814.226536
4045.727152,-1776.494261,-8197.221829,-370.102971
4045.727477,-1554.432478,-8733.488677,-888.247130
4045.727801,-1258.350101,-8733.488677,-666.185348
4045.728125,-1702.473667,-8810.098227,-888.247130
4045.728450,-1480.411884,-9806.022374,-444.123565
4045.728774,-1554.432478,-8427.050478,-1036.288319
4045.729099,-814.226536,-8733.488677,-444.123565
4045.729423,-592.164754,-8273.831378,-740.205942
4045.729748,592.164754,-8656.879127,-370.102971
4045.730072,1332.370696,-8197.221829,-518.144159
4045.730397,2368.659014,-8580.269578,-444.123565
4045.730721,3108.864956,-7967.393179,-666.185348
4045.731045,3182.885551,-9039.926876,-444.123565
4045.731370,3404.947333,-9039.926876,-592.164754
4045.731694,2590.720797,-9193.145976,-296.082377
4045.732019,2072.576638,-9422.974625,-222.061783
4045.732343,1554.432478,-9422.974625,148.041188
4045.732668,592.164754,-9269.755526,370.102971
4045.732992,-444.123565,-9346.365076,74.020594
4045.733317,-592.164754,-9269.755526,444.123565
4045.733641,-1480.411884,-8810.098227,-592.164754
4045.733965,-1036.288319,-8733.488677,518.144159
4045.734290,-1332.370696,-8120.612279,-296.082377
4045.734614,-592.164754,-8733.488677,-148.041188
4045.734939,-740.205942,-7660.954980,-814.226536
4045.735263,0.000000,-8886.707777,74.020594
4045.735588,-592.164754,-7431.126331,-666.185348
4045.735912,-148.041188,-8656.879127,0.000000
4045.736236,-296.082377,-8273.831378,-592.164754
4045.736561,-370.102971,-8656.879127,-370.102971
4045.736885,-888.247130,-8273.831378,-888.247130
4045.737210,-666.185348,-8886.707777,0.000000
4045.737534,-1184.329507,-8197.221829,-666.185348
4045.737859,-518.144159,-8273.831378,0.000000
4045.738183,0.000000,-7737.564530,-370.102971
4045.738508,444.123565,-7584.345430,-370.102971
4045.738832,1776.494261,-7967.393179,-518.144159
4045.739156,2664.741391,-7814.174080,0.000000
4045.739481,3627.009116,-7737.564530,-296.082377
4045.739805,4441.235652,-8044.002729,444.123565
4045.740130,4441.235652,-8580.269578,0.000000
4045.740454,4737.318029,-9193.145976,296.082377
4045.740779,3997.112087,-8886.707777,222.061783
4045.741103,3182.885551,-9422.974625,296.082377
4045.741427,2368.659014,-9116.536426,74.020594
4045.741752,1036.288319,-9422.974625,370.102971
4045.742076,0.000000,-8810.098227,0.000000
4045.742401,-370.102971,-9193.145976,148.041188
4045.742725,-1036.288319,-8656.879127,-296.082377
4045.743050,-1110.308913,-8503.660028,-148.041188
4045.743374,-1184.329507,-8273.831378,-518.144159
4045.743698,-592.164754,-8580.269578,-666.185348
4045.744023,-666.185348,-8120.612279,-814.226536
4045.744347,-444.123565,-8963.317327,-740.205942
4045.744672,-592.164754,-8503.660028,-666.185348
4045.744996,-962.267725,-8886.707777,-814.226536
4045.745321,-1184.329507,-9039.926876,-1036.288319
4045.745645,-1110.308913,-8886.707777,-962.267725
4045.745969,-1406.391290,-8886.707777,-740.205942
4045.746294,-1850.514855,-8886.707777,-518.144159
4045.746618,-1406.391290,-8580.269578,-296.082377
4045.746943,-888.247130,-7890.783629,-370.102971
4045.747267,-370.102971,-8427.050478,-814.226536
4045.747592,370.102971,-8503.660028,-592.164754
4045.747916,1850.514855,-8197.221829,-592.164754
4045.748240,2368.659014,-7660.954980,-296.082377
4045.748565,3627.009116,-8656.879127,-740.205942
4045.748889,3627.009116,-8886.707777,-518.144159
4045.749214,3701.029710,-9193.145976,-444.123565
4045.749538,3034.844362,-9576.193725,-222.061783
4045.749863,2072.576638,-9193.145976,-518.144159
4045.750187,1258.350101,-9422.974625,-148.041188
4045.750511,74.020594,-9193.145976,74.020594
4045.750836,-888.247130,-9116.536426,0.000000
4045.751160,-962.267725,-9193.145976,148.041188
4045.751485,-1480.411884,-8503.660028,74.020594
4045.751809,-1184.329507,-8503.660028,-148.041188
4045.752134,-962.267725,-8350.440928,-444.123565
4045.752458,-296.082377,-8273.831378,-148.041188
4045.752782,-740.205942,-8120.612279,-370.102971
4045.753107,444.123565,-8580.269578,-444.123565
4045.753431,-518.144159,-7890.783629,-814.226536
4045.753756,0.000000,-9193.145976,-148.041188
4045.754080,-1332.370696,-7890.783629,-592.164754
4045.754405,-592.164754,-9039.926876,-370.102971
4045.754729,-1110.308913,-8197.221829,-814.226536
4045.755053,-1110.308913,-8427.050478,0.000000
4045.755378,-888.247130,-7967.393179,-518.144159
4045.755702,-962.267725,-8197.221829,0.000000
4045.756027,0.000000,-7431.126331,-666.185348
4045.756351,1110.308913,-8197.221829,-296.082377
4045.756676,1776.494261,-7660.954980,-666.185348
4045.757000,2960.823768,-8273.831378,296.082377
4045.757324,3627.009116,-7584.345430,0.000000
4045.757649,4367.215058,-8733.488677,74.020594
4045.757973,3997.112087,-8350.440928,-148.041188
4045.758298,4737.318029,-9729.412825,74.020594
4045.758622,3701.029710,-9039.926876,148.041188
4045.758947,2812.782580,-9422.974625,74.020594
4045.759271,1628.453072,-8886.707777,370.102971
4045.759595,1258.350101,-10035.851024,148.041188
4045.759920,148.041188,-8886.707777,0.000000
4045.760244,-370.102971,-8886.707777,0.000000
4045.760569,-1110.308913,-8580.269578,0.000000
4045.760893,-962.267725,-8580.269578,-592.164754
4045.761218,-1184.329507,-8044.002729,-592.164754
4045.761542,-740.205942,-8656.879127,-962.267725
4045.761866,-962.267725,-8273.831378,-814.226536
4045.762191,-1184.329507,-8580.269578,-1184.329507
4045.762515,-1184.329507,-8580.269578,-888.247130
4045.762840,-1110.308913,-8656.879127,-1406.391290
4045.763164,-1258.350101,-8886.707777,-592.164754
4045.763489,-1480.411884,-8733.488677,-814.226536
4045.763813,-1480.411884,-9039.926876,-666.185348
4045.764138,-1628.453072,-8963.317327,-888.247130
4045.764462,-740.205942,-9039.926876,-666.185348
4045.764786,-592.164754,-8273.831378,-1184.329507
4045.765111,148.041188,-8656.879127,-444.123565
4045.765435,1184.329507,-7737.564530,-888.247130
4045.765760,1702.473667,-8197.221829,-370.102971
4045.766084,2590.720797,-8120.612279,-740.205942
4045.766409,3256.906145,-8580.269578,-370.102971
4045.766733,3108.864956,-8503.660028,-592.164754
4045.767057,3108.864956,-9422.974625,-296.082377
4045.767382,2368.659014,-9039.926876,-148.041188
4045.767706,1332.370696,-9499.584175,148.041188
4045.768031,740.205942,-9806.022374,0.000000
4045.768355,0.000000,-9652.803275,222.061783
4045.768680,-444.123565,-9269.755526,0.000000
4045.769004,-740.205942,-8886.707777,-148.041188
4045.769328,-888.247130,-8656.879127,222.061783
4045.769653,-1332.370696,-8273.831378,0.000000
4045.769977,-1184.329507,-8350.440928,-296.082377
4045.770302,-740.205942,-8580.269578,-296.082377
4045.770626,-1110.308913,-8350.440928,-222.061783
4045.770951,-148.041188,-8427.050478,0.000000
4045.771275,-592.164754,-8120.612279,-222.061783
4045.771599,0.000000,-8503.660028,0.000000
4045.771924,-592.164754,-8427.050478,-518.144159
4045.772248,-370.102971,-8810.098227,-222.061783
4045.772573,-962.267725,-7890.783629,-370.102971
4045.772897,-666.185348,-8427.050478,-370.102971
4045.773222,-1184.329507,-7967.393179,-518.144159
4045.773546,-666.185348,-8273.831378,0.000000
4045.773870,-148.041188,-7584.345430,-148.041188
4045.774195,148.041188,-8350.440928,-222.061783
4045.774519,1110.308913,-7737.564530,-296.082377
4045.774844,2368.659014,-7967.393179,0.000000
4045.775168,2442.679609,-7814.174080,0.000000
4045.775493,4071.132681,-8580.269578,148.041188
4045.775817,4219.173869,-7967.393179,0.000000
4045.776141,4515.256246,-9269.755526,444.123565
4045.776466,3552.988522,-8810.098227,0.000000
4045.776790,3256.906145,-9039.926876,222.061783
4045.777115,1776.494261,-8733.488677,222.061783
4045.777439,1406.391290,-9269.755526,444.123565
4045.777764,0.000000,-8963.317327,0.000000
4045.778088,370.102971,-8963.317327,0.000000
4045.778412,-1184.329507,-8197.221829,-148.041188
4045.778737,-740.205942,-8350.440928,-740.205942
4045.779061,-1258.350101,-8580.269578,-592.164754
4045.779386,-740.205942,-8733.488677,-666.185348
4045.779710,-962.267725,-8427.050478,-1036.288319
4045.780035,-1258.350101,-8273.831378,-962.267725
4045.780359,-888.247130,-8427.050478,-888.247130
4045.780683,-592.164754,-8733.488677,-1184.329507
4045.781008,-888.247130,-8886.707777,-962.267725
4045.781332,-1184.329507,-8886.707777,-962.267725
4045.781657,-1554.432478,-9116.536426,-592.164754
4045.781981,-1406.391290,-8427.050478,-814.226536
4045.782306,0.000000,-8886.707777,-592.164754
4045.782630,0.000000,-8427.050478,-1036.288319
4045.782954,0.000000,-8350.440928,-814.226536
4045.783279,962.267725,-8503.660028,-1036.288319
4045.783603,1776.494261,-8580.269578,-814.226536
4045.783928,2368.659014,-8197.221829,-888.247130
4045.784252,2960.823768,-8886.707777,-592.164754
4045.784577,3108.864956,-8810.098227,-666.185348
4045.784901,2960.823768,-9576.193725,0.000000
4045.785225,3034.844362,-8886.707777,-518.144159
4045.785550,1998.556043,-9422.974625,-370.102971
4045.785874,1258.350101,-9269.755526,-222.061783
4045.786199,518.144159,-9652.803275,148.041188
4045.786523,-296.082377,-8810.098227,74.020594
4045.786848,-888.247130,-9346.365076,74.020594
4045.787172,-1406.391290,-8580.269578,-444.123565
4045.787496,-740.205942,-9193.145976,0.000000
4045.787821,-1258.350101,-8120.612279,-592.164754
4045.788145,-962.267725,-8963.317327,0.000000
4045.788470,-592.164754,-7967.393179,-666.185348
4045.788794,0.000000,-8810.098227,0.000000
4045.789119,-148.041188,-8120.612279,-740.205942
4045.789443,-370.102971,-8044.002729,148.041188
4045.789768,-444.123565,-8273.831378,-222.061783
4045.790092,-518.144159,-8810.098227,-148.041188
4045.790416,-666.185348,-8350.440928,-296.082377
4045.790741,-592.164754,-8580.269578,-666.185348
4045.791065,-888.247130,-8197.221829,-222.061783
4045.791390,-814.226536,-8120.612279,0.000000
4045.791714,74.020594,-8044.002729,-148.041188
4045.792039,370.102971,-7890.783629,-222.061783
4045.792363,1776.494261,-8120.612279,148.041188
4045.792687,2590.720797,-7584.345430,-370.102971
4045.793012,3701.029710,-8427.050478,222.061783
4045.793336,3775.050304,-7967.393179,74.020594
4045.793661,3997.112087,-8810.098227,518.144159
4045.793985,3997.112087,-8886.707777,296.082377
4045.794310,3182.885551,-8733.488677,592.164754
4045.794634,2516.700203,-9039.926876,0.000000
4045.794958,1924.535449,-8886.707777,888.247130
4045.795283,1036.288319,-8963.317327,148.041188
4045.795607,74.020594,-8810.098227,0.000000
4045.795932,-740.205942,-8197.221829,-148.041188
4045.796256,-1184.329507,-8503.660028,-222.061783
4045.796581,-1110.308913,-8120.612279,-592.164754
4045.796905,-1332.370696,-8350.440928,-666.185348
4045.797229,-1332.370696,-8120.612279,-666.185348
4045.797554,-1184.329507,-8273.831378,-1036.288319
4045.797878,-888.247130,-8120.612279,-1184.329507
4045.798203,-666.185348,-8656.879127,-1036.288319
4045.798527,-1332.370696,-9039.926876,-814.226536
4045.798852,-1332.370696,-8810.098227,-666.185348
4045.799176,-1258.350101,-8733.488677,-814.226536
4045.799500,-962.267725,-8810.098227,-962.267725
4045.799825,-1184.329507,-8733.488677,-666.185348
4045.800149,-666.185348,-8427.050478,-666.185348
4045.800474,-370.102971,-8120.612279,-814.226536
4045.800798,0.000000,-8427.050478,-962.267725
4045.801123,888.247130,-8427.050478,-666.185348
4045.801447,2146.597232,-8273.831378,-518.144159
4045.801771,3256.906145,-9039.926876,-740.205942
4045.802096,3404.947333,-8963.317327,-666.185348
4045.802420,3552.988522,-9576.193725,148.041188
4045.802745,3034.844362,-8886.707777,-1258.350101
4045.803069,2738.761985,-9422.974625,0.000000
4045.803394,1924.535449,-9806.022374,-444.123565
4045.803718,888.247130,-9193.145976,0.000000
4045.804042,-444.123565,-9652.803275,0.000000
4045.804367,-740.205942,-9193.145976,0.000000
4045.804691,-888.247130,-9193.145976,74.020594
4045.805016,-1036.288319,-8427.050478,-592.164754
4045.805340,-296.082377,-9193.145976,296.082377
4045.805665,-296.082377,-7737.564530,-518.144159
4045.805989,74.020594,-8656.879127,-148.041188
4045.806313,-1036.288319,-7967.393179,-814.226536
4045.806638,0.000000,-9346.365076,74.020594
4045.806962,-592.164754,-7737.564530,-740.205942
4045.807287,-296.082377,-9039.926876,148.041188
4045.807611,-962.267725,-8427.050478,-1184.329507
4045.807936,-1036.288319,-9193.145976,-518.144159
4045.808260,-1702.473667,-8350.440928,-740.205942
4045.808584,-1332.370696,-8273.831378,-370.102971
4045.808909,-1776.494261,-8197.221829,222.061783
4045.809233,-518.144159,-7507.735880,-444.123565
4045.809558,296.082377,-7890.783629,-148.041188
4045.809882,1406.391290,-7277.907231,0.000000
4045.810207,3182.885551,-8503.660028,-370.102971
4045.810531,3849.070898,-7048.078582,-740.205942
4045.810855,4515.256246,-8503.660028,518.144159
4045.811180,4145.153275,-8350.440928,-148.041188
4045.811504,4367.215058,-8886.707777,370.102971
4045.811829,3627.009116,-8503.660028,222.061783
4045.812153,3108.864956,-8810.098227,444.123565
4045.812478,1850.514855,-8963.317327,370.102971
4045.812802,888.247130,-9499.584175,592.164754
4045.813127,518.144159,-8733.488677,0.000000
4045.813451,-666.185348,-9269.755526,370.102971
4045.813775,-592.164754,-8656.879127,-444.123565
4045.814100,-444.123565,-8350.440928,0.000000
4045.814424,-1110.308913,-8503.660028,-444.123565
4045.814749,-740.205942,-8427.050478,-888.247130
4045.815073,-888.247130,-8273.831378,-592.164754
4045.815398,-962.267725,-8656.879127,-592.164754
4045.815722,-1332.370696,-8503.660028,-814.226536
4045.816046,-1480.411884,-8963.317327,0.000000
4045.816371,-1850.514855,-8427.050478,-888.247130
4045.816695,-1850.514855,-9039.926876,-740.205942
4045.817020,-1332.370696,-8580.269578,-888.247130
4045.817344,-1258.350101,-8580.269578,-296.082377
4045.817669,-1554.432478,-8044.002729,-1258.350101
4045.817993,-666.185348,-8656.879127,-518.144159
4045.818317,-148.041188,-8350.440928,-962.267725
4045.818642,666.185348,-8580.269578,-740.205942
4045.818966,1554.432478,-8197.221829,-888.247130
4045.819291,2220.617826,-8656.879127,-740.205942
4045.819615,2960.823768,-9039.926876,-740.205942
4045.819940,3182.885551,-8886.707777,-740.205942
4045.820264,3330.926739,-8733.488677,-444.123565
4045.820588,3256.906145,-8886.707777,-518.144159
4045.820913,2516.700203,-9269.755526,0.000000
4045.821237,1480.411884,-9039.926876,-296.082377
4045.821562,888.247130,-9499.584175,74.020594
4045.821886,0.000000,-9422.974625,-296.082377
4045.822211,-592.164754,-9576.193725,296.082377
4045.822535,-666.185348,-8886.707777,-222.061783
4045.822859,-740.205942,-9039.926876,-222.061783
4045.823184,-518.144159,-8810.098227,-148.041188
4045.823508,-1036.288319,-7967.393179,0.000000
4045.823833,-518.144159,-8427.050478,-370.102971
4045.824157,-740.205942,-8120.612279,-444.123565
4045.824482,0.000000,-8350.440928,-296.082377
4045.824806,-148.041188,-8197.221829,-1110.308913
4045.825130,-444.123565,-8733.488677,-296.082377
4045.825455,-962.267725,-8503.660028,-814.226536
4045.825779,-1184.329507,-8963.317327,74.020594
4045.826104,-888.247130,-8580.269578,-148.041188
4045.826428,-740.205942,-8503.660028,148.041188
4045.826753,-518.144159,-7814.174080,-370.102971
4045.827077,148.041188,-8120.612279,-148.041188
4045.827401,962.267725,-7660.954980,-592.164754
4045.827726,1776.494261,-8120.612279,0.000000
4045.828050,2812.782580,-7660.954980,-518.144159
4045.828375,3108.864956,-8044.002729,0.000000
4045.828699,3701.029710,-7967.393179,0.000000
4045.829024,4071.132681,-8886.707777,222.061783
4045.829348,3849.070898,-8963.317327,0.000000
4045.829672,3404.947333,-8580.269578,370.102971
4045.829997,3182.885551,-9269.755526,74.020594
4045.830321,1998.556043,-9269.755526,444.123565
4045.830646,1628.453072,-9039.926876,518.144159
4045.830970,888.247130,-8810.098227,-444.123565
4045.831295,148.041188,-9039.926876,74.020594
4045.831619,-666.185348,-8350.440928,-296.082377
4045.831943,-1110.308913,-8580.269578,0.000000
4045.832268,-1406.391290,-8273.831378,-962.267725
4045.832592,-1184.329507,-8503.660028,-370.102971
4045.832917,-1332.370696,-8273.831378,-962.267725
4045.833241,-1258.350101,-8503.660028,0.000000
4045.833566,-1406.391290,-8273.831378,-1036.288319
4045.833890,-1184.329507,-8733.488677,-370.102971
4045.834214,-1258.350101,-8810.098227,-1110.308913
4045.834539,-1406.391290,-9499.584175,-666.185348
4045.834863,-1480.411884,-8350.440928,-962.267725
4045.835188,-1554.432478,-9039.926876,-518.144159
4045.835512,-1776.494261,-8580.269578,-814.226536
4045.835837,-740.205942,-8656.879127,-666.185348
4045.836161,0.000000,-7967.393179,-1110.308913
4045.836486,962.267725,-8427.050478,-666.185348
4045.836810,1554.432478,-7967.393179,-740.205942
4045.837134,2590.720797,-8350.440928,-370.102971
4045.837459,3552.988522,-7354.516781,-296.082377
4045.837783,3923.091493,-8886.707777,-518.144159
4045.838108,4145.153275,-9039.926876,-888.247130
4045.838432,3404.947333,-9269.755526,-296.082377
4045.838757,2146.597232,-9269.755526,-518.144159
4045.839081,1628.453072,-9499.584175,-296.082377
4045.839406,518.144159,-9193.145976,-296.082377
4045.839730,-370.102971,-9346.365076,0.000000
4045.840054,-962.267725,-9116.536426,-296.082377
4045.840379,-518.144159,-9729.412825,0.000000
4045.840703,-1332.370696,-8273.831378,-592.164754
4045.841028,-814.226536,-8733.488677,0.000000
4045.841352,-1110.308913,-8044.002729,-666.185348
4045.841677,592.164754,-8656.879127,74.020594
4045.842001,-296.082377,-7890.783629,-592.164754
4045.842326,74.020594,-8963.317327,0.000000
4045.842650,-370.102971,-7890.783629,-740.205942
4045.842974,-666.185348,-9269.755526,-148.041188
4045.843299,-740.205942,-8503.660028,-666.185348
4045.843623,-1110.308913,-8733.488677,0.000000
4045.843948,-1332.370696,-8044.002729,-518.144159
4045.844272,-962.267725,-8656.879127,296.082377
4045.844597,-370.102971,-7354.516781,-222.061783
4045.844921,0.000000,-7967.393179,-222.061783
4045.845246,888.247130,-7584.345430,-296.082377
4045.845570,1924.535449,-7431.126331,0.000000
4045.845894,2960.823768,-7507.735880,-296.082377
4045.846219,3701.029710,-7737.564530,0.000000
4045.846543,4219.173869,-8350.440928,0.000000
4045.846868,4145.153275,-8197.221829,0.000000
4045.847192,3849.070898,-8503.660028,148.041188
4045.847517,3552.988522,-9346.365076,518.144159
4045.847841,2442.679609,-8886.707777,74.020594
4045.848166,1554.432478,-9269.755526,222.061783
4045.848490,592.164754,-8810.098227,148.041188
4045.848814,148.041188,-9729.412825,222.061783
4045.849139,-592.164754,-8656.879127,-592.164754
4045.849463,-888.247130,-8656.879127,0.000000
4045.849788,-1110.308913,-8350.440928,-444.123565
4045.850112,-1332.370696,-8733.488677,-370.102971
4045.850437,-1628.453072,-8350.440928,-296.082377
4045.850761,-1406.391290,-8580.269578,-666.185348
4045.851086,-1036.288319,-8886.707777,-740.205942
4045.851410,-1406.391290,-8733.488677,-814.226536
4045.851734,-1554.432478,-9499.584175,-444.123565
4045.852059,-1480.411884,-8656.879127,-888.247130
4045.852383,-1850.514855,-9039.926876,-370.102971
4045.852708,-1850.514855,-8350.440928,-740.205942
4045.853032,-814.226536,-9422.974625,-222.061783
4045.853357,-740.205942,-8350.440928,-888.247130
4045.853681,-370.102971,-8733.488677,-666.185348
4045.854005,74.020594,-8350.440928,-962.267725
4045.854330,740.205942,-8656.879127,-666.185348
4045.854654,1184.329507,-8120.612279,-740.205942
4045.854979,2294.638420,-8503.660028,-740.205942
4045.855303,2886.803174,-8503.660028,-1110.308913
4045.855628,3552.988522,-8963.317327,-592.164754
4045.855952,3034.844362,-8427.050478,-962.267725
4045.856277,2664.741391,-9039.926876,-296.082377
4045.856601,2072.576638,-9346.365076,-296.082377
4045.856925,1332.370696,-9193.145976,-222.061783
4045.857250,740.205942,-9346.365076,-148.041188
4045.857574,-370.102971,-8810.098227,-370.102971
4045.857899,-666.185348,-9039.926876,0.000000
4045.858223,-1258.350101,-8886.707777,0.000000
4045.858548,-1332.370696,-8733.488677,-518.144159
4045.858872,-1184.329507,-8886.707777,-296.082377
4045.859197,-1258.350101,-7967.393179,-148.041188
4045.859521,-592.164754,-8580.269578,0.000000
4045.859845,-592.164754,-8044.002729,-592.164754
4045.860170,0.000000,-8733.488677,0.000000
4045.860494,-296.082377,-7967.393179,-666.185348
4045.860819,0.000000,-8733.488677,-296.082377
4045.861143,-370.102971,-8120.612279,-222.061783
4045.861468,-148.041188,-8733.488677,-222.061783
4045.861792,-666.185348,-7660.954980,-518.144159
4045.862117,-296.082377,-8503.660028,0.000000
4045.862441,-444.123565,-7660.954980,-666.185348
4045.862765,296.082377,-8273.831378,-296.082377
4045.863090,888.247130,-7814.174080,-296.082377
4045.863414,1480.411884,-8580.269578,74.020594
4045.863739,2664.741391,-7660.954980,-296.082377
4045.864063,3701.029710,-8427.050478,0.000000
4045.864388,4367.215058,-8273.831378,0.000000
4045.864712,4219.173869,-8503.660028,-148.041188
4045.865037,3997.112087,-8656.879127,0.000000
4045.865361,3552.988522,-8886.707777,296.082377
4045.865685,2590.720797,-8656.879127,-148.041188
4045.866010,2294.638420,-9422.974625,444.123565
4045.866334,1036.288319,-8580.269578,148.041188
4045.866659,148.041188,-8810.098227,0.000000
4045.866983,-518.144159,-8963.317327,-370.102971
4045.867308,-1258.350101,-8733.488677,0.000000
4045.867632,-1332.370696,-8580.269578,-444.123565
4045.867957,-1480.411884,-8427.050478,-370.102971
4045.868281,-1110.308913,-8656.879127,-444.123565
4045.868605,-1554.432478,-8197.221829,-222.061783
4045.868930,-518.144159,-8733.488677,-962.267725
4045.869254,-592.164754,-8733.488677,-888.247130
4045.869579,-592.164754,-9039.926876,-592.164754
4045.869903,-1258.350101,-8656.879127,-1036.288319
4045.870228,-1406.391290,-9269.755526,-666.185348
4045.870552,-1480.411884,-8580.269578,-814.226536
4045.870877,-1628.453072,-8886.707777,-666.185348
4045.871201,-1332.370696,-8273.831378,-518.144159
4045.871525,-814.226536,-8733.488677,-518.144159
4045.871850,-370.102971,-8120.612279,-592.164754
4045.872174,444.123565,-9116.536426,-592.164754
4045.872499,1184.329507,-8580.269578,-962.267725
4045.872823,2886.803174,-8886.707777,-518.144159
4045.873148,3108.864956,-8197.221829,-740.205942
4045.873472,3552.988522,-8733.488677,-518.144159
4045.873797,3330.926739,-9039.926876,-740.205942
4045.874121,3034.844362,-9269.755526,0.000000
4045.874445,2146.597232,-9039.926876,0.000000
4045.874770,1332.370696,-9346.365076,0.000000
4045.875094,222.061783,-9422.974625,74.020594
4045.875419,-370.102971,-8963.317327,222.061783
4045.875743,-1332.370696,-8350.440928,0.000000
4045.876068,-1184.329507,-8810.098227,-444.123565
4045.876392,-962.267725,-8810.098227,296.082377
4045.876716,-1036.288319,-7814.174080,-444.123565
4045.877041,-370.102971,-9346.365076,148.041188
4045.877365,-1184.329507,-7814.174080,-370.102971
4045.877690,-296.082377,-9116.536426,0.000000
4045.878014,-444.123565,-7737.564530,-888.247130
4045.878339,0.000000,-9269.755526,0.000000
4045.878663,-666.185348,-7584.345430,-444.123565
4045.878988,-592.164754,-9422.974625,-222.061783
4045.879312,-1036.288319,-7890.783629,-1036.288319
4045.879636,-444.123565,-8810.098227,-296.082377
4045.879961,-666.185348,-7814.174080,-814.226536
4045.880285,-666.185348,-8733.488677,-148.041188
4045.880610,74.020594,-7660.954980,-444.123565
4045.880934,962.267725,-8197.221829,-296.082377
4045.881259,1554.432478,-7814.174080,-888.247130
4045.881583,2812.782580,-8427.050478,0.000000
4045.881908,3330.926739,-7967.393179,0.000000
4045.882232,4145.153275,-8273.831378,-148.041188
4045.882556,4441.235652,-8580.269578,0.000000
4045.882881,4515.256246,-8810.098227,148.041188
4045.883205,3775.050304,-9193.145976,0.000000
4045.883530,2738.761985,-8427.050478,0.000000
4045.883854,1924.535449,-9116.536426,518.144159
4045.884179,962.267725,-9039.926876,0.000000
4045.884503,296.082377,-8886.707777,0.000000
4045.884828,-518.144159,-8503.660028,-370.102971
4045.885152,-888.247130,-8580.269578,0.000000
4045.885476,-1406.391290,-8427.050478,-1036.288319
4045.885801,-1628.453072,-8810.098227,0.000000
4045.886125,-1332.370696,-8197.221829,-814.226536
4045.886450,-962.267725,-8963.317327,-814.226536
4045.886774,-1184.329507,-8503.660028,-888.247130
4045.887099,-1110.308913,-8963.317327,-518.144159
4045.887423,-1110.308913,-9039.926876,-1184.329507
4045.887748,-1258.350101,-9193.145976,-888.247130
4045.888072,-962.267725,-8810.098227,-888.247130
4045.888396,-1184.329507,-9116.536426,-148.041188
4045.888721,-1776.494261,-7967.393179,-518.144159
4045.889045,-296.082377,-9116.536426,-592.164754
4045.889370,-888.247130,-8580.269578,-962.267725
4045.889694,-222.061783,-8350.440928,-666.185348
4045.890019,740.205942,-8120.612279,-1036.288319
4045.890343,1702.473667,-8273.831378,-666.185348
4045.890668,2590.720797,-8197.221829,-666.185348
4045.890992,3552.988522,-8427.050478,-740.205942
4045.891316,3775.050304,-8810.098227,-962.267725
4045.891641,3775.050304,-8733.488677,-444.123565
4045.891965,3182.885551,-9116.536426,-444.123565
4045.892290,2812.782580,-9499.584175,-148.041188
4045.892614,1036.288319,-9576.193725,-222.061783
4045.892939,-296.082377,-9499.584175,296.082377
4045.893263,-888.247130,-9193.145976,0.000000
4045.893588,-1480.411884,-9039.926876,148.041188
4045.893912,-1480.411884,-8503.660028,0.000000
4045.894236,-1480.411884,-8886.707777,0.000000
4045.894561,-1480.411884,-7814.174080,-666.185348
4045.894885,-444.123565,-8656.879127,74.020594
4045.895210,-518.144159,-8120.612279,-592.164754
4045.895534,296.082377,-8733.488677,370.102971
4045.895859,0.000000,-7814.174080,-444.123565
4045.896183,370.102971,-8886.707777,148.041188
4045.896507,-370.102971,-8273.831378,-592.164754
4045.896832,0.000000,-9346.365076,0.000000
4045.897156,-962.267725,-8503.660028,-592.164754
4045.897481,-1332.370696,-8503.660028,-148.041188
4045.897805,-1480.411884,-8197.221829,0.000000
4045.898130,-1110.308913,-8044.002729,74.020594
4045.898454,444.123565,-7584.345430,-222.061783
4045.898779,1554.432478,-7890.783629,-296.082377
4045.899103,3034.844362,-7814.174080,-222.061783
4045.899427,3701.029710,-7814.174080,-296.082377
4045.899752,4885.359217,-8273.831378,148.041188
4045.900076,4959.379811,-8427.050478,-296.082377
4045.900401,4737.318029,-9116.536426,0.000000
4045.900725,3775.050304,-8886.707777,370.102971
4045.901050,2886.803174,-9193.145976,0.000000
4045.901374,1998.556043,-8886.707777,0.000000
4045.901699,888.247130,-9039.926876,148.041188
4045.902023,0.000000,-8886.707777,0.000000
4045.902347,-740.205942,-8810.098227,0.000000
4045.902672,-740.205942,-8810.098227,-370.102971
4045.902996,-740.205942,-8350.440928,-518.144159
4045.903321,-1184.329507,-8427.050478,-518.144159
4045.903645,-1184.329507,-8503.660028,-666.185348
4045.903970,-370.102971,-9193.145976,-888.247130
4045.904294,-888.247130,-8733.488677,-444.123565
4045.904619,-962.267725,-8656.879127,-1184.329507
4045.904943,-962.267725,-9039.926876,-740.205942
4045.905267,-1628.453072,-9269.755526,-814.226536
4045.905592,-1702.473667,-8963.317327,-740.205942
4045.905916,-1554.432478,-8733.488677,-962.267725
4045.906241,-1924.535449,-9193.145976,-296.082377
4045.906565,-1776.494261,-8350.440928,-888.247130
4045.906890,-962.267725,-8350.440928,-370.102971
4045.907214,-370.102971,-8427.050478,-888.247130
4045.907539,592.164754,-8580.269578,-740.205942
4045.907863,1924.535449,-8197.221829,-814.226536
4045.908187,2590.720797,-9116.536426,-962.267725
4045.908512,3182.885551,-8580.269578,-666.185348
4045.908836,3627.009116,-8733.488677,-592.164754
4045.909161,3997.112087,-9039.926876,-444.123565
4045.909485,3478.967927,-8963.317327,-444.123565
4045.909810,2368.659014,-9269.755526,0.000000
4045.910134,1776.494261,-8963.317327,-296.082377
4045.910459,518.144159,-8810.098227,296.082377
4045.910783,0.000000,-9269.755526,74.020594
4045.911107,-740.205942,-8810.098227,148.041188
4045.911432,-666.185348,-8656.879127,148.041188
4045.911756,-1776.494261,-8120.612279,-222.061783
4045.912081,-888.247130,-8733.488677,0.000000
4045.912405,-1332.370696,-7814.174080,-666.185348
4045.912730,-370.102971,-8733.488677,148.041188
4045.913054,-962.267725,-7967.393179,-518.144159
4045.913379,-370.102971,-8810.098227,0.000000
4045.913703,-666.185348,-7890.783629,-592.164754
4045.914027,-370.102971,-9039.926876,148.041188
4045.914352,-1110.308913,-8273.831378,-962.267725
4045.914676,-592.164754,-8810.098227,222.061783
4045.915001,-1554.432478,-8350.440928,-888.247130
4045.915325,-1480.411884,-9499.584175,296.082377
4045.915650,-1184.329507,-7967.393179,-592.164754
4045.915974,-592.164754,-8197.221829,74.020594
4045.916299,740.205942,-7890.783629,-370.102971
4045.916623,1332.370696,-7431.126331,296.082377
4045.916947,2738.761985,-8273.831378,-444.123565
4045.917272,3552.988522,-7354.516781,-518.144159
4045.917596,4737.318029,-8810.098227,148.041188
4045.917921,4367.215058,-7890.783629,-444.123565
4045.918245,5329.482782,-9116.536426,518.144159
4045.918570,3627.009116,-8197.221829,-222.061783
4045.918894,2590.720797,-9422.974625,518.144159
4045.919218,1776.494261,-8810.098227,-296.082377
4045.919543,1628.453072,-9882.631924,296.082377
4045.919867,148.041188,-8120.612279,-518.144159
4045.920192,-666.185348,-9499.584175,444.123565
4045.920516,-1258.350101,-8427.050478,-592.164754
4045.920841,-1036.288319,-8427.050478,296.082377
4045.921165,-962.267725,-8044.002729,-1110.308913
4045.921490,-1258.350101,-9116.536426,-296.082377
4045.921814,-740.205942,-7967.393179,-814.226536
4045.922138,-962.267725,-9193.145976,-518.144159
4045.922463,-1258.350101,-8656.879127,-962.267725
4045.922787,-1258.350101,-9269.755526,-444.123565
4045.923112,-1628.453072,-8503.660028,-1036.288319
4045.923436,-1702.473667,-9116.536426,-370.102971
4045.923761,-1628.453072,-7967.393179,-814.226536
4045.924085,-1480.411884,-8810.098227,-370.102971
4045.924410,-1184.329507,-7967.393179,-1110.308913
4045.924734,-444.123565,-8886.707777,-888.247130
4045.925058,74.020594,-8273.831378,-814.226536
4045.925383,814.226536,-8427.050478,-666.185348
4045.925707,1628.453072,-7967.393179,-1110.308913
4045.926032,2442.679609,-8810.098227,-444.123565
4045.926356,3404.947333,-8350.440928,-962.267725
4045.926681,3923.091493,-9652.803275,-592.164754
4045.927005,3182.885551,-8963.317327,-296.082377
4045.927330,3034.844362,-9269.755526,-296.082377
4045.927654,2146.597232,-9039.926876,-370.102971
4045.927978,1850.514855,-9193.145976,-296.082377
4045.928303,518.144159,-8963.317327,0.000000
4045.928627,0.000000,-8656.879127,222.061783
4045.928952,-592.164754,-8963.317327,296.082377
4045.929276,-814.226536,-8273.831378,-222.061783
4045.929601,-962.267725,-8427.050478,296.082377
4045.929925,-1258.350101,-8273.831378,-296.082377
4045.930250,-1258.350101,-8427.050478,-296.082377
4045.930574,-1184.329507,-8197.221829,-518.144159
4045.930898,-740.205942,-8273.831378,-444.123565
4045.931223,-740.205942,-7967.393179,-740.205942
4045.931547,-1184.329507,-8044.002729,-148.041188
4045.931872,-666.185348,-8580.269578,-370.102971
4045.932196,-592.164754,-7660.954980,-148.041188
4045.932521,-444.123565,-8427.050478,-740.205942
4045.932845,-1110.308913,-8580.269578,-148.041188
4045.933170,-1258.350101,-8427.050478,-666.185348
4045.933494,-962.267725,-8427.050478,0.000000
4045.933818,-148.041188,-7660.954980,0.000000
4045.934143,148.041188,-8273.831378,222.061783
4045.934467,1036.288319,-7660.954980,-518.144159
4045.934792,2738.761985,-8503.660028,222.061783
4045.935116,4145.153275,-7660.954980,-592.164754
4045.935440,4663.297435,-8886.707777,444.123565
4045.935765,4737.318029,-8120.612279,0.000000
4045.936089,4663.297435,-9269.755526,444.123565
4045.936413,4219.173869,-8273.831378,0.000000
4045.936738,3552.988522,-9269.755526,74.020594
4045.937062,2072.576638,-8886.707777,370.102971
4045.937387,592.164754,-9346.365076,444.123565
4045.937711,0.000000,-8733.488677,0.000000
4045.938035,-740.205942,-9269.755526,74.020594
4045.938360,-1628.453072,-8503.660028,-518.144159
4045.938684,-1554.432478,-8503.660028,-370.102971
4045.939008,-1850.514855,-8120.612279,-740.205942
4045.939333,-1628.453072,-8656.879127,-444.123565
4045.939657,-1776.494261,-8044.002729,-814.226536
4045.939981,-1258.350101,-8733.488677,-962.267725
4045.940306,-1184.329507,-8580.269578,-962.267725
4045.940630,-962.267725,-8886.707777,-666.185348
4045.940954,-1406.391290,-8656.879127,-814.226536
4045.941279,-666.185348,-9499.584175,-518.144159
4045.941603,-1406.391290,-8197.221829,-1480.411884
4045.941928,-1036.288319,-9729.412825,0.000000
4045.942252,-1406.391290,-7737.564530,-1554.432478
4045.942576,-1110.308913,-8810.098227,222.061783
4045.942901,-148.041188,-8350.440928,-962.267725
4045.943225,74.020594,-8733.488677,-592.164754
4045.943549,1258.350101,-7737.564530,-1406.391290
4045.943874,2960.823768,-8580.269578,-518.144159
4045.944198,3997.112087,-8733.488677,-666.185348
4045.944522,4145.153275,-9039.926876,-962.267725
4045.944847,4071.132681,-8886.707777,-370.102971
4045.945171,3108.864956,-9116.536426,-296.082377
4045.945495,2368.659014,-9882.631924,0.000000
4045.945820,1480.411884,-9346.365076,0.000000
4045.946144,444.123565,-9346.365076,74.020594
4045.946469,-740.205942,-9422.974625,-370.102971
4045.946793,-962.267725,-9116.536426,74.020594
4045.947117,-1406.391290,-8580.269578,-148.041188
4045.947442,-1258.350101,-8580.269578,0.000000
4045.947766,-1184.329507,-8427.050478,-296.082377
4045.948090,-740.205942,-8120.612279,0.000000
4045.948415,-148.041188,-8503.660028,-222.061783
4045.948739,-592.164754,-8197.221829,-518.144159
4045.949063,-296.082377,-8733.488677,-666.185348
4045.949388,-592.164754,-7890.783629,-666.185348
4045.949712,-370.102971,-9116.536426,-518.144159
4045.950036,-1480.411884,-8580.269578,-518.144159
4045.950361,-1258.350101,-8886.707777,0.000000
4045.950685,-1702.473667,-7507.735880,-888.247130
4045.951010,-296.082377,-8656.879127,0.000000
4045.951334,-592.164754,-7660.954980,-222.061783
4045.951658,592.164754,-8273.831378,0.000000
4045.951983,1110.308913,-7814.174080,-740.205942
4045.952307,1998.556043,-8120.612279,0.000000
4045.952631,2960.823768,-7737.564530,0.000000
4045.952956,3775.050304,-8350.440928,296.082377
4045.953280,4219.173869,-8580.269578,0.000000
4045.953604,4441.235652,-8886.707777,0.000000
4045.953929,3701.029710,-9039.926876,296.082377
4045.954253,2812.782580,-8733.488677,518.144159
4045.954577,2294.638420,-9039.926876,370.102971
4045.954902,1406.391290,-9729.412825,962.267725
4045.955226,740.205942,-9269.755526,222.061783
4045.955551,0.000000,-8656.879127,74.020594
4045.955875,0.000000,-8886.707777,-222.061783
4045.956199,-444.123565,-8656.879127,0.000000
4045.956524,-518.144159,-8197.221829,0.000000
4045.956848,-1258.350101,-7967.393179,-666.185348
4045.957172,-888.247130,-8733.488677,0.000000
4045.957497,-1036.288319,-7737.564530,-888.247130
4045.957821,-370.102971,-9193.145976,-592.164754
4045.958145,-888.247130,-8273.831378,-1184.329507
4045.958470,-1332.370696,-9116.536426,-444.123565
4045.958794,-1850.514855,-8350.440928,-1036.288319
4045.959118,-1702.473667,-9269.755526,-740.205942
4045.959443,-1850.514855,-9039.926876,-962.267725
4045.959767,-1258.350101,-8886.707777,-518.144159
4045.960092,-740.205942,-8273.831378,-962.267725
4045.960416,-888.247130,-8580.269578,-518.144159
4045.960740,-518.144159,-7967.393179,-962.267725
4045.961065,888.247130,-8810.098227,-888.247130
4045.961389,1480.411884,-8350.440928,-1110.308913
4045.961713,2368.659014,-8810.098227,-222.061783
4045.962038,3627.009116,-8810.098227,-666.185348
4045.962362,3478.967927,-9039.926876,-296.082377
4045.962686,3552.988522,-9116.536426,-740.205942
4045.963011,2886.803174,-9193.145976,-296.082377
4045.963335,2220.617826,-9882.631924,444.123565
4045.963660,740.205942,-9116.536426,74.020594
4045.963984,962.267725,-9039.926876,222.061783
4045.964308,-1258.350101,-9193.145976,-740.205942
4045.964633,-296.082377,-9039.926876,222.061783
4045.964957,-1628.453072,-8350.440928,0.000000
4045.965281,-148.041188,-8580.269578,-222.061783
4045.965606,-666.185348,-8120.612279,-814.226536
4045.965930,-296.082377,-8427.050478,-518.144159
4045.966254,-666.185348,-7737.564530,-296.082377
4045.966579,0.000000,-8503.660028,-666.185348
4045.966903,-814.226536,-8120.612279,-518.144159
4045.967227,-962.267725,-8580.269578,-370.102971
4045.967552,-1184.329507,-8197.221829,-1110.308913
4045.967876,-1258.350101,-8503.660028,-592.164754
4045.968201,-1110.308913,-8197.221829,-888.247130
4045.968525,-666.185348,-8886.707777,-296.082377
4045.968849,-740.205942,-8044.002729,-666.185348
4045.969174,-592.164754,-8273.831378,296.082377
4045.969498,740.205942,-7584.345430,-518.144159
4045.969822,1628.453072,-8580.269578,-148.041188
4045.970147,2738.761985,-8273.831378,-222.061783
4045.970471,2886.803174,-7507.735880,0.000000
4045.970795,3552.988522,-8427.050478,222.061783
4045.971120,4219.173869,-8656.879127,-444.123565
4045.971444,3849.070898,-9039.926876,0.000000
4045.971768,3330.926739,-8810.098227,592.164754
4045.972093,3256.906145,-8886.707777,592.164754
4045.972417,2146.597232,-8963.317327,148.041188
4045.972742,1776.494261,-9499.584175,740.205942
4045.973066,1036.288319,-8427.050478,0.000000
4045.973390,222.061783,-9346.365076,0.000000
4045.973715,-296.082377,-8503.660028,0.000000
4045.974039,-444.123565,-8427.050478,0.000000
4045.974363,-814.226536,-8656.879127,-666.185348
4045.974688,-1332.370696,-9499.584175,-296.082377
4045.975012,-962.267725,-8580.269578,-592.164754
4045.975336,-1628.453072,-8733.488677,-592.164754
4045.975661,-1406.391290,-8733.488677,-740.205942
4045.975985,-1332.370696,-8580.269578,-666.185348
4045.976309,-1554.432478,-8733.488677,-740.205942
4045.976634,-1332.370696,-8656.879127,-888.247130
4045.976958,-1184.329507,-8810.098227,-888.247130
4045.977283,-1332.370696,-8886.707777,-444.123565
4045.977607,-1036.288319,-8656.879127,-740.205942
4045.977931,-444.123565,-8810.098227,-666.185348
4045.978256,-74.020594,-8044.002729,-888.247130
4045.978580,296.082377,-8580.269578,-370.102971
4045.978904,888.247130,-7890.783629,-1258.350101
4045.979229,2146.597232,-9039.926876,0.000000
4045.979553,2368.659014,-7890.783629,-814.226536
4045.979877,2960.823768,-8886.707777,-222.061783
4045.980202,2886.803174,-8427.050478,-592.164754
4045.980526,3627.009116,-9346.365076,0.000000
4045.980850,2664.741391,-8810.098227,-518.144159
4045.981175,2368.659014,-9422.974625,-148.041188
4045.981499,1036.288319,-9422.974625,-222.061783
4045.981824,296.082377,-10035.851024,0.000000
4045.982148,-148.041188,-9422.974625,0.000000
4045.982472,-814.226536,-8886.707777,-296.082377
4045.982797,-1258.350101,-8503.660028,0.000000
4045.983121,-1036.288319,-9193.145976,0.000000
4045.983445,-1332.370696,-7967.393179,-444.123565
4045.983770,-1036.288319,-8427.050478,-518.144159
4045.984094,-666.185348,-8044.002729,-370.102971
4045.984418,-518.144159,-8503.660028,-444.123565
4045.984743,-222.061783,-8273.831378,-296.082377
4045.985067,222.061783,-8733.488677,-296.082377
4045.985391,-296.082377,-8427.050478,-1110.308913
4045.985716,-962.267725,-8810.098227,0.000000
4045.986040,-1258.350101,-8656.879127,-518.144159
4045.986365,-1036.288319,-8733.488677,-222.061783
4045.986689,-814.226536,-8044.002729,-296.082377
4045.987013,-1036.288319,-8350.440928,-222.061783
4045.987338,148.041188,-7890.783629,-592.164754
4045.987662,814.226536,-7890.783629,370.102971
4045.987986,2368.659014,-8044.002729,-592.164754
4045.988311,3256.906145,-7890.783629,-222.061783
4045.988635,4145.153275,-8197.221829,0.000000
4045.988959,4071.132681,-8350.440928,0.000000
4045.989284,4663.297435,-8733.488677,-148.041188
4045.989608,3923.091493,-9116.536426,0.000000
4045.989933,3552.988522,-8963.317327,370.102971
4045.990257,2072.576638,-8810.098227,-370.102971
4045.990581,1406.391290,-9729.412825,444.123565
4045.990906,518.144159,-8580.269578,148.041188
4045.991230,-296.082377,-8963.317327,296.082377
4045.991554,-814.226536,-8733.488677,-148.041188
4045.991879,-296.082377,-8503.660028,-370.102971
4045.992203,-1258.350101,-8503.660028,-1036.288319
4045.992527,-1036.288319,-8427.050478,-444.123565
4045.992852,-666.185348,-8044.002729,-666.185348
4045.993176,-518.144159,-8733.488677,-888.247130
4045.993500,-1036.288319,-8273.831378,-962.267725
4045.993825,-1036.288319,-8963.317327,-814.226536
4045.994149,-1628.453072,-8963.317327,-962.267725
4045.994474,-1406.391290,-8886.707777,-962.267725
4045.994798,-1776.494261,-8656.879127,-1036.288319
4045.995122,-1628.453072,-9039.926876,-370.102971
4045.995447,-1850.514855,-8350.440928,-592.164754
4045.995771,-888.247130,-8427.050478,-666.185348
4045.996095,0.000000,-8350.440928,-888.247130
4045.996420,592.164754,-8580.269578,-740.205942
4045.996744,1776.494261,-8044.002729,-740.205942
4045.997068,2368.659014,-8580.269578,-444.123565
4045.997393,3034.844362,-8733.488677,-296.082377
4045.997717,3256.906145,-8427.050478,-444.123565
4045.998041,3256.906145,-9116.536426,0.000000
4045.998366,2590.720797,-9269.755526,0.000000
4045.998690,2294.638420,-9806.022374,-518.144159
4045.999015,1406.391290,-9193.145976,74.020594
4045.999339,592.164754,-9422.974625,74.020594
4045.999663,74.020594,-9346.365076,74.020594
4045.999988,-740.205942,-9346.365076,148.041188
4046.000312,-592.164754,-9193.145976,0.000000
4046.000636,-1036.288319,-8120.612279,-370.102971
4046.000961,-740.205942,-8656.879127,0.000000
4046.001285,-1036.288319,-8044.002729,-370.102971
4046.001609,0.000000,-8810.098227,0.000000
4046.001934,-1332.370696,-7814.174080,-592.164754
4046.002258,-740.205942,-8503.660028,0.000000
4046.002582,-888.247130,-8503.660028,-814.226536
4046.002907,-666.185348,-9269.755526,222.061783
4046.003231,-814.226536,-8580.269578,-740.205942
4046.003556,-888.247130,-8886.707777,0.000000
4046.003880,-740.205942,-8197.221829,-888.247130
4046.004204,-888.247130,-8503.660028,0.000000
4046.004529,-444.123565,-8273.831378,0.000000
4046.004853,222.061783,-7890.783629,-222.061783
4046.005177,962.267725,-7814.174080,-666.185348
4046.005502,1554.432478,-7967.393179,0.000000
4046.005826,2812.782580,-7814.174080,74.020594
4046.006150,2738.761985,-7890.783629,-148.041188
4046.006475,3775.050304,-8810.098227,148.041188
4046.006799,3701.029710,-8273.831378,0.000000
4046.007123,3849.070898,-9346.365076,444.123565
4046.007448,3627.009116,-8656.879127,74.020594
4046.007772,3701.029710,-9422.974625,518.144159
4046.008097,2368.659014,-8503.660028,0.000000
4046.008421,1998.556043,-9039.926876,740.205942
4046.008745,740.205942,-8503.660028,148.041188
4046.009070,0.000000,-9346.365076,0.000000
4046.009394,-296.082377,-8580.269578,-296.082377
4046.009718,-1110.308913,-8733.488677,-148.041188
4046.010043,-1184.329507,-8427.050478,-814.226536
4046.010367,-1924.535449,-8273.831378,-518.144159
4046.010691,-1480.411884,-8810.098227,-666.185348
4046.011016,-1554.432478,-8120.612279,-962.267725
4046.011340,-814.226536,-8810.098227,-592.164754
4046.011664,-962.267725,-8580.269578,-888.247130
4046.011989,-592.164754,-8886.707777,-666.185348
4046.012313,-1406.391290,-8656.879127,-1110.308913
4046.012638,-1480.411884,-8733.488677,-814.226536
4046.012962,-1628.453072,-8350.440928,-666.185348
4046.013286,-1332.370696,-8733.488677,-518.144159
4046.013611,-1184.329507,-8503.660028,-666.185348
4046.013935,-444.123565,-8427.050478,-518.144159
4046.014259,740.205942,-7660.954980,-888.247130
4046.014584,1036.288319,-8120.612279,-888.247130
4046.014908,1850.514855,-8044.002729,-740.205942
4046.015232,2812.782580,-8580.269578,-370.102971
4046.015557,3182.885551,-8656.879127,-444.123565
4046.015881,3404.947333,-9346.365076,-444.123565
4046.016205,3256.906145,-8963.317327,-370.102971
4046.016530,2590.720797,-9346.365076,-518.144159
4046.016854,1850.514855,-9422.974625,-222.061783
4046.017179,444.123565,-9193.145976,222.061783
4046.017503,-444.123565,-9346.365076,-296.082377
4046.017827,-740.205942,-9116.536426,148.041188
4046.018152,-1258.350101,-8656.879127,0.000000
4046.018476,-1332.370696,-8273.831378,0.000000
4046.018800,-740.205942,-8197.221829,-222.061783
4046.019125,-1332.370696,-7967.393179,-296.082377
4046.019449,-888.247130,-8963.317327,0.000000
4046.019773,-814.226536,-7814.174080,-666.185348
4046.020098,0.000000,-8886.707777,-148.041188
4046.020422,-740.205942,-7814.174080,-740.205942
4046.020747,-518.144159,-8886.707777,-74.020594
4046.021071,-1110.308913,-7967.393179,-888.247130
4046.021395,-592.164754,-9193.145976,74.020594
4046.021720,-1554.432478,-8197.221829,-888.247130
4046.022044,-1036.288319,-8733.488677,0.000000
4046.022368,-962.267725,-7890.783629,-592.164754
4046.022693,74.020594,-8120.612279,74.020594
4046.023017,148.041188,-7890.783629,-370.102971
4046.023341,1332.370696,-7737.564530,74.020594
4046.023666,2738.761985,-7814.174080,-296.082377
4046.023990,3182.885551,-7814.174080,74.020594
4046.024314,4367.215058,-8197.221829,0.000000
4046.024639,3997.112087,-8273.831378,222.061783
4046.024963,4367.215058,-8810.098227,0.000000
4046.025288,3849.070898,-8656.879127,148.041188
4046.025612,3552.988522,-9882.631924,0.000000
4046.025936,1924.535449,-8963.317327,518.144159
4046.026261,1184.329507,-9193.145976,370.102971
4046.026585,296.082377,-8963.317327,-222.061783
4046.026909,-148.041188,-8810.098227,0.000000
4046.027234,-666.185348,-8886.707777,-148.041188
4046.027558,-1406.391290,-8580.269578,-518.144159
4046.027882,-962.267725,-8656.879127,-518.144159
4046.028207,-1480.411884,-8197.221829,-370.102971
4046.028531,-1480.411884,-8427.050478,-444.123565
4046.028855,-1036.288319,-8503.660028,-1184.329507
4046.029180,-592.164754,-9039.926876,-666.185348
4046.029504,-518.144159,-8427.050478,-962.267725
4046.029829,-296.082377,-8733.488677,-814.226536
4046.030153,-962.267725,-8580.269578,-740.205942
4046.030477,-1184.329507,-8503.660028,-592.164754
4046.030802,-1110.308913,-8733.488677,-1110.308913
4046.031126,-814.226536,-8886.707777,-592.164754
4046.031450,-740.205942,-8273.831378,-666.185348
4046.031775,-148.041188,-8273.831378,-814.226536
4046.032099,444.123565,-8656.879127,-962.267725
4046.032423,1184.329507,-8427.050478,-888.247130
4046.032748,1924.535449,-8273.831378,-740.205942
4046.033072,2368.659014,-8350.440928,-888.247130
4046.033396,3404.947333,-9422.974625,-592.164754
4046.033721,3478.967927,-8580.269578,-814.226536
4046.034045,3330.926739,-9576.193725,-592.164754
4046.034370,2220.617826,-9039.926876,-666.185348
4046.034694,1776.494261,-9806.022374,0.000000
4046.035018,740.205942,-9346.365076,148.041188
4046.035343,0.000000,-9269.755526,0.000000
4046.035667,-962.267725,-9193.145976,0.000000
4046.035992,-1332.370696,-8427.050478,-148.041188
4046.036316,-740.205942,-8273.831378,0.000000
4046.036640,-1332.370696,-8273.831378,-444.123565
4046.036965,-740.205942,-8656.879127,222.061783
4046.037289,-888.247130,-7890.783629,-888.247130
4046.037614,-888.247130,-8733.488677,-370.102971
4046.037938,-444.123565,-8350.440928,-814.226536
4046.038263,-666.185348,-8810.098227,-370.102971
4046.038587,-444.123565,-8427.050478,-370.102971
4046.038912,-666.185348,-8580.269578,-518.144159
4046.039236,-1184.329507,-8580.269578,-814.226536
4046.039560,-1332.370696,-8350.440928,-296.082377
4046.039885,-814.226536,-8120.612279,-222.061783
4046.040209,-740.205942,-8580.269578,-444.123565
4046.040534,0.000000,-7584.345430,-296.082377
4046.040858,962.267725,-8044.002729,0.000000
4046.041183,1258.350101,-8120.612279,296.082377
4046.041507,2738.761985,-8427.050478,0.000000
4046.041831,3404.947333,-7890.783629,222.061783
4046.042156,3849.070898,-8273.831378,74.020594
4046.042480,3997.112087,-8273.831378,74.020594
4046.042805,3849.070898,-8810.098227,666.185348
4046.043129,3701.029710,-8580.269578,592.164754
4046.043454,2738.761985,-8963.317327,0.000000
4046.043778,1776.494261,-8963.317327,592.164754
4046.044103,1258.350101,-8656.879127,222.061783
4046.044427,-148.041188,-8733.488677,0.000000
4046.044751,-518.144159,-8656.879127,222.061783
4046.045076,-740.205942,-8427.050478,0.000000
4046.045400,-1332.370696,-8503.660028,-518.144159
4046.045725,-1554.432478,-8503.660028,-222.061783
4046.046049,-1554.432478,-8350.440928,-592.164754
4046.046374,-1110.308913,-8580.269578,-962.267725
4046.046698,-740.205942,-8886.707777,-592.164754
4046.047023,-740.205942,-8810.098227,-592.164754
4046.047347,-666.185348,-8656.879127,-814.226536
4046.047671,-518.144159,-8656.879127,-592.164754
4046.047996,-814.226536,-8810.098227,-740.205942
4046.048320,-814.226536,-9193.145976,-296.082377
4046.048645,-962.267725,-8810.098227,-888.247130
4046.048969,-444.123565,-8886.707777,-518.144159
4046.049294,-444.123565,-8427.050478,-962.267725
4046.049618,0.000000,-9116.536426,-1110.308913
4046.049942,592.164754,-8503.660028,-740.205942
4046.050267,1184.329507,-8503.660028,-518.144159
4046.050591,2146.597232,-8503.660028,-888.247130
4046.050916,2812.782580,-8350.440928,-1036.288319
4046.051240,3404.947333,-9116.536426,-444.123565
4046.051565,3627.009116,-8886.707777,-518.144159
4046.051889,3404.947333,-9499.584175,-444.123565
4046.052214,2368.659014,-9499.584175,0.000000
4046.052538,1998.556043,-9422.974625,-518.144159
4046.052862,74.020594,-9346.365076,-222.061783
4046.053187,-740.205942,-9499.584175,148.041188
4046.053511,-1184.329507,-8810.098227,0.000000
4046.053836,-1406.391290,-8963.317327,0.000000
4046.054160,-1480.411884,-8580.269578,148.041188
4046.054485,-1184.329507,-7737.564530,-518.144159
4046.054809,-592.164754,-8273.831378,0.000000
4046.055133,-518.144159,-7967.393179,-518.144159
4046.055458,-222.061783,-8503.660028,-222.061783
4046.055782,0.000000,-8197.221829,-740.205942
4046.056107,-222.061783,-9039.926876,0.000000
4046.056431,-592.164754,-8656.879127,-888.247130
4046.056756,-666.185348,-9422.974625,-518.144159
4046.057080,-1110.308913,-8503.660028,-370.102971
4046.057405,-1258.350101,-8810.098227,-370.102971
4046.057729,-1332.370696,-8197.221829,-444.123565
4046.058053,-740.205942,-8427.050478,222.061783
4046.058378,222.061783,-7431.126331,-148.041188
4046.058702,1184.329507,-8120.612279,-148.041188
4046.059027,2368.659014,-7507.735880,-518.144159
4046.059351,3627.009116,-8656.879127,0.000000
4046.059676,4367.215058,-7967.393179,-296.082377
4046.060000,4737.318029,-9116.536426,0.000000
4046.060325,4737.318029,-8350.440928,0.000000
4046.060649,3997.112087,-9039.926876,518.144159
4046.060973,3775.050304,-9346.365076,518.144159
4046.061298,2146.597232,-8886.707777,74.020594
4046.061622,814.226536,-8656.879127,592.164754
4046.061947,1184.329507,-9193.145976,-370.102971
4046.062271,-1480.411884,-8733.488677,888.247130
4046.062596,-1184.329507,-8503.660028,296.082377
4046.062920,-1036.288319,-8197.221829,0.000000
4046.063244,-1036.288319,-8427.050478,-1184.329507
4046.063569,-1036.288319,-8580.269578,148.041188
4046.063893,-740.205942,-7660.954980,-148.041188
4046.064218,-518.144159,-8580.269578,-666.185348
4046.064542,-518.144159,-8503.660028,-666.185348
4046.064867,-888.247130,-9039.926876,-518.144159
4046.065191,-962.267725,-8120.612279,-888.247130
4046.065516,-1480.411884,-8810.098227,-740.205942
4046.065840,-1406.391290,-8886.707777,-666.185348
4046.066164,-1998.556043,-9193.145976,-666.185348
4046.066489,-1628.453072,-8656.879127,-888.247130
4046.066813,-444.123565,-8503.660028,-296.082377
4046.067138,-518.144159,-8120.612279,-888.247130
4046.067462,814.226536,-8503.660028,0.000000
4046.067787,1406.391290,-7814.174080,-814.226536
4046.068111,1554.432478,-8503.660028,-1258.350101
4046.068436,2590.720797,-8503.660028,-888.247130
4046.068760,3627.009116,-8656.879127,-444.123565
4046.069084,3404.947333,-8886.707777,-518.144159
4046.069409,3701.029710,-9193.145976,-444.123565
4046.069733,2590.720797,-9499.584175,0.000000
4046.070058,2146.597232,-9346.365076,-222.061783
4046.070382,888.247130,-9346.365076,0.000000
4046.070707,296.082377,-9193.145976,74.020594
4046.071031,-222.061783,-8963.317327,222.061783
4046.071355,-592.164754,-8580.269578,-592.164754
4046.071680,-592.164754,-8656.879127,-74.020594
4046.072004,-1480.411884,-8120.612279,0.000000
4046.072329,-1110.308913,-8350.440928,-814.226536
4046.072653,-1036.288319,-8273.831378,-444.123565
4046.072978,-888.247130,-8427.050478,-296.082377
4046.073302,-740.205942,-8656.879127,-666.185348
4046.073627,-1406.391290,-7584.345430,-518.144159
4046.073951,-592.164754,-9039.926876,-444.123565
4046.074275,-1036.288319,-8197.221829,-518.144159
4046.074600,-1184.329507,-9039.926876,-222.061783
4046.074924,-1406.391290,-8350.440928,-222.061783
4046.075249,-518.144159,-8044.002729,-888.247130
4046.075573,-222.061783,-8503.660028,-444.123565
4046.075898,0.000000,-7737.564530,-222.061783
4046.076222,592.164754,-7890.783629,370.102971
4046.076546,1258.350101,-8197.221829,-962.267725
4046.076871,2590.720797,-8273.831378,148.041188
4046.077195,3627.009116,-8044.002729,0.000000
4046.077520,4145.153275,-8273.831378,-296.082377
4046.077844,4737.318029,-8733.488677,0.000000
4046.078169,4515.256246,-8886.707777,444.123565
4046.078493,4293.194464,-9116.536426,148.041188
4046.078818,3404.947333,-9039.926876,-370.102971
4046.079142,2072.576638,-9193.145976,370.102971
4046.079466,1406.391290,-8656.879127,296.082377
4046.079791,444.123565,-8886.707777,-148.041188
4046.080115,-222.061783,-8886.707777,0.000000
4046.080440,-814.226536,-8350.440928,0.000000
4046.080764,-1036.288319,-8273.831378,-740.205942
4046.081089,-962.267725,-8197.221829,-370.102971
4046.081413,-1184.329507,-7967.393179,-296.082377
4046.081738,-1258.350101,-8503.660028,-592.164754
4046.082062,-1332.370696,-8810.098227,-740.205942
4046.082386,-1110.308913,-8886.707777,-740.205942
4046.082711,-1406.391290,-8886.707777,-666.185348
4046.083035,-1702.473667,-9193.145976,-592.164754
4046.083360,-1554.432478,-8656.879127,-740.205942
4046.083684,-1258.350101,-9499.584175,-666.185348
4046.084009,-1258.350101,-9116.536426,-1036.288319
4046.084333,-1332.370696,-8503.660028,-740.205942
4046.084657,0.000000,-8580.269578,-370.102971
4046.084982,0.000000,-8427.050478,-296.082377
4046.085306,444.123565,-8503.660028,-444.123565
4046.085631,1702.473667,-8120.612279,-666.185348
4046.085955,2146.597232,-8273.831378,-370.102971
4046.086280,2368.659014,-8580.269578,-518.144159
4046.086604,3256.906145,-8963.317327,0.000000
4046.086929,3256.906145,-8886.707777,-592.164754
4046.087253,3182.885551,-8886.707777,-444.123565
4046.087577,2516.700203,-9422.974625,-296.082377
4046.087902,1702.473667,-9729.412825,0.000000
4046.088226,1110.308913,-9116.536426,0.000000
4046.088551,-222.061783,-8886.707777,0.000000
4046.088875,-222.061783,-9499.584175,370.102971
4046.089200,-814.226536,-8044.002729,-222.061783
4046.089524,-1110.308913,-8810.098227,0.000000
4046.089849,-1406.391290,-7890.783629,-518.144159
4046.090173,-1184.329507,-8427.050478,0.000000
4046.090497,-1184.329507,-8044.002729,-666.185348
4046.090822,-814.226536,-8273.831378,-666.185348
4046.091146,-1110.308913,-8273.831378,-962.267725
4046.091471,-962.267725,-8580.269578,-666.185348
4046.091795,-592.164754,-8503.660028,-296.082377
4046.092120,-518.144159,-8580.269578,-296.082377
4046.092444,-1110.308913,-8886.707777,-444.123565
4046.092768,-962.267725,-8503.660028,-444.123565
4046.093093,-814.226536,-8503.660028,-962.267725
4046.093417,222.061783,-8733.488677,0.000000
4046.093742,0.000000,-8120.612279,-222.061783
4046.094066,1110.308913,-8427.050478,148.041188
4046.094391,1480.411884,-7201.297681,-592.164754
4046.094715,2812.782580,-8580.269578,296.082377
4046.095040,3552.988522,-8120.612279,-370.102971
4046.095364,4071.132681,-8503.660028,592.164754
4046.095688,4145.153275,-8120.612279,-518.144159
4046.096013,3923.091493,-8963.317327,592.164754
4046.096337,4367.215058,-9039.926876,0.000000
4046.096662,3552.988522,-9499.584175,296.082377
4046.096986,2294.638420,-8810.098227,0.000000
4046.097311,1628.453072,-9269.755526,296.082377
4046.097635,740.205942,-8886.707777,-444.123565
4046.097959,-222.061783,-8963.317327,74.020594
4046.098284,-666.185348,-8197.221829,-370.102971
4046.098608,-962.267725,-8810.098227,0.000000
4046.098933,-1406.391290,-7814.174080,-1036.288319
4046.099257,-1480.411884,-8656.879127,-222.061783
4046.099582,-1480.411884,-8044.002729,-1036.288319
4046.099906,-1406.391290,-8580.269578,-666.185348
4046.100231,-1480.411884,-8350.440928,-888.247130
4046.100555,-1184.329507,-8810.098227,-1036.288319
4046.100879,-1036.288319,-9039.926876,-1036.288319
4046.101204,-1184.329507,-9269.755526,-740.205942
4046.101528,-1184.329507,-8656.879127,-962.267725
4046.101853,-1184.329507,-8733.488677,-592.164754
4046.102177,-1406.391290,-8503.660028,-814.226536
4046.102502,-1554.432478,-8427.050478,-296.082377
4046.102826,0.000000,-8656.879127,-962.267725
4046.103151,74.020594,-8427.050478,-1036.288319
4046.103475,1554.432478,-7890.783629,-666.185348
4046.103799,3034.844362,-8197.221829,-814.226536
4046.104124,2442.679609,-9269.755526,-814.226536
4046.104448,3552.988522,-8810.098227,-296.082377
4046.104773,3330.926739,-9193.145976,0.000000
4046.105097,3182.885551,-9652.803275,-592.164754
4046.105422,2738.761985,-9422.974625,0.000000
4046.105746,2146.597232,-9039.926876,-296.082377
4046.106070,740.205942,-9576.193725,370.102971
4046.106395,0.000000,-8963.317327,-444.123565
4046.106719,-74.020594,-8886.707777,666.185348
4046.107044,-740.205942,-8427.050478,-740.205942
4046.107368,-814.226536,-8810.098227,-370.102971
4046.107693,-1332.370696,-8656.879127,222.061783
4046.108017,-1480.411884,-8197.221829,0.000000
4046.108342,-962.267725,-8427.050478,0.000000
4046.108666,-1332.370696,-7967.393179,-444.123565
4046.108990,-666.185348,-9039.926876,0.000000
4046.109315,-592.164754,-8120.612279,-592.164754
4046.109639,-518.144159,-8963.317327,0.000000
4046.109964,-1036.288319,-8273.831378,-592.164754
4046.110288,-666.185348,-8963.317327,0.000000
4046.110613,-1184.329507,-8350.440928,-666.185348
4046.110937,-962.267725,-8580.269578,-222.061783
4046.111262,-962.267725,-8044.002729,-296.082377
4046.111586,0.000000,-8503.660028,-148.041188
4046.111910,666.185348,-8120.612279,-518.144159
4046.112235,1406.391290,-8273.831378,0.000000
4046.112559,2812.782580,-7584.345430,-518.144159
4046.112884,3552.988522,-7890.783629,222.061783
4046.113208,4145.153275,-8580.269578,74.020594
4046.113533,4589.276840,-8197.221829,222.061783
4046.113857,4441.235652,-8350.440928,0.000000
4046.114181,3923.091493,-8886.707777,74.020594
4046.114506,3182.885551,-8810.098227,0.000000
4046.114830,2294.638420,-9422.974625,296.082377
4046.115155,888.247130,-8886.707777,222.061783
4046.115479,222.061783,-9039.926876,-296.082377
4046.115804,-74.020594,-8580.269578,-222.061783
4046.116128,-814.226536,-8120.612279,148.041188
4046.116453,-1258.350101,-8273.831378,-370.102971
4046.116777,-1406.391290,-8427.050478,-444.123565
4046.117101,-1184.329507,-8120.612279,-518.144159
4046.117426,-814.226536,-8503.660028,-962.267725
4046.117750,-1110.308913,-8580.269578,-592.164754
4046.118075,-1110.308913,-8656.879127,-1110.308913
4046.118399,-1332.370696,-8886.707777,-740.205942
4046.118724,-1184.329507,-8580.269578,-888.247130
4046.119048,-1554.432478,-9193.145976,-962.267725
4046.119372,-1110.308913,-8886.707777,-1110.308913
4046.119697,-1258.350101,-8963.317327,-666.185348
4046.120021,-1480.411884,-8886.707777,-592.164754
4046.120346,-1110.308913,-8197.221829,-592.164754
4046.120670,0.000000,-8120.612279,-814.226536
4046.120995,888.247130,-8580.269578,-740.205942
4046.121319,1480.411884,-8350.440928,-592.164754
4046.121644,2220.617826,-8656.879127,-444.123565
4046.121968,3256.906145,-8656.879127,-444.123565
4046.122292,3849.070898,-8963.317327,-740.205942
4046.122617,3627.009116,-9576.193725,-518.144159
4046.122941,3404.947333,-8963.317327,0.000000
4046.123266,2960.823768,-9576.193725,0.000000
4046.123590,1406.391290,-9652.803275,-222.061783
4046.123915,740.205942,-9269.755526,-148.041188
4046.124239,-296.082377,-9039.926876,-148.041188
4046.124564,-444.123565,-8963.317327,-296.082377
4046.124888,-740.205942,-9039.926876,148.041188
4046.125212,-1184.329507,-8197.221829,-518.144159
4046.125537,-1480.411884,-8503.660028,0.000000
4046.125861,-1332.370696,-7890.783629,-740.205942
4046.126186,-666.185348,-9039.926876,-296.082377
4046.126510,-1036.288319,-7660.954980,-814.226536
4046.126835,-592.164754,-9116.536426,-222.061783
4046.127159,-1110.308913,-7890.783629,-666.185348
4046.127483,74.020594,-9499.584175,0.000000
4046.127808,-888.247130,-8120.612279,-962.267725
4046.128132,-740.205942,-9039.926876,0.000000
4046.128457,-1332.370696,-8120.612279,-518.144159
4046.128781,-1110.308913,-9116.536426,-222.061783
4046.129106,-1110.308913,-7660.954980,-444.123565
4046.129430,0.000000,-8427.050478,222.061783
4046.129755,740.205942,-7584.345430,-296.082377
4046.130079,2146.597232,-7814.174080,296.082377
4046.130403,2590.720797,-7890.783629,0.000000
4046.130728,3923.091493,-8120.612279,222.061783
4046.131052,4219.173869,-8503.660028,0.000000
4046.131377,4737.318029,-8580.269578,0.000000
4046.131701,4589.276840,-8656.879127,0.000000
4046.132026,3775.050304,-9039.926876,370.102971
4046.132350,2812.782580,-9116.536426,296.082377
4046.132675,1480.411884,-8810.098227,370.102971
4046.132999,1184.329507,-9346.365076,148.041188
4046.133323,-222.061783,-8503.660028,222.061783
4046.133648,-592.164754,-8350.440928,148.041188
4046.133972,-1036.288319,-8656.879127,-370.102971
4046.134297,-1184.329507,-8273.831378,-518.144159
4046.134621,-1184.329507,-8197.221829,-444.123565
4046.134946,-1036.288319,-8120.612279,-962.267725
4046.135270,-814.226536,-8580.269578,-370.102971
4046.135594,-1258.350101,-8427.050478,-666.185348
4046.135919,-962.267725,-9116.536426,-962.267725
4046.136243,-1184.329507,-8810.098227,-962.267725
4046.136568,-1628.453072,-9193.145976,-666.185348
4046.136892,-1628.453072,-8656.879127,-740.205942
4046.137216,-1702.473667,-8656.879127,-444.123565
4046.137541,-1480.411884,-8810.098227,-1036.288319
4046.137865,-1554.432478,-8427.050478,-814.226536
4046.138189,-296.082377,-8810.098227,-740.205942
4046.138514,0.000000,-8350.440928,-592.164754
4046.138838,1184.329507,-8580.269578,-814.226536
4046.139162,1850.514855,-8427.050478,-518.144159
4046.139487,2590.720797,-8580.269578,-740.205942
4046.139811,3034.844362,-8656.879127,-592.164754
4046.140135,3701.029710,-9269.755526,-518.144159
4046.140460,3552.988522,-8656.879127,-518.144159
4046.140784,3182.885551,-9269.755526,-518.144159
4046.141108,1924.535449,-9346.365076,-296.082377
4046.141433,1480.411884,-9346.365076,148.041188
4046.141757,0.000000,-8580.269578,0.000000
4046.142082,0.000000,-9269.755526,148.041188
4046.142406,-666.185348,-8350.440928,-296.082377
4046.142730,-1110.308913,-9039.926876,0.000000
4046.143055,-1184.329507,-8273.831378,74.020594
4046.143379,-962.267725,-8273.831378,-370.102971
4046.143703,-740.205942,-8427.050478,-296.082377
4046.144028,-666.185348,-8273.831378,-370.102971
4046.144352,-148.041188,-8886.707777,0.000000
4046.144676,-296.082377,-8580.269578,-888.247130
4046.145001,0.000000,-8733.488677,-148.041188
4046.145325,-666.185348,-8810.098227,-592.164754
4046.145649,-1036.288319,-8810.098227,-222.061783
4046.145974,-1110.308913,-9039.926876,-296.082377
4046.146298,-1628.453072,-8503.660028,-444.123565
4046.146622,-1110.308913,-8197.221829,-296.082377
4046.146947,-1184.329507,-7737.564530,0.000000
4046.147271,592.164754,-8350.440928,74.020594
4046.147596,518.144159,-7201.297681,-370.102971
4046.147920,2442.679609,-8656.879127,518.144159
4046.148244,2960.823768,-7277.907231,-666.185348
4046.148569,4663.297435,-8886.707777,888.247130
4046.148893,4441.235652,-8197.221829,-370.102971
4046.149217,4663.297435,-9193.145976,518.144159
4046.149542,3997.112087,-8733.488677,0.000000
4046.149866,3256.906145,-8963.317327,814.226536
4046.150190,2146.597232,-8044.002729,74.020594
4046.150515,1480.411884,-8963.317327,444.123565
4046.150839,814.226536,-8350.440928,222.061783
4046.151163,-296.082377,-8427.050478,148.041188
4046.151488,-444.123565,-8197.221829,222.061783
4046.151812,-1110.308913,-8044.002729,-222.061783
4046.152136,-444.123565,-8810.098227,-444.123565
4046.152461,-1406.391290,-8120.612279,-740.205942
4046.152785,-1110.308913,-8963.317327,-148.041188
4046.153110,-1628.453072,-8350.440928,-1110.308913
4046.153434,-1110.308913,-8656.879127,-740.205942
4046.153758,-1332.370696,-8733.488677,-740.205942
4046.154083,-1480.411884,-8963.317327,-444.123565
4046.154407,-1628.453072,-8810.098227,-740.205942
4046.154731,-1924.535449,-8886.707777,-740.205942
4046.155056,-1184.329507,-8963.317327,-592.164754
4046.155380,-1184.329507,-8273.831378,-814.226536
4046.155704,-222.061783,-8580.269578,-666.185348
4046.156029,-222.061783,-8656.879127,-888.247130
4046.156353,444.123565,-8427.050478,-592.164754
4046.156677,1406.391290,-8120.612279,-814.226536
4046.157002,2146.597232,-8656.879127,-518.144159
4046.157326,2590.720797,-8503.660028,-518.144159
4046.157650,3404.947333,-8963.317327,-296.082377
4046.157975,3478.967927,-8886.707777,-444.123565
4046.158299,3034.844362,-9422.974625,-370.102971
4046.158624,2368.659014,-8810.098227,-666.185348
4046.158948,1554.432478,-9269.755526,0.000000
4046.159272,740.205942,-8886.707777,-296.082377
4046.159597,148.041188,-9346.365076,296.082377
4046.159921,0.000000,-9039.926876,-296.082377
4046.160245,-296.082377,-8886.707777,0.000000
4046.160570,-814.226536,-8044.002729,-444.123565
4046.160894,-814.226536,-9039.926876,0.000000
4046.161218,-740.205942,-7890.783629,-518.144159
4046.161543,-518.144159,-8886.707777,0.000000
4046.161867,-1184.329507,-8503.660028,-666.185348
4046.162191,-444.123565,-9039.926876,-222.061783
4046.162516,-1036.288319,-8120.612279,-962.267725
4046.162840,-888.247130,-9652.803275,74.020594
4046.163165,-1184.329507,-8120.612279,-666.185348
4046.163489,-1036.288319,-9269.755526,0.000000
4046.163813,-1258.350101,-8197.221829,-518.144159
4046.164138,-814.226536,-9039.926876,74.020594
4046.164462,-296.082377,-8044.002729,-370.102971
4046.164786,296.082377,-8503.660028,0.000000
4046.165111,592.164754,-7814.174080,-148.041188
4046.165435,1628.453072,-8044.002729,0.000000
4046.165759,2590.720797,-7814.174080,-222.061783
4046.166084,2960.823768,-8273.831378,0.000000
4046.166408,3997.112087,-8273.831378,222.061783
4046.166732,3923.091493,-8427.050478,-148.041188
4046.167057,4071.132681,-9422.974625,222.061783
4046.167381,3775.050304,-8273.831378,296.082377
4046.167705,3108.864956,-9116.536426,666.185348
4046.168030,2442.679609,-8886.707777,0.000000
4046.168354,1702.473667,-8580.269578,518.144159
4046.168679,814.226536,-8503.660028,-222.061783
4046.169003,222.061783,-8656.879127,0.000000
4046.169327,-518.144159,-8427.050478,-296.082377
4046.169652,-962.267725,-8733.488677,0.000000
4046.169976,-1776.494261,-8810.098227,-740.205942
4046.170300,-2146.597232,-8733.488677,-518.144159
4046.170625,-1924.535449,-8733.488677,-814.226536
4046.170949,-1850.514855,-8427.050478,-814.226536
4046.171273,-1480.411884,-8963.317327,-740.205942
4046.171598,-1036.288319,-8580.269578,-444.123565
4046.171922,-1406.391290,-8656.879127,-888.247130
4046.172246,-1406.391290,-8963.317327,-888.247130
4046.172571,-1110.308913,-8503.660028,-962.267725
4046.172895,-1110.308913,-8886.707777,-592.164754
4046.173219,-1036.288319,-8656.879127,-814.226536
4046.173544,-1110.308913,-8733.488677,-518.144159
4046.173868,-370.102971,-8427.050478,-740.205942
4046.174193,0.000000,-8120.612279,-592.164754
4046.174517,962.267725,-8733.488677,-814.226536
4046.174841,1924.535449,-8350.440928,-444.123565
4046.175166,2664.741391,-8427.050478,-518.144159
4046.175490,3256.906145,-8503.660028,-740.205942
4046.175814,3627.009116,-8963.317327,-518.144159
4046.176139,3552.988522,-9116.536426,-444.123565
4046.176463,2738.761985,-9346.365076,-148.041188
4046.176787,2368.659014,-9116.536426,0.000000
4046.177112,1406.391290,-9346.365076,148.041188
4046.177436,74.020594,-9193.145976,222.061783
4046.177760,-740.205942,-8580.269578,0.000000
4046.178085,-962.267725,-8886.707777,0.000000
4046.178409,-962.267725,-8733.488677,74.020594
4046.178733,-962.267725,-8580.269578,222.061783
4046.179058,-1554.432478,-7967.393179,-222.061783
4046.179382,-666.185348,-8503.660028,-444.123565
4046.179707,-814.226536,-7890.783629,-296.082377
4046.180031,-444.123565,-8656.879127,-148.041188
4046.180355,-444.123565,-8120.612279,-888.247130
4046.180680,370.102971,-9039.926876,0.000000
4046.181004,-1332.370696,-8044.002729,-962.267725
4046.181328,-1110.308913,-8810.098227,0.000000
4046.181653,-1480.411884,-8810.098227,-740.205942
4046.181977,-888.247130,-8427.050478,0.000000
4046.182301,-740.205942,-7967.393179,-222.061783
4046.182626,-518.144159,-8350.440928,518.144159
4046.182950,814.226536,-7890.783629,-296.082377
4046.183274,1554.432478,-7584.345430,-370.102971
4046.183599,3256.906145,-8656.879127,0.000000
4046.183923,3478.967927,-8044.002729,-592.164754
4046.184247,5107.421000,-9193.145976,370.102971
4046.184572,4071.132681,-7814.174080,-444.123565
4046.184896,4071.132681,-9193.145976,518.144159
4046.185221,3701.029710,-8580.269578,0.000000
4046.185545,3256.906145,-8963.317327,1110.308913
4046.185869,1776.494261,-8733.488677,0.000000
4046.186194,1110.308913,-9116.536426,518.144159
4046.186518,666.185348,-8427.050478,-222.061783
4046.186842,-370.102971,-8886.707777,370.102971
4046.187167,-518.144159,-8580.269578,-370.102971
4046.187491,-888.247130,-8503.660028,0.000000
4046.187815,-1406.391290,-8580.269578,-592.164754
4046.188140,-1702.473667,-8350.440928,-296.082377
4046.188464,-1036.288319,-8733.488677,-740.205942
4046.188788,-1110.308913,-8810.098227,-666.185348
4046.189113,-1258.350101,-8733.488677,-740.205942
4046.189437,-1480.411884,-8886.707777,-1258.350101
4046.189761,-1332.370696,-8886.707777,-518.144159
4046.190086,-1332.370696,-9116.536426,-962.267725
4046.190410,-1554.432478,-9039.926876,-740.205942
4046.190735,-1776.494261,-9039.926876,-592.164754
4046.191059,-1406.391290,-9116.536426,-518.144159
4046.191383,-1110.308913,-8580.269578,-740.205942
4046.191708,-592.164754,-8120.612279,-962.267725
4046.192032,592.164754,-9116.536426,-1036.288319
4046.192356,962.267725,-7890.783629,-592.164754
4046.192681,2220.617826,-8120.612279,-370.102971
4046.193005,3108.864956,-8427.050478,-666.185348
4046.193329,3627.009116,-8810.098227,-814.226536
4046.193654,3701.029710,-9116.536426,-444.123565
4046.193978,3404.947333,-8503.660028,-296.082377
4046.194302,2368.659014,-9499.584175,0.000000
4046.194627,1776.494261,-9422.974625,-148.041188
4046.194951,518.144159,-9193.145976,148.041188
4046.195276,-518.144159,-9116.536426,0.000000
4046.195600,-888.247130,-9116.536426,148.041188
4046.195924,-1036.288319,-8273.831378,-370.102971
4046.196249,-1110.308913,-8733.488677,74.020594
4046.196573,-1554.432478,-8044.002729,-518.144159
4046.196897,-666.185348,-8273.831378,-444.123565
4046.197222,-1110.308913,-8120.612279,-296.082377
4046.197546,-666.185348,-8350.440928,-444.123565
4046.197870,-888.247130,-8197.221829,-444.123565
4046.198195,0.000000,-8963.317327,0.000000
4046.198519,-1184.329507,-8503.660028,-666.185348
4046.198843,-666.185348,-8733.488677,-222.061783
4046.199168,-888.247130,-8120.612279,-740.205942
4046.199492,-666.185348,-7737.564530,148.041188
4046.199816,-1036.288319,-7890.783629,-740.205942
4046.200141,-444.123565,-8503.660028,0.000000
4046.200465,296.082377,-7431.126331,-444.123565
4046.200790,1258.350101,-8044.002729,148.041188
4046.201114,1406.391290,-7431.126331,0.000000
4046.201438,2738.761985,-8350.440928,148.041188
4046.201763,3478.967927,-7967.393179,-296.082377
4046.202087,3775.050304,-8503.660028,222.061783
4046.202411,4441.235652,-8120.612279,0.000000
4046.202736,4293.194464,-8580.269578,666.185348
4046.203060,3775.050304,-8810.098227,222.061783
4046.203384,3256.906145,-9346.365076,74.020594
4046.203709,2146.597232,-8886.707777,148.041188
4046.204033,1480.411884,-8963.317327,74.020594
4046.204357,370.102971,-8580.269578,0.000000
4046.204682,0.000000,-8886.707777,222.061783
4046.205006,-814.226536,-8350.440928,0.000000
4046.205330,-814.226536,-8656.879127,-666.185348
4046.205655,-1332.370696,-8197.221829,-888.247130
4046.205979,-888.247130,-8886.707777,-666.185348
4046.206304,-1332.370696,-8273.831378,-888.247130
4046.206628,-1184.329507,-8733.488677,-518.144159
4046.206952,-1184.329507,-8656.879127,-962.267725
4046.207277,-1258.350101,-9116.536426,-1110.308913
4046.207601,-1554.432478,-9039.926876,-1258.350101
4046.207925,-1406.391290,-9116.536426,-1258.350101
4046.208250,-1776.494261,-9039.926876,-888.247130
4046.208574,-1184.329507,-9269.755526,-814.226536
4046.208898,-962.267725,-8350.440928,-1110.308913
4046.209223,-296.082377,-8886.707777,-814.226536
4046.209547,148.041188,-8350.440928,-740.205942
4046.209871,740.205942,-8273.831378,-666.185348
4046.210196,1480.411884,-8733.488677,-1184.329507
4046.210520,2146.597232,-8503.660028,-740.205942
4046.210844,3701.029710,-8427.050478,-814.226536
4046.211169,3478.967927,-9269.755526,-592.164754
4046.211493,3627.009116,-9193.145976,-222.061783
4046.211818,3404.947333,-9193.145976,0.000000
4046.212142,2442.679609,-9499.584175,0.000000
4046.212466,2220.617826,-9652.803275,-222.061783
4046.212791,444.123565,-9269.755526,0.000000
4046.213115,-370.102971,-9193.145976,370.102971
4046.213439,-962.267725,-8810.098227,0.000000
4046.213764,-1924.535449,-9346.365076,222.061783
4046.214088,-1850.514855,-8810.098227,148.041188
4046.214412,-1850.514855,-8120.612279,-592.164754
4046.214737,-1110.308913,-8886.707777,-222.061783
4046.215061,-1554.432478,-8273.831378,0.000000
4046.215385,-592.164754,-8886.707777,-370.102971
4046.215710,-1036.288319,-8044.002729,-740.205942
4046.216034,-592.164754,-8580.269578,0.000000
4046.216358,-518.144159,-8427.050478,-666.185348
4046.216683,-222.061783,-8810.098227,-370.102971
4046.217007,-888.247130,-8503.660028,-666.185348
4046.217332,-296.082377,-8810.098227,-222.061783
4046.217656,-296.082377,-8427.050478,-592.164754
4046.217980,74.020594,-8273.831378,148.041188
4046.218305,148.041188,-7354.516781,-148.041188
4046.218629,962.267725,-8350.440928,370.102971
4046.218953,1332.370696,-7507.735880,-222.061783
4046.219278,2220.617826,-8503.660028,444.123565
4046.219602,2960.823768,-7890.783629,-296.082377
4046.219926,3997.112087,-8580.269578,222.061783
4046.220251,4441.235652,-8503.660028,0.000000
4046.220575,4367.215058,-9346.365076,444.123565
4046.220899,3775.050304,-8580.269578,-222.061783
4046.221224,2738.761985,-9193.145976,592.164754
4046.221548,1924.535449,-8580.269578,370.102971
4046.221872,962.267725,-9422.974625,222.061783
4046.222197,222.061783,-8733.488677,296.082377
4046.222521,0.000000,-8733.488677,148.041188
4046.222846,-666.185348,-8350.440928,-148.041188
4046.223170,-1184.329507,-8580.269578,-518.144159
4046.223494,-1258.350101,-8656.879127,-444.123565
4046.223819,-1554.432478,-8197.221829,-814.226536
4046.224143,-1406.391290,-8656.879127,-814.226536
4046.224467,-1332.370696,-8350.440928,-1110.308913
4046.224792,-1110.308913,-8886.707777,-888.247130
4046.225116,-1184.329507,-8580.269578,-1110.308913
4046.225440,-1554.432478,-9039.926876,-666.185348
4046.225765,-1332.370696,-8963.317327,-962.267725
4046.226089,-1480.411884,-9193.145976,-962.267725
4046.226413,-1406.391290,-9116.536426,-666.185348
4046.226738,-592.164754,-9039.926876,-1036.288319
4046.227062,-296.082377,-8580.269578,-740.205942
4046.227386,0.000000,-8273.831378,-592.164754
4046.227711,962.267725,-8733.488677,-1184.329507
4046.228035,1776.494261,-8427.050478,-592.164754
