#time,accel_x,accel_y,accel_z
4345.543296,666.185348,-8580.269578,-370.102971
4345.543620,518.144159,-8580.269578,-148.041188
4345.543945,592.164754,-8810.098227,0.000000
4345.544269,740.205942,-8733.488677,0.000000
4345.544594,518.144159,-8656.879127,0.000000
4345.544918,592.164754,-8580.269578,0.000000
4345.545243,370.102971,-8350.440928,148.041188
4345.545567,592.164754,-8120.612279,370.102971
4345.545892,296.082377,-8656.879127,148.041188
4345.546216,370.102971,-8580.269578,518.144159
4345.546541,518.144159,-8503.660028,370.102971
4345.546866,370.102971,-8580.269578,444.123565
4345.547190,518.144159,-8580.269578,370.102971
4345.547515,518.144159,-8580.269578,518.144159
4345.547839,518.144159,-8427.050478,592.164754
4345.548164,444.123565,-8503.660028,444.123565
4345.548488,888.247130,-8273.831378,222.061783
4345.548813,222.061783,-8044.002729,592.164754
4345.549137,222.061783,-8580.269578,518.144159
4345.549462,148.041188,-8656.879127,444.123565
4345.549786,444.123565,-8886.707777,518.144159
4345.550111,444.123565,-8580.269578,518.144159
4345.550435,296.082377,-8810.098227,888.247130
4345.550760,370.102971,-8656.879127,666.185348
4345.551084,370.102971,-8810.098227,740.205942
4345.551408,370.102971,-8580.269578,296.082377
4345.551733,444.123565,-8656.879127,518.144159
4345.552057,666.185348,-8427.050478,740.205942
4345.552381,444.123565,-8427.050478,444.123565
4345.552706,148.041188,-9116.536426,592.164754
4345.553030,296.082377,-8427.050478,296.082377
4345.553354,444.123565,-8810.098227,370.102971
4345.553679,222.061783,-8427.050478,222.061783
4345.554003,518.144159,-9346.365076,444.123565
4345.554328,370.102971,-8656.879127,222.061783
4345.554652,296.082377,-8733.488677,222.061783
4345.554976,592.164754,-8503.660028,74.020594
4345.555301,666.185348,-8810.098227,0.000000
4345.555625,444.123565,-8273.831378,0.000000
4345.555949,296.082377,-8656.879127,0.000000
4345.556274,148.041188,-8733.488677,-370.102971
4345.556598,444.123565,-8580.269578,-222.061783
4345.556922,888.247130,-8427.050478,-296.082377
4345.557247,518.144159,-8350.440928,-74.020594
4345.557571,592.164754,-8120.612279,0.000000
4345.557896,444.123565,-8580.269578,-222.061783
4345.558220,444.123565,-8503.660028,-592.164754
4345.558544,222.061783,-8656.879127,-370.102971
4345.558869,222.061783,-8580.269578,-444.123565
4345.559193,222.061783,-8120.612279,0.000000
4345.559517,-370.102971,-8656.879127,-592.164754
4345.559842,592.164754,-8733.488677,-666.185348
4345.560166,296.082377,-8350.440928,-518.144159
4345.560490,888.247130,-8503.660028,-814.226536
4345.560815,1036.288319,-8810.098227,-518.144159
4345.561139,962.267725,-8580.269578,-666.185348
4345.561463,518.144159,-8810.098227,-592.164754
4345.561788,740.205942,-8656.879127,-888.247130
4345.562112,666.185348,-8810.098227,-444.123565
4345.562437,222.061783,-8580.269578,-444.123565
4345.562761,370.102971,-8656.879127,-592.164754
4345.563085,222.061783,-8886.707777,-888.247130
4345.563410,444.123565,-8427.050478,-740.205942
4345.563734,592.164754,-8427.050478,-666.185348
4345.564058,518.144159,-8580.269578,-592.164754
4345.564383,592.164754,-8810.098227,-518.144159
4345.564707,740.205942,-8810.098227,-888.247130
4345.565031,444.123565,-8886.707777,-666.185348
4345.565356,444.123565,-9116.536426,-370.102971
4345.565680,666.185348,-9116.536426,-518.144159
4345.566005,370.102971,-8656.879127,-444.123565
4345.566329,296.082377,-9039.926876,-592.164754
4345.566653,296.082377,-8963.317327,-666.185348
4345.566978,0.000000,-9193.145976,-518.144159
4345.567302,74.020594,-8886.707777,-592.164754
4345.567626,148.041188,-9346.365076,-370.102971
4345.567951,296.082377,-9039.926876,-444.123565
4345.568275,962.267725,-9039.926876,-666.185348
4345.568599,444.123565,-8963.317327,-518.144159
4345.568924,518.144159,-8963.317327,-444.123565
4345.569248,518.144159,-8886.707777,-370.102971
4345.569572,518.144159,-8810.098227,-296.082377
4345.569897,296.082377,-8580.269578,-518.144159
4345.570221,0.000000,-8810.098227,-518.144159
4345.570546,148.041188,-8810.098227,-370.102971
4345.570870,370.102971,-8733.488677,-370.102971
4345.571194,148.041188,-8886.707777,222.061783
4345.571519,296.082377,-8733.488677,-370.102971
4345.571843,592.164754,-8733.488677,-370.102971
4345.572167,296.082377,-8733.488677,-370.102971
4345.572492,1110.308913,-8350.440928,0.000000
4345.572816,666.185348,-8580.269578,0.000000
4345.573140,592.164754,-8503.660028,0.000000
4345.573465,666.185348,-8503.660028,-444.123565
4345.573789,518.144159,-8886.707777,0.000000
4345.574114,740.205942,-8503.660028,-666.185348
4345.574438,518.144159,-8350.440928,-444.123565
4345.574762,518.144159,-8580.269578,-296.082377
4345.575087,592.164754,-8503.660028,0.000000
4345.575411,444.123565,-8810.098227,0.000000
4345.575735,814.226536,-8273.831378,-222.061783
4345.576060,888.247130,-8963.317327,-296.082377
4345.576384,888.247130,-8580.269578,0.000000
4345.576708,592.164754,-7967.393179,296.082377
4345.577033,666.185348,-8656.879127,-222.061783
4345.577357,814.226536,-8427.050478,0.000000
4345.577681,518.144159,-8810.098227,-148.041188
4345.578006,740.205942,-8810.098227,-148.041188
4345.578330,370.102971,-8580.269578,74.020594
4345.578655,518.144159,-8656.879127,222.061783
4345.578979,518.144159,-8273.831378,-148.041188
4345.579303,592.164754,-8963.317327,148.041188
4345.579628,296.082377,-8350.440928,296.082377
4345.579952,814.226536,-8427.050478,296.082377
4345.580276,444.123565,-8580.269578,148.041188
4345.580601,370.102971,-8427.050478,0.000000
4345.580925,962.267725,-8427.050478,148.041188
4345.581249,592.164754,-8656.879127,0.000000
4345.581574,296.082377,-8580.269578,222.061783
4345.581898,74.020594,-8733.488677,148.041188
4345.582223,296.082377,-8810.098227,0.000000
4345.582547,370.102971,-8503.660028,222.061783
4345.582871,444.123565,-8350.440928,-222.061783
4345.583196,0.000000,-8656.879127,0.000000
4345.583520,370.102971,-8197.221829,222.061783
4345.583844,0.000000,-8427.050478,444.123565
4345.584169,222.061783,-8656.879127,74.020594
4345.584493,296.082377,-8580.269578,148.041188
4345.584817,444.123565,-8580.269578,222.061783
4345.585142,370.102971,-7967.393179,296.082377
4345.585466,370.102971,-8733.488677,222.061783
4345.585791,444.123565,-8656.879127,148.041188
4345.586115,296.082377,-8350.440928,74.020594
4345.586439,518.144159,-8580.269578,-222.061783
4345.586764,296.082377,-8044.002729,74.020594
4345.587088,296.082377,-8350.440928,74.020594
4345.587412,296.082377,-8350.440928,0.000000
4345.587737,444.123565,-8350.440928,0.000000
4345.588061,444.123565,-8044.002729,-222.061783
4345.588385,592.164754,-8503.660028,74.020594
4345.588710,740.205942,-8350.440928,-296.082377
4345.589034,222.061783,-8810.098227,0.000000
4345.589358,518.144159,-8427.050478,74.020594
4345.589683,296.082377,-8963.317327,74.020594
4345.590007,222.061783,-8733.488677,0.000000
4345.590332,222.061783,-8503.660028,0.000000
4345.590656,148.041188,-8427.050478,0.000000
4345.590980,74.020594,-8580.269578,-296.082377
4345.591305,518.144159,-8656.879127,74.020594
4345.591629,370.102971,-8427.050478,-296.082377
4345.591953,370.102971,-8810.098227,74.020594
4345.592278,370.102971,-8120.612279,-222.061783
4345.592602,518.144159,-9193.145976,0.000000
4345.592926,222.061783,-8580.269578,-222.061783
4345.593251,148.041188,-8656.879127,0.000000
4345.593575,222.061783,-8273.831378,-148.041188
4345.593900,370.102971,-8197.221829,0.000000
4345.594224,222.061783,-8733.488677,-148.041188
4345.594548,296.082377,-8580.269578,-296.082377
4345.594873,444.123565,-8580.269578,-74.020594
4345.595197,296.082377,-8580.269578,-296.082377
4345.595521,592.164754,-8656.879127,-296.082377
4345.595846,444.123565,-8580.269578,-222.061783
4345.596170,148.041188,-8427.050478,0.000000
4345.596494,518.144159,-8427.050478,-666.185348
4345.596819,518.144159,-8580.269578,-518.144159
4345.597143,592.164754,-8580.269578,-296.082377
4345.597467,296.082377,-8503.660028,-148.041188
4345.597792,370.102971,-8810.098227,-148.041188
4345.598116,592.164754,-8656.879127,-296.082377
4345.598441,444.123565,-8656.879127,-222.061783
4345.598765,444.123565,-8350.440928,-370.102971
4345.599089,444.123565,-8656.879127,0.000000
4345.599414,222.061783,-8733.488677,-148.041188
4345.599738,444.123565,-8273.831378,-370.102971
4345.600062,222.061783,-8273.831378,-444.123565
4345.600387,148.041188,-8810.098227,-148.041188
4345.600711,592.164754,-8197.221829,-148.041188
4345.601035,222.061783,-8580.269578,0.000000
4345.601360,222.061783,-8350.440928,-370.102971
4345.601684,296.082377,-8580.269578,0.000000
4345.602009,222.061783,-8503.660028,-148.041188
4345.602333,296.082377,-8810.098227,0.000000
4345.602657,222.061783,-8886.707777,0.000000
4345.602982,370.102971,-8886.707777,0.000000
4345.603306,444.123565,-8580.269578,0.000000
4345.603630,222.061783,-8427.050478,-518.144159
4345.603955,518.144159,-8886.707777,-148.041188
4345.604279,518.144159,-8350.440928,0.000000
4345.604603,222.061783,-8656.879127,0.000000
4345.604928,296.082377,-8503.660028,-518.144159
4345.605252,296.082377,-8427.050478,-370.102971
4345.605576,444.123565,-8656.879127,-370.102971
4345.605901,222.061783,-8580.269578,-444.123565
4345.606225,296.082377,-8503.660028,-296.082377
4345.606550,444.123565,-8810.098227,-814.226536
4345.606874,370.102971,-8350.440928,-666.185348
4345.607198,444.123565,-8427.050478,-296.082377
4345.607523,592.164754,-8503.660028,-370.102971
4345.607847,666.185348,-8580.269578,0.000000
4345.608171,370.102971,-8580.269578,-444.123565
4345.608496,444.123565,-8580.269578,-740.205942
4345.608820,518.144159,-8503.660028,-888.247130
4345.609144,444.123565,-9039.926876,-370.102971
4345.609469,0.000000,-8427.050478,-518.144159
4345.609793,370.102971,-8350.440928,-962.267725
4345.610118,296.082377,-8580.269578,-518.144159
4345.610442,296.082377,-8350.440928,-1110.308913
4345.610766,0.000000,-8810.098227,-814.226536
4345.611091,518.144159,-8580.269578,-444.123565
4345.611415,518.144159,-8427.050478,-666.185348
4345.611739,518.144159,-8580.269578,-962.267725
4345.612064,222.061783,-8350.440928,-444.123565
4345.612388,370.102971,-8733.488677,-740.205942
4345.612712,222.061783,-8580.269578,-962.267725
4345.613037,148.041188,-8580.269578,-888.247130
4345.613361,148.041188,-8427.050478,-962.267725
4345.613686,222.061783,-8656.879127,-814.226536
4345.614010,222.061783,-8733.488677,-740.205942
4345.614334,592.164754,-8656.879127,-814.226536
4345.614659,222.061783,-8350.440928,-666.185348
4345.614983,148.041188,-8580.269578,-962.267725
4345.615307,148.041188,-8580.269578,-814.226536
4345.615632,592.164754,-8427.050478,-666.185348
4345.615956,518.144159,-8656.879127,-740.205942
4345.616280,592.164754,-8580.269578,-370.102971
4345.616605,370.102971,-8427.050478,-592.164754
4345.616929,296.082377,-8427.050478,-592.164754
4345.617253,148.041188,-8656.879127,-518.144159
4345.617578,148.041188,-8350.440928,-666.185348
4345.617902,444.123565,-8503.660028,-592.164754
4345.618227,0.000000,-8350.440928,-444.123565
4345.618551,148.041188,-8580.269578,-666.185348
4345.618875,444.123565,-8427.050478,-666.185348
4345.619200,740.205942,-8810.098227,-518.144159
4345.619524,592.164754,-8886.707777,-814.226536
4345.619848,444.123565,-8427.050478,-740.205942
4345.620173,370.102971,-8580.269578,-370.102971
4345.620497,148.041188,-8503.660028,-370.102971
4345.620821,296.082377,-8886.707777,-666.185348
4345.621146,370.102971,-8733.488677,-592.164754
4345.621470,518.144159,-8580.269578,-666.185348
4345.621795,222.061783,-8656.879127,-740.205942
4345.622119,444.123565,-8886.707777,-518.144159
4345.622443,296.082377,-8580.269578,-666.185348
4345.622768,518.144159,-8503.660028,-666.185348
4345.623092,666.185348,-8580.269578,-666.185348
4345.623416,444.123565,-8197.221829,-222.061783
4345.623741,444.123565,-8503.660028,-518.144159
4345.624065,444.123565,-8656.879127,-592.164754
4345.624389,444.123565,-8656.879127,-666.185348
4345.624714,518.144159,-9039.926876,-444.123565
4345.625038,592.164754,-8580.269578,-370.102971
4345.625362,444.123565,-8886.707777,-666.185348
4345.625687,592.164754,-8733.488677,-666.185348
4345.626011,888.247130,-8656.879127,-666.185348
4345.626336,666.185348,-8886.707777,-592.164754
4345.626660,740.205942,-8810.098227,-444.123565
4345.626984,814.226536,-8580.269578,-518.144159
4345.627309,888.247130,-8963.317327,-592.164754
4345.627633,962.267725,-8886.707777,-962.267725
4345.627957,666.185348,-8963.317327,-592.164754
4345.628282,814.226536,-8886.707777,-888.247130
4345.628606,518.144159,-8733.488677,-592.164754
4345.628930,444.123565,-8810.098227,-814.226536
4345.629255,592.164754,-8810.098227,-592.164754
4345.629579,666.185348,-8503.660028,-814.226536
4345.629904,518.144159,-9116.536426,-888.247130
4345.630228,592.164754,-8810.098227,-814.226536
4345.630552,962.267725,-8810.098227,-962.267725
4345.630877,740.205942,-8810.098227,-740.205942
4345.631201,888.247130,-8810.098227,-1184.329507
4345.631525,814.226536,-8963.317327,-962.267725
4345.631850,1184.329507,-8733.488677,-740.205942
4345.632174,666.185348,-8886.707777,-1036.288319
4345.632498,592.164754,-8886.707777,-1332.370696
4345.632823,592.164754,-8733.488677,-1110.308913
4345.633147,666.185348,-8810.098227,-962.267725
4345.633471,740.205942,-8656.879127,-1036.288319
4345.633796,592.164754,-8733.488677,-740.205942
4345.634120,592.164754,-8733.488677,-962.267725
4345.634445,296.082377,-9116.536426,-666.185348
4345.634769,666.185348,-8963.317327,-1184.329507
4345.635093,814.226536,-8733.488677,-888.247130
4345.635418,740.205942,-8503.660028,-814.226536
4345.635742,740.205942,-9039.926876,-740.205942
4345.636066,444.123565,-8503.660028,-814.226536
4345.636391,222.061783,-8733.488677,-666.185348
4345.636715,666.185348,-8427.050478,-962.267725
4345.637039,370.102971,-8580.269578,-666.185348
4345.637364,222.061783,-8580.269578,-370.102971
4345.637688,592.164754,-8656.879127,-444.123565
4345.638013,518.144159,-8580.269578,-518.144159
4345.638337,518.144159,-8656.879127,-296.082377
4345.638661,444.123565,-8350.440928,-370.102971
4345.638986,666.185348,-8580.269578,-666.185348
4345.639310,370.102971,-8580.269578,-518.144159
4345.639634,518.144159,-8503.660028,-370.102971
4345.639959,296.082377,-8197.221829,-518.144159
4345.640283,592.164754,-8656.879127,-370.102971
4345.640607,148.041188,-8427.050478,0.000000
4345.640932,370.102971,-8044.002729,-296.082377
4345.641256,518.144159,-8350.440928,-148.041188
4345.641581,370.102971,-8120.612279,-296.082377
4345.641905,222.061783,-8580.269578,-148.041188
4345.642229,444.123565,-8503.660028,-222.061783
4345.642554,518.144159,-8503.660028,0.000000
4345.642878,74.020594,-8580.269578,-148.041188
4345.643202,296.082377,-8427.050478,0.000000
4345.643527,370.102971,-8197.221829,0.000000
4345.643851,370.102971,-8197.221829,-148.041188
4345.644175,370.102971,-8120.612279,0.000000
4345.644500,518.144159,-7814.174080,222.061783
4345.644824,370.102971,-8273.831378,0.000000
4345.645148,518.144159,-8120.612279,0.000000
4345.645473,222.061783,-8810.098227,74.020594
4345.645797,518.144159,-7890.783629,0.000000
4345.646122,222.061783,-8580.269578,0.000000
4345.646446,148.041188,-8580.269578,0.000000
4345.646770,370.102971,-8273.831378,74.020594
4345.647095,444.123565,-8656.879127,-222.061783
4345.647419,592.164754,-9116.536426,148.041188
4345.647743,370.102971,-8733.488677,0.000000
4345.648068,444.123565,-8656.879127,0.000000
4345.648392,74.020594,-8427.050478,0.000000
4345.648716,74.020594,-8963.317327,222.061783
4345.649041,444.123565,-8656.879127,0.000000
4345.649365,444.123565,-8350.440928,0.000000
4345.649690,592.164754,-8656.879127,0.000000
4345.650014,222.061783,-8656.879127,0.000000
4345.650338,222.061783,-8197.221829,222.061783
4345.650663,592.164754,-8503.660028,-148.041188
4345.650987,370.102971,-8656.879127,-296.082377
4345.651311,370.102971,-8273.831378,-148.041188
4345.651635,444.123565,-8273.831378,-444.123565
4345.651960,370.102971,-8120.612279,222.061783
4345.652284,592.164754,-8656.879127,-370.102971
4345.652608,592.164754,-8656.879127,-296.082377
4345.652932,518.144159,-8350.440928,-222.061783
4345.653257,148.041188,-8427.050478,-148.041188
4345.653581,518.144159,-8733.488677,-222.061783
4345.653905,444.123565,-8350.440928,-222.061783
4345.654230,518.144159,-8733.488677,-518.144159
4345.654554,518.144159,-8580.269578,-370.102971
4345.654878,518.144159,-8580.269578,-370.102971
4345.655202,296.082377,-8503.660028,-444.123565
4345.655527,740.205942,-8120.612279,-296.082377
4345.655851,222.061783,-9346.365076,-518.144159
4345.656175,666.185348,-8503.660028,0.000000
4345.656500,296.082377,-8273.831378,-370.102971
4345.656824,444.123565,-8580.269578,-444.123565
4345.657148,444.123565,-8427.050478,-222.061783
4345.657472,222.061783,-8580.269578,-296.082377
4345.657797,518.144159,-8580.269578,-444.123565
4345.658121,296.082377,-8580.269578,-296.082377
4345.658445,296.082377,-8733.488677,-518.144159
4345.658769,0.000000,-8503.660028,74.020594
4345.659094,222.061783,-8580.269578,-296.082377
4345.659418,296.082377,-8503.660028,-370.102971
4345.659742,296.082377,-8427.050478,0.000000
4345.660067,148.041188,-8963.317327,74.020594
4345.660391,518.144159,-8886.707777,-592.164754
4345.660715,518.144159,-8656.879127,-370.102971
4345.661039,444.123565,-8656.879127,-444.123565
4345.661364,296.082377,-8733.488677,-444.123565
4345.661688,148.041188,-8656.879127,-370.102971
4345.662012,444.123565,-8580.269578,-296.082377
4345.662336,370.102971,-8197.221829,-296.082377
4345.662661,370.102971,-8886.707777,-518.144159
4345.662985,370.102971,-8733.488677,-814.226536
4345.663309,444.123565,-8273.831378,-370.102971
4345.663634,296.082377,-8580.269578,-444.123565
4345.663958,518.144159,-8580.269578,-518.144159
4345.664282,370.102971,-8580.269578,-222.061783
4345.664606,518.144159,-8656.879127,-370.102971
4345.664931,444.123565,-8580.269578,-518.144159
4345.665255,296.082377,-8656.879127,-296.082377
4345.665579,666.185348,-8197.221829,-370.102971
4345.665904,296.082377,-8810.098227,-148.041188
4345.666228,296.082377,-8503.660028,-592.164754
4345.666552,222.061783,-8427.050478,-296.082377
4345.666876,296.082377,-8273.831378,-370.102971
4345.667201,0.000000,-9039.926876,222.061783
4345.667525,518.144159,-8273.831378,-444.123565
4345.667849,740.205942,-8580.269578,-370.102971
4345.668173,592.164754,-8273.831378,-296.082377
4345.668498,518.144159,-8656.879127,-222.061783
4345.668822,444.123565,-8503.660028,-370.102971
4345.669146,296.082377,-8427.050478,-444.123565
4345.669471,222.061783,-8503.660028,-518.144159
4345.669795,222.061783,-8886.707777,-444.123565
4345.670119,222.061783,-8273.831378,74.020594
4345.670443,222.061783,-8810.098227,0.000000
4345.670768,222.061783,-8350.440928,-370.102971
4345.671092,222.061783,-8503.660028,-296.082377
4345.671416,370.102971,-8733.488677,-148.041188
4345.671741,296.082377,-8656.879127,-222.061783
4345.672065,592.164754,-8656.879127,0.000000
4345.672389,296.082377,-8427.050478,74.020594
4345.672713,370.102971,-8656.879127,-222.061783
4345.673038,370.102971,-8580.269578,0.000000
4345.673362,666.185348,-8350.440928,0.000000
4345.673686,518.144159,-8427.050478,74.020594
4345.674010,296.082377,-8503.660028,0.000000
4345.674335,296.082377,-8350.440928,-148.041188
4345.674659,518.144159,-8350.440928,-222.061783
4345.674983,592.164754,-8503.660028,-148.041188
4345.675308,444.123565,-8656.879127,74.020594
4345.675632,444.123565,-8350.440928,296.082377
4345.675956,444.123565,-8656.879127,-148.041188
4345.676280,444.123565,-8503.660028,-148.041188
4345.676605,296.082377,-9039.926876,0.000000
4345.676929,444.123565,-8886.707777,-222.061783
4345.677253,518.144159,-8810.098227,0.000000
4345.677578,518.144159,-8580.269578,-296.082377
4345.677902,370.102971,-8656.879127,0.000000
4345.678226,518.144159,-8580.269578,-370.102971
4345.678550,592.164754,-8733.488677,-148.041188
4345.678875,370.102971,-8580.269578,-296.082377
4345.679199,370.102971,-8810.098227,0.000000
4345.679523,296.082377,-8503.660028,0.000000
4345.679847,148.041188,-9116.536426,444.123565
4345.680172,592.164754,-8656.879127,-370.102971
4345.680496,444.123565,-8503.660028,0.000000
4345.680820,518.144159,-8427.050478,-296.082377
4345.681145,296.082377,-8656.879127,0.000000
4345.681469,518.144159,-8427.050478,-148.041188
4345.681793,370.102971,-8886.707777,-444.123565
4345.682117,518.144159,-8656.879127,-296.082377
4345.682442,296.082377,-8733.488677,-148.041188
4345.682766,740.205942,-8886.707777,-296.082377
4345.683090,370.102971,-8580.269578,0.000000
4345.683415,518.144159,-8963.317327,-222.061783
4345.683739,444.123565,-8886.707777,-370.102971
4345.684063,666.185348,-8656.879127,-296.082377
4345.684387,666.185348,-8963.317327,0.000000
4345.684712,518.144159,-8656.879127,-444.123565
4345.685036,518.144159,-8580.269578,-296.082377
4345.685360,518.144159,-8733.488677,-296.082377
4345.685684,666.185348,-8886.707777,0.000000
4345.686009,296.082377,-8886.707777,0.000000
4345.686333,444.123565,-8963.317327,-296.082377
4345.686657,222.061783,-8580.269578,-222.061783
4345.686982,962.267725,-8427.050478,0.000000
4345.687306,518.144159,-8810.098227,0.000000
4345.687630,444.123565,-8580.269578,74.020594
4345.687954,222.061783,-8810.098227,-296.082377
4345.688279,444.123565,-8503.660028,-148.041188
4345.688603,518.144159,-8733.488677,-222.061783
4345.688927,370.102971,-8886.707777,-222.061783
4345.689252,592.164754,-8656.879127,0.000000
4345.689576,444.123565,-8810.098227,0.000000
4345.689900,370.102971,-8733.488677,0.000000
4345.690224,296.082377,-8580.269578,-370.102971
4345.690549,296.082377,-8810.098227,-296.082377
4345.690873,518.144159,-8503.660028,-148.041188
4345.691197,592.164754,-9039.926876,-222.061783
4345.691521,444.123565,-8810.098227,-148.041188
4345.691846,444.123565,-8503.660028,-296.082377
4345.692170,296.082377,-8886.707777,0.000000
4345.692494,222.061783,-8810.098227,-296.082377
4345.692819,148.041188,-8580.269578,74.020594
4345.693143,74.020594,-8580.269578,-296.082377
4345.693467,444.123565,-8503.660028,-296.082377
4345.693791,518.144159,-8733.488677,-148.041188
4345.694116,74.020594,-8963.317327,148.041188
4345.694440,296.082377,-8273.831378,0.000000
4345.694764,222.061783,-8656.879127,-444.123565
4345.695089,444.123565,-8733.488677,-222.061783
4345.695413,444.123565,-8886.707777,0.000000
4345.695737,444.123565,-9039.926876,-370.102971
4345.696061,222.061783,-8580.269578,0.000000
4345.696386,444.123565,-8810.098227,0.000000
4345.696710,370.102971,-8580.269578,0.000000
4345.697034,0.000000,-8273.831378,-148.041188
4345.697358,444.123565,-8580.269578,-370.102971
4345.697683,740.205942,-8503.660028,-222.061783
4345.698007,518.144159,-8503.660028,0.000000
4345.698331,222.061783,-7967.393179,-814.226536
4345.698656,222.061783,-8350.440928,-74.020594
4345.698980,370.102971,-8580.269578,-370.102971
4345.699304,296.082377,-8580.269578,-592.164754
4345.699628,148.041188,-8733.488677,0.000000
4345.699953,296.082377,-8886.707777,-148.041188
4345.700277,74.020594,-8503.660028,-370.102971
4345.700601,222.061783,-8580.269578,-444.123565
4345.700925,518.144159,-8580.269578,-518.144159
4345.701250,222.061783,-8656.879127,-444.123565
4345.701574,222.061783,-8656.879127,-518.144159
4345.701898,296.082377,-8656.879127,-518.144159
4345.702223,370.102971,-8503.660028,-370.102971
4345.702547,222.061783,-8656.879127,-74.020594
4345.702871,222.061783,-8733.488677,-370.102971
4345.703195,148.041188,-8656.879127,0.000000
4345.703520,370.102971,-8656.879127,-518.144159
4345.703844,148.041188,-8503.660028,-370.102971
4345.704168,148.041188,-8350.440928,-666.185348
4345.704493,222.061783,-8656.879127,-296.082377
4345.704817,518.144159,-8350.440928,-444.123565
4345.705141,74.020594,-8580.269578,-370.102971
4345.705465,148.041188,-8197.221829,-444.123565
4345.705790,222.061783,-8580.269578,-370.102971
4345.706114,296.082377,-8503.660028,-370.102971
4345.706438,370.102971,-8580.269578,-444.123565
4345.706762,518.144159,-8810.098227,-518.144159
4345.707087,444.123565,-8656.879127,-370.102971
4345.707411,296.082377,-8733.488677,-370.102971
4345.707735,518.144159,-8580.269578,-518.144159
4345.708060,370.102971,-8580.269578,-296.082377
4345.708384,370.102971,-8810.098227,-444.123565
4345.708708,222.061783,-8580.269578,-518.144159
4345.709032,370.102971,-8503.660028,-518.144159
4345.709357,370.102971,-8273.831378,-518.144159
4345.709681,148.041188,-8886.707777,0.000000
4345.710005,222.061783,-8427.050478,0.000000
4345.710330,222.061783,-8427.050478,-296.082377
4345.710654,592.164754,-8656.879127,-222.061783
4345.710978,370.102971,-8656.879127,-148.041188
4345.711302,370.102971,-8656.879127,-222.061783
4345.711627,444.123565,-8120.612279,-444.123565
4345.711951,370.102971,-8427.050478,-296.082377
4345.712275,370.102971,-8656.879127,-592.164754
4345.712599,518.144159,-8580.269578,-444.123565
4345.712924,592.164754,-8427.050478,-740.205942
4345.713248,296.082377,-8810.098227,0.000000
4345.713572,222.061783,-8427.050478,-444.123565
4345.713897,814.226536,-7890.783629,-370.102971
4345.714221,370.102971,-8656.879127,-148.041188
4345.714545,222.061783,-8580.269578,-222.061783
4345.714869,296.082377,-8580.269578,-518.144159
4345.715194,518.144159,-8580.269578,-148.041188
4345.715518,222.061783,-8350.440928,-666.185348
4345.715842,518.144159,-8656.879127,-518.144159
4345.716167,444.123565,-8350.440928,-370.102971
4345.716491,444.123565,-8810.098227,-370.102971
4345.716815,444.123565,-8503.660028,-370.102971
4345.717139,518.144159,-8656.879127,-296.082377
4345.717464,370.102971,-8656.879127,-592.164754
4345.717788,518.144159,-8810.098227,-370.102971
4345.718112,1036.288319,-8350.440928,-592.164754
4345.718436,592.164754,-8733.488677,-370.102971
4345.718761,666.185348,-8120.612279,-370.102971
4345.719085,296.082377,-8580.269578,0.000000
4345.719409,296.082377,-8733.488677,0.000000
4345.719734,444.123565,-8427.050478,-296.082377
4345.720058,518.144159,-8580.269578,-370.102971
4345.720382,444.123565,-8733.488677,-296.082377
4345.720706,444.123565,-8503.660028,-444.123565
4345.721031,296.082377,-8503.660028,0.000000
4345.721355,518.144159,-8580.269578,-444.123565
4345.721679,444.123565,-8733.488677,-444.123565
4345.722004,444.123565,-8503.660028,-370.102971
4345.722328,518.144159,-8044.002729,0.000000
4345.722652,518.144159,-8733.488677,-592.164754
4345.722976,592.164754,-8580.269578,-444.123565
4345.723301,518.144159,-8733.488677,-370.102971
4345.723625,444.123565,-8656.879127,-666.185348
4345.723949,518.144159,-8350.440928,-222.061783
4345.724273,444.123565,-8810.098227,-370.102971
4345.724598,518.144159,-8656.879127,-444.123565
4345.724922,518.144159,-8503.660028,-592.164754
4345.725246,666.185348,-8656.879127,-592.164754
4345.725571,740.205942,-8197.221829,-518.144159
4345.725895,740.205942,-8580.269578,-444.123565
4345.726219,444.123565,-8656.879127,-370.102971
4345.726543,1110.308913,-8350.440928,-518.144159
4345.726868,814.226536,-8656.879127,-592.164754
4345.727192,592.164754,-8656.879127,-592.164754
4345.727516,518.144159,-8656.879127,-518.144159
4345.727841,666.185348,-8503.660028,-370.102971
4345.728165,666.185348,-8427.050478,-444.123565
4345.728489,666.185348,-8350.440928,-666.185348
4345.728813,666.185348,-8810.098227,-592.164754
4345.729138,444.123565,-8044.002729,-444.123565
4345.729462,888.247130,-8810.098227,-148.041188
4345.729786,666.185348,-8350.440928,-444.123565
4345.730110,814.226536,-8580.269578,-592.164754
4345.730435,740.205942,-8350.440928,-740.205942
4345.730759,962.267725,-8810.098227,-518.144159
4345.731083,444.123565,-8503.660028,-444.123565
4345.731408,592.164754,-8503.660028,-444.123565
4345.731732,666.185348,-8580.269578,-592.164754
4345.732056,666.185348,-8503.660028,-518.144159
4345.732380,444.123565,-8503.660028,-740.205942
4345.732705,888.247130,-8503.660028,-592.164754
4345.733029,592.164754,-8733.488677,-592.164754
4345.733353,592.164754,-8503.660028,-444.123565
4345.733677,740.205942,-8886.707777,-888.247130
4345.734002,666.185348,-8580.269578,-592.164754
4345.734326,444.123565,-8427.050478,-518.144159
4345.734650,666.185348,-8580.269578,-740.205942
4345.734975,518.144159,-8656.879127,-296.082377
4345.735299,740.205942,-8273.831378,-592.164754
4345.735623,444.123565,-8810.098227,-666.185348
4345.735947,666.185348,-8656.879127,-666.185348
4345.736272,296.082377,-8733.488677,-444.123565
4345.736596,222.061783,-8886.707777,0.000000
4345.736920,518.144159,-8580.269578,-592.164754
4345.737245,740.205942,-8886.707777,-814.226536
4345.737569,444.123565,-8503.660028,-518.144159
4345.737893,740.205942,-9576.193725,-296.082377
4345.738217,518.144159,-8810.098227,-666.185348
4345.738542,444.123565,-8580.269578,-444.123565
4345.738866,370.102971,-8580.269578,-296.082377
4345.739190,518.144159,-9193.145976,-518.144159
4345.739514,518.144159,-8350.440928,-592.164754
4345.739839,444.123565,-8656.879127,-518.144159
4345.740163,222.061783,-8427.050478,-740.205942
4345.740487,518.144159,-8963.317327,-370.102971
4345.740812,0.000000,-8503.660028,-888.247130
4345.741136,296.082377,-8886.707777,-148.041188
4345.741460,74.020594,-8886.707777,-444.123565
4345.741784,444.123565,-8963.317327,-370.102971
4345.742109,370.102971,-8273.831378,-888.247130
4345.742433,592.164754,-8656.879127,-444.123565
4345.742757,518.144159,-8810.098227,-592.164754
4345.743082,518.144159,-8580.269578,-592.164754
4345.743406,518.144159,-8733.488677,-592.164754
4345.743730,296.082377,-8733.488677,-592.164754
4345.744054,666.185348,-8656.879127,-814.226536
4345.744379,444.123565,-8580.269578,-740.205942
4345.744703,518.144159,-8810.098227,-296.082377
4345.745027,666.185348,-8810.098227,-814.226536
4345.745351,444.123565,-8886.707777,-296.082377
4345.745676,222.061783,-8273.831378,-148.041188
4345.746000,296.082377,-8886.707777,-444.123565
4345.746324,444.123565,-9346.365076,-370.102971
4345.746649,592.164754,-8580.269578,-370.102971
4345.746973,222.061783,-8580.269578,-518.144159
4345.747297,222.061783,-8580.269578,-592.164754
4345.747621,444.123565,-8503.660028,-370.102971
4345.747946,370.102971,-8656.879127,-296.082377
4345.748270,370.102971,-9039.926876,-222.061783
4345.748594,444.123565,-8580.269578,-518.144159
4345.748919,518.144159,-8427.050478,-148.041188
4345.749243,518.144159,-8733.488677,0.000000
4345.749567,444.123565,-8733.488677,-592.164754
4345.749891,296.082377,-8350.440928,-370.102971
4345.750216,148.041188,-8580.269578,0.000000
4345.750540,148.041188,-9346.365076,-296.082377
4345.750864,518.144159,-8733.488677,-518.144159
4345.751189,592.164754,-8580.269578,-518.144159
4345.751513,444.123565,-8580.269578,-222.061783
4345.751837,518.144159,-8350.440928,-518.144159
4345.752162,370.102971,-8503.660028,-444.123565
4345.752486,518.144159,-8273.831378,-370.102971
4345.752810,444.123565,-8580.269578,-296.082377
4345.753135,370.102971,-8886.707777,-518.144159
4345.753459,74.020594,-8580.269578,-148.041188
4345.753784,148.041188,-8733.488677,-296.082377
4345.754108,296.082377,-8580.269578,-148.041188
4345.754432,296.082377,-8580.269578,-296.082377
4345.754757,592.164754,-8733.488677,-370.102971
4345.755081,444.123565,-8273.831378,-370.102971
4345.755405,370.102971,-8733.488677,-222.061783
4345.755730,888.247130,-8580.269578,-444.123565
4345.756054,666.185348,-8350.440928,-444.123565
4345.756378,296.082377,-9039.926876,0.000000
4345.756703,370.102971,-8503.660028,-444.123565
4345.757027,296.082377,-8427.050478,-222.061783
4345.757352,222.061783,-8733.488677,-370.102971
4345.757676,296.082377,-8810.098227,222.061783
4345.758000,222.061783,-8580.269578,-518.144159
4345.758325,444.123565,-8503.660028,0.000000
4345.758649,370.102971,-8656.879127,-148.041188
4345.758973,222.061783,-8503.660028,-518.144159
4345.759298,444.123565,-8810.098227,-444.123565
4345.759622,370.102971,-8427.050478,-148.041188
4345.759947,444.123565,-8810.098227,-444.123565
4345.760271,148.041188,-8427.050478,-296.082377
4345.760595,370.102971,-8503.660028,0.000000
4345.760920,148.041188,-8350.440928,-296.082377
4345.761244,370.102971,-8810.098227,-370.102971
4345.761568,296.082377,-8656.879127,-444.123565
4345.761893,148.041188,-8963.317327,-296.082377
4345.762217,444.123565,-8427.050478,-444.123565
4345.762541,444.123565,-8580.269578,-296.082377
4345.762866,370.102971,-8810.098227,-296.082377
4345.763190,592.164754,-8350.440928,-370.102971
4345.763515,592.164754,-8580.269578,-444.123565
4345.763839,444.123565,-8427.050478,-370.102971
4345.764163,222.061783,-8580.269578,-370.102971
4345.764488,296.082377,-8656.879127,-370.102971
4345.764812,888.247130,-9116.536426,74.020594
4345.765136,444.123565,-8733.488677,-592.164754
4345.765461,222.061783,-8733.488677,-296.082377
4345.765785,222.061783,-8503.660028,-518.144159
4345.766110,370.102971,-8810.098227,74.020594
4345.766434,222.061783,-8350.440928,-296.082377
4345.766758,518.144159,-8963.317327,-370.102971
4345.767083,592.164754,-8733.488677,-444.123565
4345.767407,444.123565,-8503.660028,0.000000
4345.767731,518.144159,-8656.879127,-370.102971
4345.768056,444.123565,-8656.879127,-222.061783
4345.768380,666.185348,-8656.879127,-296.082377
4345.768704,518.144159,-8580.269578,-518.144159
4345.769029,962.267725,-9193.145976,-666.185348
4345.769353,296.082377,-8656.879127,-296.082377
4345.769678,444.123565,-8580.269578,-370.102971
4345.770002,148.041188,-8427.050478,-296.082377
4345.770326,518.144159,-8886.707777,-592.164754
4345.770651,222.061783,-8503.660028,-148.041188
4345.770975,222.061783,-8427.050478,-222.061783
4345.771299,518.144159,-8580.269578,-296.082377
4345.771624,592.164754,-8580.269578,-296.082377
4345.771948,518.144159,-8886.707777,0.000000
4345.772273,444.123565,-8656.879127,-592.164754
4345.772597,518.144159,-8810.098227,-296.082377
4345.772921,148.041188,-8427.050478,-444.123565
4345.773246,666.185348,-8810.098227,-370.102971
4345.773570,222.061783,-8580.269578,-296.082377
4345.773894,296.082377,-8963.317327,-296.082377
4345.774219,592.164754,-8427.050478,-222.061783
4345.774543,444.123565,-8733.488677,0.000000
4345.774867,370.102971,-8273.831378,-370.102971
4345.775192,444.123565,-8503.660028,-296.082377
4345.775516,444.123565,-8427.050478,-518.144159
4345.775841,518.144159,-8733.488677,0.000000
4345.776165,148.041188,-8427.050478,-740.205942
4345.776489,296.082377,-8733.488677,0.000000
4345.776814,74.020594,-8273.831378,-370.102971
4345.777138,444.123565,-8886.707777,-518.144159
4345.777462,444.123565,-8044.002729,0.000000
4345.777787,444.123565,-8273.831378,0.000000
4345.778111,592.164754,-8733.488677,-296.082377
4345.778436,370.102971,-8580.269578,-296.082377
4345.778760,518.144159,-8810.098227,-222.061783
4345.779084,518.144159,-8733.488677,-370.102971
4345.779409,592.164754,-8427.050478,-222.061783
4345.779733,444.123565,-8427.050478,-148.041188
4345.780057,444.123565,-8656.879127,-222.061783
4345.780382,296.082377,-7967.393179,-296.082377
4345.780706,518.144159,-8886.707777,-444.123565
4345.781030,444.123565,-8503.660028,-222.061783
4345.781355,370.102971,-8350.440928,-444.123565
4345.781679,222.061783,-8580.269578,-296.082377
4345.782004,370.102971,-8350.440928,-222.061783
4345.782328,740.205942,-8733.488677,-592.164754
4345.782652,148.041188,-8580.269578,-296.082377
4345.782977,370.102971,-8656.879127,0.000000
4345.783301,296.082377,-8580.269578,-666.185348
4345.783625,370.102971,-8503.660028,0.000000
4345.783950,518.144159,-8503.660028,-370.102971
4345.784274,518.144159,-8656.879127,-296.082377
4345.784599,666.185348,-7890.783629,-518.144159
4345.784923,296.082377,-8350.440928,-296.082377
4345.785247,370.102971,-8197.221829,-444.123565
4345.785572,444.123565,-8503.660028,-296.082377
4345.785896,444.123565,-8580.269578,0.000000
4345.786220,518.144159,-8580.269578,0.000000
4345.786545,370.102971,-8656.879127,-296.082377
4345.786869,296.082377,-8427.050478,-296.082377
4345.787193,518.144159,-8427.050478,-444.123565
4345.787518,222.061783,-8273.831378,0.000000
4345.787842,666.185348,-8427.050478,-296.082377
4345.788167,444.123565,-8120.612279,-222.061783
4345.788491,296.082377,-8503.660028,-296.082377
4345.788815,148.041188,-8350.440928,-296.082377
4345.789140,592.164754,-8197.221829,-296.082377
4345.789464,444.123565,-8580.269578,-296.082377
4345.789788,222.061783,-8733.488677,-296.082377
4345.790113,444.123565,-8733.488677,-222.061783
4345.790437,370.102971,-8733.488677,0.000000
4345.790762,666.185348,-8350.440928,-296.082377
4345.791086,444.123565,-9039.926876,-370.102971
4345.791410,370.102971,-8580.269578,-296.082377
4345.791735,444.123565,-8656.879127,0.000000
4345.792059,370.102971,-8810.098227,0.000000
4345.792383,518.144159,-8503.660028,-222.061783
4345.792708,222.061783,-8656.879127,0.000000
4345.793032,370.102971,-9116.536426,222.061783
4345.793356,222.061783,-8733.488677,0.000000
4345.793681,296.082377,-8733.488677,0.000000
4345.794005,296.082377,-8580.269578,0.000000
4345.794330,370.102971,-8733.488677,-148.041188
4345.794654,148.041188,-8503.660028,-148.041188
4345.794978,444.123565,-8427.050478,0.000000
4345.795303,296.082377,-8580.269578,0.000000
4345.795627,148.041188,-8580.269578,0.000000
4345.795951,148.041188,-8350.440928,-444.123565
4345.796276,444.123565,-8580.269578,-444.123565
4345.796600,222.061783,-8427.050478,-222.061783
4345.796925,296.082377,-8427.050478,0.000000
4345.797249,444.123565,-8197.221829,222.061783
4345.797573,296.082377,-8580.269578,0.000000
4345.797898,518.144159,-8656.879127,-222.061783
4345.798222,444.123565,-8810.098227,74.020594
4345.798546,444.123565,-8273.831378,0.000000
4345.798871,296.082377,-8810.098227,0.000000
4345.799195,222.061783,-8580.269578,0.000000
4345.799519,222.061783,-8656.879127,0.000000
4345.799844,370.102971,-8656.879127,-296.082377
4345.800168,592.164754,-8810.098227,444.123565
4345.800493,296.082377,-8580.269578,-148.041188
4345.800817,592.164754,-8580.269578,0.000000
4345.801141,148.041188,-8427.050478,-222.061783
4345.801466,814.226536,-8810.098227,0.000000
4345.801790,518.144159,-8273.831378,-296.082377
4345.802114,222.061783,-8427.050478,0.000000
4345.802439,148.041188,-8503.660028,0.000000
4345.802763,444.123565,-8656.879127,-148.041188
4345.803088,518.144159,-8733.488677,-296.082377
4345.803412,518.144159,-8810.098227,-222.061783
4345.803736,148.041188,-8580.269578,-222.061783
4345.804061,370.102971,-8656.879127,-148.041188
4345.804385,0.000000,-8810.098227,0.000000
4345.804709,444.123565,-8656.879127,0.000000
4345.805034,592.164754,-8427.050478,-592.164754
4345.805358,370.102971,-8503.660028,-148.041188
4345.805682,296.082377,-8580.269578,-370.102971
4345.806007,222.061783,-8580.269578,-296.082377
4345.806331,296.082377,-8273.831378,-222.061783
4345.806656,296.082377,-9039.926876,-296.082377
4345.806980,592.164754,-8580.269578,-518.144159
4345.807304,148.041188,-8350.440928,-148.041188
4345.807629,370.102971,-8580.269578,-222.061783
4345.807953,222.061783,-8656.879127,0.000000
4345.808277,370.102971,-8580.269578,-370.102971
4345.808602,518.144159,-8580.269578,-888.247130
4345.808926,444.123565,-8350.440928,-148.041188
4345.809251,370.102971,-8656.879127,-296.082377
4345.809575,444.123565,-8503.660028,-518.144159
4345.809899,296.082377,-8886.707777,0.000000
4345.810224,592.164754,-8656.879127,-444.123565
4345.810548,222.061783,-8427.050478,-296.082377
4345.810872,148.041188,-8810.098227,-370.102971
4345.811197,296.082377,-8656.879127,0.000000
4345.811521,148.041188,-8120.612279,-296.082377
4345.811845,740.205942,-8656.879127,-222.061783
4345.812170,296.082377,-8656.879127,-296.082377
4345.812494,444.123565,-8580.269578,-148.041188
4345.812819,296.082377,-8350.440928,-666.185348
4345.813143,592.164754,-8580.269578,-666.185348
4345.813467,518.144159,-8733.488677,-222.061783
4345.813792,444.123565,-8733.488677,-296.082377
4345.814116,296.082377,-8580.269578,-222.061783
4345.814440,444.123565,-8503.660028,-518.144159
4345.814765,370.102971,-8733.488677,-296.082377
4345.815089,444.123565,-8503.660028,-444.123565
4345.815414,444.123565,-8963.317327,-370.102971
4345.815738,740.205942,-8580.269578,-592.164754
4345.816062,444.123565,-8733.488677,-296.082377
4345.816387,444.123565,-8656.879127,-296.082377
4345.816711,518.144159,-8503.660028,0.000000
4345.817035,592.164754,-9346.365076,-814.226536
4345.817360,444.123565,-8656.879127,-518.144159
4345.817684,370.102971,-8503.660028,-296.082377
4345.818008,370.102971,-9116.536426,-296.082377
4345.818333,296.082377,-8427.050478,-296.082377
4345.818657,518.144159,-9039.926876,-370.102971
4345.818982,740.205942,-8886.707777,-370.102971
4345.819306,444.123565,-8580.269578,0.000000
4345.819630,592.164754,-8656.879127,-296.082377
4345.819955,296.082377,-8810.098227,222.061783
4345.820279,592.164754,-8656.879127,0.000000
4345.820603,666.185348,-8503.660028,-444.123565
4345.820928,592.164754,-8580.269578,-296.082377
4345.821252,740.205942,-8503.660028,-370.102971
4345.821577,666.185348,-8733.488677,-444.123565
4345.821901,222.061783,-8580.269578,-222.061783
4345.822225,222.061783,-9039.926876,-518.144159
4345.822550,592.164754,-8580.269578,-518.144159
4345.822874,444.123565,-8580.269578,-222.061783
4345.823198,666.185348,-8733.488677,-370.102971
4345.823523,370.102971,-8580.269578,-296.082377
4345.823847,740.205942,-8580.269578,-518.144159
4345.824171,444.123565,-8733.488677,-444.123565
4345.824496,518.144159,-8886.707777,-296.082377
4345.824820,296.082377,-8503.660028,-518.144159
4345.825145,370.102971,-8733.488677,-592.164754
4345.825469,518.144159,-8580.269578,-518.144159
4345.825793,592.164754,-8810.098227,-666.185348
4345.826118,592.164754,-8273.831378,-666.185348
4345.826442,370.102971,-8503.660028,-518.144159
4345.826766,444.123565,-8580.269578,-518.144159
4345.827091,370.102971,-8044.002729,-296.082377
4345.827415,518.144159,-8733.488677,-592.164754
4345.827740,444.123565,-8733.488677,-444.123565
4345.828064,296.082377,-8733.488677,-444.123565
4345.828388,370.102971,-8886.707777,-444.123565
4345.828713,296.082377,-8580.269578,-592.164754
4345.829037,222.061783,-8503.660028,-888.247130
4345.829361,444.123565,-8810.098227,-592.164754
4345.829686,296.082377,-8273.831378,-444.123565
4345.830010,592.164754,-8733.488677,-296.082377
4345.830334,592.164754,-8503.660028,-740.205942
4345.830659,592.164754,-8733.488677,-370.102971
4345.830983,592.164754,-8656.879127,-888.247130
4345.831308,814.226536,-8656.879127,-740.205942
4345.831632,814.226536,-8733.488677,-666.185348
4345.831956,444.123565,-8656.879127,-740.205942
4345.832281,740.205942,-8503.660028,-444.123565
4345.832605,444.123565,-8656.879127,-666.185348
4345.832929,666.185348,-8580.269578,-518.144159
4345.833254,444.123565,-8273.831378,-592.164754
4345.833578,370.102971,-8733.488677,-592.164754
4345.833903,222.061783,-8810.098227,-666.185348
4345.834227,444.123565,-8427.050478,-518.144159
4345.834551,444.123565,-8580.269578,-592.164754
4345.834876,444.123565,-8350.440928,-370.102971
4345.835200,370.102971,-8810.098227,-444.123565
4345.835524,444.123565,-8350.440928,-444.123565
4345.835849,592.164754,-8427.050478,-370.102971
4345.836173,666.185348,-8656.879127,-592.164754
4345.836497,888.247130,-8733.488677,-518.144159
4345.836822,962.267725,-8810.098227,-592.164754
4345.837146,592.164754,-8580.269578,-370.102971
4345.837471,370.102971,-8503.660028,-592.164754
4345.837795,592.164754,-8886.707777,-518.144159
4345.838119,444.123565,-8503.660028,-592.164754
4345.838444,518.144159,-8963.317327,-444.123565
4345.838768,296.082377,-8580.269578,-370.102971
4345.839092,444.123565,-8580.269578,-296.082377
4345.839417,592.164754,-8733.488677,-370.102971
4345.839741,592.164754,-9806.022374,-296.082377
4345.840066,592.164754,-8427.050478,-370.102971
4345.840390,518.144159,-8810.098227,-444.123565
4345.840714,148.041188,-8810.098227,-592.164754
4345.841039,370.102971,-8503.660028,-370.102971
4345.841363,370.102971,-8427.050478,-592.164754
4345.841687,148.041188,-8733.488677,-296.082377
4345.842012,148.041188,-8656.879127,-518.144159
4345.842336,370.102971,-8503.660028,-296.082377
4345.842660,370.102971,-8350.440928,-296.082377
4345.842985,518.144159,-8810.098227,-518.144159
4345.843309,444.123565,-8733.488677,-518.144159
4345.843634,444.123565,-8427.050478,0.000000
4345.843958,148.041188,-8503.660028,-888.247130
4345.844282,518.144159,-8580.269578,-444.123565
4345.844607,148.041188,-8580.269578,-444.123565
4345.844931,370.102971,-8580.269578,-518.144159
4345.845255,296.082377,-8350.440928,-444.123565
4345.845580,592.164754,-8503.660028,-296.082377
4345.845904,592.164754,-8427.050478,-222.061783
4345.846229,370.102971,-8350.440928,-222.061783
4345.846553,370.102971,-8733.488677,-296.082377
4345.846877,666.185348,-8886.707777,-518.144159
4345.847202,370.102971,-8427.050478,-296.082377
4345.847526,296.082377,-8503.660028,-444.123565
4345.847850,222.061783,-8427.050478,-296.082377
4345.848175,666.185348,-9729.412825,-296.082377
4345.848499,666.185348,-8580.269578,-444.123565
4345.848823,74.020594,-8580.269578,-222.061783
4345.849148,222.061783,-8580.269578,-296.082377
4345.849472,518.144159,-8273.831378,-370.102971
4345.849797,296.082377,-8656.879127,-148.041188
4345.850121,370.102971,-8656.879127,-222.061783
4345.850445,592.164754,-8656.879127,-370.102971
4345.850770,296.082377,-8350.440928,-444.123565
4345.851094,-74.020594,-8963.317327,-222.061783
4345.851418,444.123565,-8580.269578,-592.164754
4345.851743,444.123565,-8427.050478,-592.164754
4345.852067,444.123565,-8733.488677,-666.185348
4345.852392,370.102971,-8886.707777,-444.123565
4345.852716,370.102971,-8503.660028,-296.082377
4345.853041,296.082377,-8197.221829,-592.164754
4345.853365,296.082377,-8503.660028,-740.205942
4345.853690,296.082377,-8503.660028,-296.082377
4345.854014,444.123565,-8427.050478,-444.123565
4345.854339,0.000000,-8427.050478,-370.102971
4345.854663,518.144159,-8656.879127,-666.185348
4345.854988,370.102971,-8273.831378,-666.185348
4345.855312,666.185348,-8733.488677,-888.247130
4345.855636,444.123565,-8350.440928,-370.102971
4345.855961,592.164754,-8580.269578,-518.144159
4345.856285,296.082377,-8273.831378,-592.164754
4345.856610,296.082377,-8580.269578,-518.144159
4345.856934,518.144159,-8503.660028,-814.226536
4345.857259,444.123565,-8656.879127,-222.061783
4345.857583,370.102971,-8197.221829,-518.144159
4345.857908,370.102971,-8656.879127,-518.144159
4345.858232,518.144159,-8580.269578,-666.185348
4345.858557,444.123565,-8580.269578,-666.185348
4345.858881,444.123565,-8810.098227,-370.102971
4345.859206,148.041188,-8427.050478,-222.061783
4345.859530,370.102971,-8963.317327,-666.185348
4345.859855,444.123565,-8350.440928,-740.205942
4345.860179,370.102971,-8810.098227,-444.123565
4345.860503,592.164754,-8886.707777,-814.226536
4345.860828,592.164754,-8733.488677,-370.102971
4345.861152,222.061783,-8503.660028,-592.164754
4345.861477,444.123565,-8656.879127,-518.144159
4345.861801,370.102971,-8733.488677,-370.102971
4345.862126,444.123565,-8350.440928,-148.041188
4345.862450,0.000000,-8656.879127,0.000000
4345.862775,444.123565,-8733.488677,0.000000
4345.863099,592.164754,-8580.269578,-222.061783
4345.863424,296.082377,-8503.660028,-296.082377
4345.863748,444.123565,-9039.926876,-592.164754
4345.864073,296.082377,-8810.098227,-592.164754
4345.864397,518.144159,-8350.440928,-518.144159
4345.864722,222.061783,-8656.879127,-222.061783
4345.865046,74.020594,-8810.098227,-74.020594
4345.865370,0.000000,-8503.660028,-370.102971
4345.865695,296.082377,-8810.098227,-518.144159
4345.866019,444.123565,-8580.269578,-148.041188
4345.866344,296.082377,-8350.440928,0.000000
4345.866668,1184.329507,-8656.879127,0.000000
4345.866993,370.102971,-8350.440928,-222.061783
4345.867317,666.185348,-8810.098227,-222.061783
4345.867642,222.061783,-8197.221829,-370.102971
4345.867966,518.144159,-8963.317327,0.000000
4345.868291,444.123565,-8656.879127,-370.102971
4345.868615,444.123565,-8656.879127,0.000000
4345.868940,444.123565,-8503.660028,-296.082377
4345.869264,222.061783,-8656.879127,-222.061783
4345.869589,148.041188,-8580.269578,0.000000
4345.869913,444.123565,-8810.098227,0.000000
4345.870237,296.082377,-8427.050478,-444.123565
4345.870562,370.102971,-8503.660028,-370.102971
4345.870886,370.102971,-8273.831378,0.000000
4345.871211,592.164754,-8503.660028,-222.061783
4345.871535,370.102971,-8427.050478,-74.020594
4345.871860,444.123565,-8963.317327,-148.041188
4345.872184,296.082377,-9193.145976,-222.061783
4345.872509,296.082377,-8580.269578,-296.082377
4345.872833,444.123565,-8503.660028,-370.102971
4345.873158,444.123565,-8810.098227,-222.061783
4345.873482,296.082377,-8733.488677,0.000000
4345.873807,296.082377,-8503.660028,0.000000
4345.874131,518.144159,-8656.879127,-296.082377
4345.874455,444.123565,-8427.050478,-444.123565
4345.874780,666.185348,-8427.050478,-296.082377
4345.875104,222.061783,-8427.050478,74.020594
4345.875429,444.123565,-8503.660028,-222.061783
4345.875753,296.082377,-8503.660028,-518.144159
4345.876078,370.102971,-8503.660028,-518.144159
4345.876402,296.082377,-8580.269578,-296.082377
4345.876727,444.123565,-8733.488677,-222.061783
4345.877051,444.123565,-8810.098227,-370.102971
4345.877376,296.082377,-8273.831378,-518.144159
4345.877700,518.144159,-8580.269578,-444.123565
4345.878025,444.123565,-8273.831378,-148.041188
4345.878349,814.226536,-8503.660028,-296.082377
4345.878674,592.164754,-8427.050478,-666.185348
4345.878998,222.061783,-8810.098227,-148.041188
4345.879322,962.267725,-8580.269578,-444.123565
4345.879647,370.102971,-8810.098227,-370.102971
4345.879971,444.123565,-8580.269578,-370.102971
4345.880296,222.061783,-8656.879127,-148.041188
4345.880620,444.123565,-8580.269578,-222.061783
4345.880945,592.164754,-8810.098227,-148.041188
4345.881269,296.082377,-8580.269578,-370.102971
4345.881594,592.164754,-8886.707777,-222.061783
4345.881918,222.061783,-8733.488677,-370.102971
4345.882243,74.020594,-8427.050478,0.000000
4345.882567,296.082377,-8656.879127,0.000000
4345.882892,370.102971,-8733.488677,-296.082377
4345.883216,518.144159,-8810.098227,-518.144159
4345.883541,666.185348,-7967.393179,296.082377
4345.883865,370.102971,-8810.098227,-370.102971
4345.884189,518.144159,-8886.707777,-222.061783
4345.884514,518.144159,-8733.488677,-222.061783
4345.884838,592.164754,-8733.488677,-370.102971
4345.885163,296.082377,-8350.440928,-296.082377
4345.885487,444.123565,-8503.660028,-296.082377
4345.885812,148.041188,-8963.317327,-370.102971
4345.886136,0.000000,-8273.831378,0.000000
4345.886461,296.082377,-8503.660028,0.000000
4345.886785,296.082377,-8503.660028,-370.102971
4345.887110,370.102971,-8733.488677,-148.041188
4345.887434,296.082377,-8503.660028,-222.061783
4345.887759,518.144159,-8656.879127,-148.041188
4345.888083,592.164754,-8580.269578,-518.144159
4345.888408,666.185348,-8733.488677,-296.082377
4345.888732,592.164754,-8427.050478,0.000000
4345.889056,518.144159,-8656.879127,-148.041188
4345.889381,296.082377,-8656.879127,-296.082377
4345.889705,370.102971,-8503.660028,0.000000
4345.890030,444.123565,-8656.879127,0.000000
4345.890354,296.082377,-8503.660028,-148.041188
4345.890679,222.061783,-8503.660028,-592.164754
4345.891003,370.102971,-8580.269578,0.000000
4345.891328,592.164754,-8427.050478,-148.041188
4345.891652,518.144159,-8580.269578,-296.082377
4345.891977,518.144159,-8350.440928,0.000000
4345.892301,518.144159,-8197.221829,0.000000
4345.892626,148.041188,-8886.707777,-222.061783
4345.892950,296.082377,-8427.050478,0.000000
4345.893274,592.164754,-8733.488677,0.000000
4345.893599,148.041188,-8656.879127,-444.123565
4345.893923,592.164754,-8656.879127,-222.061783
4345.894248,222.061783,-8580.269578,0.000000
4345.894572,518.144159,-8656.879127,0.000000
4345.894897,370.102971,-8503.660028,0.000000
4345.895221,518.144159,-8580.269578,-444.123565
4345.895546,518.144159,-8273.831378,-296.082377
4345.895870,518.144159,-8580.269578,-148.041188
4345.896195,222.061783,-8580.269578,-444.123565
4345.896519,370.102971,-8427.050478,-222.061783
4345.896844,444.123565,-8733.488677,-222.061783
4345.897168,222.061783,-8580.269578,-222.061783
4345.897493,444.123565,-8503.660028,-370.102971
4345.897817,740.205942,-8580.269578,-444.123565
4345.898141,518.144159,-8656.879127,-222.061783
4345.898466,370.102971,-8503.660028,-222.061783
4345.898790,296.082377,-8733.488677,-444.123565
4345.899115,666.185348,-9346.365076,74.020594
4345.899439,148.041188,-8350.440928,-74.020594
4345.899764,0.000000,-8656.879127,-148.041188
4345.900088,370.102971,-8503.660028,-222.061783
4345.900413,444.123565,-8656.879127,-444.123565
4345.900737,296.082377,-8350.440928,-296.082377
4345.901062,296.082377,-8350.440928,-296.082377
4345.901386,444.123565,-8656.879127,-296.082377
4345.901711,592.164754,-8427.050478,-296.082377
4345.902035,296.082377,-8197.221829,-518.144159
4345.902360,666.185348,-8427.050478,-296.082377
4345.902684,518.144159,-8350.440928,-296.082377
4345.903008,296.082377,-8733.488677,-444.123565
4345.903333,518.144159,-8580.269578,-962.267725
4345.903657,592.164754,-8810.098227,-518.144159
4345.903982,740.205942,-8733.488677,-592.164754
4345.904306,222.061783,-8656.879127,0.000000
4345.904631,444.123565,-8427.050478,-444.123565
4345.904955,814.226536,-8656.879127,-222.061783
4345.905280,370.102971,-8273.831378,-296.082377
4345.905604,296.082377,-8733.488677,-296.082377
4345.905929,370.102971,-8427.050478,-296.082377
4345.906253,444.123565,-8580.269578,-740.205942
4345.906578,444.123565,-8733.488677,-296.082377
4345.906902,592.164754,-8580.269578,-518.144159
4345.907227,740.205942,-8580.269578,-592.164754
4345.907551,444.123565,-9269.755526,-148.041188
4345.907875,296.082377,-8427.050478,-222.061783
4345.908200,370.102971,-8580.269578,-148.041188
4345.908524,444.123565,-8656.879127,-222.061783
4345.908849,370.102971,-8427.050478,-444.123565
4345.909173,296.082377,-8886.707777,-222.061783
4345.909498,296.082377,-8350.440928,0.000000
4345.909822,444.123565,-8656.879127,-296.082377
4345.910147,444.123565,-8656.879127,-444.123565
4345.910471,148.041188,-9039.926876,-296.082377
4345.910796,222.061783,-8733.488677,-370.102971
4345.911120,222.061783,-8656.879127,-222.061783
4345.911445,296.082377,-8810.098227,-370.102971
4345.911769,296.082377,-8580.269578,-222.061783
4345.912093,148.041188,-8503.660028,-370.102971
4345.912418,222.061783,-8273.831378,-592.164754
4345.912742,444.123565,-8810.098227,-444.123565
4345.913067,592.164754,-8350.440928,-222.061783
4345.913391,148.041188,-8427.050478,-370.102971
4345.913716,296.082377,-8580.269578,-222.061783
4345.914040,370.102971,-8733.488677,-370.102971
4345.914365,444.123565,-8886.707777,-296.082377
4345.914689,296.082377,-8656.879127,-370.102971
4345.915014,518.144159,-8427.050478,-296.082377
4345.915338,296.082377,-8733.488677,-74.020594
4345.915663,518.144159,-8197.221829,0.000000
4345.915987,222.061783,-8733.488677,-296.082377
4345.916312,740.205942,-8427.050478,-296.082377
4345.916636,444.123565,-8580.269578,-148.041188
4345.916960,370.102971,-8733.488677,-148.041188
4345.917285,222.061783,-8580.269578,-296.082377
4345.917609,1258.350101,-8656.879127,-518.144159
4345.917934,592.164754,-8503.660028,-444.123565
4345.918258,222.061783,-8580.269578,-222.061783
4345.918583,296.082377,-8963.317327,0.000000
4345.918907,296.082377,-8503.660028,-148.041188
4345.919232,518.144159,-8656.879127,-222.061783
4345.919556,666.185348,-8886.707777,-296.082377
4345.919881,444.123565,-8427.050478,-222.061783
4345.920205,222.061783,-8503.660028,0.000000
4345.920530,296.082377,-8886.707777,-148.041188
4345.920854,370.102971,-8656.879127,-148.041188
4345.921179,370.102971,-8503.660028,-296.082377
4345.921503,444.123565,-8580.269578,-222.061783
4345.921827,296.082377,-7814.174080,0.000000
4345.922152,0.000000,-8580.269578,0.000000
4345.922476,222.061783,-8810.098227,-444.123565
4345.922801,296.082377,-8580.269578,-370.102971
4345.923125,444.123565,-8350.440928,-222.061783
4345.923450,518.144159,-8580.269578,-222.061783
4345.923774,444.123565,-8580.269578,-444.123565
4345.924099,592.164754,-8580.269578,-518.144159
4345.924423,370.102971,-8656.879127,0.000000
4345.924748,814.226536,-8733.488677,-370.102971
4345.925072,518.144159,-8503.660028,-518.144159
4345.925397,296.082377,-8656.879127,-444.123565
4345.925721,444.123565,-8656.879127,-222.061783
4345.926046,1110.308913,-8656.879127,-148.041188
4345.926370,592.164754,-8580.269578,-518.144159
4345.926694,444.123565,-8886.707777,0.000000
4345.927019,74.020594,-8427.050478,-222.061783
4345.927343,370.102971,-8580.269578,-222.061783
4345.927668,444.123565,-8580.269578,-222.061783
4345.927992,592.164754,-8427.050478,-296.082377
4345.928317,444.123565,-8503.660028,-592.164754
4345.928641,592.164754,-8580.269578,-518.144159
4345.928966,666.185348,-8580.269578,-444.123565
4345.929290,148.041188,-8733.488677,-296.082377
4345.929615,518.144159,-8656.879127,-296.082377
4345.929939,370.102971,-8656.879127,-666.185348
4345.930264,592.164754,-7890.783629,0.000000
4345.930588,296.082377,-8350.440928,-296.082377
4345.930912,518.144159,-8656.879127,-518.144159
4345.931237,370.102971,-8427.050478,-666.185348
4345.931561,444.123565,-8733.488677,-370.102971
4345.931886,296.082377,-8580.269578,-592.164754
4345.932210,370.102971,-8733.488677,-74.020594
4345.932535,370.102971,-8733.488677,-296.082377
4345.932859,370.102971,-8503.660028,-370.102971
4345.933184,666.185348,-8810.098227,-370.102971
4345.933508,296.082377,-8580.269578,-370.102971
4345.933833,518.144159,-8427.050478,-666.185348
4345.934157,296.082377,-8580.269578,-444.123565
4345.934482,518.144159,-8580.269578,-296.082377
4345.934806,814.226536,-8427.050478,-444.123565
4345.935131,370.102971,-8656.879127,-518.144159
4345.935455,444.123565,-8656.879127,-518.144159
4345.935779,296.082377,-8886.707777,-370.102971
4345.936104,370.102971,-8963.317327,-222.061783
4345.936428,370.102971,-8733.488677,-296.082377
4345.936753,518.144159,-8886.707777,-740.205942
4345.937077,444.123565,-8503.660028,-296.082377
4345.937402,592.164754,-9039.926876,0.000000
4345.937726,222.061783,-8580.269578,-296.082377
4345.938051,296.082377,-8503.660028,-370.102971
4345.938375,444.123565,-8733.488677,-444.123565
4345.938700,962.267725,-8656.879127,-740.205942
4345.939024,444.123565,-8810.098227,0.000000
4345.939349,518.144159,-8503.660028,-518.144159
4345.939673,370.102971,-8656.879127,-296.082377
4345.939998,444.123565,-8580.269578,-370.102971
4345.940322,296.082377,-9269.755526,0.000000
4345.940646,666.185348,-8580.269578,-296.082377
4345.940971,592.164754,-8350.440928,-148.041188
4345.941295,518.144159,-8503.660028,-370.102971
4345.941620,444.123565,-8963.317327,-444.123565
4345.941944,370.102971,-8503.660028,-518.144159
4345.942269,518.144159,-8810.098227,-296.082377
4345.942593,370.102971,-8656.879127,-370.102971
4345.942918,444.123565,-7890.783629,-222.061783
4345.943242,222.061783,-8503.660028,-148.041188
4345.943567,222.061783,-8427.050478,-370.102971
4345.943891,444.123565,-8733.488677,-518.144159
4345.944216,592.164754,-8427.050478,-444.123565
4345.944540,444.123565,-8733.488677,-666.185348
4345.944865,222.061783,-8810.098227,-296.082377
4345.945189,592.164754,-8120.612279,-444.123565
4345.945513,444.123565,-8656.879127,-518.144159
4345.945838,740.205942,-9193.145976,-518.144159
4345.946162,370.102971,-8503.660028,-370.102971
4345.946487,222.061783,-8656.879127,-444.123565
4345.946811,666.185348,-8427.050478,-370.102971
4345.947136,518.144159,-8656.879127,-444.123565
4345.947460,518.144159,-9039.926876,-370.102971
4345.947785,518.144159,-8273.831378,-518.144159
4345.948109,444.123565,-8810.098227,-444.123565
4345.948434,444.123565,-8733.488677,-444.123565
4345.948758,444.123565,-8733.488677,-370.102971
4345.949083,592.164754,-8733.488677,-814.226536
4345.949407,444.123565,-8503.660028,-444.123565
4345.949731,518.144159,-8656.879127,-666.185348
4345.950056,740.205942,-8886.707777,-444.123565
4345.950380,370.102971,-8656.879127,-222.061783
4345.950705,666.185348,-8733.488677,-666.185348
4345.951029,444.123565,-8810.098227,-518.144159
4345.951354,444.123565,-8503.660028,-444.123565
4345.951678,518.144159,-8503.660028,-370.102971
4345.952003,592.164754,-8350.440928,-666.185348
4345.952328,518.144159,-8886.707777,-666.185348
4345.952652,444.123565,-8733.488677,-666.185348
4345.952977,222.061783,-8503.660028,-370.102971
4345.953301,222.061783,-8656.879127,-666.185348
4345.953626,592.164754,-8580.269578,-370.102971
4345.953950,222.061783,-8350.440928,-518.144159
4345.954275,518.144159,-8963.317327,-962.267725
4345.954599,444.123565,-8503.660028,-370.102971
4345.954924,518.144159,-8580.269578,-444.123565
4345.955248,518.144159,-8810.098227,-666.185348
4345.955572,444.123565,-8580.269578,-296.082377
4345.955897,592.164754,-8580.269578,-666.185348
4345.956221,518.144159,-8580.269578,-444.123565
4345.956546,518.144159,-8733.488677,-370.102971
4345.956870,444.123565,-8273.831378,-592.164754
4345.957195,296.082377,-8427.050478,296.082377
4345.957519,518.144159,-8810.098227,-518.144159
4345.957844,518.144159,-8580.269578,-370.102971
4345.958168,444.123565,-8350.440928,-444.123565
4345.958493,444.123565,-9116.536426,0.000000
4345.958817,370.102971,-8427.050478,-370.102971
4345.959142,592.164754,-8580.269578,-370.102971
4345.959466,518.144159,-8733.488677,-592.164754
4345.959791,370.102971,-8427.050478,-296.082377
4345.960115,370.102971,-8656.879127,0.000000
4345.960440,370.102971,-8810.098227,-370.102971
4345.960764,370.102971,-8656.879127,-222.061783
4345.961089,296.082377,-8580.269578,-592.164754
4345.961413,296.082377,-8963.317327,0.000000
4345.961738,518.144159,-8273.831378,-370.102971
4345.962062,370.102971,-8427.050478,0.000000
4345.962387,518.144159,-8273.831378,-222.061783
4345.962711,518.144159,-8580.269578,-370.102971
4345.963036,666.185348,-8503.660028,-518.144159
4345.963360,444.123565,-8273.831378,-370.102971
4345.963685,370.102971,-8733.488677,-148.041188
4345.964009,74.020594,-8580.269578,-148.041188
4345.964334,222.061783,-8427.050478,-518.144159
4345.964658,296.082377,-8886.707777,0.000000
4345.964983,666.185348,-8350.440928,-296.082377
4345.965307,370.102971,-8733.488677,-296.082377
4345.965631,444.123565,-8810.098227,-370.102971
4345.965956,666.185348,-8656.879127,-444.123565
4345.966280,370.102971,-8733.488677,-296.082377
4345.966605,518.144159,-8733.488677,-296.082377
4345.966929,296.082377,-8656.879127,-222.061783
4345.967254,296.082377,-9039.926876,0.000000
4345.967578,222.061783,-8427.050478,-296.082377
4345.967903,518.144159,-8656.879127,-518.144159
4345.968227,370.102971,-8963.317327,-222.061783
4345.968552,740.205942,-8503.660028,0.000000
4345.968876,296.082377,-8656.879127,-518.144159
4345.969201,444.123565,-8810.098227,-370.102971
4345.969525,518.144159,-8503.660028,-148.041188
4345.969850,222.061783,-8580.269578,-222.061783
4345.970174,148.041188,-8580.269578,-296.082377
4345.970499,222.061783,-8656.879127,0.000000
4345.970823,518.144159,-8733.488677,-222.061783
4345.971148,370.102971,-8273.831378,-296.082377
4345.971472,518.144159,-8503.660028,-592.164754
4345.971797,592.164754,-8580.269578,-222.061783
4345.972121,666.185348,-8427.050478,-222.061783
4345.972446,666.185348,-8503.660028,-370.102971
4345.972770,740.205942,-7814.174080,-222.061783
4345.973095,592.164754,-8503.660028,-370.102971
4345.973419,592.164754,-8580.269578,-740.205942
4345.973744,296.082377,-8350.440928,-296.082377
4345.974068,370.102971,-8503.660028,-222.061783
4345.974393,370.102971,-8733.488677,-370.102971
4345.974717,370.102971,-8810.098227,-518.144159
4345.975041,518.144159,-8580.269578,-592.164754
4345.975366,444.123565,-8427.050478,-296.082377
4345.975690,518.144159,-8580.269578,-296.082377
4345.976015,592.164754,-8886.707777,-518.144159
4345.976339,444.123565,-8580.269578,-296.082377
4345.976664,666.185348,-8810.098227,-296.082377
4345.976988,370.102971,-8580.269578,-148.041188
4345.977313,518.144159,-8656.879127,-370.102971
4345.977637,296.082377,-8810.098227,-222.061783
4345.977962,370.102971,-8656.879127,-296.082377
4345.978286,222.061783,-8733.488677,0.000000
4345.978611,592.164754,-8580.269578,-296.082377
4345.978935,296.082377,-8580.269578,-222.061783
4345.979260,296.082377,-8656.879127,-370.102971
4345.979584,296.082377,-8580.269578,-296.082377
4345.979909,370.102971,-8350.440928,-518.144159
4345.980233,592.164754,-8733.488677,-666.185348
4345.980558,370.102971,-8580.269578,-518.144159
4345.980882,592.164754,-8656.879127,-222.061783
4345.981207,222.061783,-8044.002729,-296.082377
4345.981531,444.123565,-8733.488677,-444.123565
4345.981856,222.061783,-8503.660028,-814.226536
4345.982180,592.164754,-9116.536426,-296.082377
4345.982505,444.123565,-8197.221829,-518.144159
4345.982829,518.144159,-8273.831378,-370.102971
4345.983154,444.123565,-8350.440928,-444.123565
4345.983478,666.185348,-8427.050478,-222.061783
4345.983803,518.144159,-8810.098227,-666.185348
4345.984127,814.226536,-9039.926876,-370.102971
4345.984452,444.123565,-8427.050478,-222.061783
4345.984776,444.123565,-8810.098227,0.000000
4345.985100,518.144159,-8656.879127,-444.123565
4345.985425,1184.329507,-8427.050478,-296.082377
4345.985749,518.144159,-8503.660028,-222.061783
4345.986074,296.082377,-8427.050478,-370.102971
4345.986398,444.123565,-8733.488677,-222.061783
4345.986723,222.061783,-8120.612279,-444.123565
4345.987047,666.185348,-8656.879127,-222.061783
4345.987372,370.102971,-8733.488677,-518.144159
4345.987696,518.144159,-8733.488677,-296.082377
4345.988021,518.144159,-8580.269578,-518.144159
4345.988345,592.164754,-8427.050478,-148.041188
4345.988670,592.164754,-8733.488677,-148.041188
4345.988994,444.123565,-8810.098227,-370.102971
4345.989319,740.205942,-8886.707777,-296.082377
4345.989643,370.102971,-8503.660028,74.020594
4345.989968,296.082377,-8810.098227,-296.082377
4345.990292,296.082377,-8427.050478,-518.144159
4345.990617,444.123565,-8580.269578,-444.123565
4345.990941,0.000000,-8656.879127,-296.082377
4345.991266,148.041188,-8580.269578,0.000000
4345.991590,222.061783,-8503.660028,0.000000
4345.991915,518.144159,-8503.660028,-148.041188
4345.992239,444.123565,-8503.660028,-296.082377
4345.992564,518.144159,-8810.098227,-148.041188
4345.992888,444.123565,-8350.440928,0.000000
4345.993213,222.061783,-8350.440928,-296.082377
4345.993537,370.102971,-8810.098227,-444.123565
4345.993862,444.123565,-7354.516781,-296.082377
4345.994186,444.123565,-8733.488677,-296.082377
4345.994511,592.164754,-8580.269578,-148.041188
4345.994835,444.123565,-8810.098227,-296.082377
4345.995159,518.144159,-8503.660028,-296.082377
4345.995484,518.144159,-8656.879127,-666.185348
4345.995808,444.123565,-8580.269578,-370.102971
4345.996133,370.102971,-8810.098227,-222.061783
4345.996457,444.123565,-8733.488677,0.000000
4345.996782,296.082377,-9193.145976,0.000000
4345.997106,370.102971,-8656.879127,-148.041188
4345.997431,518.144159,-8656.879127,-296.082377
4345.997755,444.123565,-8503.660028,-296.082377
4345.998080,296.082377,-8656.879127,0.000000
4345.998404,592.164754,-8503.660028,0.000000
4345.998729,518.144159,-8656.879127,0.000000
4345.999053,148.041188,-8580.269578,0.000000
4345.999378,148.041188,-8656.879127,-296.082377
4345.999702,0.000000,-8580.269578,-370.102971
4346.000027,370.102971,-8273.831378,0.000000
4346.000351,148.041188,-8656.879127,-148.041188
4346.000676,518.144159,-8273.831378,-296.082377
4346.001000,518.144159,-8503.660028,-666.185348
4346.001325,444.123565,-8503.660028,-444.123565
4346.001649,296.082377,-8886.707777,0.000000
4346.001974,370.102971,-8810.098227,0.000000
4346.002298,222.061783,-8656.879127,-148.041188
4346.002623,370.102971,-8580.269578,-444.123565
4346.002947,444.123565,-8503.660028,-370.102971
4346.003272,592.164754,-8503.660028,0.000000
4346.003596,148.041188,-8656.879127,-148.041188
4346.003921,296.082377,-9039.926876,-370.102971
4346.004245,222.061783,-8427.050478,-296.082377
4346.004570,592.164754,-8580.269578,-296.082377
4346.004894,370.102971,-8733.488677,-296.082377
4346.005218,74.020594,-9729.412825,0.000000
4346.005543,444.123565,-9039.926876,-370.102971
4346.005867,370.102971,-8580.269578,-296.082377
4346.006192,296.082377,-8810.098227,-296.082377
4346.006516,592.164754,-8503.660028,-148.041188
4346.006841,370.102971,-8580.269578,0.000000
4346.007165,296.082377,-8656.879127,-296.082377
4346.007490,444.123565,-8350.440928,-370.102971
4346.007814,592.164754,-8503.660028,0.000000
4346.008139,222.061783,-9269.755526,74.020594
4346.008463,444.123565,-8427.050478,-296.082377
4346.008788,296.082377,-8733.488677,0.000000
4346.009112,444.123565,-8427.050478,0.000000
4346.009437,296.082377,-8656.879127,0.000000
4346.009761,518.144159,-8733.488677,-370.102971
4346.010086,444.123565,-8503.660028,-296.082377
4346.010410,518.144159,-8350.440928,-222.061783
4346.010735,222.061783,-8580.269578,-296.082377
4346.011059,296.082377,-8886.707777,0.000000
4346.011384,592.164754,-8733.488677,0.000000
4346.011708,444.123565,-8810.098227,-370.102971
4346.012033,444.123565,-8503.660028,-296.082377
4346.012357,592.164754,-9269.755526,296.082377
4346.012682,592.164754,-8733.488677,0.000000
4346.013006,296.082377,-8580.269578,-148.041188
4346.013331,592.164754,-8963.317327,-222.061783
4346.013655,370.102971,-9116.536426,0.000000
4346.013980,444.123565,-8503.660028,-148.041188
4346.014304,444.123565,-8580.269578,-296.082377
4346.014629,518.144159,-8273.831378,0.000000
4346.014953,370.102971,-8656.879127,-296.082377
4346.015277,222.061783,-8656.879127,-370.102971
4346.015602,296.082377,-8656.879127,-222.061783
4346.015926,222.061783,-8733.488677,-148.041188
4346.016251,444.123565,-8580.269578,-148.041188
4346.016575,-222.061783,-8810.098227,222.061783
4346.016900,518.144159,-8427.050478,-444.123565
4346.017224,444.123565,-8427.050478,-148.041188
4346.017549,518.144159,-8580.269578,-148.041188
4346.017873,222.061783,-8580.269578,-296.082377
4346.018198,518.144159,-8273.831378,-518.144159
4346.018522,370.102971,-8350.440928,-444.123565
4346.018847,518.144159,-8580.269578,-222.061783
4346.019171,222.061783,-8733.488677,-222.061783
4346.019496,666.185348,-8656.879127,-296.082377
4346.019820,444.123565,-8656.879127,-296.082377
4346.020145,666.185348,-8580.269578,-444.123565
4346.020469,222.061783,-8580.269578,0.000000
4346.020794,740.205942,-8580.269578,0.000000
4346.021118,370.102971,-8733.488677,-222.061783
4346.021443,222.061783,-8350.440928,-518.144159
4346.021767,444.123565,-8733.488677,-592.164754
4346.022092,222.061783,-8656.879127,-518.144159
4346.022416,222.061783,-8886.707777,0.000000
4346.022741,370.102971,-8656.879127,-518.144159
4346.023065,518.144159,-8503.660028,-296.082377
4346.023390,370.102971,-8044.002729,-370.102971
4346.023714,814.226536,-9039.926876,-592.164754
4346.024039,296.082377,-8273.831378,-518.144159
4346.024363,296.082377,-8733.488677,-222.061783
4346.024688,74.020594,-8733.488677,-444.123565
4346.025012,592.164754,-8580.269578,-518.144159
4346.025336,518.144159,-8733.488677,-296.082377
4346.025661,370.102971,-8656.879127,-740.205942
4346.025985,444.123565,-8580.269578,-444.123565
4346.026310,296.082377,-8656.879127,-370.102971
4346.026634,592.164754,-8503.660028,-296.082377
4346.026959,518.144159,-8350.440928,-444.123565
4346.027283,518.144159,-8733.488677,-296.082377
4346.027608,518.144159,-8427.050478,-296.082377
4346.027932,148.041188,-8503.660028,-296.082377
4346.028257,444.123565,-8810.098227,-444.123565
4346.028581,444.123565,-8503.660028,-518.144159
4346.028906,444.123565,-8810.098227,-666.185348
4346.029230,222.061783,-7890.783629,-444.123565
4346.029555,518.144159,-8580.269578,-296.082377
4346.029879,370.102971,-8733.488677,-370.102971
4346.030204,518.144159,-8963.317327,-518.144159
4346.030528,296.082377,-8810.098227,-666.185348
4346.030853,740.205942,-8503.660028,-444.123565
4346.031177,444.123565,-8350.440928,-370.102971
4346.031502,444.123565,-8580.269578,-444.123565
4346.031826,370.102971,-8350.440928,-296.082377
4346.032151,888.247130,-9346.365076,-222.061783
4346.032475,444.123565,-8733.488677,-740.205942
4346.032800,666.185348,-8733.488677,-444.123565
4346.033124,370.102971,-8580.269578,-592.164754
4346.033449,296.082377,-8350.440928,-222.061783
4346.033773,296.082377,-8427.050478,-444.123565
4346.034098,518.144159,-8733.488677,-814.226536
4346.034422,592.164754,-8886.707777,-518.144159
4346.034747,296.082377,-8427.050478,-370.102971
4346.035071,0.000000,-8350.440928,-296.082377
4346.035395,518.144159,-8503.660028,-444.123565
4346.035720,444.123565,-8810.098227,-444.123565
4346.036044,296.082377,-8580.269578,-666.185348
4346.036369,370.102971,-8580.269578,-666.185348
4346.036693,296.082377,-8273.831378,-74.020594
4346.037018,444.123565,-8580.269578,-296.082377
4346.037342,222.061783,-8350.440928,-370.102971
4346.037667,370.102971,-8886.707777,-296.082377
4346.037991,592.164754,-8273.831378,-296.082377
4346.038316,592.164754,-8656.879127,-444.123565
4346.038640,370.102971,-8503.660028,-296.082377
4346.038965,370.102971,-8427.050478,-222.061783
4346.039289,444.123565,-8886.707777,-518.144159
4346.039614,444.123565,-8580.269578,-222.061783
4346.039938,518.144159,-8503.660028,-592.164754
4346.040263,370.102971,-8427.050478,-222.061783
4346.040587,370.102971,-9499.584175,-148.041188
4346.040912,444.123565,-8656.879127,0.000000
4346.041236,518.144159,-8656.879127,-592.164754
4346.041561,888.247130,-8273.831378,-296.082377
4346.041885,592.164754,-8733.488677,-370.102971
4346.042210,222.061783,-8733.488677,-370.102971
4346.042534,592.164754,-8427.050478,-222.061783
4346.042859,666.185348,-8656.879127,-518.144159
4346.043183,370.102971,-8580.269578,0.000000
4346.043508,0.000000,-8273.831378,0.000000
4346.043832,444.123565,-8656.879127,-444.123565
4346.044157,148.041188,-8427.050478,-296.082377
4346.044481,518.144159,-8656.879127,-370.102971
4346.044806,740.205942,-8350.440928,-740.205942
4346.045130,444.123565,-8273.831378,-444.123565
4346.045454,518.144159,-8810.098227,-296.082377
4346.045779,74.020594,-8197.221829,-74.020594
4346.046103,666.185348,-8656.879127,-370.102971
4346.046428,444.123565,-8656.879127,-518.144159
4346.046752,518.144159,-8810.098227,-148.041188
4346.047077,74.020594,-8733.488677,-222.061783
4346.047401,370.102971,-8580.269578,-222.061783
4346.047726,444.123565,-8810.098227,-518.144159
4346.048050,592.164754,-8733.488677,-370.102971
4346.048375,444.123565,-8503.660028,-296.082377
4346.048699,296.082377,-8503.660028,-222.061783
4346.049024,518.144159,-8810.098227,-740.205942
4346.049348,222.061783,-8656.879127,-370.102971
4346.049673,444.123565,-8733.488677,-222.061783
4346.049997,296.082377,-8656.879127,-592.164754
4346.050322,518.144159,-8120.612279,-370.102971
4346.050646,0.000000,-8656.879127,-296.082377
4346.050971,444.123565,-8580.269578,-444.123565
4346.051295,222.061783,-8427.050478,-296.082377
4346.051620,370.102971,-8656.879127,-444.123565
4346.051944,370.102971,-8733.488677,296.082377
4346.052269,296.082377,-8656.879127,-370.102971
4346.052593,444.123565,-8580.269578,-518.144159
4346.052917,296.082377,-8503.660028,-518.144159
4346.053242,666.185348,-8886.707777,-518.144159
4346.053566,814.226536,-8427.050478,-518.144159
4346.053890,444.123565,-8733.488677,-444.123565
4346.054215,370.102971,-8733.488677,-222.061783
4346.054539,592.164754,-8503.660028,-370.102971
4346.054863,814.226536,-9039.926876,-444.123565
4346.055188,666.185348,-8580.269578,-222.061783
4346.055512,370.102971,-8656.879127,-296.082377
4346.055836,222.061783,-8656.879127,-370.102971
4346.056160,592.164754,-9039.926876,148.041188
4346.056485,296.082377,-8580.269578,-518.144159
4346.056809,444.123565,-8427.050478,-222.061783
4346.057133,592.164754,-8580.269578,-444.123565
4346.057458,518.144159,-8656.879127,-222.061783
4346.057782,148.041188,-8810.098227,-222.061783
4346.058106,518.144159,-8580.269578,-370.102971
4346.058431,370.102971,-8733.488677,-518.144159
4346.058755,592.164754,-8580.269578,-296.082377
4346.059079,74.020594,-8273.831378,74.020594
4346.059404,296.082377,-8886.707777,-518.144159
4346.059728,222.061783,-8503.660028,-370.102971
4346.060052,518.144159,-8503.660028,-222.061783
4346.060376,518.144159,-8580.269578,0.000000
4346.060701,222.061783,-8503.660028,0.000000
4346.061025,518.144159,-8503.660028,-370.102971
4346.061349,444.123565,-8580.269578,0.000000
4346.061674,592.164754,-8197.221829,-370.102971
4346.061998,222.061783,-8733.488677,-296.082377
4346.062322,444.123565,-8733.488677,-296.082377
4346.062647,0.000000,-8580.269578,-148.041188
4346.062971,0.000000,-8427.050478,-518.144159
4346.063295,1036.288319,-8810.098227,-222.061783
4346.063619,592.164754,-8427.050478,-370.102971
4346.063944,222.061783,-8427.050478,-518.144159
4346.064268,518.144159,-8580.269578,-518.144159
4346.064592,370.102971,-8580.269578,-222.061783
4346.064917,444.123565,-8656.879127,-444.123565
4346.065241,370.102971,-8733.488677,-444.123565
4346.065565,518.144159,-8810.098227,-370.102971
4346.065890,444.123565,-8427.050478,-370.102971
4346.066214,222.061783,-8427.050478,-370.102971
4346.066538,444.123565,-8810.098227,-296.082377
4346.066863,296.082377,-8580.269578,-370.102971
4346.067187,370.102971,-9039.926876,-592.164754
4346.067511,370.102971,-8273.831378,0.000000
4346.067835,296.082377,-8350.440928,-370.102971
4346.068160,444.123565,-8656.879127,0.000000
4346.068484,370.102971,-8273.831378,-518.144159
4346.068808,444.123565,-8810.098227,-592.164754
4346.069133,740.205942,-8810.098227,-740.205942
4346.069457,370.102971,-8580.269578,-666.185348
4346.069781,296.082377,-8886.707777,-296.082377
4346.070106,444.123565,-8427.050478,-592.164754
4346.070430,592.164754,-8656.879127,-592.164754
4346.070754,444.123565,-8427.050478,-444.123565
4346.071078,444.123565,-8733.488677,-444.123565
4346.071403,222.061783,-8656.879127,-592.164754
4346.071727,518.144159,-8580.269578,-296.082377
4346.072051,518.144159,-8273.831378,-592.164754
4346.072376,666.185348,-8810.098227,-592.164754
4346.072700,518.144159,-8427.050478,-518.144159
4346.073024,296.082377,-8656.879127,-296.082377
4346.073349,74.020594,-8886.707777,-444.123565
4346.073673,222.061783,-8503.660028,-296.082377
4346.073997,444.123565,-8733.488677,-518.144159
4346.074321,444.123565,-8350.440928,-666.185348
4346.074646,592.164754,-8656.879127,0.000000
4346.074970,444.123565,-8580.269578,-518.144159
4346.075294,296.082377,-8580.269578,-296.082377
4346.075619,518.144159,-8580.269578,-592.164754
4346.075943,444.123565,-8197.221829,-296.082377
4346.076267,370.102971,-8350.440928,-296.082377
4346.076592,518.144159,-8886.707777,-222.061783
4346.076916,444.123565,-8580.269578,-296.082377
4346.077240,592.164754,-8656.879127,-296.082377
4346.077565,518.144159,-8503.660028,-370.102971
4346.077889,444.123565,-8580.269578,-296.082377
4346.078213,222.061783,-8656.879127,-444.123565
4346.078537,666.185348,-8656.879127,-296.082377
4346.078862,222.061783,-8886.707777,0.000000
4346.079186,518.144159,-8733.488677,-370.102971
4346.079510,814.226536,-8350.440928,-370.102971
4346.079835,370.102971,-8656.879127,-296.082377
4346.080159,518.144159,-8427.050478,-370.102971
4346.080483,222.061783,-8580.269578,0.000000
4346.080808,518.144159,-8580.269578,-222.061783
4346.081132,518.144159,-8733.488677,-370.102971
4346.081456,444.123565,-8580.269578,-370.102971
4346.081780,0.000000,-8733.488677,0.000000
4346.082105,370.102971,-8503.660028,0.000000
4346.082429,296.082377,-8656.879127,-296.082377
4346.082753,518.144159,-8733.488677,-814.226536
4346.083078,444.123565,-8427.050478,-592.164754
4346.083402,296.082377,-8580.269578,-296.082377
4346.083726,296.082377,-9039.926876,-370.102971
4346.084051,296.082377,-8350.440928,-296.082377
4346.084375,592.164754,-8656.879127,-296.082377
4346.084699,444.123565,-8656.879127,-592.164754
4346.085024,518.144159,-8810.098227,-370.102971
4346.085348,222.061783,-8503.660028,-370.102971
4346.085672,296.082377,-8733.488677,-296.082377
4346.085996,518.144159,-8810.098227,-444.123565
4346.086321,222.061783,-8810.098227,-296.082377
4346.086645,666.185348,-8427.050478,-370.102971
4346.086969,370.102971,-8733.488677,-296.082377
4346.087294,0.000000,-8886.707777,148.041188
4346.087618,592.164754,-8656.879127,-592.164754
4346.087942,444.123565,-9039.926876,-296.082377
4346.088267,444.123565,-8656.879127,-222.061783
4346.088591,444.123565,-8580.269578,-74.020594
4346.088915,518.144159,-8580.269578,-222.061783
4346.089239,370.102971,-8656.879127,-296.082377
4346.089564,518.144159,-8580.269578,-444.123565
4346.089888,518.144159,-8503.660028,-148.041188
4346.090212,592.164754,-8273.831378,-370.102971
4346.090537,148.041188,-8810.098227,-296.082377
4346.090861,296.082377,-8427.050478,-222.061783
4346.091185,666.185348,-8580.269578,-296.082377
4346.091510,222.061783,-8427.050478,-296.082377
4346.091834,444.123565,-8656.879127,0.000000
4346.092158,296.082377,-8580.269578,-222.061783
4346.092483,592.164754,-8503.660028,-296.082377
4346.092807,444.123565,-8580.269578,-370.102971
4346.093131,518.144159,-9116.536426,-370.102971
4346.093455,592.164754,-8503.660028,-148.041188
4346.093780,444.123565,-8656.879127,-74.020594
4346.094104,370.102971,-8580.269578,-444.123565
4346.094428,1036.288319,-8580.269578,-370.102971
4346.094753,518.144159,-8656.879127,-518.144159
4346.095077,518.144159,-8580.269578,-592.164754
4346.095401,666.185348,-8656.879127,0.000000
4346.095726,444.123565,-9269.755526,296.082377
4346.096050,444.123565,-8580.269578,0.000000
4346.096374,592.164754,-8503.660028,-518.144159
4346.096698,370.102971,-8273.831378,-296.082377
4346.097023,518.144159,-8427.050478,-296.082377
4346.097347,222.061783,-8656.879127,0.000000
4346.097671,296.082377,-8733.488677,0.000000
4346.097996,592.164754,-8197.221829,-370.102971
4346.098320,592.164754,-8580.269578,-592.164754
4346.098644,296.082377,-8044.002729,0.000000
4346.098969,222.061783,-8810.098227,0.000000
4346.099293,296.082377,-8580.269578,-444.123565
4346.099617,444.123565,-8963.317327,-222.061783
4346.099942,370.102971,-8580.269578,-296.082377
4346.100266,518.144159,-8810.098227,-444.123565
4346.100590,518.144159,-8197.221829,-222.061783
4346.100914,296.082377,-8656.879127,-296.082377
4346.101239,370.102971,-8886.707777,-222.061783
4346.101563,814.226536,-8580.269578,-444.123565
4346.101887,518.144159,-8656.879127,-370.102971
4346.102212,444.123565,-8503.660028,0.000000
4346.102536,74.020594,-8580.269578,-370.102971
4346.102860,444.123565,-8044.002729,0.000000
4346.103185,518.144159,-8273.831378,-370.102971
4346.103509,444.123565,-8810.098227,-296.082377
4346.103833,518.144159,-8580.269578,-296.082377
4346.104157,592.164754,-8810.098227,0.000000
4346.104482,148.041188,-8656.879127,-444.123565
4346.104806,296.082377,-8733.488677,-444.123565
4346.105130,444.123565,-8886.707777,-518.144159
4346.105455,148.041188,-8503.660028,-370.102971
4346.105779,592.164754,-8503.660028,-296.082377
4346.106103,296.082377,-8580.269578,-370.102971
4346.106428,444.123565,-8503.660028,-296.082377
4346.106752,148.041188,-8733.488677,-370.102971
4346.107076,1036.288319,-8810.098227,-518.144159
4346.107401,444.123565,-8427.050478,-370.102971
4346.107725,444.123565,-8580.269578,-296.082377
4346.108049,148.041188,-8810.098227,-222.061783
4346.108373,296.082377,-8350.440928,-518.144159
4346.108698,222.061783,-8656.879127,0.000000
4346.109022,518.144159,-8503.660028,-592.164754
4346.109346,444.123565,-8733.488677,-444.123565
4346.109671,444.123565,-8656.879127,-444.123565
4346.109995,370.102971,-8503.660028,-444.123565
4346.110319,370.102971,-8733.488677,-518.144159
4346.110644,518.144159,-8810.098227,0.000000
4346.110968,296.082377,-8273.831378,-222.061783
4346.111292,740.205942,-8810.098227,-444.123565
4346.111616,444.123565,-8580.269578,-444.123565
4346.111941,518.144159,-8580.269578,-518.144159
4346.112265,370.102971,-8733.488677,-592.164754
4346.112589,370.102971,-8580.269578,-296.082377
4346.112914,222.061783,-8963.317327,-296.082377
4346.113238,370.102971,-8656.879127,-222.061783
4346.113562,444.123565,-8580.269578,-370.102971
4346.113887,296.082377,-8656.879127,-222.061783
4346.114211,592.164754,-8580.269578,-370.102971
4346.114535,444.123565,-8427.050478,0.000000
4346.114860,296.082377,-8580.269578,-296.082377
4346.115184,296.082377,-8273.831378,-222.061783
4346.115508,962.267725,-8120.612279,-518.144159
4346.115832,370.102971,-8733.488677,-592.164754
4346.116157,296.082377,-8427.050478,-222.061783
4346.116481,370.102971,-8580.269578,-296.082377
4346.116805,518.144159,-8427.050478,-296.082377
4346.117130,296.082377,-8197.221829,-296.082377
4346.117454,518.144159,-8656.879127,-518.144159
4346.117778,370.102971,-8733.488677,-222.061783
4346.118103,148.041188,-8503.660028,-444.123565
4346.118427,592.164754,-8503.660028,-666.185348
4346.118751,222.061783,-8120.612279,-444.123565
4346.119075,296.082377,-8656.879127,-296.082377
4346.119400,370.102971,-8580.269578,-222.061783
4346.119724,370.102971,-8580.269578,-148.041188
4346.120048,444.123565,-8503.660028,-296.082377
4346.120373,444.123565,-8197.221829,-222.061783
4346.120697,222.061783,-8503.660028,-370.102971
4346.121021,296.082377,-8656.879127,-444.123565
4346.121346,370.102971,-8120.612279,-148.041188
4346.121670,222.061783,-8503.660028,-148.041188
4346.121994,296.082377,-8733.488677,0.000000
4346.122318,518.144159,-8427.050478,-222.061783
4346.122643,592.164754,-8810.098227,0.000000
4346.122967,296.082377,-8580.269578,-222.061783
4346.123291,370.102971,-8580.269578,0.000000
4346.123616,296.082377,-8503.660028,0.000000
4346.123940,740.205942,-8656.879127,-222.061783
4346.124264,444.123565,-8580.269578,-370.102971
4346.124589,740.205942,-8963.317327,-370.102971
4346.124913,370.102971,-8350.440928,-296.082377
4346.125237,666.185348,-8733.488677,-148.041188
4346.125562,222.061783,-8044.002729,-296.082377
4346.125886,740.205942,-8733.488677,-296.082377
4346.126210,444.123565,-8503.660028,-222.061783
4346.126534,444.123565,-8810.098227,0.000000
4346.126859,592.164754,-8503.660028,-666.185348
4346.127183,592.164754,-8733.488677,-296.082377
4346.127507,296.082377,-8580.269578,-222.061783
4346.127832,592.164754,-8733.488677,-222.061783
4346.128156,592.164754,-8580.269578,0.000000
4346.128480,518.144159,-8503.660028,-222.061783
4346.128805,518.144159,-8810.098227,-74.020594
4346.129129,296.082377,-8503.660028,-222.061783
4346.129453,592.164754,-8810.098227,-222.061783
4346.129777,592.164754,-8963.317327,0.000000
4346.130102,296.082377,-8656.879127,0.000000
4346.130426,370.102971,-8427.050478,-444.123565
4346.130750,592.164754,-8733.488677,-148.041188
4346.131075,666.185348,-9116.536426,-222.061783
4346.131399,592.164754,-8580.269578,-222.061783
4346.131723,370.102971,-8427.050478,-444.123565
4346.132048,222.061783,-8656.879127,-222.061783
4346.132372,444.123565,-8580.269578,-296.082377
4346.132696,592.164754,-8427.050478,-222.061783
4346.133021,444.123565,-8810.098227,-518.144159
4346.133345,370.102971,-8580.269578,-296.082377
4346.133669,296.082377,-8733.488677,-296.082377
4346.133993,666.185348,-8656.879127,-444.123565
4346.134318,444.123565,-8656.879127,-222.061783
4346.134642,222.061783,-8427.050478,-370.102971
4346.134966,592.164754,-9039.926876,-666.185348
4346.135291,518.144159,-8810.098227,-296.082377
4346.135615,222.061783,-8656.879127,-296.082377
4346.135939,222.061783,-8810.098227,-222.061783
4346.136264,222.061783,-8580.269578,-222.061783
4346.136588,370.102971,-8656.879127,-296.082377
4346.136912,444.123565,-8580.269578,-148.041188
4346.137236,444.123565,-8656.879127,-444.123565
4346.137561,296.082377,-8427.050478,-296.082377
4346.137885,222.061783,-8350.440928,-370.102971
4346.138209,148.041188,-8886.707777,0.000000
4346.138534,444.123565,-8733.488677,-148.041188
4346.138858,518.144159,-8197.221829,-370.102971
4346.139182,518.144159,-8810.098227,-518.144159
4346.139507,444.123565,-8427.050478,-518.144159
4346.139831,296.082377,-8580.269578,-296.082377
4346.140155,370.102971,-8503.660028,-592.164754
4346.140480,444.123565,-8886.707777,-296.082377
4346.140804,222.061783,-8503.660028,-370.102971
4346.141128,666.185348,-8503.660028,-370.102971
4346.141452,444.123565,-8733.488677,-444.123565
4346.141777,370.102971,-8427.050478,-518.144159
4346.142101,370.102971,-8580.269578,-370.102971
4346.142425,888.247130,-8044.002729,0.000000
4346.142750,222.061783,-8503.660028,-370.102971
4346.143074,518.144159,-8733.488677,-666.185348
4346.143398,740.205942,-8503.660028,-444.123565
4346.143723,518.144159,-8580.269578,-666.185348
4346.144047,592.164754,-8350.440928,-518.144159
4346.144371,666.185348,-8733.488677,-444.123565
4346.144695,296.082377,-8810.098227,-592.164754
4346.145020,518.144159,-8427.050478,-444.123565
4346.145344,370.102971,-8350.440928,-666.185348
4346.145668,222.061783,-8503.660028,-148.041188
4346.145993,370.102971,-8503.660028,-370.102971
4346.146317,444.123565,-8733.488677,-444.123565
4346.146641,592.164754,-7890.783629,0.000000
4346.146966,370.102971,-8733.488677,-444.123565
4346.147290,518.144159,-8503.660028,-370.102971
4346.147614,296.082377,-8810.098227,0.000000
4346.147939,740.205942,-8656.879127,-444.123565
4346.148263,444.123565,-8427.050478,-592.164754
4346.148587,666.185348,-8580.269578,-740.205942
4346.148911,592.164754,-8656.879127,-296.082377
4346.149236,666.185348,-8273.831378,-296.082377
4346.149560,518.144159,-8733.488677,-518.144159
4346.149884,518.144159,-8656.879127,-370.102971
4346.150209,444.123565,-8427.050478,-518.144159
4346.150533,592.164754,-8733.488677,-518.144159
4346.150857,666.185348,-8580.269578,-148.041188
4346.151182,444.123565,-8580.269578,-296.082377
4346.151506,518.144159,-8810.098227,-370.102971
4346.151830,296.082377,-8350.440928,-296.082377
4346.152154,370.102971,-8810.098227,-592.164754
4346.152479,518.144159,-8503.660028,-148.041188
4346.152803,444.123565,-8427.050478,-370.102971
4346.153127,370.102971,-8656.879127,-444.123565
4346.153452,444.123565,-8503.660028,-370.102971
4346.153776,74.020594,-8427.050478,-740.205942
4346.154100,518.144159,-8810.098227,-296.082377
4346.154425,148.041188,-8503.660028,-222.061783
4346.154749,518.144159,-8886.707777,-222.061783
4346.155073,296.082377,-7967.393179,-296.082377
4346.155398,222.061783,-8350.440928,-222.061783
4346.155722,518.144159,-8656.879127,-148.041188
4346.156046,518.144159,-8427.050478,-370.102971
4346.156371,370.102971,-8580.269578,-222.061783
4346.156695,0.000000,-8503.660028,-518.144159
4346.157019,444.123565,-8580.269578,-222.061783
4346.157344,370.102971,-8350.440928,-740.205942
4346.157668,222.061783,-8427.050478,0.000000
4346.157992,222.061783,-8197.221829,-74.020594
4346.158317,222.061783,-8963.317327,0.000000
4346.158641,296.082377,-8733.488677,-370.102971
4346.158965,592.164754,-8580.269578,-370.102971
4346.159290,370.102971,-8733.488677,-222.061783
4346.159614,444.123565,-8350.440928,0.000000
4346.159938,592.164754,-8503.660028,-148.041188
4346.160263,444.123565,-8656.879127,-370.102971
4346.160587,444.123565,-8580.269578,-222.061783
4346.160911,814.226536,-8733.488677,-296.082377
4346.161236,444.123565,-8580.269578,-296.082377
4346.161560,148.041188,-8427.050478,-370.102971
4346.161884,296.082377,-8503.660028,-296.082377
4346.162209,296.082377,-8733.488677,-148.041188
4346.162533,444.123565,-8810.098227,-370.102971
4346.162857,444.123565,-8580.269578,-222.061783
4346.163181,592.164754,-8656.879127,0.000000
4346.163506,444.123565,-8656.879127,-296.082377
4346.163830,444.123565,-8733.488677,-444.123565
4346.164154,444.123565,-8580.269578,-444.123565
4346.164479,222.061783,-8810.098227,-222.061783
4346.164803,296.082377,-8580.269578,0.000000
4346.165127,0.000000,-8273.831378,0.000000
4346.165452,222.061783,-8733.488677,0.000000
4346.165776,370.102971,-8503.660028,-222.061783
4346.166100,370.102971,-8886.707777,-518.144159
4346.166425,444.123565,-8580.269578,-814.226536
4346.166749,518.144159,-8580.269578,-370.102971
4346.167073,518.144159,-8656.879127,-444.123565
4346.167398,518.144159,-8350.440928,-370.102971
4346.167722,592.164754,-8580.269578,-370.102971
4346.168046,592.164754,-8580.269578,-592.164754
4346.168371,296.082377,-8580.269578,-518.144159
4346.168695,518.144159,-8503.660028,-370.102971
4346.169019,370.102971,-8427.050478,-518.144159
4346.169344,740.205942,-8886.707777,-444.123565
4346.169668,592.164754,-8886.707777,-518.144159
4346.169992,370.102971,-8197.221829,-296.082377
4346.170317,592.164754,-8733.488677,-444.123565
4346.170641,444.123565,-9422.974625,-370.102971
4346.170965,814.226536,-8656.879127,-370.102971
4346.171290,666.185348,-8656.879127,-296.082377
4346.171614,592.164754,-8810.098227,-296.082377
4346.171938,74.020594,-8503.660028,-518.144159
4346.172263,296.082377,-9116.536426,0.000000
4346.172587,296.082377,-8503.660028,-518.144159
4346.172911,666.185348,-8733.488677,-518.144159
4346.173236,296.082377,-8580.269578,-444.123565
4346.173560,0.000000,-8886.707777,0.000000
4346.173884,370.102971,-8810.098227,-370.102971
4346.174209,444.123565,-8656.879127,-370.102971
4346.174533,592.164754,-8580.269578,-592.164754
4346.174857,444.123565,-8656.879127,-592.164754
4346.175182,444.123565,-8503.660028,-370.102971
4346.175506,444.123565,-8810.098227,-518.144159
4346.175830,222.061783,-8733.488677,-296.082377
4346.176155,296.082377,-8427.050478,-814.226536
4346.176479,518.144159,-9346.365076,-370.102971
4346.176803,444.123565,-8810.098227,-444.123565
4346.177128,222.061783,-8580.269578,-370.102971
4346.177452,740.205942,-8656.879127,-592.164754
4346.177776,0.000000,-8273.831378,-148.041188
4346.178100,666.185348,-8810.098227,-444.123565
4346.178425,444.123565,-8503.660028,-592.164754
4346.178749,370.102971,-8503.660028,-444.123565
4346.179073,518.144159,-8503.660028,-370.102971
4346.179398,444.123565,-8656.879127,-222.061783
4346.179722,222.061783,-8503.660028,-666.185348
4346.180046,444.123565,-8810.098227,-518.144159
4346.180371,444.123565,-8273.831378,-296.082377
4346.180695,148.041188,-8810.098227,0.000000
4346.181019,370.102971,-8580.269578,-370.102971
4346.181344,666.185348,-8197.221829,-370.102971
4346.181668,814.226536,-8733.488677,-592.164754
4346.181992,518.144159,-9116.536426,296.082377
4346.182317,592.164754,-8886.707777,-370.102971
4346.182641,370.102971,-8656.879127,-444.123565
4346.182965,518.144159,-8350.440928,-148.041188
4346.183290,592.164754,-8656.879127,-444.123565
4346.183614,666.185348,-8580.269578,-222.061783
4346.183938,222.061783,-8503.660028,-444.123565
4346.184263,444.123565,-8656.879127,-222.061783
4346.184587,296.082377,-8427.050478,-296.082377
4346.184911,592.164754,-8197.221829,0.000000
4346.185236,444.123565,-8427.050478,-592.164754
4346.185560,444.123565,-8580.269578,-222.061783
4346.185884,222.061783,-8427.050478,-370.102971
4346.186209,518.144159,-8810.098227,-296.082377
4346.186533,222.061783,-8810.098227,-222.061783
4346.186857,222.061783,-9116.536426,-222.061783
4346.187182,518.144159,-8580.269578,-370.102971
4346.187506,444.123565,-8580.269578,-296.082377
4346.187830,222.061783,-8656.879127,-370.102971
4346.188155,518.144159,-8733.488677,-444.123565
4346.188479,222.061783,-8733.488677,-296.082377
4346.188803,444.123565,-8503.660028,-444.123565
4346.189128,666.185348,-8733.488677,-296.082377
4346.189452,296.082377,-8733.488677,-518.144159
4346.189776,370.102971,-8886.707777,0.000000
4346.190101,518.144159,-8350.440928,-370.102971
4346.190425,296.082377,-8963.317327,-518.144159
4346.190749,444.123565,-8273.831378,-296.082377
4346.191074,370.102971,-8810.098227,-148.041188
4346.191398,0.000000,-8350.440928,-518.144159
4346.191722,518.144159,-8580.269578,-296.082377
4346.192047,666.185348,-8886.707777,-222.061783
4346.192371,370.102971,-8580.269578,-370.102971
4346.192695,222.061783,-8580.269578,-222.061783
4346.193020,370.102971,-8580.269578,-370.102971
4346.193344,814.226536,-8656.879127,-296.082377
4346.193668,814.226536,-8886.707777,-370.102971
4346.193992,370.102971,-8733.488677,-370.102971
4346.194317,444.123565,-8580.269578,-296.082377
4346.194641,148.041188,-8810.098227,74.020594
4346.194965,518.144159,-8350.440928,-296.082377
4346.195290,370.102971,-8427.050478,-148.041188
4346.195614,518.144159,-8427.050478,-518.144159
4346.195938,444.123565,-8580.269578,-518.144159
4346.196263,222.061783,-7967.393179,-296.082377
4346.196587,370.102971,-8580.269578,0.000000
4346.196911,444.123565,-8350.440928,-296.082377
4346.197236,444.123565,-8733.488677,-370.102971
4346.197560,444.123565,-8197.221829,-222.061783
4346.197884,518.144159,-8350.440928,-444.123565
4346.198209,148.041188,-8733.488677,-296.082377
4346.198533,370.102971,-8810.098227,0.000000
4346.198857,370.102971,-8656.879127,-370.102971
4346.199182,222.061783,-8656.879127,-222.061783
4346.199506,444.123565,-8656.879127,-296.082377
4346.199830,444.123565,-8810.098227,-444.123565
4346.200155,592.164754,-8427.050478,-296.082377
4346.200479,518.144159,-9499.584175,-518.144159
4346.200803,370.102971,-8810.098227,-222.061783
4346.201128,592.164754,-8580.269578,-296.082377
4346.201452,296.082377,-8503.660028,0.000000
4346.201776,444.123565,-9269.755526,-74.020594
4346.202101,222.061783,-8350.440928,-74.020594
4346.202425,444.123565,-8733.488677,-370.102971
4346.202749,222.061783,-8503.660028,-296.082377
4346.203074,592.164754,-8656.879127,0.000000
4346.203398,0.000000,-8810.098227,-370.102971
4346.203722,296.082377,-8810.098227,-370.102971
4346.204047,296.082377,-8580.269578,-518.144159
4346.204371,444.123565,-8656.879127,-296.082377
4346.204695,740.205942,-8886.707777,74.020594
4346.205020,370.102971,-8656.879127,0.000000
4346.205344,148.041188,-8503.660028,-370.102971
4346.205668,444.123565,-8733.488677,-222.061783
4346.205993,592.164754,-8580.269578,-370.102971
4346.206317,518.144159,-8733.488677,-222.061783
4346.206641,296.082377,-8886.707777,-222.061783
4346.206966,444.123565,-8733.488677,-222.061783
4346.207290,222.061783,-8427.050478,-148.041188
4346.207614,74.020594,-8503.660028,-148.041188
4346.207939,518.144159,-8733.488677,-148.041188
4346.208263,444.123565,-8503.660028,-370.102971
4346.208587,444.123565,-8733.488677,-444.123565
4346.208911,222.061783,-8350.440928,-592.164754
4346.209236,740.205942,-8580.269578,-222.061783
4346.209560,148.041188,-8427.050478,-296.082377
4346.209884,222.061783,-8350.440928,-222.061783
4346.210209,296.082377,-8656.879127,-148.041188
4346.210533,222.061783,-8350.440928,-296.082377
4346.210857,518.144159,-8427.050478,-444.123565
4346.211182,74.020594,-8733.488677,-296.082377
4346.211506,518.144159,-8733.488677,-296.082377
4346.211830,444.123565,-8810.098227,-444.123565
4346.212155,592.164754,-8733.488677,-148.041188
4346.212479,296.082377,-8427.050478,-296.082377
4346.212803,518.144159,-8733.488677,-370.102971
4346.213128,444.123565,-8810.098227,-518.144159
4346.213452,518.144159,-8503.660028,-296.082377
4346.213776,444.123565,-8733.488677,-296.082377
4346.214101,296.082377,-8427.050478,-222.061783
4346.214425,666.185348,-8580.269578,-666.185348
4346.214749,518.144159,-8733.488677,-666.185348
4346.215074,370.102971,-8350.440928,-222.061783
4346.215398,74.020594,-8503.660028,-370.102971
4346.215722,592.164754,-8733.488677,-296.082377
4346.216047,518.144159,-8503.660028,0.000000
4346.216371,518.144159,-8810.098227,-518.144159
4346.216695,222.061783,-8350.440928,-148.041188
4346.217020,370.102971,-8810.098227,-222.061783
4346.217344,592.164754,-9269.755526,-666.185348
4346.217668,518.144159,-8656.879127,-444.123565
4346.217993,222.061783,-8656.879127,-370.102971
4346.218317,370.102971,-8656.879127,-518.144159
4346.218641,370.102971,-8503.660028,-296.082377
4346.218966,222.061783,-8580.269578,0.000000
4346.219290,444.123565,-8427.050478,-74.020594
4346.219614,518.144159,-8350.440928,-666.185348
4346.219939,370.102971,-8273.831378,-370.102971
4346.220263,0.000000,-8503.660028,-666.185348
4346.220587,592.164754,-8656.879127,-370.102971
4346.220912,296.082377,-8733.488677,0.000000
4346.221236,592.164754,-8427.050478,-296.082377
4346.221560,370.102971,-8503.660028,-222.061783
4346.221885,518.144159,-8580.269578,-222.061783
4346.222209,296.082377,-8427.050478,-592.164754
4346.222533,222.061783,-8580.269578,-296.082377
4346.222858,296.082377,-8580.269578,-518.144159
4346.223182,666.185348,-8733.488677,-518.144159
4346.223506,370.102971,-8656.879127,-518.144159
4346.223830,444.123565,-8580.269578,-222.061783
4346.224155,518.144159,-8733.488677,-444.123565
4346.224479,740.205942,-8810.098227,-296.082377
4346.224803,296.082377,-8350.440928,-518.144159
4346.225128,222.061783,-8886.707777,-296.082377
4346.225452,888.247130,-8427.050478,-370.102971
4346.225776,444.123565,-9039.926876,-370.102971
4346.226101,370.102971,-8886.707777,-370.102971
4346.226425,444.123565,-8427.050478,-370.102971
4346.226749,444.123565,-8733.488677,-444.123565
4346.227074,370.102971,-8580.269578,-370.102971
4346.227398,370.102971,-9193.145976,-296.082377
4346.227722,370.102971,-8580.269578,-222.061783
4346.228047,296.082377,-8580.269578,-444.123565
4346.228371,592.164754,-8733.488677,-370.102971
4346.228695,518.144159,-9116.536426,0.000000
4346.229020,444.123565,-8503.660028,-222.061783
4346.229344,592.164754,-8656.879127,-444.123565
4346.229668,296.082377,-8350.440928,-370.102971
4346.229993,370.102971,-8733.488677,-222.061783
4346.230317,296.082377,-8656.879127,-296.082377
4346.230641,666.185348,-8733.488677,-592.164754
4346.230966,296.082377,-8503.660028,-296.082377
4346.231290,518.144159,-8733.488677,-148.041188
4346.231614,444.123565,-8350.440928,-148.041188
4346.231939,666.185348,-8733.488677,-370.102971
4346.232263,370.102971,-8580.269578,-296.082377
4346.232587,222.061783,-8273.831378,-370.102971
4346.232912,74.020594,-8886.707777,148.041188
4346.233236,222.061783,-8503.660028,-148.041188
4346.233560,666.185348,-8580.269578,-592.164754
4346.233885,370.102971,-8580.269578,-592.164754
4346.234209,444.123565,-8503.660028,-148.041188
4346.234533,296.082377,-8503.660028,-370.102971
4346.234858,592.164754,-8810.098227,-370.102971
4346.235182,592.164754,-8503.660028,-296.082377
4346.235506,740.205942,-8810.098227,-370.102971
4346.235831,518.144159,-7584.345430,0.000000
4346.236155,296.082377,-8733.488677,-148.041188
4346.236479,444.123565,-8886.707777,-222.061783
4346.236804,296.082377,-8503.660028,-222.061783
4346.237128,666.185348,-9499.584175,-370.102971
4346.237452,296.082377,-8427.050478,-444.123565
4346.237777,444.123565,-8273.831378,0.000000
4346.238101,370.102971,-8656.879127,-222.061783
4346.238425,444.123565,-8580.269578,-370.102971
4346.238749,518.144159,-8810.098227,-148.041188
4346.239074,592.164754,-8656.879127,0.000000
4346.239398,444.123565,-8350.440928,-148.041188
4346.239722,444.123565,-8656.879127,-296.082377
4346.240047,814.226536,-8503.660028,-444.123565
4346.240371,518.144159,-8656.879127,-518.144159
4346.240695,370.102971,-8580.269578,-370.102971
4346.241020,370.102971,-8656.879127,-74.020594
4346.241344,370.102971,-8733.488677,0.000000
4346.241668,444.123565,-8580.269578,-518.144159
4346.241993,666.185348,-8656.879127,-444.123565
4346.242317,740.205942,-8580.269578,-370.102971
4346.242641,592.164754,-8886.707777,-222.061783
4346.242966,0.000000,-7967.393179,74.020594
4346.243290,148.041188,-8580.269578,0.000000
4346.243614,296.082377,-8350.440928,-296.082377
4346.243939,444.123565,-8733.488677,-444.123565
4346.244263,592.164754,-8044.002729,-370.102971
4346.244587,444.123565,-8733.488677,0.000000
4346.244912,296.082377,-8810.098227,-296.082377
4346.245236,370.102971,-8503.660028,-222.061783
4346.245560,370.102971,-8733.488677,-296.082377
4346.245885,444.123565,-8503.660028,-444.123565
4346.246209,740.205942,-8503.660028,-518.144159
4346.246533,444.123565,-8733.488677,-370.102971
4346.246858,592.164754,-8810.098227,-592.164754
4346.247182,296.082377,-7967.393179,-148.041188
4346.247506,592.164754,-8810.098227,-592.164754
4346.247831,518.144159,-8503.660028,-666.185348
4346.248155,592.164754,-9116.536426,-370.102971
4346.248479,740.205942,-8427.050478,-666.185348
4346.248804,444.123565,-8503.660028,-222.061783
4346.249128,370.102971,-8580.269578,-444.123565
4346.249452,518.144159,-8886.707777,-296.082377
4346.249777,370.102971,-8120.612279,-370.102971
4346.250101,666.185348,-8350.440928,-518.144159
4346.250425,370.102971,-8427.050478,-444.123565
4346.250750,444.123565,-8503.660028,-296.082377
4346.251074,444.123565,-8733.488677,-444.123565
4346.251398,1036.288319,-8656.879127,-370.102971
4346.251723,370.102971,-8656.879127,0.000000
4346.252047,518.144159,-8580.269578,-444.123565
4346.252371,518.144159,-8656.879127,-444.123565
4346.252696,592.164754,-8120.612279,-666.185348
4346.253020,888.247130,-8733.488677,-444.123565
4346.253344,518.144159,-8427.050478,-370.102971
4346.253668,518.144159,-8963.317327,-444.123565
4346.253993,444.123565,-8580.269578,-444.123565
4346.254317,518.144159,-8273.831378,-222.061783
4346.254642,444.123565,-8733.488677,-148.041188
4346.254966,666.185348,-8886.707777,-148.041188
4346.255290,444.123565,-8427.050478,-296.082377
4346.255615,148.041188,-8350.440928,-740.205942
4346.255939,592.164754,-8350.440928,-370.102971
4346.256263,518.144159,-8733.488677,-444.123565
4346.256588,592.164754,-8273.831378,-296.082377
4346.256912,222.061783,-7507.735880,-74.020594
4346.257237,296.082377,-8656.879127,-518.144159
4346.257561,370.102971,-8580.269578,-444.123565
4346.257885,370.102971,-8810.098227,-370.102971
4346.258210,296.082377,-8503.660028,-222.061783
4346.258534,592.164754,-8580.269578,-444.123565
4346.258858,518.144159,-8733.488677,-222.061783
4346.259183,518.144159,-8503.660028,-296.082377
4346.259507,666.185348,-8580.269578,-370.102971
4346.259831,666.185348,-9193.145976,-296.082377
4346.260156,518.144159,-8427.050478,-296.082377
4346.260480,148.041188,-8503.660028,-444.123565
4346.260805,444.123565,-8656.879127,-444.123565
4346.261129,444.123565,-8503.660028,-222.061783
4346.261453,518.144159,-8886.707777,-444.123565
4346.261778,518.144159,-8580.269578,-296.082377
4346.262102,222.061783,-8810.098227,-296.082377
4346.262426,370.102971,-8733.488677,-148.041188
4346.262751,740.205942,-8580.269578,-148.041188
4346.263075,814.226536,-8656.879127,-444.123565
4346.263399,518.144159,-8580.269578,-296.082377
4346.263724,518.144159,-8120.612279,-370.102971
4346.264048,666.185348,-9269.755526,-296.082377
4346.264373,592.164754,-8886.707777,-592.164754
4346.264697,592.164754,-8580.269578,-148.041188
4346.265021,444.123565,-8656.879127,-666.185348
4346.265346,296.082377,-8886.707777,-444.123565
4346.265670,370.102971,-8656.879127,-518.144159
4346.265994,296.082377,-8886.707777,-370.102971
4346.266319,444.123565,-8656.879127,-592.164754
4346.266643,444.123565,-8810.098227,-148.041188
4346.266968,888.247130,-8656.879127,-518.144159
4346.267292,370.102971,-8580.269578,-444.123565
4346.267616,222.061783,-8733.488677,-370.102971
4346.267941,296.082377,-8503.660028,-370.102971
4346.268265,592.164754,-8810.098227,-444.123565
4346.268589,370.102971,-8427.050478,-296.082377
4346.268914,296.082377,-8656.879127,-222.061783
4346.269238,444.123565,-8580.269578,-370.102971
4346.269562,370.102971,-8733.488677,-370.102971
4346.269887,666.185348,-8580.269578,-740.205942
4346.270211,296.082377,-8733.488677,-666.185348
4346.270536,370.102971,-8427.050478,-370.102971
4346.270860,74.020594,-8503.660028,-296.082377
4346.271184,518.144159,-9039.926876,-666.185348
4346.271509,296.082377,-8733.488677,-444.123565
4346.271833,296.082377,-8733.488677,-518.144159
4346.272157,444.123565,-8656.879127,-592.164754
4346.272482,370.102971,-9116.536426,-222.061783
4346.272806,592.164754,-8656.879127,-370.102971
4346.273130,296.082377,-8580.269578,-370.102971
4346.273455,370.102971,-8580.269578,-666.185348
4346.273779,370.102971,-8427.050478,-296.082377
4346.274104,148.041188,-8580.269578,0.000000
4346.274428,222.061783,-8427.050478,-444.123565
4346.274752,518.144159,-8656.879127,-370.102971
4346.275077,518.144159,-8273.831378,-444.123565
4346.275401,74.020594,-8810.098227,-740.205942
4346.275725,370.102971,-8733.488677,-296.082377
4346.276050,666.185348,-8427.050478,-592.164754
4346.276374,296.082377,-8503.660028,-444.123565
4346.276699,592.164754,-8580.269578,-296.082377
4346.277023,592.164754,-8810.098227,-740.205942
4346.277347,370.102971,-8427.050478,-444.123565
4346.277672,296.082377,-8503.660028,-148.041188
4346.277996,222.061783,-8656.879127,-444.123565
4346.278320,370.102971,-8503.660028,-592.164754
4346.278645,296.082377,-8733.488677,-148.041188
4346.278969,444.123565,-8580.269578,-444.123565
4346.279293,222.061783,-8427.050478,0.000000
4346.279618,740.205942,-8350.440928,-666.185348
4346.279942,222.061783,-8503.660028,-296.082377
4346.280267,518.144159,-8580.269578,-444.123565
4346.280591,296.082377,-8810.098227,-222.061783
4346.280915,592.164754,-8350.440928,-370.102971
4346.281240,518.144159,-8810.098227,-370.102971
4346.281564,370.102971,-8810.098227,-148.041188
4346.281888,444.123565,-8580.269578,-518.144159
4346.282213,444.123565,-8656.879127,-296.082377
4346.282537,888.247130,-8580.269578,-296.082377
4346.282861,296.082377,-8963.317327,-148.041188
4346.283186,296.082377,-8733.488677,-444.123565
4346.283510,592.164754,-8656.879127,-296.082377
4346.283835,814.226536,-9193.145976,-370.102971
4346.284159,370.102971,-8503.660028,-370.102971
4346.284483,296.082377,-8427.050478,0.000000
4346.284808,444.123565,-8427.050478,-222.061783
4346.285132,592.164754,-8656.879127,-222.061783
4346.285456,888.247130,-8503.660028,-518.144159
4346.285781,222.061783,-8580.269578,-222.061783
4346.286105,296.082377,-8427.050478,-222.061783
4346.286430,296.082377,-8886.707777,-148.041188
4346.286754,444.123565,-8810.098227,0.000000
4346.287078,370.102971,-8656.879127,0.000000
4346.287403,370.102971,-8886.707777,-370.102971
4346.287727,592.164754,-8733.488677,-148.041188
4346.288051,444.123565,-8580.269578,74.020594
4346.288376,444.123565,-8656.879127,-222.061783
4346.288700,444.123565,-8580.269578,-296.082377
4346.289024,666.185348,-8733.488677,-370.102971
4346.289349,296.082377,-8810.098227,-296.082377
4346.289673,518.144159,-8733.488677,0.000000
4346.289998,370.102971,-8886.707777,-296.082377
4346.290322,444.123565,-8580.269578,0.000000
4346.290646,296.082377,-8503.660028,-296.082377
4346.290971,148.041188,-8963.317327,-222.061783
4346.291295,592.164754,-8427.050478,-518.144159
4346.291619,222.061783,-8350.440928,0.000000
4346.291944,222.061783,-8656.879127,0.000000
4346.292268,296.082377,-8656.879127,-370.102971
4346.292592,222.061783,-8580.269578,-296.082377
4346.292917,518.144159,-8656.879127,-666.185348
4346.293241,370.102971,-8656.879127,-296.082377
4346.293566,222.061783,-8503.660028,-370.102971
4346.293890,296.082377,-8656.879127,0.000000
4346.294214,222.061783,-8350.440928,-444.123565
4346.294539,444.123565,-8886.707777,-592.164754
4346.294863,518.144159,-8427.050478,-370.102971
4346.295187,74.020594,-9193.145976,222.061783
4346.295512,518.144159,-8580.269578,-592.164754
4346.295836,518.144159,-8350.440928,-518.144159
4346.296161,296.082377,-8503.660028,-518.144159
4346.296485,370.102971,-8656.879127,-370.102971
4346.296809,148.041188,-8427.050478,-518.144159
4346.297134,296.082377,-8810.098227,-518.144159
4346.297458,370.102971,-8197.221829,-444.123565
4346.297782,740.205942,-8503.660028,-444.123565
4346.298107,1036.288319,-8733.488677,-518.144159
4346.298431,222.061783,-8503.660028,-444.123565
4346.298755,296.082377,-8580.269578,-370.102971
4346.299080,370.102971,-8580.269578,-370.102971
4346.299404,666.185348,-8810.098227,-518.144159
4346.299729,444.123565,-8810.098227,-296.082377
4346.300053,444.123565,-8580.269578,-592.164754
4346.300377,518.144159,-8656.879127,-444.123565
4346.300702,444.123565,-8580.269578,-370.102971
4346.301026,518.144159,-8810.098227,0.000000
4346.301350,592.164754,-8733.488677,-592.164754
4346.301675,740.205942,-8580.269578,-518.144159
4346.301999,444.123565,-8197.221829,-370.102971
4346.302323,74.020594,-8427.050478,0.000000
4346.302648,296.082377,-8733.488677,-370.102971
4346.302972,370.102971,-8580.269578,-444.123565
4346.303297,444.123565,-8503.660028,-370.102971
4346.303621,296.082377,-8733.488677,0.000000
4346.303945,296.082377,-8810.098227,0.000000
4346.304270,444.123565,-8656.879127,-296.082377
4346.304594,740.205942,-8427.050478,-296.082377
4346.304918,518.144159,-8886.707777,-444.123565
4346.305243,444.123565,-8503.660028,0.000000
4346.305567,222.061783,-8580.269578,-518.144159
4346.305892,518.144159,-8733.488677,-296.082377
4346.306216,444.123565,-8503.660028,-592.164754
4346.306540,370.102971,-8120.612279,0.000000
4346.306865,296.082377,-8427.050478,-444.123565
4346.307189,296.082377,-8503.660028,-74.020594
4346.307513,592.164754,-8656.879127,-296.082377
4346.307838,518.144159,-8503.660028,-518.144159
4346.308162,518.144159,-8810.098227,0.000000
4346.308486,444.123565,-8427.050478,-518.144159
4346.308811,666.185348,-8656.879127,-296.082377
4346.309135,222.061783,-8503.660028,-296.082377
4346.309460,222.061783,-8656.879127,0.000000
4346.309784,444.123565,-8427.050478,-518.144159
4346.310108,814.226536,-8733.488677,-370.102971
4346.310433,370.102971,-8580.269578,0.000000
4346.310757,962.267725,-8810.098227,-222.061783
4346.311081,444.123565,-8580.269578,-222.061783
4346.311406,592.164754,-8350.440928,-444.123565
4346.311730,444.123565,-8810.098227,-444.123565
4346.312054,592.164754,-8580.269578,-148.041188
4346.312379,296.082377,-8580.269578,-296.082377
4346.312703,222.061783,-8963.317327,-296.082377
4346.313028,370.102971,-8810.098227,-296.082377
4346.313352,444.123565,-8656.879127,-444.123565
4346.313676,222.061783,-8503.660028,-296.082377
4346.314001,370.102971,-8580.269578,-370.102971
4346.314325,518.144159,-8810.098227,-222.061783
4346.314649,296.082377,-8656.879127,-222.061783
4346.314974,740.205942,-8197.221829,0.000000
4346.315298,296.082377,-8656.879127,-222.061783
4346.315623,518.144159,-8503.660028,-148.041188
4346.315947,222.061783,-8427.050478,-444.123565
4346.316271,370.102971,-8810.098227,-296.082377
4346.316596,148.041188,-8503.660028,-518.144159
4346.316920,666.185348,-8886.707777,-592.164754
4346.317244,444.123565,-8656.879127,-518.144159
4346.317569,444.123565,-8503.660028,-222.061783
4346.317893,518.144159,-8273.831378,-888.247130
4346.318217,370.102971,-8733.488677,-296.082377
4346.318542,444.123565,-8350.440928,-518.144159
4346.318866,666.185348,-8580.269578,-444.123565
4346.319191,518.144159,-7967.393179,0.000000
4346.319515,444.123565,-8503.660028,0.000000
4346.319839,222.061783,-8503.660028,-296.082377
4346.320164,444.123565,-8580.269578,-296.082377
4346.320488,222.061783,-8427.050478,-296.082377
4346.320812,814.226536,-8273.831378,-444.123565
4346.321137,370.102971,-8656.879127,-518.144159
4346.321461,592.164754,-8503.660028,-370.102971
4346.321785,444.123565,-8350.440928,-296.082377
4346.322110,296.082377,-8503.660028,-296.082377
4346.322434,444.123565,-8656.879127,-296.082377
4346.322759,296.082377,-8503.660028,-74.020594
4346.323083,296.082377,-8580.269578,-444.123565
4346.323407,222.061783,-8580.269578,0.000000
4346.323732,592.164754,-8350.440928,-370.102971
4346.324056,592.164754,-8503.660028,-518.144159
4346.324380,592.164754,-8656.879127,-370.102971
4346.324705,222.061783,-8427.050478,-518.144159
4346.325029,444.123565,-8656.879127,-592.164754
4346.325354,74.020594,-8427.050478,-74.020594
4346.325678,370.102971,-8580.269578,-296.082377
4346.326002,296.082377,-8503.660028,-148.041188
4346.326327,370.102971,-7967.393179,-370.102971
4346.326651,444.123565,-8886.707777,-296.082377
4346.326975,518.144159,-8503.660028,-592.164754
4346.327300,592.164754,-8656.879127,-222.061783
4346.327624,148.041188,-8427.050478,-444.123565
4346.327948,666.185348,-8580.269578,-148.041188
4346.328273,222.061783,-8350.440928,-592.164754
4346.328597,296.082377,-8580.269578,-222.061783
4346.328922,740.205942,-8427.050478,-370.102971
4346.329246,222.061783,-8963.317327,-296.082377
4346.329570,518.144159,-8580.269578,-296.082377
4346.329895,370.102971,-8656.879127,-444.123565
4346.330219,444.123565,-8733.488677,0.000000
4346.330543,444.123565,-9193.145976,74.020594
4346.330868,592.164754,-8886.707777,-296.082377
4346.331192,296.082377,-8273.831378,-296.082377
4346.331516,518.144159,-8733.488677,0.000000
4346.331841,296.082377,-8656.879127,-370.102971
4346.332165,444.123565,-8580.269578,0.000000
4346.332490,518.144159,-8580.269578,-370.102971
4346.332814,370.102971,-8656.879127,-222.061783
4346.333138,592.164754,-8350.440928,-148.041188
4346.333463,74.020594,-8427.050478,0.000000
4346.333787,222.061783,-8656.879127,-296.082377
4346.334111,370.102971,-8503.660028,-370.102971
4346.334436,518.144159,-8810.098227,-296.082377
4346.334760,370.102971,-8656.879127,-518.144159
4346.335085,740.205942,-8886.707777,-444.123565
4346.335409,296.082377,-8656.879127,0.000000
4346.335733,444.123565,-8503.660028,0.000000
4346.336058,740.205942,-8580.269578,-296.082377
4346.336382,444.123565,-8503.660028,-444.123565
4346.336706,592.164754,-8273.831378,-370.102971
4346.337031,296.082377,-8886.707777,-370.102971
4346.337355,444.123565,-8503.660028,-296.082377
4346.337679,666.185348,-8120.612279,-518.144159
4346.338004,444.123565,-8580.269578,-148.041188
4346.338328,296.082377,-8503.660028,-444.123565
4346.338653,370.102971,-8427.050478,-296.082377
4346.338977,296.082377,-9116.536426,-444.123565
4346.339301,370.102971,-8656.879127,-296.082377
4346.339626,222.061783,-8580.269578,-296.082377
4346.339950,444.123565,-8656.879127,-148.041188
4346.340274,74.020594,-8580.269578,-296.082377
4346.340599,444.123565,-8963.317327,-296.082377
4346.340923,296.082377,-8733.488677,-370.102971
4346.341247,222.061783,-8810.098227,-296.082377
4346.341572,518.144159,-8656.879127,-592.164754
4346.341896,0.000000,-9116.536426,296.082377
4346.342221,296.082377,-8810.098227,-222.061783
4346.342545,222.061783,-8733.488677,-148.041188
4346.342869,444.123565,-8733.488677,-370.102971
4346.343194,296.082377,-8580.269578,-222.061783
4346.343518,296.082377,-8503.660028,0.000000
4346.343842,370.102971,-8656.879127,-518.144159
4346.344167,518.144159,-8656.879127,-370.102971
4346.344491,370.102971,-8427.050478,-296.082377
4346.344816,666.185348,-8580.269578,-518.144159
4346.345140,296.082377,-8656.879127,-518.144159
4346.345464,74.020594,-8580.269578,-444.123565
4346.345789,370.102971,-8427.050478,-222.061783
4346.346113,222.061783,-8503.660028,-148.041188
4346.346437,518.144159,-8656.879127,-592.164754
4346.346762,518.144159,-8886.707777,-592.164754
4346.347086,592.164754,-8350.440928,-296.082377
4346.347410,296.082377,-8733.488677,-666.185348
4346.347735,518.144159,-8810.098227,-592.164754
4346.348059,296.082377,-8503.660028,-444.123565
4346.348384,666.185348,-8580.269578,-592.164754
4346.348708,518.144159,-8427.050478,-592.164754
4346.349032,888.247130,-8427.050478,-222.061783
4346.349357,370.102971,-8580.269578,-444.123565
4346.349681,370.102971,-8580.269578,-518.144159
4346.350005,370.102971,-8656.879127,-666.185348
4346.350330,444.123565,-8350.440928,-296.082377
4346.350654,370.102971,-8580.269578,-518.144159
4346.350978,148.041188,-8656.879127,-444.123565
4346.351303,296.082377,-8733.488677,-370.102971
4346.351627,296.082377,-8427.050478,-592.164754
4346.351951,666.185348,-8886.707777,-666.185348
4346.352276,370.102971,-8580.269578,-370.102971
4346.352600,666.185348,-8810.098227,-370.102971
4346.352924,370.102971,-8427.050478,-222.061783
4346.353249,814.226536,-8273.831378,0.000000
4346.353573,592.164754,-8503.660028,-518.144159
4346.353897,444.123565,-8503.660028,-444.123565
4346.354222,296.082377,-8810.098227,-444.123565
4346.354546,296.082377,-9116.536426,0.000000
4346.354870,444.123565,-8656.879127,-444.123565
4346.355195,592.164754,-8580.269578,-592.164754
4346.355519,370.102971,-8656.879127,-222.061783
4346.355843,444.123565,-8503.660028,-148.041188
4346.356167,518.144159,-8580.269578,-296.082377
4346.356492,296.082377,-8580.269578,-296.082377
4346.356816,740.205942,-8656.879127,-370.102971
4346.357140,370.102971,-8503.660028,-444.123565
4346.357465,370.102971,-8044.002729,74.020594
4346.357789,148.041188,-8733.488677,-592.164754
4346.358113,370.102971,-8580.269578,-296.082377
4346.358438,444.123565,-8656.879127,-296.082377
4346.358762,518.144159,-8886.707777,-444.123565
4346.359086,296.082377,-8503.660028,-296.082377
4346.359411,444.123565,-8580.269578,-74.020594
4346.359735,592.164754,-8733.488677,0.000000
4346.360059,222.061783,-8197.221829,-222.061783
4346.360384,740.205942,-8733.488677,-740.205942
4346.360708,296.082377,-8427.050478,-222.061783
4346.361032,370.102971,-8733.488677,-222.061783
4346.361356,222.061783,-8733.488677,-296.082377
4346.361681,1110.308913,-8427.050478,-444.123565
