#time,accel_x,accel_y,accel_z
4606.123247,296.082377,-8503.660028,-222.061783
4606.123571,222.061783,-8580.269578,-222.061783
4606.123896,518.144159,-8350.440928,-296.082377
4606.124220,518.144159,-8427.050478,-222.061783
4606.124544,592.164754,-8427.050478,-518.144159
4606.124869,444.123565,-8810.098227,-444.123565
4606.125193,296.082377,-8350.440928,0.000000
4606.125518,518.144159,-8656.879127,-148.041188
4606.125842,1110.308913,-8503.660028,-592.164754
4606.126166,666.185348,-8580.269578,-370.102971
4606.126491,518.144159,-8350.440928,-296.082377
4606.126815,444.123565,-8656.879127,0.000000
4606.127140,74.020594,-8503.660028,-222.061783
4606.127464,592.164754,-8580.269578,-518.144159
4606.127789,518.144159,-8580.269578,-592.164754
4606.128113,296.082377,-8503.660028,-296.082377
4606.128437,296.082377,-8580.269578,-370.102971
4606.128762,592.164754,-8197.221829,0.000000
4606.129086,370.102971,-8656.879127,-592.164754
4606.129411,370.102971,-8427.050478,-222.061783
4606.129735,518.144159,-8810.098227,-296.082377
4606.130059,370.102971,-8273.831378,0.000000
4606.130384,296.082377,-9116.536426,-296.082377
4606.130708,296.082377,-8503.660028,-222.061783
4606.131033,518.144159,-8580.269578,-518.144159
4606.131357,592.164754,-8503.660028,-666.185348
4606.131682,592.164754,-8503.660028,-444.123565
4606.132006,518.144159,-8656.879127,-444.123565
4606.132330,296.082377,-8427.050478,-148.041188
4606.132655,518.144159,-8580.269578,-296.082377
4606.132979,666.185348,-9193.145976,-814.226536
4606.133304,296.082377,-8503.660028,-222.061783
4606.133628,148.041188,-8580.269578,-666.185348
4606.133952,370.102971,-8656.879127,-222.061783
4606.134277,814.226536,-9039.926876,-296.082377
4606.134601,518.144159,-8733.488677,-370.102971
4606.134926,666.185348,-8580.269578,-370.102971
4606.135250,296.082377,-8503.660028,-222.061783
4606.135574,518.144159,-8427.050478,-296.082377
4606.135899,666.185348,-8580.269578,-148.041188
4606.136223,444.123565,-8656.879127,-444.123565
4606.136548,296.082377,-8350.440928,-444.123565
4606.136872,518.144159,-8503.660028,-296.082377
4606.137197,444.123565,-8656.879127,-296.082377
4606.137521,666.185348,-8810.098227,-296.082377
4606.137845,296.082377,-8197.221829,-370.102971
4606.138170,666.185348,-8733.488677,-444.123565
4606.138494,518.144159,-8197.221829,0.000000
4606.138819,296.082377,-8656.879127,-370.102971
4606.139143,444.123565,-8427.050478,-444.123565
4606.139467,222.061783,-8656.879127,0.000000
4606.139792,444.123565,-8810.098227,-444.123565
4606.140116,518.144159,-8273.831378,-370.102971
4606.140441,296.082377,-8656.879127,-296.082377
4606.140765,444.123565,-8580.269578,0.000000
4606.141089,222.061783,-8810.098227,-296.082377
4606.141414,444.123565,-8503.660028,-666.185348
4606.141738,444.123565,-8963.317327,-444.123565
4606.142063,370.102971,-8427.050478,-222.061783
4606.142387,444.123565,-8580.269578,-296.082377
4606.142712,222.061783,-8044.002729,-222.061783
4606.143036,222.061783,-8350.440928,-148.041188
4606.143360,296.082377,-8580.269578,-592.164754
4606.143685,444.123565,-8350.440928,0.000000
4606.144009,296.082377,-8427.050478,-592.164754
4606.144334,296.082377,-8350.440928,-518.144159
4606.144658,370.102971,-8656.879127,-444.123565
4606.144982,518.144159,-8733.488677,-444.123565
4606.145307,370.102971,-8503.660028,-444.123565
4606.145631,740.205942,-8886.707777,-370.102971
4606.145956,592.164754,-8886.707777,-370.102971
4606.146280,296.082377,-8503.660028,-666.185348
4606.146604,518.144159,-8656.879127,-444.123565
4606.146929,296.082377,-8503.660028,-296.082377
4606.147253,592.164754,-8350.440928,-222.061783
4606.147578,222.061783,-8503.660028,-592.164754
4606.147902,370.102971,-8810.098227,-148.041188
4606.148227,222.061783,-8350.440928,-74.020594
4606.148551,740.205942,-9269.755526,-296.082377
4606.148875,444.123565,-8886.707777,-296.082377
4606.149200,296.082377,-8503.660028,0.000000
4606.149524,518.144159,-8503.660028,-370.102971
4606.149849,444.123565,-9039.926876,0.000000
4606.150173,444.123565,-8503.660028,-444.123565
4606.150497,444.123565,-8656.879127,-222.061783
4606.150822,222.061783,-8580.269578,-222.061783
4606.151146,444.123565,-8120.612279,-222.061783
4606.151471,296.082377,-8733.488677,-296.082377
4606.151795,444.123565,-8656.879127,-518.144159
4606.152120,592.164754,-8733.488677,-370.102971
4606.152444,370.102971,-8503.660028,-296.082377
4606.152768,296.082377,-9269.755526,148.041188
4606.153093,370.102971,-8427.050478,-296.082377
4606.153417,444.123565,-8503.660028,-370.102971
4606.153742,444.123565,-8886.707777,-518.144159
4606.154066,370.102971,-8810.098227,148.041188
4606.154390,444.123565,-8273.831378,-296.082377
4606.154715,222.061783,-8580.269578,0.000000
4606.155039,518.144159,-8503.660028,-592.164754
4606.155364,222.061783,-8580.269578,-518.144159
4606.155688,444.123565,-8886.707777,-296.082377
4606.156012,74.020594,-8580.269578,0.000000
4606.156337,444.123565,-8580.269578,-222.061783
4606.156661,370.102971,-8503.660028,-518.144159
4606.156986,370.102971,-9193.145976,0.000000
4606.157310,444.123565,-8733.488677,-518.144159
4606.157635,296.082377,-8350.440928,-592.164754
4606.157959,222.061783,-8810.098227,-592.164754
4606.158283,74.020594,-8503.660028,-444.123565
4606.158608,444.123565,-8503.660028,-592.164754
4606.158932,444.123565,-8427.050478,-740.205942
4606.159257,370.102971,-8963.317327,-740.205942
4606.159581,370.102971,-8273.831378,-740.205942
4606.159905,74.020594,-8273.831378,-592.164754
4606.160230,148.041188,-8427.050478,-592.164754
4606.160554,370.102971,-8733.488677,-666.185348
4606.160879,444.123565,-8656.879127,-518.144159
4606.161203,740.205942,-8580.269578,-666.185348
4606.161527,444.123565,-8427.050478,-888.247130
4606.161852,370.102971,-8503.660028,-888.247130
4606.162176,444.123565,-8503.660028,-962.267725
4606.162501,592.164754,-8810.098227,-888.247130
4606.162825,518.144159,-8580.269578,-1036.288319
4606.163150,666.185348,-8580.269578,-962.267725
4606.163474,518.144159,-8656.879127,-666.185348
4606.163798,370.102971,-8810.098227,-888.247130
4606.164123,444.123565,-8580.269578,-1036.288319
4606.164447,518.144159,-8503.660028,-740.205942
4606.164772,370.102971,-8427.050478,-888.247130
4606.165096,518.144159,-8810.098227,-814.226536
4606.165420,0.000000,-8427.050478,-444.123565
4606.165745,518.144159,-8656.879127,-888.247130
4606.166069,444.123565,-8427.050478,-1036.288319
4606.166394,444.123565,-8580.269578,-370.102971
4606.166718,444.123565,-8733.488677,-814.226536
4606.167042,592.164754,-8503.660028,-740.205942
4606.167367,592.164754,-8503.660028,-666.185348
4606.167691,444.123565,-8886.707777,-592.164754
4606.168016,666.185348,-8350.440928,-592.164754
4606.168340,888.247130,-8427.050478,-740.205942
4606.168665,370.102971,-8350.440928,-518.144159
4606.168989,592.164754,-8656.879127,-666.185348
4606.169313,370.102971,-8580.269578,-518.144159
4606.169638,518.144159,-8427.050478,-222.061783
4606.169962,370.102971,-8580.269578,-222.061783
4606.170287,444.123565,-8503.660028,-592.164754
4606.170611,296.082377,-8273.831378,-370.102971
4606.170935,518.144159,-8886.707777,-444.123565
4606.171260,592.164754,-8963.317327,-296.082377
4606.171584,592.164754,-8503.660028,-148.041188
4606.171909,296.082377,-8350.440928,-296.082377
4606.172233,518.144159,-8810.098227,-222.061783
4606.172558,1036.288319,-8963.317327,-296.082377
4606.172882,666.185348,-8733.488677,0.000000
4606.173206,444.123565,-8427.050478,0.000000
4606.173531,444.123565,-8886.707777,148.041188
4606.173855,518.144159,-8963.317327,222.061783
4606.174180,296.082377,-8273.831378,0.000000
4606.174504,444.123565,-8656.879127,-370.102971
4606.174828,148.041188,-8580.269578,0.000000
4606.175153,296.082377,-8350.440928,-148.041188
4606.175477,370.102971,-8886.707777,0.000000
4606.175802,296.082377,-8580.269578,0.000000
4606.176126,370.102971,-8886.707777,-296.082377
4606.176450,74.020594,-8656.879127,0.000000
4606.176775,740.205942,-9116.536426,0.000000
4606.177099,148.041188,-8580.269578,0.000000
4606.177424,296.082377,-8580.269578,0.000000
4606.177748,444.123565,-8503.660028,0.000000
4606.178073,444.123565,-7890.783629,0.000000
4606.178397,296.082377,-8273.831378,222.061783
4606.178721,370.102971,-8886.707777,222.061783
4606.179046,222.061783,-8656.879127,0.000000
4606.179370,370.102971,-8350.440928,222.061783
4606.179695,592.164754,-8580.269578,0.000000
4606.180019,666.185348,-8350.440928,148.041188
4606.180343,666.185348,-8427.050478,74.020594
4606.180668,518.144159,-8503.660028,148.041188
4606.180992,592.164754,-8044.002729,222.061783
4606.181317,444.123565,-8503.660028,0.000000
4606.181641,444.123565,-8810.098227,0.000000
4606.181965,370.102971,-8273.831378,148.041188
4606.182290,444.123565,-8427.050478,0.000000
4606.182614,740.205942,-8580.269578,0.000000
4606.182939,666.185348,-8580.269578,0.000000
4606.183263,814.226536,-8350.440928,0.000000
4606.183588,740.205942,-8656.879127,74.020594
4606.183912,518.144159,-8503.660028,222.061783
4606.184236,814.226536,-8580.269578,0.000000
4606.184561,666.185348,-8350.440928,0.000000
4606.184885,518.144159,-8503.660028,-296.082377
4606.185210,518.144159,-8427.050478,148.041188
4606.185534,148.041188,-8503.660028,0.000000
4606.185858,222.061783,-8810.098227,0.000000
4606.186183,444.123565,-8733.488677,-222.061783
4606.186507,296.082377,-8503.660028,-222.061783
4606.186832,444.123565,-8733.488677,0.000000
4606.187156,592.164754,-8273.831378,-222.061783
4606.187480,518.144159,-8963.317327,0.000000
4606.187805,296.082377,-8427.050478,-370.102971
4606.188129,666.185348,-8810.098227,-370.102971
4606.188454,592.164754,-8733.488677,-592.164754
4606.188778,370.102971,-8580.269578,74.020594
4606.189103,222.061783,-8427.050478,-148.041188
4606.189427,296.082377,-9346.365076,-370.102971
4606.189751,148.041188,-8656.879127,0.000000
4606.190076,0.000000,-8733.488677,-148.041188
4606.190400,74.020594,-8656.879127,-370.102971
4606.190724,74.020594,-8810.098227,-296.082377
4606.191049,0.000000,-8580.269578,-296.082377
4606.191373,0.000000,-8580.269578,-370.102971
4606.191698,518.144159,-8656.879127,-370.102971
4606.192022,222.061783,-8810.098227,-444.123565
4606.192346,74.020594,-9116.536426,0.000000
4606.192671,592.164754,-8810.098227,-962.267725
4606.192995,296.082377,-8580.269578,-296.082377
4606.193319,370.102971,-8656.879127,-592.164754
4606.193644,370.102971,-8580.269578,-666.185348
4606.193968,0.000000,-8580.269578,-444.123565
4606.194293,0.000000,-8580.269578,-592.164754
4606.194617,370.102971,-8886.707777,-592.164754
4606.194941,222.061783,-8503.660028,-740.205942
4606.195266,740.205942,-8810.098227,-814.226536
4606.195590,740.205942,-8733.488677,-666.185348
4606.195914,962.267725,-8580.269578,-518.144159
4606.196239,592.164754,-8580.269578,-740.205942
4606.196563,814.226536,-9039.926876,-444.123565
4606.196888,740.205942,-8810.098227,-592.164754
4606.197212,518.144159,-8350.440928,-814.226536
4606.197536,0.000000,-8427.050478,-666.185348
4606.197861,296.082377,-9269.755526,-740.205942
4606.198185,148.041188,-8273.831378,-888.247130
4606.198509,296.082377,-8503.660028,-592.164754
4606.198834,444.123565,-8656.879127,-592.164754
4606.199158,666.185348,-8733.488677,-222.061783
4606.199483,592.164754,-8886.707777,-148.041188
4606.199807,814.226536,-8886.707777,-370.102971
4606.200131,962.267725,-8350.440928,-444.123565
4606.200456,592.164754,-8580.269578,-444.123565
4606.200780,0.000000,-8886.707777,-222.061783
4606.201104,148.041188,-8427.050478,-518.144159
4606.201429,74.020594,-8350.440928,-814.226536
4606.201753,74.020594,-8197.221829,-666.185348
4606.202078,148.041188,-8580.269578,-666.185348
4606.202402,222.061783,-8810.098227,-592.164754
4606.202726,518.144159,-8503.660028,-370.102971
4606.203051,518.144159,-8656.879127,-222.061783
4606.203375,666.185348,-8580.269578,0.000000
4606.203699,814.226536,-7967.393179,74.020594
4606.204024,740.205942,-8733.488677,-148.041188
4606.204348,814.226536,-8886.707777,0.000000
4606.204673,518.144159,-8350.440928,-444.123565
4606.204997,370.102971,-9116.536426,0.000000
4606.205321,296.082377,-8656.879127,-518.144159
4606.205646,0.000000,-8656.879127,-370.102971
4606.205970,74.020594,-8810.098227,0.000000
4606.206294,74.020594,-8273.831378,0.000000
4606.206619,296.082377,-8963.317327,148.041188
4606.206943,518.144159,-8350.440928,74.020594
4606.207267,666.185348,-8656.879127,0.000000
4606.207592,888.247130,-8580.269578,0.000000
4606.207916,814.226536,-8044.002729,518.144159
4606.208241,666.185348,-8810.098227,0.000000
4606.208565,370.102971,-8810.098227,74.020594
4606.208889,0.000000,-8427.050478,0.000000
4606.209214,-148.041188,-8963.317327,296.082377
4606.209538,74.020594,-8350.440928,74.020594
4606.209862,0.000000,-8656.879127,296.082377
4606.210187,0.000000,-8656.879127,296.082377
4606.210511,592.164754,-7967.393179,148.041188
4606.210836,1110.308913,-8503.660028,370.102971
4606.211160,888.247130,-8503.660028,148.041188
4606.211484,962.267725,-8810.098227,518.144159
4606.211809,814.226536,-8580.269578,222.061783
4606.212133,592.164754,-8580.269578,296.082377
4606.212457,74.020594,-8427.050478,222.061783
4606.212782,74.020594,-8580.269578,0.000000
4606.213106,444.123565,-8044.002729,296.082377
4606.213431,296.082377,-8580.269578,0.000000
4606.213755,592.164754,-8656.879127,74.020594
4606.214079,370.102971,-8427.050478,370.102971
4606.214404,740.205942,-8810.098227,666.185348
4606.214728,814.226536,-8427.050478,592.164754
4606.215052,1036.288319,-8886.707777,888.247130
4606.215377,296.082377,-8580.269578,518.144159
4606.215701,74.020594,-8503.660028,444.123565
4606.216026,444.123565,-8810.098227,0.000000
4606.216350,1110.308913,-7890.783629,74.020594
4606.216674,592.164754,-8503.660028,0.000000
4606.216999,444.123565,-8810.098227,-370.102971
4606.217323,370.102971,-8350.440928,0.000000
4606.217647,444.123565,-8656.879127,0.000000
4606.217972,444.123565,-8656.879127,222.061783
4606.218296,74.020594,-8350.440928,370.102971
4606.218621,222.061783,-8886.707777,370.102971
4606.218945,370.102971,-8427.050478,74.020594
4606.219269,148.041188,-9039.926876,444.123565
4606.219594,962.267725,-8503.660028,0.000000
4606.219918,740.205942,-8427.050478,222.061783
4606.220242,518.144159,-8503.660028,-296.082377
4606.220567,74.020594,-8810.098227,-222.061783
4606.220891,0.000000,-8580.269578,0.000000
4606.221216,0.000000,-8273.831378,0.000000
4606.221540,0.000000,-8503.660028,0.000000
4606.221864,222.061783,-8503.660028,0.000000
4606.222189,518.144159,-8733.488677,0.000000
4606.222513,518.144159,-8886.707777,0.000000
4606.222837,888.247130,-8350.440928,0.000000
4606.223162,888.247130,-8886.707777,222.061783
4606.223486,74.020594,-7890.783629,148.041188
4606.223811,444.123565,-8656.879127,0.000000
4606.224135,0.000000,-8427.050478,-296.082377
4606.224459,74.020594,-8427.050478,-148.041188
4606.224784,74.020594,-8503.660028,-370.102971
4606.225108,296.082377,-8350.440928,-296.082377
4606.225432,370.102971,-8810.098227,-370.102971
4606.225757,592.164754,-8503.660028,-518.144159
4606.226081,518.144159,-8580.269578,-148.041188
4606.226406,222.061783,-8733.488677,-148.041188
4606.226730,370.102971,-8656.879127,-222.061783
4606.227054,74.020594,-8427.050478,0.000000
4606.227379,296.082377,-8350.440928,-592.164754
4606.227703,74.020594,-8120.612279,-962.267725
4606.228027,592.164754,-8733.488677,-962.267725
4606.228352,666.185348,-8427.050478,-1184.329507
4606.228676,296.082377,-8580.269578,-666.185348
4606.229001,222.061783,-8273.831378,-740.205942
4606.229325,222.061783,-8580.269578,-592.164754
4606.229649,222.061783,-8350.440928,-518.144159
4606.229974,296.082377,-8733.488677,-592.164754
4606.230298,518.144159,-8580.269578,-740.205942
4606.230622,222.061783,-8656.879127,-518.144159
4606.230947,592.164754,-8810.098227,-814.226536
4606.231271,666.185348,-8427.050478,-1036.288319
4606.231595,518.144159,-8427.050478,-1184.329507
4606.231920,0.000000,-8656.879127,-962.267725
4606.232244,148.041188,-8503.660028,-666.185348
4606.232569,148.041188,-8733.488677,-888.247130
4606.232893,0.000000,-8503.660028,-592.164754
4606.233217,444.123565,-8580.269578,-740.205942
4606.233542,518.144159,-8810.098227,-740.205942
4606.233866,888.247130,-8427.050478,-1036.288319
4606.234190,666.185348,-9116.536426,-592.164754
4606.234515,518.144159,-8886.707777,-592.164754
4606.234839,814.226536,-8580.269578,-814.226536
4606.235164,296.082377,-8503.660028,-740.205942
4606.235488,222.061783,-8733.488677,-370.102971
4606.235812,0.000000,-8197.221829,-518.144159
4606.236137,518.144159,-8733.488677,-1184.329507
4606.236461,666.185348,-8273.831378,-962.267725
4606.236785,740.205942,-8580.269578,-1036.288319
4606.237110,592.164754,-8810.098227,-1036.288319
4606.237434,814.226536,-8580.269578,-666.185348
4606.237759,518.144159,-8810.098227,-962.267725
4606.238083,222.061783,-8656.879127,-740.205942
4606.238407,0.000000,-8503.660028,-592.164754
4606.238732,222.061783,-8580.269578,-518.144159
4606.239056,888.247130,-8886.707777,-592.164754
4606.239380,592.164754,-8810.098227,-962.267725
4606.239705,740.205942,-8580.269578,-1110.308913
4606.240029,592.164754,-8580.269578,-1110.308913
4606.240354,518.144159,-9346.365076,-518.144159
4606.240678,370.102971,-8427.050478,-666.185348
4606.241002,0.000000,-8503.660028,-148.041188
4606.241327,74.020594,-8580.269578,-740.205942
4606.241651,296.082377,-8503.660028,-222.061783
4606.241975,592.164754,-8656.879127,-740.205942
4606.242300,518.144159,-8580.269578,-444.123565
4606.242624,518.144159,-8733.488677,-444.123565
4606.242949,592.164754,-8733.488677,-814.226536
4606.243273,740.205942,-8120.612279,-888.247130
4606.243597,74.020594,-8427.050478,-666.185348
4606.243922,296.082377,-9039.926876,-370.102971
4606.244246,296.082377,-8350.440928,-666.185348
4606.244570,0.000000,-8427.050478,-666.185348
4606.244895,296.082377,-8810.098227,-592.164754
4606.245219,444.123565,-8350.440928,-740.205942
4606.245544,592.164754,-9116.536426,-296.082377
4606.245868,740.205942,-8580.269578,-518.144159
4606.246192,518.144159,-8886.707777,-296.082377
4606.246517,296.082377,-8503.660028,-518.144159
4606.246841,74.020594,-8810.098227,-592.164754
4606.247165,296.082377,-8350.440928,-296.082377
4606.247490,1036.288319,-8503.660028,-296.082377
4606.247814,888.247130,-8044.002729,-666.185348
4606.248139,962.267725,-8733.488677,-370.102971
4606.248463,888.247130,-8427.050478,-444.123565
4606.248787,962.267725,-8810.098227,222.061783
4606.249112,296.082377,-8580.269578,-296.082377
4606.249436,148.041188,-8656.879127,296.082377
4606.249760,518.144159,-8197.221829,-148.041188
4606.250085,518.144159,-8580.269578,74.020594
4606.250409,148.041188,-7967.393179,148.041188
4606.250734,814.226536,-8656.879127,0.000000
4606.251058,1036.288319,-8273.831378,-370.102971
4606.251382,1110.308913,-8656.879127,-148.041188
4606.251707,888.247130,-7890.783629,0.000000
4606.252031,296.082377,-8427.050478,-74.020594
4606.252355,740.205942,-8503.660028,-296.082377
4606.252680,518.144159,-8810.098227,0.000000
4606.253004,370.102971,-8810.098227,74.020594
4606.253328,370.102971,-9116.536426,0.000000
4606.253653,444.123565,-8886.707777,-74.020594
4606.253977,444.123565,-8886.707777,-222.061783
4606.254302,888.247130,-8810.098227,-444.123565
4606.254626,592.164754,-8580.269578,-370.102971
4606.254950,296.082377,-8580.269578,-592.164754
4606.255275,518.144159,-8427.050478,-444.123565
4606.255599,444.123565,-8427.050478,-666.185348
4606.255923,666.185348,-8580.269578,-1036.288319
4606.256248,222.061783,-8733.488677,-518.144159
4606.256572,148.041188,-8580.269578,-592.164754
4606.256897,222.061783,-8963.317327,-740.205942
4606.257221,222.061783,-8810.098227,-518.144159
4606.257545,222.061783,-8810.098227,-666.185348
4606.257870,814.226536,-8810.098227,-370.102971
4606.258194,370.102971,-8427.050478,-666.185348
4606.258518,296.082377,-8810.098227,-444.123565
4606.258843,666.185348,-8273.831378,-370.102971
4606.259167,296.082377,-8733.488677,-370.102971
4606.259492,518.144159,-8810.098227,-814.226536
4606.259816,666.185348,-8580.269578,-518.144159
4606.260140,888.247130,-9116.536426,-740.205942
4606.260465,222.061783,-8733.488677,-518.144159
4606.260789,148.041188,-8810.098227,-592.164754
4606.261113,148.041188,-8580.269578,-518.144159
4606.261438,444.123565,-8427.050478,-814.226536
4606.261762,74.020594,-8580.269578,-814.226536
4606.262087,370.102971,-8656.879127,-1184.329507
4606.262411,888.247130,-8580.269578,-1184.329507
4606.262735,740.205942,-8733.488677,-1184.329507
4606.263060,1110.308913,-9499.584175,-1628.453072
4606.263384,518.144159,-8810.098227,-1110.308913
4606.263708,222.061783,-8503.660028,-962.267725
4606.264033,296.082377,-8427.050478,-1110.308913
4606.264357,148.041188,-8580.269578,-888.247130
4606.264682,518.144159,-8503.660028,-1184.329507
4606.265006,592.164754,-8656.879127,-814.226536
4606.265330,444.123565,-8427.050478,-1036.288319
4606.265655,518.144159,-8810.098227,-814.226536
4606.265979,370.102971,-8503.660028,-814.226536
4606.266303,592.164754,-8733.488677,-740.205942
4606.266628,518.144159,-8580.269578,-814.226536
4606.266952,148.041188,-8273.831378,-518.144159
4606.267277,666.185348,-8044.002729,-518.144159
4606.267601,370.102971,-8273.831378,-888.247130
4606.267925,814.226536,-8427.050478,-814.226536
4606.268250,814.226536,-8656.879127,-814.226536
4606.268574,296.082377,-8350.440928,-518.144159
4606.268898,370.102971,-8427.050478,-740.205942
4606.269223,222.061783,-8656.879127,-296.082377
4606.269547,0.000000,-8273.831378,-740.205942
4606.269872,370.102971,-8733.488677,-444.123565
4606.270196,444.123565,-8197.221829,-740.205942
4606.270520,592.164754,-8810.098227,-1036.288319
4606.270845,666.185348,-8427.050478,-888.247130
4606.271169,592.164754,-8733.488677,-962.267725
4606.271493,666.185348,-8580.269578,-1184.329507
4606.271818,518.144159,-8580.269578,-888.247130
4606.272142,222.061783,-8656.879127,-740.205942
4606.272467,0.000000,-8580.269578,-666.185348
4606.272791,74.020594,-8427.050478,-740.205942
4606.273115,74.020594,-8273.831378,-888.247130
4606.273440,444.123565,-8656.879127,-888.247130
4606.273764,592.164754,-8580.269578,-666.185348
4606.274088,518.144159,-8733.488677,-814.226536
4606.274413,666.185348,-9269.755526,-518.144159
4606.274737,666.185348,-8580.269578,-740.205942
4606.275061,370.102971,-9039.926876,-592.164754
4606.275386,148.041188,-8120.612279,-222.061783
4606.275710,222.061783,-9346.365076,-148.041188
4606.276035,74.020594,-8580.269578,-370.102971
4606.276359,296.082377,-8580.269578,-518.144159
4606.276683,518.144159,-8733.488677,-222.061783
4606.277008,592.164754,-8886.707777,-370.102971
4606.277332,740.205942,-8810.098227,0.000000
4606.277656,592.164754,-8580.269578,0.000000
4606.277981,444.123565,-8350.440928,74.020594
4606.278305,222.061783,-8656.879127,0.000000
4606.278630,592.164754,-8733.488677,370.102971
4606.278954,666.185348,-8273.831378,74.020594
4606.279278,518.144159,-8427.050478,0.000000
4606.279603,592.164754,-8656.879127,0.000000
4606.279927,888.247130,-9422.974625,-222.061783
4606.280251,666.185348,-8886.707777,222.061783
4606.280576,370.102971,-8580.269578,0.000000
4606.280900,296.082377,-8427.050478,222.061783
4606.281225,222.061783,-8656.879127,74.020594
4606.281549,370.102971,-8427.050478,-222.061783
4606.281873,370.102971,-8656.879127,0.000000
4606.282198,518.144159,-8427.050478,74.020594
4606.282522,518.144159,-8656.879127,148.041188
4606.282846,0.000000,-8733.488677,74.020594
4606.283171,740.205942,-8580.269578,-148.041188
4606.283495,222.061783,-8427.050478,0.000000
4606.283820,222.061783,-8350.440928,370.102971
4606.284144,74.020594,-8350.440928,518.144159
4606.284468,296.082377,-8503.660028,0.000000
4606.284793,370.102971,-8503.660028,222.061783
4606.285117,296.082377,-8350.440928,0.000000
4606.285441,518.144159,-8810.098227,-148.041188
4606.285766,592.164754,-8656.879127,74.020594
4606.286090,666.185348,-8503.660028,148.041188
4606.286415,296.082377,-8656.879127,-148.041188
4606.286739,444.123565,-8580.269578,0.000000
4606.287063,74.020594,-8273.831378,148.041188
4606.287388,444.123565,-8427.050478,0.000000
4606.287712,148.041188,-8503.660028,-222.061783
4606.288036,296.082377,-8427.050478,-296.082377
4606.288361,296.082377,-8503.660028,-222.061783
4606.288685,592.164754,-8656.879127,-592.164754
4606.289010,592.164754,-8963.317327,-518.144159
4606.289334,148.041188,-8350.440928,0.000000
4606.289658,0.000000,-8350.440928,-296.082377
4606.289983,148.041188,-8503.660028,-370.102971
4606.290307,296.082377,-8197.221829,-444.123565
4606.290631,296.082377,-8427.050478,-370.102971
4606.290956,444.123565,-8580.269578,-370.102971
4606.291280,444.123565,-8810.098227,-444.123565
4606.291605,518.144159,-8963.317327,0.000000
4606.291929,444.123565,-8427.050478,-296.082377
4606.292253,296.082377,-8656.879127,-444.123565
4606.292578,148.041188,-8350.440928,-148.041188
4606.292902,666.185348,-8580.269578,0.000000
4606.293226,370.102971,-8580.269578,-444.123565
4606.293550,444.123565,-8350.440928,-592.164754
4606.293874,740.205942,-8503.660028,-518.144159
4606.294199,1184.329507,-8503.660028,0.000000
4606.294523,740.205942,-8580.269578,-370.102971
4606.294848,814.226536,-8656.879127,-296.082377
4606.295172,222.061783,-8427.050478,0.000000
4606.295497,222.061783,-8733.488677,74.020594
4606.295821,444.123565,-8427.050478,-444.123565
4606.296146,518.144159,-8733.488677,-296.082377
4606.296470,740.205942,-8580.269578,-666.185348
4606.296795,740.205942,-8810.098227,-370.102971
4606.297119,1110.308913,-8350.440928,-518.144159
4606.297444,666.185348,-8656.879127,-592.164754
4606.297769,518.144159,-8733.488677,-666.185348
4606.298093,370.102971,-8580.269578,0.000000
4606.298418,592.164754,-9039.926876,-370.102971
4606.298742,518.144159,-8503.660028,-370.102971
4606.299067,518.144159,-8427.050478,-296.082377
4606.299391,666.185348,-8656.879127,-222.061783
4606.299716,740.205942,-8427.050478,-296.082377
4606.300040,592.164754,-9116.536426,74.020594
4606.300365,444.123565,-8810.098227,0.000000
4606.300689,148.041188,-8427.050478,-222.061783
4606.301014,296.082377,-8580.269578,0.000000
4606.301338,740.205942,-8503.660028,222.061783
4606.301663,222.061783,-8656.879127,-148.041188
4606.301987,444.123565,-8350.440928,0.000000
4606.302312,296.082377,-8427.050478,0.000000
4606.302636,740.205942,-9193.145976,0.000000
4606.302961,296.082377,-8810.098227,-296.082377
4606.303285,666.185348,-9116.536426,222.061783
4606.303610,74.020594,-8656.879127,0.000000
4606.303935,0.000000,-8733.488677,74.020594
4606.304259,148.041188,-8120.612279,74.020594
4606.304584,370.102971,-8733.488677,0.000000
4606.304908,370.102971,-8733.488677,0.000000
4606.305233,888.247130,-8580.269578,0.000000
4606.305557,740.205942,-8350.440928,-296.082377
4606.305882,592.164754,-8656.879127,74.020594
4606.306206,444.123565,-8656.879127,-222.061783
4606.306531,370.102971,-8733.488677,370.102971
4606.306855,222.061783,-8733.488677,-148.041188
4606.307180,-222.061783,-9116.536426,74.020594
4606.307504,74.020594,-8427.050478,-370.102971
4606.307829,518.144159,-8733.488677,0.000000
4606.308153,296.082377,-8656.879127,-740.205942
4606.308478,518.144159,-8886.707777,-296.082377
4606.308802,222.061783,-8810.098227,0.000000
4606.309127,296.082377,-8503.660028,0.000000
4606.309451,222.061783,-8656.879127,0.000000
4606.309776,370.102971,-8503.660028,-296.082377
4606.310101,148.041188,-8273.831378,222.061783
4606.310425,74.020594,-8427.050478,0.000000
4606.310750,370.102971,-8810.098227,-296.082377
4606.311074,592.164754,-8427.050478,74.020594
4606.311399,740.205942,-8963.317327,-296.082377
4606.311723,814.226536,-8273.831378,0.000000
4606.312048,814.226536,-8580.269578,0.000000
4606.312372,814.226536,-8580.269578,-296.082377
4606.312697,518.144159,-8427.050478,-222.061783
4606.313021,518.144159,-8273.831378,-148.041188
4606.313346,518.144159,-8656.879127,-296.082377
4606.313670,444.123565,-8503.660028,-148.041188
4606.313995,74.020594,-8963.317327,74.020594
4606.314319,296.082377,-8580.269578,-222.061783
4606.314644,666.185348,-8427.050478,0.000000
4606.314968,666.185348,-8656.879127,-148.041188
4606.315293,296.082377,-9422.974625,0.000000
4606.315617,518.144159,-8350.440928,0.000000
4606.315942,148.041188,-8350.440928,0.000000
4606.316267,370.102971,-8503.660028,0.000000
4606.316591,370.102971,-8810.098227,-592.164754
4606.316916,518.144159,-8427.050478,-592.164754
4606.317240,148.041188,-8503.660028,-444.123565
4606.317565,444.123565,-8810.098227,-370.102971
4606.317889,296.082377,-8580.269578,-148.041188
4606.318214,296.082377,-8886.707777,0.000000
4606.318538,0.000000,-8427.050478,-222.061783
4606.318863,370.102971,-8350.440928,0.000000
4606.319187,222.061783,-8503.660028,-444.123565
4606.319512,592.164754,-9346.365076,-444.123565
4606.319836,296.082377,-8580.269578,-740.205942
4606.320161,592.164754,-9116.536426,-370.102971
4606.320485,370.102971,-8503.660028,-370.102971
4606.320810,0.000000,-8963.317327,0.000000
4606.321134,0.000000,-8580.269578,222.061783
4606.321459,0.000000,-8350.440928,0.000000
4606.321783,370.102971,-8656.879127,0.000000
4606.322108,444.123565,-8503.660028,0.000000
4606.322433,74.020594,-8963.317327,814.226536
4606.322757,814.226536,-8503.660028,-370.102971
4606.323082,592.164754,-8810.098227,0.000000
4606.323406,666.185348,-8733.488677,-296.082377
4606.323731,148.041188,-8427.050478,0.000000
4606.324055,222.061783,-8427.050478,222.061783
4606.324380,0.000000,-8580.269578,0.000000
4606.324704,222.061783,-8580.269578,0.000000
4606.325029,222.061783,-8580.269578,-148.041188
4606.325353,1036.288319,-8733.488677,-444.123565
4606.325678,444.123565,-8656.879127,-444.123565
4606.326002,592.164754,-8963.317327,0.000000
4606.326327,518.144159,-8810.098227,0.000000
4606.326651,370.102971,-8427.050478,74.020594
4606.326976,222.061783,-8580.269578,-296.082377
4606.327300,0.000000,-8273.831378,0.000000
4606.327625,74.020594,-8427.050478,0.000000
4606.327949,148.041188,-8503.660028,-296.082377
4606.328274,740.205942,-8656.879127,-222.061783
4606.328599,666.185348,-8656.879127,-370.102971
4606.328923,740.205942,-8810.098227,0.000000
4606.329248,666.185348,-8503.660028,0.000000
4606.329572,370.102971,-8427.050478,444.123565
4606.329897,518.144159,-8120.612279,0.000000
4606.330221,222.061783,-8273.831378,-370.102971
4606.330546,592.164754,-8656.879127,-370.102971
4606.330870,740.205942,-8350.440928,-222.061783
4606.331195,740.205942,-8503.660028,-296.082377
4606.331519,740.205942,-8963.317327,-518.144159
4606.331844,592.164754,-8810.098227,-444.123565
4606.332168,518.144159,-8656.879127,-592.164754
4606.332493,296.082377,-8427.050478,-222.061783
4606.332817,222.061783,-8427.050478,-370.102971
4606.333142,296.082377,-8580.269578,-444.123565
4606.333466,592.164754,-8273.831378,-740.205942
4606.333791,148.041188,-8120.612279,-518.144159
4606.334115,296.082377,-8810.098227,-740.205942
4606.334440,296.082377,-8733.488677,-592.164754
4606.334764,74.020594,-8733.488677,-740.205942
4606.335089,0.000000,-8963.317327,222.061783
4606.335414,0.000000,-8427.050478,-370.102971
4606.335738,148.041188,-8427.050478,0.000000
4606.336063,0.000000,-8427.050478,-518.144159
4606.336387,296.082377,-8427.050478,-444.123565
4606.336712,592.164754,-9116.536426,-666.185348
4606.337036,592.164754,-8503.660028,-740.205942
4606.337361,666.185348,-8810.098227,-740.205942
4606.337685,444.123565,-8733.488677,-444.123565
4606.338010,370.102971,-8580.269578,-666.185348
4606.338334,0.000000,-8580.269578,-296.082377
4606.338659,0.000000,-8733.488677,-666.185348
4606.338983,296.082377,-8427.050478,-444.123565
4606.339308,814.226536,-8427.050478,-740.205942
4606.339632,444.123565,-8733.488677,-518.144159
4606.339957,888.247130,-8810.098227,-370.102971
4606.340281,666.185348,-8580.269578,-518.144159
4606.340606,296.082377,-8733.488677,-518.144159
4606.340930,296.082377,-8350.440928,-518.144159
4606.341255,0.000000,-8503.660028,-222.061783
4606.341580,148.041188,-8273.831378,-592.164754
4606.341904,0.000000,-8427.050478,-370.102971
4606.342229,814.226536,-8580.269578,-592.164754
4606.342553,370.102971,-8427.050478,-888.247130
4606.342878,666.185348,-8580.269578,-370.102971
4606.343202,740.205942,-8656.879127,-222.061783
4606.343527,592.164754,-8503.660028,-518.144159
4606.343851,666.185348,-8503.660028,-148.041188
4606.344176,518.144159,-8197.221829,-370.102971
4606.344500,518.144159,-8656.879127,-222.061783
4606.344825,666.185348,-8350.440928,-296.082377
4606.345149,814.226536,-8733.488677,0.000000
4606.345474,592.164754,-8656.879127,-592.164754
4606.345798,888.247130,-8733.488677,-592.164754
4606.346123,888.247130,-8810.098227,-592.164754
4606.346447,814.226536,-8273.831378,-74.020594
4606.346772,444.123565,-8273.831378,0.000000
4606.347096,370.102971,-8810.098227,0.000000
4606.347421,444.123565,-8044.002729,-444.123565
4606.347746,592.164754,-8810.098227,-370.102971
4606.348070,518.144159,-8427.050478,-740.205942
4606.348395,740.205942,-8963.317327,-296.082377
4606.348719,444.123565,-8810.098227,-666.185348
4606.349044,148.041188,-8656.879127,-148.041188
4606.349368,148.041188,-8503.660028,-592.164754
4606.349693,370.102971,-8656.879127,-296.082377
4606.350017,74.020594,-8503.660028,-296.082377
4606.350342,148.041188,-8810.098227,-148.041188
4606.350666,592.164754,-9269.755526,-296.082377
4606.350991,592.164754,-8810.098227,-518.144159
4606.351315,740.205942,-8580.269578,-740.205942
4606.351640,666.185348,-8733.488677,-370.102971
4606.351964,444.123565,-8503.660028,-518.144159
4606.352289,0.000000,-8656.879127,-296.082377
4606.352613,74.020594,-8350.440928,-518.144159
4606.352938,222.061783,-8580.269578,-296.082377
4606.353262,0.000000,-8273.831378,-814.226536
4606.353587,296.082377,-8810.098227,0.000000
4606.353912,370.102971,-8427.050478,-740.205942
4606.354236,666.185348,-8963.317327,-444.123565
4606.354561,518.144159,-8503.660028,-592.164754
4606.354885,666.185348,-9039.926876,-222.061783
4606.355210,296.082377,-8503.660028,-370.102971
4606.355534,74.020594,-8963.317327,-592.164754
4606.355859,370.102971,-8580.269578,-370.102971
4606.356183,148.041188,-8580.269578,-222.061783
4606.356508,74.020594,-8580.269578,-296.082377
4606.356832,592.164754,-8810.098227,-296.082377
4606.357157,740.205942,-8656.879127,-518.144159
4606.357481,814.226536,-8810.098227,-370.102971
4606.357806,444.123565,-8427.050478,-370.102971
4606.358130,444.123565,-8656.879127,-148.041188
4606.358455,518.144159,-8580.269578,-222.061783
4606.358779,148.041188,-8427.050478,-444.123565
4606.359104,666.185348,-8656.879127,-222.061783
4606.359428,888.247130,-8503.660028,-592.164754
4606.359753,518.144159,-9039.926876,-518.144159
4606.360078,814.226536,-8503.660028,-592.164754
4606.360402,666.185348,-8580.269578,-296.082377
4606.360727,518.144159,-8656.879127,-518.144159
4606.361051,148.041188,-8350.440928,-592.164754
4606.361376,0.000000,-8350.440928,-518.144159
4606.361700,222.061783,-8273.831378,-666.185348
4606.362025,888.247130,-8886.707777,-592.164754
4606.362349,370.102971,-8197.221829,-592.164754
4606.362674,592.164754,-8810.098227,-592.164754
4606.362998,666.185348,-8350.440928,-962.267725
4606.363323,888.247130,-8733.488677,-592.164754
4606.363647,296.082377,-8273.831378,-592.164754
4606.363972,444.123565,-8733.488677,-148.041188
4606.364296,296.082377,-8427.050478,-296.082377
4606.364621,370.102971,-8273.831378,-592.164754
4606.364945,1332.370696,-8580.269578,-740.205942
4606.365270,962.267725,-8273.831378,-666.185348
4606.365594,814.226536,-8810.098227,-444.123565
4606.365919,740.205942,-8427.050478,-518.144159
4606.366244,592.164754,-9422.974625,74.020594
4606.366568,370.102971,-8580.269578,-444.123565
4606.366893,444.123565,-8810.098227,-592.164754
4606.367217,370.102971,-8580.269578,-296.082377
4606.367542,148.041188,-8503.660028,-592.164754
4606.367866,666.185348,-8963.317327,-370.102971
4606.368191,814.226536,-8350.440928,-814.226536
4606.368515,592.164754,-9039.926876,-592.164754
4606.368840,444.123565,-8503.660028,-518.144159
4606.369164,222.061783,-8810.098227,0.000000
4606.369489,296.082377,-8733.488677,-444.123565
4606.369813,0.000000,-8580.269578,-222.061783
4606.370138,296.082377,-8580.269578,0.000000
4606.370462,370.102971,-8580.269578,-518.144159
4606.370787,592.164754,-8503.660028,-518.144159
4606.371111,740.205942,-9039.926876,-592.164754
4606.371436,814.226536,-8733.488677,-444.123565
4606.371760,814.226536,-8656.879127,-592.164754
4606.372085,296.082377,-8810.098227,-592.164754
4606.372410,444.123565,-8656.879127,-296.082377
4606.372734,148.041188,-8350.440928,-592.164754
4606.373059,74.020594,-8963.317327,-222.061783
4606.373383,962.267725,-8273.831378,-1036.288319
4606.373708,888.247130,-8810.098227,-518.144159
4606.374032,814.226536,-8503.660028,-666.185348
4606.374357,740.205942,-8580.269578,-518.144159
4606.374681,666.185348,-8733.488677,-666.185348
4606.375006,592.164754,-8503.660028,-370.102971
4606.375330,370.102971,-8503.660028,-518.144159
4606.375655,0.000000,-8733.488677,-444.123565
4606.375979,0.000000,-8273.831378,-444.123565
4606.376304,0.000000,-8580.269578,-370.102971
4606.376628,296.082377,-8810.098227,-666.185348
4606.376953,518.144159,-8580.269578,-666.185348
4606.377277,296.082377,-8580.269578,-518.144159
4606.377602,666.185348,-8733.488677,-592.164754
4606.377926,74.020594,-8580.269578,-370.102971
4606.378251,148.041188,-8197.221829,0.000000
4606.378576,74.020594,-8273.831378,-370.102971
4606.378900,444.123565,-8427.050478,-370.102971
4606.379225,666.185348,-8503.660028,-814.226536
4606.379549,814.226536,-8273.831378,-444.123565
4606.379874,518.144159,-8580.269578,-370.102971
4606.380198,666.185348,-8810.098227,-592.164754
4606.380523,1332.370696,-9039.926876,-370.102971
4606.380847,370.102971,-8350.440928,-370.102971
4606.381172,0.000000,-8427.050478,-222.061783
4606.381496,296.082377,-8503.660028,74.020594
4606.381821,370.102971,-8350.440928,-222.061783
4606.382145,518.144159,-8733.488677,-222.061783
4606.382470,518.144159,-8503.660028,-592.164754
4606.382794,740.205942,-8886.707777,-370.102971
4606.383119,444.123565,-8503.660028,-518.144159
4606.383443,148.041188,-8580.269578,0.000000
4606.383768,0.000000,-8503.660028,-370.102971
4606.384092,74.020594,-8273.831378,-222.061783
4606.384417,74.020594,-8733.488677,-518.144159
4606.384742,444.123565,-8120.612279,0.000000
4606.385066,666.185348,-8350.440928,-222.061783
4606.385391,518.144159,-8350.440928,-296.082377
4606.385715,814.226536,-8733.488677,-740.205942
4606.386040,1184.329507,-8733.488677,-740.205942
4606.386364,444.123565,-8580.269578,-370.102971
4606.386689,148.041188,-8350.440928,-518.144159
4606.387013,370.102971,-8580.269578,-222.061783
4606.387338,444.123565,-8350.440928,-370.102971
4606.387662,1110.308913,-8963.317327,-518.144159
4606.387987,666.185348,-8273.831378,-814.226536
4606.388311,814.226536,-8656.879127,-296.082377
4606.388636,962.267725,-8656.879127,-666.185348
4606.388960,814.226536,-9346.365076,-296.082377
4606.389285,666.185348,-8963.317327,-518.144159
4606.389609,296.082377,-8350.440928,-296.082377
4606.389934,148.041188,-8733.488677,0.000000
4606.390258,148.041188,-8733.488677,-370.102971
4606.390583,518.144159,-8580.269578,-148.041188
4606.390907,592.164754,-8580.269578,-518.144159
4606.391232,666.185348,-9039.926876,-444.123565
4606.391556,518.144159,-8886.707777,0.000000
4606.391881,0.000000,-8656.879127,0.000000
4606.392205,296.082377,-8810.098227,-148.041188
4606.392530,222.061783,-8656.879127,0.000000
4606.392854,444.123565,-8580.269578,-296.082377
4606.393179,518.144159,-8503.660028,-148.041188
4606.393503,370.102971,-8273.831378,-222.061783
4606.393828,518.144159,-8886.707777,-222.061783
4606.394152,592.164754,-8886.707777,-518.144159
4606.394477,814.226536,-9039.926876,-444.123565
4606.394801,592.164754,-8810.098227,-444.123565
4606.395126,148.041188,-8427.050478,148.041188
4606.395450,148.041188,-8427.050478,0.000000
4606.395775,222.061783,-8580.269578,-370.102971
4606.396099,74.020594,-8580.269578,74.020594
4606.396424,592.164754,-8733.488677,-444.123565
4606.396749,666.185348,-8350.440928,-296.082377
4606.397073,518.144159,-8733.488677,-444.123565
4606.397398,666.185348,-8350.440928,-592.164754
4606.397722,296.082377,-8503.660028,-296.082377
4606.398047,74.020594,-8580.269578,-296.082377
4606.398371,74.020594,-8733.488677,74.020594
4606.398696,74.020594,-8197.221829,-370.102971
4606.399020,222.061783,-8427.050478,-296.082377
4606.399345,296.082377,-8120.612279,-592.164754
4606.399669,444.123565,-8963.317327,-444.123565
4606.399994,1110.308913,-8733.488677,-740.205942
4606.400318,1258.350101,-8120.612279,-296.082377
4606.400643,518.144159,-8350.440928,-222.061783
4606.400967,222.061783,-8427.050478,-222.061783
4606.401292,222.061783,-8120.612279,-148.041188
4606.401616,518.144159,-9193.145976,-518.144159
4606.401941,148.041188,-8733.488677,0.000000
4606.402265,592.164754,-8580.269578,-296.082377
4606.402590,592.164754,-8733.488677,-296.082377
4606.402914,666.185348,-8427.050478,-222.061783
4606.403239,740.205942,-9346.365076,-444.123565
4606.403563,1036.288319,-8733.488677,74.020594
4606.403888,222.061783,-8350.440928,0.000000
4606.404212,296.082377,-8733.488677,-296.082377
4606.404537,-222.061783,-8580.269578,518.144159
4606.404861,296.082377,-8810.098227,-444.123565
4606.405186,370.102971,-8810.098227,-370.102971
4606.405510,518.144159,-8733.488677,-296.082377
4606.405835,296.082377,-8733.488677,-370.102971
4606.406159,592.164754,-8963.317327,-296.082377
4606.406484,296.082377,-8810.098227,-296.082377
4606.406808,444.123565,-8733.488677,0.000000
4606.407133,296.082377,-7967.393179,0.000000
4606.407457,222.061783,-8580.269578,74.020594
4606.407782,444.123565,-8580.269578,-592.164754
4606.408106,814.226536,-8656.879127,-222.061783
4606.408431,814.226536,-8733.488677,-740.205942
4606.408755,148.041188,-8810.098227,-222.061783
4606.409080,592.164754,-8810.098227,-370.102971
4606.409404,296.082377,-8580.269578,-296.082377
4606.409729,148.041188,-8656.879127,-222.061783
4606.410053,0.000000,-8580.269578,-296.082377
4606.410378,148.041188,-8886.707777,-296.082377
4606.410702,148.041188,-8273.831378,0.000000
4606.411027,222.061783,-8656.879127,-444.123565
4606.411351,444.123565,-8810.098227,-296.082377
4606.411676,148.041188,-8120.612279,222.061783
4606.412000,296.082377,-8963.317327,-444.123565
4606.412325,0.000000,-8350.440928,0.000000
4606.412649,0.000000,-8427.050478,0.000000
4606.412974,74.020594,-8886.707777,222.061783
4606.413298,0.000000,-8427.050478,74.020594
4606.413623,0.000000,-8350.440928,-222.061783
4606.413947,518.144159,-8733.488677,0.000000
4606.414272,296.082377,-8503.660028,-74.020594
4606.414596,666.185348,-8733.488677,0.000000
4606.414921,518.144159,-8656.879127,0.000000
4606.415245,444.123565,-8503.660028,0.000000
4606.415570,148.041188,-8656.879127,0.000000
4606.415894,740.205942,-8810.098227,0.000000
4606.416219,444.123565,-8427.050478,-222.061783
4606.416543,518.144159,-8580.269578,0.000000
4606.416868,518.144159,-8656.879127,-370.102971
4606.417192,518.144159,-8810.098227,0.000000
4606.417517,592.164754,-8273.831378,0.000000
4606.417841,222.061783,-8656.879127,-74.020594
4606.418166,296.082377,-8427.050478,0.000000
4606.418490,370.102971,-8503.660028,0.000000
4606.418815,518.144159,-8733.488677,-296.082377
4606.419139,592.164754,-8503.660028,-444.123565
4606.419464,518.144159,-8580.269578,-518.144159
4606.419788,518.144159,-8503.660028,-222.061783
4606.420113,666.185348,-8656.879127,-666.185348
4606.420437,222.061783,-8963.317327,-444.123565
4606.420762,0.000000,-8427.050478,-222.061783
4606.421086,0.000000,-8350.440928,0.000000
4606.421411,666.185348,-7890.783629,-148.041188
4606.421735,148.041188,-8197.221829,-370.102971
4606.422060,666.185348,-8427.050478,0.000000
4606.422384,518.144159,-8350.440928,-592.164754
4606.422709,592.164754,-8656.879127,-296.082377
4606.423033,1036.288319,-8733.488677,-148.041188
4606.423358,518.144159,-8810.098227,-518.144159
4606.423682,148.041188,-8656.879127,-148.041188
4606.424007,74.020594,-8503.660028,-296.082377
4606.424331,370.102971,-9193.145976,-148.041188
4606.424656,666.185348,-7967.393179,-518.144159
4606.424980,740.205942,-8733.488677,0.000000
4606.425305,888.247130,-8273.831378,-148.041188
4606.425629,592.164754,-8580.269578,-222.061783
4606.425954,1036.288319,-8656.879127,-444.123565
4606.426278,444.123565,-8580.269578,-148.041188
4606.426603,0.000000,-8580.269578,0.000000
4606.426927,148.041188,-8656.879127,-444.123565
4606.427252,444.123565,-8350.440928,-296.082377
4606.427576,370.102971,-8963.317327,-518.144159
4606.427901,0.000000,-8580.269578,-370.102971
4606.428225,518.144159,-8427.050478,-148.041188
4606.428550,296.082377,-9269.755526,0.000000
4606.428874,592.164754,-8886.707777,-296.082377
4606.429199,444.123565,-8656.879127,-370.102971
4606.429523,222.061783,-8886.707777,0.000000
4606.429848,74.020594,-8656.879127,74.020594
4606.430172,296.082377,-8197.221829,0.000000
4606.430497,444.123565,-8810.098227,0.000000
4606.430821,518.144159,-8656.879127,-74.020594
4606.431146,518.144159,-8656.879127,-222.061783
4606.431470,962.267725,-8350.440928,-296.082377
4606.431795,592.164754,-8580.269578,0.000000
4606.432119,444.123565,-8656.879127,-296.082377
4606.432444,0.000000,-8273.831378,0.000000
4606.432768,444.123565,-8580.269578,-370.102971
4606.433093,296.082377,-8503.660028,-296.082377
4606.433417,222.061783,-8580.269578,0.000000
4606.433742,222.061783,-8580.269578,-148.041188
4606.434066,444.123565,-8656.879127,-296.082377
4606.434391,888.247130,-9039.926876,-370.102971
4606.434715,444.123565,-8580.269578,-148.041188
4606.435040,148.041188,-8580.269578,74.020594
4606.435364,0.000000,-8350.440928,-296.082377
4606.435689,592.164754,-8810.098227,74.020594
4606.436013,592.164754,-8197.221829,-148.041188
4606.436338,518.144159,-8810.098227,-518.144159
4606.436662,592.164754,-8044.002729,-444.123565
4606.436987,296.082377,-9116.536426,222.061783
4606.437311,222.061783,-8733.488677,0.000000
4606.437636,518.144159,-8580.269578,-148.041188
4606.437960,222.061783,-8656.879127,0.000000
4606.438285,444.123565,-8503.660028,0.000000
4606.438609,592.164754,-7814.174080,-74.020594
4606.438934,444.123565,-8656.879127,-148.041188
4606.439258,592.164754,-8350.440928,-296.082377
4606.439583,740.205942,-8733.488677,-814.226536
4606.439907,592.164754,-8733.488677,-740.205942
4606.440232,518.144159,-8656.879127,-518.144159
4606.440556,296.082377,-8810.098227,-444.123565
4606.440881,-74.020594,-8580.269578,-296.082377
4606.441205,74.020594,-9039.926876,-370.102971
4606.441530,888.247130,-8580.269578,-518.144159
4606.441854,370.102971,-8273.831378,-444.123565
4606.442179,814.226536,-8580.269578,0.000000
4606.442503,148.041188,-8427.050478,-740.205942
4606.442828,666.185348,-9116.536426,-148.041188
4606.443152,444.123565,-8503.660028,-666.185348
4606.443477,222.061783,-8810.098227,-370.102971
4606.443801,222.061783,-8427.050478,-296.082377
4606.444126,148.041188,-9116.536426,-148.041188
4606.444450,222.061783,-8656.879127,-370.102971
4606.444775,444.123565,-8350.440928,-592.164754
4606.445099,592.164754,-8580.269578,-666.185348
4606.445424,740.205942,-8427.050478,-370.102971
4606.445748,444.123565,-8656.879127,-592.164754
4606.446073,222.061783,-8886.707777,-370.102971
4606.446397,666.185348,-8273.831378,-592.164754
4606.446722,444.123565,-8810.098227,-444.123565
4606.447046,0.000000,-8044.002729,-518.144159
4606.447371,370.102971,-8656.879127,-518.144159
4606.447695,370.102971,-8427.050478,-518.144159
4606.448020,518.144159,-8427.050478,-666.185348
4606.448344,888.247130,-9116.536426,0.000000
4606.448669,814.226536,-8273.831378,-666.185348
4606.448993,592.164754,-8503.660028,-592.164754
4606.449318,74.020594,-8810.098227,-444.123565
4606.449642,370.102971,-8580.269578,-518.144159
4606.449967,666.185348,-8503.660028,-296.082377
4606.450291,444.123565,-8273.831378,-444.123565
4606.450616,518.144159,-8733.488677,-370.102971
4606.450940,740.205942,-8656.879127,-592.164754
4606.451265,370.102971,-8273.831378,-592.164754
4606.451589,666.185348,-8733.488677,0.000000
4606.451914,370.102971,-8963.317327,-296.082377
4606.452238,296.082377,-8580.269578,0.000000
4606.452563,222.061783,-7814.174080,148.041188
4606.452887,74.020594,-8503.660028,-148.041188
4606.453212,518.144159,-8427.050478,0.000000
4606.453536,592.164754,-8503.660028,-222.061783
4606.453861,740.205942,-8886.707777,0.000000
4606.454185,518.144159,-8197.221829,-296.082377
4606.454510,444.123565,-8733.488677,0.000000
4606.454834,74.020594,-8427.050478,-222.061783
4606.455159,296.082377,-8580.269578,-222.061783
4606.455483,296.082377,-7967.393179,0.000000
4606.455808,740.205942,-8197.221829,0.000000
4606.456132,518.144159,-8503.660028,-592.164754
4606.456457,592.164754,-8427.050478,-444.123565
4606.456781,1184.329507,-8197.221829,-666.185348
4606.457106,1110.308913,-8656.879127,-592.164754
4606.457430,592.164754,-8656.879127,-370.102971
4606.457755,518.144159,-8580.269578,-370.102971
4606.458079,222.061783,-8886.707777,-296.082377
4606.458404,148.041188,-8427.050478,-518.144159
4606.458728,148.041188,-8963.317327,-444.123565
4606.459053,222.061783,-8503.660028,-222.061783
4606.459377,370.102971,-8886.707777,-370.102971
4606.459702,666.185348,-8810.098227,-148.041188
4606.460026,296.082377,-8733.488677,-370.102971
4606.460351,444.123565,-8733.488677,-518.144159
4606.460675,222.061783,-8656.879127,-666.185348
4606.461000,0.000000,-8886.707777,148.041188
4606.461324,0.000000,-8580.269578,0.000000
4606.461649,222.061783,-8580.269578,-222.061783
4606.461973,0.000000,-8503.660028,-370.102971
4606.462298,518.144159,-8810.098227,-666.185348
4606.462622,518.144159,-8503.660028,-296.082377
4606.462947,666.185348,-8733.488677,-666.185348
4606.463271,666.185348,-8810.098227,-444.123565
4606.463596,962.267725,-8503.660028,-592.164754
4606.463920,592.164754,-8886.707777,-962.267725
4606.464245,296.082377,-8580.269578,-222.061783
4606.464569,518.144159,-8580.269578,-592.164754
4606.464894,370.102971,-8810.098227,-518.144159
4606.465218,518.144159,-8273.831378,-1036.288319
4606.465543,814.226536,-8963.317327,-962.267725
4606.465867,592.164754,-8886.707777,-962.267725
4606.466192,592.164754,-8427.050478,-592.164754
4606.466516,444.123565,-8580.269578,-592.164754
4606.466841,-74.020594,-8886.707777,-370.102971
4606.467165,296.082377,-8427.050478,-666.185348
4606.467490,518.144159,-8427.050478,-592.164754
4606.467814,592.164754,-8580.269578,-1036.288319
4606.468139,962.267725,-9346.365076,-518.144159
4606.468463,592.164754,-8580.269578,-888.247130
4606.468788,814.226536,-8656.879127,-444.123565
4606.469112,740.205942,-8503.660028,-1036.288319
4606.469437,740.205942,-8580.269578,-370.102971
4606.469761,296.082377,-7737.564530,-370.102971
4606.470086,222.061783,-8810.098227,-518.144159
4606.470410,518.144159,-8273.831378,-592.164754
4606.470735,518.144159,-8350.440928,-666.185348
4606.471059,222.061783,-8273.831378,-666.185348
4606.471384,962.267725,-8580.269578,-444.123565
4606.471708,666.185348,-8580.269578,-592.164754
4606.472033,814.226536,-8963.317327,-740.205942
4606.472357,74.020594,-8733.488677,-740.205942
4606.472682,296.082377,-8963.317327,-222.061783
4606.473006,222.061783,-8197.221829,-518.144159
4606.473331,370.102971,-8503.660028,-296.082377
4606.473655,444.123565,-8810.098227,-666.185348
4606.473980,444.123565,-8810.098227,-666.185348
4606.474304,666.185348,-8733.488677,-666.185348
4606.474629,444.123565,-8733.488677,-666.185348
4606.474953,296.082377,-8503.660028,-370.102971
4606.475278,0.000000,-8273.831378,-814.226536
4606.475602,222.061783,-8273.831378,-370.102971
4606.475927,222.061783,-8273.831378,-740.205942
4606.476251,222.061783,-8810.098227,-592.164754
4606.476576,370.102971,-8120.612279,-148.041188
4606.476900,296.082377,-8656.879127,-592.164754
4606.477225,444.123565,-9039.926876,-814.226536
4606.477549,296.082377,-8580.269578,-592.164754
4606.477874,222.061783,-8580.269578,-444.123565
4606.478198,222.061783,-8580.269578,-148.041188
4606.478523,74.020594,-8197.221829,-222.061783
4606.478847,222.061783,-8503.660028,-148.041188
4606.479172,222.061783,-8350.440928,-296.082377
4606.479496,888.247130,-9116.536426,-444.123565
4606.479821,962.267725,-8503.660028,-444.123565
4606.480145,666.185348,-8273.831378,-592.164754
4606.480470,740.205942,-8733.488677,-296.082377
4606.480794,444.123565,-8120.612279,-296.082377
4606.481119,592.164754,-8733.488677,0.000000
4606.481443,148.041188,-8656.879127,-444.123565
4606.481768,444.123565,-8886.707777,-222.061783
4606.482092,666.185348,-8503.660028,-592.164754
4606.482417,518.144159,-8886.707777,-222.061783
4606.482741,666.185348,-8580.269578,-592.164754
4606.483066,518.144159,-9116.536426,-814.226536
4606.483390,666.185348,-8580.269578,-370.102971
4606.483715,0.000000,-8350.440928,-222.061783
4606.484039,0.000000,-8963.317327,-370.102971
4606.484364,0.000000,-8273.831378,-592.164754
4606.484688,148.041188,-8580.269578,-518.144159
4606.485013,296.082377,-8656.879127,-962.267725
4606.485337,592.164754,-8810.098227,-370.102971
4606.485662,666.185348,-8733.488677,-592.164754
4606.485986,370.102971,-8350.440928,-370.102971
4606.486311,518.144159,-8656.879127,-592.164754
4606.486635,444.123565,-9269.755526,-370.102971
4606.486960,444.123565,-8197.221829,0.000000
4606.487284,666.185348,-8580.269578,0.000000
4606.487609,370.102971,-8427.050478,-370.102971
4606.487933,814.226536,-8580.269578,-518.144159
4606.488258,592.164754,-8656.879127,-296.082377
4606.488582,370.102971,-8656.879127,-222.061783
4606.488907,518.144159,-8733.488677,-370.102971
4606.489231,296.082377,-8503.660028,-666.185348
4606.489556,296.082377,-8733.488677,-222.061783
4606.489880,222.061783,-8580.269578,-296.082377
4606.490205,444.123565,-8656.879127,-148.041188
4606.490529,592.164754,-8427.050478,-222.061783
4606.490854,962.267725,-9116.536426,-518.144159
4606.491178,518.144159,-8810.098227,-518.144159
4606.491503,444.123565,-8656.879127,-740.205942
4606.491827,444.123565,-8810.098227,-518.144159
4606.492152,74.020594,-8810.098227,148.041188
4606.492476,0.000000,-8580.269578,-592.164754
4606.492801,0.000000,-8427.050478,-370.102971
4606.493125,0.000000,-8044.002729,-444.123565
4606.493450,444.123565,-8810.098227,-296.082377
4606.493774,518.144159,-7660.954980,-370.102971
4606.494099,666.185348,-8427.050478,-518.144159
4606.494423,518.144159,-8963.317327,-518.144159
4606.494748,518.144159,-8273.831378,-740.205942
4606.495072,444.123565,-8273.831378,-148.041188
4606.495397,148.041188,-8427.050478,-444.123565
4606.495722,0.000000,-8656.879127,0.000000
4606.496046,222.061783,-8580.269578,-222.061783
4606.496371,222.061783,-8350.440928,-592.164754
4606.496695,444.123565,-8580.269578,-296.082377
4606.497020,740.205942,-8580.269578,-592.164754
4606.497344,666.185348,-8427.050478,0.000000
4606.497669,740.205942,-8886.707777,0.000000
4606.497993,370.102971,-8427.050478,-148.041188
4606.498318,370.102971,-8503.660028,0.000000
4606.498642,666.185348,-8273.831378,-222.061783
4606.498967,296.082377,-8350.440928,0.000000
4606.499291,962.267725,-8656.879127,0.000000
4606.499616,740.205942,-8273.831378,-740.205942
4606.499940,740.205942,-8886.707777,-518.144159
4606.500265,592.164754,-8503.660028,-740.205942
4606.500589,592.164754,-9116.536426,-370.102971
4606.500914,444.123565,-7967.393179,-370.102971
4606.501238,148.041188,-8810.098227,0.000000
4606.501563,74.020594,-8503.660028,-444.123565
4606.501887,592.164754,-8273.831378,-592.164754
4606.502212,888.247130,-8580.269578,-740.205942
4606.502536,444.123565,-8656.879127,-370.102971
4606.502861,518.144159,-9039.926876,-518.144159
4606.503185,740.205942,-8886.707777,-518.144159
4606.503510,1036.288319,-8656.879127,-296.082377
4606.503834,370.102971,-8886.707777,0.000000
4606.504159,296.082377,-8350.440928,-296.082377
4606.504483,74.020594,-8810.098227,-222.061783
4606.504808,222.061783,-8810.098227,-148.041188
4606.505132,296.082377,-8273.831378,-296.082377
4606.505457,666.185348,-8733.488677,0.000000
4606.505781,444.123565,-8580.269578,-296.082377
4606.506106,518.144159,-8733.488677,0.000000
4606.506430,444.123565,-9193.145976,-666.185348
4606.506755,296.082377,-8427.050478,0.000000
4606.507079,74.020594,-8273.831378,0.000000
4606.507404,0.000000,-8733.488677,-296.082377
4606.507728,444.123565,-8733.488677,0.000000
4606.508053,222.061783,-8503.660028,-370.102971
4606.508377,370.102971,-8810.098227,-296.082377
4606.508702,222.061783,-8427.050478,-148.041188
4606.509027,444.123565,-8963.317327,-296.082377
4606.509351,296.082377,-8427.050478,-148.041188
4606.509676,148.041188,-8350.440928,-148.041188
4606.510000,444.123565,-8427.050478,-148.041188
4606.510325,74.020594,-8197.221829,-222.061783
4606.510649,740.205942,-9346.365076,-296.082377
4606.510974,370.102971,-8503.660028,-518.144159
4606.511298,444.123565,-8503.660028,-296.082377
4606.511623,296.082377,-8733.488677,-370.102971
4606.511947,222.061783,-8503.660028,-296.082377
4606.512272,444.123565,-8580.269578,0.000000
4606.512596,148.041188,-8503.660028,-222.061783
4606.512921,222.061783,-8656.879127,0.000000
4606.513245,444.123565,-8044.002729,0.000000
4606.513570,74.020594,-8350.440928,-296.082377
4606.513894,370.102971,-8427.050478,-592.164754
4606.514219,740.205942,-8810.098227,-222.061783
4606.514543,740.205942,-8503.660028,74.020594
4606.514868,444.123565,-8273.831378,-370.102971
4606.515192,370.102971,-8656.879127,0.000000
4606.515517,0.000000,-8273.831378,0.000000
4606.515841,370.102971,-8273.831378,0.000000
4606.516166,592.164754,-8886.707777,-222.061783
4606.516490,592.164754,-8733.488677,148.041188
4606.516815,370.102971,-8273.831378,-74.020594
4606.517139,592.164754,-8656.879127,-518.144159
4606.517464,518.144159,-8656.879127,-518.144159
4606.517788,370.102971,-8350.440928,-444.123565
4606.518113,222.061783,-8733.488677,0.000000
4606.518437,0.000000,-8427.050478,0.000000
4606.518762,0.000000,-8427.050478,-444.123565
4606.519086,518.144159,-9422.974625,-518.144159
4606.519411,518.144159,-8273.831378,-518.144159
4606.519735,814.226536,-8733.488677,-222.061783
4606.520060,814.226536,-8427.050478,-518.144159
4606.520384,592.164754,-8810.098227,-370.102971
4606.520709,518.144159,-8503.660028,-518.144159
4606.521033,444.123565,-8503.660028,-222.061783
4606.521358,296.082377,-8656.879127,-148.041188
4606.521683,592.164754,-8197.221829,-296.082377
4606.522007,148.041188,-8120.612279,0.000000
4606.522332,444.123565,-8733.488677,-370.102971
4606.522656,296.082377,-8580.269578,-370.102971
4606.522981,518.144159,-8886.707777,-444.123565
4606.523305,592.164754,-8427.050478,-370.102971
4606.523630,370.102971,-8810.098227,-296.082377
4606.523954,296.082377,-8656.879127,-370.102971
4606.524279,296.082377,-8427.050478,-148.041188
4606.524603,222.061783,-8427.050478,-444.123565
4606.524928,592.164754,-8656.879127,-370.102971
4606.525252,296.082377,-8273.831378,-444.123565
4606.525577,296.082377,-8886.707777,-370.102971
4606.525901,666.185348,-8886.707777,-370.102971
4606.526226,888.247130,-8733.488677,-592.164754
4606.526550,518.144159,-8886.707777,-296.082377
4606.526875,370.102971,-8273.831378,-148.041188
4606.527199,296.082377,-8350.440928,-296.082377
4606.527524,592.164754,-8656.879127,-222.061783
4606.527848,370.102971,-8197.221829,-370.102971
4606.528173,592.164754,-8503.660028,-370.102971
4606.528497,740.205942,-8350.440928,-444.123565
4606.528822,518.144159,-8733.488677,-518.144159
4606.529146,74.020594,-8886.707777,-444.123565
4606.529471,296.082377,-8656.879127,0.000000
4606.529795,222.061783,-8427.050478,0.000000
4606.530120,518.144159,-8886.707777,0.000000
4606.530444,444.123565,-8350.440928,148.041188
4606.530769,740.205942,-8656.879127,-222.061783
4606.531093,592.164754,-8503.660028,0.000000
4606.531418,592.164754,-8810.098227,-222.061783
4606.531742,592.164754,-8733.488677,0.000000
4606.532067,444.123565,-8197.221829,74.020594
4606.532391,148.041188,-9039.926876,74.020594
4606.532716,0.000000,-8120.612279,148.041188
4606.533040,148.041188,-8503.660028,148.041188
4606.533365,296.082377,-8810.098227,-296.082377
4606.533689,296.082377,-8656.879127,0.000000
4606.534014,592.164754,-8427.050478,0.000000
4606.534339,518.144159,-8580.269578,-296.082377
4606.534663,962.267725,-8427.050478,-296.082377
4606.534988,518.144159,-8810.098227,-370.102971
4606.535312,296.082377,-8656.879127,0.000000
4606.535637,148.041188,-8273.831378,0.000000
4606.535961,296.082377,-8810.098227,0.000000
4606.536286,222.061783,-8197.221829,-370.102971
4606.536610,518.144159,-8733.488677,-148.041188
4606.536935,518.144159,-8580.269578,-592.164754
4606.537259,666.185348,-8503.660028,-296.082377
4606.537584,1036.288319,-8886.707777,-518.144159
4606.537908,74.020594,-8580.269578,-222.061783
4606.538233,222.061783,-8350.440928,-296.082377
4606.538557,148.041188,-8503.660028,-296.082377
4606.538882,296.082377,-7584.345430,222.061783
4606.539206,444.123565,-8197.221829,-370.102971
4606.539531,370.102971,-8656.879127,-370.102971
4606.539855,740.205942,-8733.488677,-222.061783
4606.540180,518.144159,-8886.707777,-444.123565
4606.540504,666.185348,-8580.269578,-370.102971
4606.540829,148.041188,-8733.488677,0.000000
4606.541153,296.082377,-8580.269578,0.000000
4606.541478,0.000000,-8503.660028,-148.041188
4606.541802,888.247130,-8120.612279,-370.102971
4606.542127,666.185348,-8810.098227,-148.041188
4606.542451,1036.288319,-8427.050478,-592.164754
4606.542776,814.226536,-8733.488677,-370.102971
4606.543100,740.205942,-9116.536426,-222.061783
4606.543425,814.226536,-8810.098227,-370.102971
4606.543749,592.164754,-8810.098227,-296.082377
4606.544074,0.000000,-8580.269578,0.000000
4606.544398,222.061783,-8427.050478,-148.041188
4606.544723,296.082377,-8810.098227,-222.061783
4606.545047,370.102971,-8580.269578,-444.123565
4606.545372,740.205942,-8963.317327,-444.123565
4606.545696,740.205942,-8733.488677,-296.082377
4606.546021,1036.288319,-8810.098227,-148.041188
4606.546345,444.123565,-8273.831378,-296.082377
4606.546670,296.082377,-8427.050478,-296.082377
4606.546994,74.020594,-8656.879127,-148.041188
4606.547319,444.123565,-8580.269578,0.000000
4606.547644,370.102971,-8580.269578,-518.144159
4606.547968,740.205942,-8963.317327,-296.082377
4606.548293,740.205942,-8580.269578,-592.164754
4606.548617,814.226536,-8810.098227,-592.164754
4606.548942,370.102971,-8350.440928,-592.164754
4606.549266,518.144159,-8427.050478,-296.082377
4606.549591,222.061783,-8350.440928,-148.041188
4606.549915,0.000000,-8733.488677,-148.041188
4606.550240,148.041188,-8044.002729,0.000000
4606.550564,222.061783,-8580.269578,-370.102971
4606.550889,666.185348,-8580.269578,-592.164754
4606.551213,666.185348,-8733.488677,-370.102971
4606.551538,740.205942,-8733.488677,-592.164754
4606.551862,444.123565,-8350.440928,-370.102971
4606.552187,518.144159,-8733.488677,-518.144159
4606.552511,148.041188,-8886.707777,-222.061783
4606.552836,222.061783,-8350.440928,-222.061783
4606.553160,148.041188,-8273.831378,-740.205942
4606.553485,296.082377,-8197.221829,-296.082377
4606.553809,444.123565,-8656.879127,-518.144159
4606.554134,814.226536,-8886.707777,-666.185348
4606.554458,518.144159,-8427.050478,-148.041188
4606.554783,592.164754,-8503.660028,0.000000
4606.555107,296.082377,-8427.050478,-148.041188
4606.555432,148.041188,-8350.440928,-592.164754
4606.555756,222.061783,-8503.660028,0.000000
4606.556081,592.164754,-8350.440928,-370.102971
4606.556405,740.205942,-8350.440928,-370.102971
4606.556730,666.185348,-8580.269578,-740.205942
4606.557054,592.164754,-8810.098227,-370.102971
4606.557379,1332.370696,-8733.488677,-666.185348
4606.557703,370.102971,-8733.488677,-592.164754
4606.558028,518.144159,-8427.050478,-370.102971
4606.558352,74.020594,-8503.660028,-148.041188
4606.558677,148.041188,-8580.269578,0.000000
4606.559001,222.061783,-8273.831378,-444.123565
4606.559326,592.164754,-8503.660028,-518.144159
4606.559650,518.144159,-8503.660028,-370.102971
4606.559975,814.226536,-8503.660028,-592.164754
4606.560300,518.144159,-8733.488677,-814.226536
4606.560624,370.102971,-8580.269578,-592.164754
4606.560949,222.061783,-8733.488677,-296.082377
4606.561273,-148.041188,-8350.440928,-148.041188
4606.561598,0.000000,-8350.440928,-222.061783
4606.561922,148.041188,-8197.221829,0.000000
4606.562247,296.082377,-8656.879127,-296.082377
4606.562571,518.144159,-8427.050478,-518.144159
4606.562896,740.205942,-8963.317327,-296.082377
4606.563220,814.226536,-8350.440928,-370.102971
4606.563545,74.020594,-8503.660028,-296.082377
4606.563869,222.061783,-8350.440928,-444.123565
4606.564194,74.020594,-8350.440928,74.020594
4606.564518,296.082377,-8733.488677,-592.164754
4606.564843,296.082377,-8733.488677,0.000000
4606.565167,444.123565,-8273.831378,-370.102971
4606.565492,592.164754,-8810.098227,-296.082377
4606.565816,666.185348,-8733.488677,-592.164754
4606.566141,666.185348,-9116.536426,-148.041188
4606.566465,740.205942,-8427.050478,-444.123565
4606.566790,518.144159,-8197.221829,-222.061783
4606.567114,222.061783,-8656.879127,-222.061783
4606.567439,296.082377,-8273.831378,-222.061783
4606.567763,296.082377,-8503.660028,-370.102971
4606.568088,592.164754,-8503.660028,-518.144159
4606.568412,370.102971,-8503.660028,-370.102971
4606.568737,444.123565,-8886.707777,-444.123565
4606.569061,518.144159,-8810.098227,-592.164754
4606.569386,444.123565,-8503.660028,-666.185348
4606.569710,370.102971,-8886.707777,-296.082377
4606.570035,444.123565,-8886.707777,0.000000
4606.570359,74.020594,-8273.831378,-444.123565
4606.570684,74.020594,-8503.660028,-370.102971
4606.571008,518.144159,-8656.879127,-666.185348
4606.571333,592.164754,-8886.707777,-740.205942
4606.571657,444.123565,-8810.098227,-592.164754
4606.571982,370.102971,-8503.660028,-666.185348
4606.572306,518.144159,-8733.488677,-296.082377
4606.572631,222.061783,-8580.269578,-296.082377
4606.572956,74.020594,-8120.612279,-740.205942
4606.573280,592.164754,-8503.660028,-592.164754
4606.573605,518.144159,-8350.440928,-444.123565
4606.573929,592.164754,-8810.098227,-444.123565
4606.574254,592.164754,-8503.660028,-1110.308913
4606.574578,518.144159,-8503.660028,-592.164754
4606.574903,592.164754,-8656.879127,-814.226536
4606.575227,370.102971,-8427.050478,-222.061783
4606.575552,0.000000,-8580.269578,-666.185348
4606.575876,222.061783,-8350.440928,-666.185348
4606.576201,222.061783,-8273.831378,-518.144159
4606.576525,370.102971,-8350.440928,-888.247130
4606.576850,740.205942,-8810.098227,-888.247130
4606.577174,814.226536,-8197.221829,-1110.308913
4606.577499,518.144159,-8963.317327,-518.144159
4606.577823,370.102971,-8580.269578,-740.205942
4606.578148,518.144159,-8656.879127,-666.185348
4606.578472,518.144159,-8580.269578,-518.144159
4606.578797,148.041188,-8656.879127,-296.082377
4606.579121,222.061783,-8503.660028,-370.102971
4606.579446,444.123565,-8656.879127,-740.205942
4606.579770,518.144159,-8273.831378,-518.144159
4606.580095,518.144159,-8963.317327,-444.123565
4606.580419,888.247130,-8656.879127,-592.164754
4606.580744,518.144159,-8503.660028,-592.164754
4606.581068,592.164754,-8503.660028,-296.082377
4606.581393,148.041188,-8656.879127,148.041188
4606.581717,296.082377,-8120.612279,-222.061783
4606.582042,444.123565,-8427.050478,-370.102971
4606.582366,444.123565,-8427.050478,-370.102971
4606.582691,740.205942,-9039.926876,-370.102971
4606.583015,518.144159,-8427.050478,-518.144159
4606.583340,518.144159,-8656.879127,-370.102971
4606.583664,518.144159,-8503.660028,-444.123565
4606.583989,666.185348,-8197.221829,0.000000
4606.584313,370.102971,-8273.831378,0.000000
4606.584638,518.144159,-8273.831378,-296.082377
4606.584962,222.061783,-8273.831378,-222.061783
4606.585287,370.102971,-8733.488677,-222.061783
4606.585612,740.205942,-9116.536426,0.000000
4606.585936,444.123565,-8580.269578,-296.082377
4606.586261,370.102971,-8656.879127,0.000000
4606.586585,222.061783,-8350.440928,0.000000
4606.586910,222.061783,-8733.488677,-222.061783
4606.587234,74.020594,-8886.707777,74.020594
4606.587559,444.123565,-8197.221829,-370.102971
4606.587883,444.123565,-8886.707777,-148.041188
4606.588208,518.144159,-8503.660028,-592.164754
4606.588532,296.082377,-8733.488677,74.020594
4606.588857,592.164754,-8580.269578,-592.164754
4606.589181,592.164754,-9039.926876,0.000000
4606.589506,0.000000,-8733.488677,-222.061783
4606.589830,222.061783,-9116.536426,0.000000
4606.590155,222.061783,-8350.440928,-444.123565
4606.590479,518.144159,-8580.269578,-370.102971
4606.590804,518.144159,-8503.660028,-296.082377
4606.591128,814.226536,-8580.269578,-296.082377
4606.591453,444.123565,-9039.926876,-370.102971
4606.591777,592.164754,-8656.879127,-370.102971
4606.592102,592.164754,-8886.707777,-370.102971
4606.592426,0.000000,-8656.879127,-296.082377
4606.592751,74.020594,-8273.831378,0.000000
4606.593075,0.000000,-8580.269578,-518.144159
4606.593400,444.123565,-8810.098227,-296.082377
4606.593724,666.185348,-8120.612279,-592.164754
4606.594049,1332.370696,-9116.536426,-592.164754
4606.594374,666.185348,-8427.050478,-518.144159
4606.594698,740.205942,-8810.098227,-370.102971
4606.595023,222.061783,-8580.269578,-666.185348
4606.595347,74.020594,-8656.879127,-370.102971
4606.595672,148.041188,-8503.660028,0.000000
4606.595996,148.041188,-8273.831378,-518.144159
4606.596321,444.123565,-8963.317327,-592.164754
4606.596645,518.144159,-8810.098227,-740.205942
4606.596970,814.226536,-8656.879127,-962.267725
4606.597294,740.205942,-8656.879127,-888.247130
4606.597619,814.226536,-8810.098227,-962.267725
4606.597943,444.123565,-8427.050478,-592.164754
4606.598268,74.020594,-8197.221829,-592.164754
4606.598592,222.061783,-8886.707777,-370.102971
4606.598917,370.102971,-8120.612279,-1036.288319
4606.599242,814.226536,-8886.707777,-740.205942
4606.599566,592.164754,-7967.393179,-740.205942
4606.599891,0.000000,-8273.831378,-444.123565
4606.600215,814.226536,-8427.050478,-740.205942
4606.600540,518.144159,-8427.050478,-592.164754
4606.600864,444.123565,-8810.098227,-592.164754
4606.601189,0.000000,-7967.393179,0.000000
4606.601513,0.000000,-8197.221829,-222.061783
4606.601838,222.061783,-8350.440928,-444.123565
4606.602162,592.164754,-8427.050478,-518.144159
4606.602487,592.164754,-8810.098227,-518.144159
4606.602811,444.123565,-8427.050478,-444.123565
4606.603136,518.144159,-8656.879127,-222.061783
4606.603460,370.102971,-8503.660028,-592.164754
4606.603785,370.102971,-8580.269578,0.000000
4606.604110,0.000000,-7814.174080,-370.102971
4606.604434,0.000000,-8580.269578,0.000000
4606.604759,296.082377,-8044.002729,-518.144159
4606.605083,444.123565,-8580.269578,148.041188
4606.605408,962.267725,-8733.488677,-666.185348
4606.605732,666.185348,-8963.317327,-148.041188
4606.606057,814.226536,-8963.317327,-592.164754
4606.606381,444.123565,-8580.269578,0.000000
4606.606706,444.123565,-8503.660028,0.000000
4606.607030,0.000000,-8427.050478,0.000000
4606.607355,370.102971,-8427.050478,0.000000
4606.607679,74.020594,-8656.879127,-222.061783
4606.608004,518.144159,-8963.317327,-148.041188
4606.608328,740.205942,-8197.221829,-518.144159
4606.608653,444.123565,-8656.879127,0.000000
4606.608978,740.205942,-8886.707777,0.000000
4606.609302,444.123565,-8810.098227,-444.123565
4606.609627,74.020594,-8273.831378,148.041188
4606.609951,296.082377,-8427.050478,-148.041188
4606.610276,296.082377,-8886.707777,0.000000
4606.610600,296.082377,-8503.660028,-222.061783
4606.610925,518.144159,-8503.660028,0.000000
4606.611249,444.123565,-8810.098227,-296.082377
4606.611574,888.247130,-8427.050478,-222.061783
4606.611898,814.226536,-8197.221829,-222.061783
4606.612223,296.082377,-8810.098227,0.000000
4606.612547,666.185348,-8656.879127,-592.164754
4606.612872,592.164754,-8350.440928,-148.041188
4606.613196,444.123565,-8273.831378,-222.061783
4606.613521,444.123565,-8656.879127,0.000000
4606.613845,1036.288319,-8810.098227,-666.185348
4606.614170,814.226536,-8656.879127,-148.041188
4606.614495,740.205942,-8580.269578,-518.144159
4606.614819,518.144159,-8886.707777,-592.164754
4606.615144,444.123565,-8503.660028,-222.061783
4606.615468,74.020594,-8503.660028,0.000000
4606.615793,74.020594,-8886.707777,0.000000
4606.616117,222.061783,-8197.221829,-666.185348
4606.616442,444.123565,-8733.488677,-518.144159
4606.616766,296.082377,-8580.269578,-296.082377
4606.617091,592.164754,-8733.488677,-444.123565
4606.617415,592.164754,-8886.707777,-370.102971
4606.617740,444.123565,-8733.488677,-740.205942
4606.618064,296.082377,-9039.926876,-518.144159
4606.618389,370.102971,-8656.879127,-592.164754
4606.618713,296.082377,-8427.050478,0.000000
4606.619038,148.041188,-8503.660028,-814.226536
4606.619363,296.082377,-8503.660028,-370.102971
4606.619687,740.205942,-8810.098227,-592.164754
4606.620012,518.144159,-8733.488677,-740.205942
4606.620336,666.185348,-8733.488677,-592.164754
4606.620661,74.020594,-8427.050478,-666.185348
4606.620985,444.123565,-9116.536426,-666.185348
4606.621310,0.000000,-8273.831378,0.000000
4606.621634,222.061783,-8963.317327,-444.123565
4606.621959,148.041188,-8503.660028,-222.061783
4606.622283,370.102971,-8733.488677,0.000000
4606.622608,444.123565,-8810.098227,-518.144159
4606.622932,518.144159,-8503.660028,-222.061783
4606.623257,666.185348,-8427.050478,-592.164754
4606.623581,444.123565,-8503.660028,-370.102971
4606.623906,592.164754,-8656.879127,0.000000
4606.624231,74.020594,-8503.660028,-296.082377
4606.624555,148.041188,-8197.221829,0.000000
4606.624880,296.082377,-8427.050478,-296.082377
4606.625204,-148.041188,-8886.707777,0.000000
4606.625529,518.144159,-8197.221829,0.000000
4606.625853,592.164754,-8503.660028,-370.102971
4606.626178,296.082377,-8656.879127,-296.082377
4606.626502,592.164754,-8350.440928,-222.061783
4606.626827,74.020594,-8656.879127,-148.041188
4606.627151,0.000000,-8197.221829,-296.082377
4606.627476,444.123565,-8197.221829,-222.061783
4606.627800,296.082377,-8733.488677,-148.041188
4606.628125,-222.061783,-8427.050478,148.041188
4606.628449,518.144159,-8656.879127,-222.061783
4606.628774,740.205942,-8733.488677,74.020594
4606.629099,888.247130,-8273.831378,0.000000
4606.629423,814.226536,-8963.317327,148.041188
4606.629748,444.123565,-8503.660028,148.041188
4606.630072,444.123565,-8350.440928,148.041188
4606.630397,444.123565,-8733.488677,0.000000
4606.630721,518.144159,-8503.660028,0.000000
4606.631046,592.164754,-8656.879127,0.000000
4606.631370,370.102971,-8810.098227,0.000000
4606.631695,444.123565,-8580.269578,-370.102971
4606.632019,370.102971,-8810.098227,0.000000
4606.632344,222.061783,-8733.488677,296.082377
4606.632668,518.144159,-8580.269578,0.000000
4606.632993,0.000000,-8656.879127,0.000000
4606.633317,148.041188,-8656.879127,0.000000
4606.633642,592.164754,-8810.098227,-148.041188
4606.633967,592.164754,-8886.707777,-296.082377
4606.634291,592.164754,-8963.317327,0.000000
4606.634616,444.123565,-8733.488677,-296.082377
4606.634940,222.061783,-8656.879127,-296.082377
4606.635265,666.185348,-8656.879127,-814.226536
4606.635589,444.123565,-8580.269578,-296.082377
4606.635914,518.144159,-8427.050478,-148.041188
4606.636238,296.082377,-8350.440928,-296.082377
4606.636563,666.185348,-8656.879127,-518.144159
4606.636887,592.164754,-8427.050478,-296.082377
4606.637212,814.226536,-8810.098227,-518.144159
4606.637536,444.123565,-8503.660028,-370.102971
4606.637861,296.082377,-9039.926876,0.000000
4606.638185,74.020594,-8503.660028,-370.102971
4606.638510,148.041188,-8810.098227,-370.102971
4606.638835,74.020594,-8580.269578,-222.061783
4606.639159,518.144159,-8580.269578,-370.102971
4606.639484,592.164754,-7967.393179,0.000000
4606.639808,222.061783,-8733.488677,-148.041188
4606.640133,592.164754,-8580.269578,-296.082377
4606.640457,666.185348,-8427.050478,0.000000
4606.640782,740.205942,-8810.098227,-518.144159
4606.641106,0.000000,-8733.488677,0.000000
4606.641431,0.000000,-8197.221829,0.000000
4606.641755,148.041188,-8120.612279,-148.041188
4606.642080,222.061783,-8044.002729,-370.102971
4606.642404,814.226536,-8503.660028,-444.123565
4606.642729,740.205942,-8197.221829,-296.082377
4606.643053,592.164754,-8580.269578,-148.041188
4606.643378,666.185348,-8656.879127,-814.226536
4606.643703,296.082377,-8427.050478,-592.164754
4606.644027,0.000000,-8350.440928,-296.082377
4606.644352,222.061783,-8350.440928,-148.041188
4606.644676,518.144159,-8197.221829,-444.123565
4606.645001,444.123565,-8733.488677,-444.123565
4606.645325,740.205942,-8656.879127,-592.164754
4606.645650,370.102971,-8580.269578,-592.164754
4606.645974,888.247130,-8810.098227,-518.144159
4606.646299,888.247130,-8350.440928,0.000000
4606.646623,370.102971,-8427.050478,-222.061783
4606.646948,148.041188,-8733.488677,-370.102971
4606.647272,0.000000,-8044.002729,0.000000
4606.647597,444.123565,-8350.440928,-222.061783
4606.647921,222.061783,-7967.393179,0.000000
4606.648246,888.247130,-8580.269578,-222.061783
4606.648571,518.144159,-8810.098227,-296.082377
4606.648895,592.164754,-8733.488677,0.000000
4606.649220,444.123565,-8044.002729,-518.144159
4606.649544,666.185348,-9039.926876,-370.102971
4606.649869,74.020594,-8427.050478,74.020594
4606.650193,74.020594,-8810.098227,-296.082377
4606.650518,370.102971,-8656.879127,-592.164754
4606.650842,888.247130,-8580.269578,-444.123565
4606.651167,888.247130,-8810.098227,-592.164754
4606.651491,592.164754,-8886.707777,-592.164754
4606.651816,962.267725,-8580.269578,-592.164754
4606.652140,518.144159,-9729.412825,-296.082377
4606.652465,296.082377,-8580.269578,-518.144159
4606.652789,222.061783,-8580.269578,-814.226536
4606.653114,444.123565,-8580.269578,-592.164754
4606.653439,666.185348,-8733.488677,-444.123565
4606.653763,222.061783,-8810.098227,-962.267725
4606.654088,370.102971,-8656.879127,-666.185348
4606.654412,666.185348,-8810.098227,-592.164754
4606.654737,740.205942,-8886.707777,-666.185348
4606.655061,148.041188,-8810.098227,0.000000
4606.655386,296.082377,-8810.098227,-222.061783
4606.655710,222.061783,-8580.269578,0.000000
4606.656035,148.041188,-8656.879127,-444.123565
4606.656359,740.205942,-9039.926876,-222.061783
4606.656684,518.144159,-8503.660028,0.000000
4606.657008,444.123565,-8733.488677,0.000000
4606.657333,518.144159,-8963.317327,-296.082377
4606.657657,666.185348,-8580.269578,-444.123565
4606.657982,370.102971,-8810.098227,222.061783
4606.658307,0.000000,-8810.098227,0.000000
4606.658631,222.061783,-8656.879127,370.102971
4606.658956,222.061783,-8350.440928,0.000000
4606.659280,444.123565,-8503.660028,-370.102971
4606.659605,592.164754,-8350.440928,-666.185348
4606.659929,666.185348,-8733.488677,-370.102971
4606.660254,370.102971,-8197.221829,0.000000
4606.660578,518.144159,-8427.050478,-296.082377
4606.660903,296.082377,-8656.879127,0.000000
4606.661227,370.102971,-8197.221829,-222.061783
4606.661552,518.144159,-8427.050478,-296.082377
4606.661876,296.082377,-8350.440928,-444.123565
4606.662201,296.082377,-8273.831378,-296.082377
4606.662525,592.164754,-8350.440928,-222.061783
4606.662850,518.144159,-8427.050478,-518.144159
4606.663175,518.144159,-8810.098227,-222.061783
4606.663499,74.020594,-8044.002729,-370.102971
4606.663824,370.102971,-8427.050478,0.000000
4606.664148,0.000000,-8656.879127,0.000000
4606.664473,74.020594,-8503.660028,74.020594
4606.664797,222.061783,-8503.660028,-444.123565
4606.665122,0.000000,-8350.440928,-370.102971
4606.665446,370.102971,-8810.098227,0.000000
4606.665771,444.123565,-8273.831378,0.000000
4606.666095,296.082377,-8810.098227,-148.041188
4606.666420,518.144159,-8427.050478,-444.123565
4606.666744,444.123565,-8810.098227,-296.082377
4606.667069,370.102971,-8580.269578,0.000000
4606.667393,-296.082377,-8273.831378,-370.102971
4606.667718,148.041188,-8810.098227,-518.144159
4606.668043,370.102971,-8580.269578,-444.123565
4606.668367,518.144159,-8810.098227,-962.267725
4606.668692,518.144159,-9116.536426,-740.205942
4606.669016,296.082377,-8656.879127,-370.102971
4606.669341,814.226536,-8963.317327,-666.185348
4606.669665,592.164754,-8350.440928,-888.247130
4606.669990,222.061783,-8886.707777,-666.185348
4606.670314,518.144159,-8810.098227,-518.144159
4606.670639,74.020594,-8503.660028,-518.144159
4606.670963,518.144159,-8886.707777,-592.164754
4606.671288,444.123565,-8350.440928,-666.185348
4606.671612,740.205942,-8886.707777,-666.185348
4606.671937,666.185348,-9116.536426,-296.082377
4606.672261,444.123565,-8503.660028,-518.144159
4606.672586,444.123565,-8963.317327,74.020594
4606.672911,592.164754,-8580.269578,-222.061783
4606.673235,518.144159,-8580.269578,-518.144159
4606.673560,740.205942,-8733.488677,-518.144159
4606.673884,666.185348,-8810.098227,-296.082377
4606.674209,518.144159,-8503.660028,-518.144159
4606.674533,592.164754,-8503.660028,-370.102971
4606.674858,666.185348,-8656.879127,0.000000
4606.675182,370.102971,-8733.488677,-370.102971
4606.675507,444.123565,-8656.879127,-518.144159
4606.675831,296.082377,-8580.269578,-74.020594
4606.676156,74.020594,-8350.440928,0.000000
4606.676480,296.082377,-8580.269578,-296.082377
4606.676805,370.102971,-8733.488677,-518.144159
4606.677129,592.164754,-8503.660028,-444.123565
4606.677454,888.247130,-8656.879127,-370.102971
4606.677779,666.185348,-8733.488677,-370.102971
4606.678103,518.144159,-8503.660028,-296.082377
4606.678428,296.082377,-8656.879127,0.000000
4606.678752,592.164754,-8580.269578,-518.144159
4606.679077,1036.288319,-8503.660028,-518.144159
4606.679401,296.082377,-8656.879127,0.000000
4606.679726,592.164754,-8503.660028,-518.144159
4606.680050,814.226536,-8963.317327,-444.123565
4606.680375,814.226536,-8886.707777,-740.205942
4606.680699,740.205942,-9039.926876,0.000000
4606.681024,518.144159,-8427.050478,0.000000
4606.681348,0.000000,-8656.879127,-148.041188
4606.681673,0.000000,-8580.269578,-222.061783
4606.681997,74.020594,-8886.707777,-370.102971
4606.682322,74.020594,-8733.488677,-222.061783
4606.682647,444.123565,-8503.660028,-296.082377
4606.682971,592.164754,-8580.269578,0.000000
4606.683296,666.185348,-8044.002729,74.020594
4606.683620,370.102971,-8427.050478,-148.041188
4606.683945,370.102971,-8733.488677,-222.061783
4606.684269,222.061783,-8273.831378,74.020594
4606.684594,0.000000,-8656.879127,-148.041188
4606.684918,0.000000,-8580.269578,-222.061783
4606.685243,148.041188,-8580.269578,-296.082377
4606.685567,370.102971,-8580.269578,-444.123565
4606.685892,518.144159,-8886.707777,-444.123565
4606.686216,296.082377,-8733.488677,0.000000
4606.686541,518.144159,-8580.269578,-148.041188
4606.686865,0.000000,-8427.050478,-444.123565
4606.687190,74.020594,-8656.879127,-444.123565
4606.687515,148.041188,-8427.050478,-444.123565
4606.687839,518.144159,-8503.660028,-518.144159
4606.688164,444.123565,-8656.879127,-666.185348
4606.688488,518.144159,-8963.317327,-814.226536
4606.688813,518.144159,-8810.098227,-666.185348
4606.689137,444.123565,-8656.879127,-962.267725
4606.689462,296.082377,-8810.098227,-666.185348
4606.689786,222.061783,-8503.660028,-518.144159
4606.690111,148.041188,-8733.488677,-592.164754
4606.690435,0.000000,-7737.564530,-518.144159
4606.690760,370.102971,-8580.269578,-666.185348
4606.691084,740.205942,-8350.440928,-962.267725
4606.691409,518.144159,-8503.660028,-592.164754
4606.691733,592.164754,-9039.926876,0.000000
4606.692058,444.123565,-8733.488677,-444.123565
4606.692383,592.164754,-8580.269578,-592.164754
4606.692707,518.144159,-8580.269578,-518.144159
4606.693032,444.123565,-8503.660028,-296.082377
4606.693356,592.164754,-8503.660028,-222.061783
4606.693681,592.164754,-8656.879127,-518.144159
4606.694005,518.144159,-8350.440928,-444.123565
4606.694330,888.247130,-8733.488677,-592.164754
4606.694654,1258.350101,-9193.145976,-444.123565
4606.694979,666.185348,-8580.269578,-740.205942
4606.695303,592.164754,-8427.050478,-222.061783
4606.695628,444.123565,-8503.660028,-370.102971
4606.695952,740.205942,-7584.345430,-148.041188
4606.696277,370.102971,-8656.879127,-296.082377
4606.696601,518.144159,-8580.269578,-444.123565
4606.696925,518.144159,-8963.317327,-296.082377
4606.697250,740.205942,-8350.440928,-592.164754
4606.697574,592.164754,-8656.879127,-222.061783
4606.697899,296.082377,-8810.098227,-370.102971
4606.698223,222.061783,-8733.488677,-222.061783
4606.698548,-148.041188,-8350.440928,-148.041188
4606.698872,74.020594,-8273.831378,74.020594
4606.699196,0.000000,-8503.660028,-370.102971
4606.699521,444.123565,-8733.488677,-518.144159
4606.699845,222.061783,-8580.269578,-296.082377
4606.700170,592.164754,-8963.317327,0.000000
4606.700494,518.144159,-8273.831378,-518.144159
4606.700818,148.041188,-8733.488677,-148.041188
4606.701143,222.061783,-8350.440928,-296.082377
4606.701467,74.020594,-8656.879127,-296.082377
4606.701792,222.061783,-8120.612279,-222.061783
4606.702116,296.082377,-8503.660028,74.020594
4606.702440,666.185348,-8273.831378,-592.164754
4606.702765,518.144159,-8810.098227,-222.061783
4606.703089,740.205942,-8044.002729,-370.102971
4606.703414,518.144159,-8810.098227,-444.123565
4606.703738,370.102971,-8656.879127,-222.061783
4606.704062,74.020594,-8350.440928,-296.082377
4606.704387,74.020594,-8580.269578,-74.020594
4606.704711,444.123565,-8350.440928,-444.123565
4606.705036,74.020594,-8503.660028,-444.123565
4606.705360,444.123565,-8656.879127,0.000000
4606.705684,370.102971,-8886.707777,-296.082377
4606.706009,740.205942,-8810.098227,0.000000
4606.706333,592.164754,-8427.050478,-592.164754
4606.706658,444.123565,-8733.488677,0.000000
4606.706982,74.020594,-8427.050478,0.000000
4606.707306,148.041188,-8656.879127,296.082377
4606.707631,74.020594,-8580.269578,0.000000
4606.707955,444.123565,-8273.831378,-222.061783
4606.708280,370.102971,-8886.707777,-74.020594
4606.708604,592.164754,-8427.050478,-518.144159
4606.708929,740.205942,-8580.269578,0.000000
4606.709253,444.123565,-8427.050478,-370.102971
4606.709577,592.164754,-8656.879127,-444.123565
4606.709902,370.102971,-8733.488677,-518.144159
4606.710226,444.123565,-8733.488677,-222.061783
4606.710551,370.102971,-8503.660028,-222.061783
4606.710875,518.144159,-8810.098227,-740.205942
4606.711199,740.205942,-8810.098227,-444.123565
4606.711524,814.226536,-7967.393179,-370.102971
4606.711848,814.226536,-8886.707777,-666.185348
4606.712173,296.082377,-8427.050478,-222.061783
4606.712497,222.061783,-8273.831378,-296.082377
4606.712821,296.082377,-8427.050478,-296.082377
4606.713146,518.144159,-8044.002729,-444.123565
4606.713470,222.061783,-8580.269578,-296.082377
4606.713795,444.123565,-8503.660028,-296.082377
4606.714119,296.082377,-8580.269578,-666.185348
4606.714443,666.185348,-9116.536426,-444.123565
4606.714768,592.164754,-8580.269578,-222.061783
4606.715092,740.205942,-8810.098227,-518.144159
4606.715417,444.123565,-8733.488677,-370.102971
4606.715741,0.000000,-8810.098227,-74.020594
4606.716065,518.144159,-8733.488677,-222.061783
4606.716390,148.041188,-8733.488677,-296.082377
4606.716714,740.205942,-9039.926876,-444.123565
4606.717039,814.226536,-8273.831378,-740.205942
4606.717363,296.082377,-8580.269578,-370.102971
4606.717688,444.123565,-8733.488677,-592.164754
4606.718012,222.061783,-8810.098227,-444.123565
4606.718336,222.061783,-8273.831378,-222.061783
4606.718661,0.000000,-8503.660028,-592.164754
4606.718985,592.164754,-8580.269578,-296.082377
4606.719310,370.102971,-8503.660028,0.000000
4606.719634,592.164754,-8810.098227,-518.144159
4606.719958,740.205942,-9116.536426,-444.123565
4606.720283,296.082377,-8427.050478,-740.205942
4606.720607,296.082377,-9039.926876,-222.061783
4606.720932,0.000000,-8350.440928,0.000000
4606.721256,0.000000,-8656.879127,0.000000
4606.721580,518.144159,-8044.002729,-148.041188
4606.721905,148.041188,-8503.660028,-370.102971
4606.722229,592.164754,-8656.879127,-148.041188
4606.722554,592.164754,-8044.002729,-296.082377
4606.722878,1110.308913,-9116.536426,-814.226536
4606.723202,518.144159,-8886.707777,-222.061783
4606.723527,444.123565,-8273.831378,-666.185348
4606.723851,296.082377,-8963.317327,0.000000
4606.724176,0.000000,-8120.612279,-296.082377
4606.724500,222.061783,-8656.879127,-148.041188
4606.724824,0.000000,-8044.002729,-296.082377
4606.725149,592.164754,-8580.269578,0.000000
4606.725473,814.226536,-8427.050478,-592.164754
4606.725798,666.185348,-9422.974625,0.000000
4606.726122,962.267725,-8427.050478,0.000000
4606.726446,518.144159,-8656.879127,0.000000
4606.726771,370.102971,-8503.660028,0.000000
4606.727095,74.020594,-8886.707777,296.082377
4606.727420,148.041188,-8427.050478,-296.082377
4606.727744,296.082377,-8656.879127,74.020594
4606.728069,444.123565,-8350.440928,-444.123565
4606.728393,666.185348,-8886.707777,-296.082377
4606.728717,740.205942,-8273.831378,-740.205942
4606.729042,518.144159,-8810.098227,-222.061783
4606.729366,888.247130,-8503.660028,-740.205942
4606.729691,444.123565,-8580.269578,-222.061783
4606.730015,74.020594,-8733.488677,222.061783
4606.730339,148.041188,-8350.440928,-370.102971
4606.730664,296.082377,-8733.488677,-518.144159
4606.730988,148.041188,-8733.488677,-444.123565
4606.731313,666.185348,-8197.221829,-222.061783
4606.731637,370.102971,-8810.098227,-518.144159
4606.731961,888.247130,-8503.660028,-370.102971
4606.732286,296.082377,-8350.440928,-370.102971
4606.732610,592.164754,-8810.098227,0.000000
4606.732935,592.164754,-7967.393179,-222.061783
4606.733259,296.082377,-8350.440928,-222.061783
4606.733583,296.082377,-8580.269578,-222.061783
4606.733908,222.061783,-8503.660028,-370.102971
4606.734232,370.102971,-9193.145976,-444.123565
4606.734557,370.102971,-8656.879127,-370.102971
4606.734881,222.061783,-8810.098227,0.000000
4606.735205,444.123565,-8733.488677,-444.123565
4606.735530,370.102971,-8810.098227,0.000000
4606.735854,296.082377,-8580.269578,-296.082377
4606.736179,518.144159,-8580.269578,-370.102971
4606.736503,592.164754,-8427.050478,-296.082377
4606.736827,222.061783,-8733.488677,-444.123565
4606.737152,518.144159,-8963.317327,-444.123565
4606.737476,518.144159,-9116.536426,-592.164754
4606.737801,444.123565,-8733.488677,-592.164754
4606.738125,370.102971,-8963.317327,-74.020594
4606.738450,0.000000,-8656.879127,148.041188
4606.738774,222.061783,-8580.269578,-296.082377
4606.739098,296.082377,-8350.440928,-444.123565
4606.739423,518.144159,-8810.098227,-296.082377
4606.739747,666.185348,-8963.317327,-962.267725
4606.740072,370.102971,-9039.926876,0.000000
4606.740396,222.061783,-8656.879127,-370.102971
4606.740720,370.102971,-8580.269578,-370.102971
4606.741045,370.102971,-8810.098227,-370.102971
4606.741369,148.041188,-8810.098227,222.061783
4606.741694,148.041188,-8656.879127,148.041188
4606.742018,370.102971,-8503.660028,-148.041188
4606.742342,518.144159,-8350.440928,0.000000
4606.742667,518.144159,-8656.879127,-148.041188
4606.742991,962.267725,-8886.707777,-296.082377
4606.743316,888.247130,-8503.660028,-148.041188
4606.743640,592.164754,-8733.488677,-222.061783
4606.743964,444.123565,-8503.660028,0.000000
4606.744289,74.020594,-8580.269578,-222.061783
4606.744613,148.041188,-8580.269578,-296.082377
4606.744938,370.102971,-8350.440928,0.000000
4606.745262,666.185348,-8427.050478,-296.082377
4606.745586,148.041188,-7890.783629,0.000000
4606.745911,666.185348,-8580.269578,-518.144159
4606.746235,814.226536,-8810.098227,-740.205942
4606.746560,814.226536,-8580.269578,-592.164754
4606.746884,518.144159,-8580.269578,74.020594
4606.747208,0.000000,-8656.879127,-296.082377
4606.747533,0.000000,-8273.831378,-518.144159
4606.747857,296.082377,-8656.879127,-518.144159
4606.748182,740.205942,-8656.879127,-666.185348
4606.748506,518.144159,-8656.879127,-370.102971
4606.748831,666.185348,-8580.269578,-444.123565
4606.749155,1036.288319,-8350.440928,-518.144159
4606.749479,518.144159,-8350.440928,-518.144159
4606.749804,888.247130,-8810.098227,0.000000
4606.750128,296.082377,-8197.221829,0.000000
4606.750453,148.041188,-8350.440928,-148.041188
4606.750777,296.082377,-8733.488677,-370.102971
4606.751101,296.082377,-8810.098227,0.000000
4606.751426,370.102971,-8656.879127,-370.102971
4606.751750,518.144159,-8733.488677,-370.102971
4606.752075,444.123565,-8810.098227,-370.102971
4606.752399,370.102971,-8733.488677,0.000000
4606.752723,444.123565,-8427.050478,0.000000
4606.753048,74.020594,-8733.488677,0.000000
4606.753372,296.082377,-8733.488677,-222.061783
4606.753697,296.082377,-8273.831378,-296.082377
4606.754021,74.020594,-8503.660028,0.000000
4606.754345,148.041188,-8810.098227,-370.102971
4606.754670,222.061783,-8810.098227,0.000000
4606.754994,370.102971,-8733.488677,-370.102971
4606.755319,222.061783,-8580.269578,0.000000
4606.755643,222.061783,-8427.050478,-148.041188
4606.755967,370.102971,-8427.050478,-148.041188
4606.756292,148.041188,-8044.002729,-370.102971
4606.756616,518.144159,-8656.879127,-370.102971
4606.756941,592.164754,-8427.050478,-296.082377
4606.757265,518.144159,-8503.660028,-444.123565
4606.757589,444.123565,-8733.488677,-592.164754
4606.757914,296.082377,-8733.488677,-370.102971
4606.758238,888.247130,-8273.831378,-518.144159
4606.758563,370.102971,-8963.317327,-296.082377
4606.758887,296.082377,-7967.393179,0.000000
4606.759212,592.164754,-8656.879127,-444.123565
4606.759536,666.185348,-8503.660028,-370.102971
4606.759860,962.267725,-8350.440928,-296.082377
4606.760185,888.247130,-8810.098227,-444.123565
4606.760509,888.247130,-8273.831378,-518.144159
4606.760834,592.164754,-8273.831378,0.000000
4606.761158,222.061783,-8580.269578,-666.185348
4606.761482,74.020594,-8733.488677,0.000000
4606.761807,370.102971,-8350.440928,-444.123565
4606.762131,148.041188,-8810.098227,0.000000
4606.762456,370.102971,-8273.831378,-296.082377
4606.762780,518.144159,-8656.879127,-370.102971
4606.763104,444.123565,-8580.269578,-666.185348
4606.763429,296.082377,-8273.831378,-518.144159
4606.763753,370.102971,-8656.879127,-296.082377
4606.764078,148.041188,-8197.221829,0.000000
4606.764402,74.020594,-8273.831378,-296.082377
4606.764726,222.061783,-8580.269578,-444.123565
4606.765051,370.102971,-8580.269578,-296.082377
4606.765375,666.185348,-8810.098227,-1036.288319
4606.765700,518.144159,-8886.707777,-370.102971
4606.766024,592.164754,-8656.879127,0.000000
4606.766348,666.185348,-8656.879127,-592.164754
4606.766673,148.041188,-8120.612279,0.000000
4606.766997,444.123565,-8503.660028,0.000000
4606.767322,444.123565,-8503.660028,-148.041188
4606.767646,518.144159,-8120.612279,-222.061783
4606.767970,222.061783,-8733.488677,0.000000
4606.768295,740.205942,-8963.317327,-444.123565
4606.768619,666.185348,-8580.269578,-444.123565
4606.768944,444.123565,-8810.098227,-296.082377
4606.769268,74.020594,-8886.707777,-148.041188
4606.769593,148.041188,-9346.365076,-592.164754
4606.769917,0.000000,-8810.098227,-222.061783
4606.770241,74.020594,-8273.831378,-222.061783
4606.770566,296.082377,-8503.660028,-222.061783
4606.770890,518.144159,-9039.926876,-444.123565
4606.771215,592.164754,-8503.660028,-518.144159
4606.771539,666.185348,-8656.879127,-444.123565
4606.771863,444.123565,-8733.488677,-296.082377
4606.772188,518.144159,-8733.488677,-370.102971
4606.772512,222.061783,-8503.660028,-370.102971
4606.772837,370.102971,-8427.050478,-148.041188
4606.773161,296.082377,-8580.269578,-444.123565
4606.773485,370.102971,-8427.050478,-518.144159
4606.773810,592.164754,-8427.050478,-740.205942
4606.774134,740.205942,-8656.879127,-666.185348
4606.774459,888.247130,-8197.221829,-444.123565
4606.774783,814.226536,-8580.269578,-740.205942
4606.775107,296.082377,-9346.365076,-370.102971
4606.775432,666.185348,-8580.269578,-666.185348
4606.775756,296.082377,-8733.488677,-518.144159
4606.776081,518.144159,-8427.050478,-296.082377
4606.776405,222.061783,-8503.660028,-222.061783
4606.776729,666.185348,-9116.536426,-296.082377
4606.777054,518.144159,-8503.660028,-740.205942
4606.777378,814.226536,-8580.269578,0.000000
4606.777703,814.226536,-8427.050478,-370.102971
4606.778027,740.205942,-8963.317327,-444.123565
4606.778351,518.144159,-8810.098227,-296.082377
4606.778676,74.020594,-8427.050478,-148.041188
4606.779000,518.144159,-8273.831378,-518.144159
4606.779325,0.000000,-8656.879127,-814.226536
4606.779649,296.082377,-8656.879127,-222.061783
4606.779974,444.123565,-8503.660028,-296.082377
4606.780298,444.123565,-8656.879127,-370.102971
4606.780622,666.185348,-8427.050478,-444.123565
4606.780947,370.102971,-9116.536426,-296.082377
4606.781271,370.102971,-8273.831378,-148.041188
4606.781596,222.061783,-8350.440928,-370.102971
4606.781920,518.144159,-8580.269578,-148.041188
4606.782244,444.123565,-9193.145976,-444.123565
4606.782569,518.144159,-8656.879127,-814.226536
4606.782893,666.185348,-8580.269578,-666.185348
4606.783218,370.102971,-8810.098227,-296.082377
4606.783542,592.164754,-8580.269578,-444.123565
4606.783866,518.144159,-8503.660028,-518.144159
4606.784191,74.020594,-8886.707777,-444.123565
4606.784515,296.082377,-8503.660028,-592.164754
4606.784840,518.144159,-8197.221829,0.000000
4606.785164,592.164754,-8197.221829,-666.185348
4606.785488,592.164754,-8427.050478,-592.164754
4606.785813,370.102971,-8503.660028,-222.061783
4606.786137,296.082377,-9039.926876,-814.226536
4606.786462,370.102971,-8656.879127,-296.082377
4606.786786,0.000000,-8656.879127,-518.144159
4606.787110,-296.082377,-8886.707777,-370.102971
4606.787435,-296.082377,-8886.707777,0.000000
4606.787759,222.061783,-8580.269578,-370.102971
4606.788084,1110.308913,-8810.098227,-296.082377
4606.788408,666.185348,-8350.440928,-296.082377
4606.788732,592.164754,-8886.707777,-518.144159
4606.789057,814.226536,-8273.831378,-592.164754
4606.789381,1036.288319,-8733.488677,-666.185348
4606.789706,370.102971,-8733.488677,-296.082377
4606.790030,148.041188,-8427.050478,-296.082377
4606.790355,370.102971,-8656.879127,0.000000
4606.790679,222.061783,-8810.098227,-592.164754
4606.791003,740.205942,-8656.879127,-444.123565
4606.791328,518.144159,-8503.660028,-444.123565
4606.791652,740.205942,-8580.269578,-444.123565
4606.791977,962.267725,-8580.269578,-370.102971
4606.792301,592.164754,-9039.926876,-444.123565
4606.792625,444.123565,-8503.660028,0.000000
4606.792950,518.144159,-8273.831378,-592.164754
4606.793274,370.102971,-8733.488677,-296.082377
4606.793599,0.000000,-8886.707777,444.123565
4606.793923,518.144159,-8656.879127,-148.041188
4606.794247,518.144159,-8503.660028,-518.144159
4606.794572,740.205942,-8733.488677,-518.144159
4606.794896,518.144159,-8733.488677,-592.164754
4606.795221,592.164754,-8273.831378,-444.123565
4606.795545,370.102971,-8580.269578,-444.123565
4606.795869,74.020594,-8273.831378,-148.041188
4606.796194,296.082377,-8273.831378,-148.041188
4606.796518,1110.308913,-8656.879127,-592.164754
4606.796843,518.144159,-8656.879127,0.000000
4606.797167,592.164754,-8810.098227,-592.164754
4606.797492,666.185348,-9039.926876,-740.205942
4606.797816,370.102971,-9039.926876,0.000000
4606.798140,444.123565,-8733.488677,-518.144159
4606.798465,222.061783,-8733.488677,-296.082377
4606.798789,148.041188,-8273.831378,-148.041188
4606.799114,296.082377,-8580.269578,-444.123565
4606.799438,296.082377,-8656.879127,-222.061783
4606.799763,592.164754,-8656.879127,-296.082377
4606.800087,592.164754,-8656.879127,-888.247130
4606.800411,740.205942,-8810.098227,-296.082377
4606.800736,370.102971,-8656.879127,0.000000
4606.801060,296.082377,-8656.879127,-518.144159
4606.801385,370.102971,-8503.660028,-444.123565
4606.801709,148.041188,-8580.269578,-518.144159
4606.802034,518.144159,-8503.660028,296.082377
4606.802358,148.041188,-8350.440928,-444.123565
4606.802682,666.185348,-8886.707777,-592.164754
4606.803007,444.123565,-8503.660028,-518.144159
4606.803331,518.144159,-8733.488677,-518.144159
4606.803656,814.226536,-8427.050478,-740.205942
4606.803980,296.082377,-8580.269578,-222.061783
4606.804305,444.123565,-9039.926876,-222.061783
4606.804629,222.061783,-8273.831378,-666.185348
4606.804953,740.205942,-8886.707777,-740.205942
4606.805278,666.185348,-8580.269578,-592.164754
4606.805602,740.205942,-8656.879127,-518.144159
4606.805927,814.226536,-8580.269578,-518.144159
4606.806251,518.144159,-8810.098227,-370.102971
4606.806576,518.144159,-8733.488677,-296.082377
4606.806900,444.123565,-8580.269578,-518.144159
4606.807224,148.041188,-8427.050478,0.000000
4606.807549,444.123565,-8656.879127,-518.144159
4606.807873,296.082377,-8197.221829,74.020594
4606.808198,444.123565,-8810.098227,-296.082377
4606.808522,814.226536,-8580.269578,-222.061783
4606.808847,814.226536,-8810.098227,-296.082377
4606.809171,148.041188,-7967.393179,0.000000
4606.809495,444.123565,-8580.269578,0.000000
4606.809820,74.020594,-8733.488677,0.000000
4606.810144,148.041188,-8427.050478,0.000000
4606.810469,0.000000,-8273.831378,0.000000
4606.810793,370.102971,-8350.440928,0.000000
4606.811118,592.164754,-8503.660028,-222.061783
4606.811442,518.144159,-8503.660028,-296.082377
4606.811766,370.102971,-8656.879127,-222.061783
4606.812091,740.205942,-8963.317327,-592.164754
4606.812415,592.164754,-8427.050478,-296.082377
4606.812740,148.041188,-8427.050478,-222.061783
4606.813064,148.041188,-8427.050478,-222.061783
4606.813389,444.123565,-8580.269578,-518.144159
4606.813713,740.205942,-8656.879127,-592.164754
4606.814037,518.144159,-8427.050478,-518.144159
4606.814362,592.164754,-8656.879127,-518.144159
4606.814686,296.082377,-8503.660028,-592.164754
4606.815011,740.205942,-8503.660028,-370.102971
4606.815335,370.102971,-8733.488677,-444.123565
4606.815660,148.041188,-8580.269578,-370.102971
4606.815984,296.082377,-8427.050478,-370.102971
4606.816308,296.082377,-8580.269578,-296.082377
4606.816633,222.061783,-8810.098227,-518.144159
4606.816957,370.102971,-8810.098227,-518.144159
4606.817282,666.185348,-8963.317327,-962.267725
4606.817606,148.041188,-8273.831378,-222.061783
4606.817931,518.144159,-8503.660028,-444.123565
4606.818255,0.000000,-8350.440928,-296.082377
4606.818579,296.082377,-8273.831378,-370.102971
4606.818904,296.082377,-8503.660028,0.000000
4606.819228,222.061783,-8427.050478,-740.205942
4606.819553,370.102971,-8120.612279,0.000000
4606.819877,370.102971,-8580.269578,-148.041188
4606.820202,370.102971,-8580.269578,-222.061783
4606.820526,740.205942,-8044.002729,-444.123565
4606.820850,444.123565,-8733.488677,0.000000
4606.821175,222.061783,-8427.050478,0.000000
4606.821499,370.102971,-8350.440928,0.000000
4606.821824,296.082377,-8503.660028,-296.082377
4606.822148,222.061783,-8350.440928,-444.123565
4606.822473,740.205942,-8810.098227,-592.164754
4606.822797,518.144159,-8197.221829,-592.164754
4606.823121,666.185348,-8733.488677,0.000000
4606.823446,518.144159,-8580.269578,-370.102971
4606.823770,370.102971,-8580.269578,-370.102971
4606.824095,148.041188,-8197.221829,-444.123565
4606.824419,296.082377,-8733.488677,0.000000
4606.824744,666.185348,-8580.269578,-296.082377
4606.825068,518.144159,-8427.050478,-592.164754
4606.825392,518.144159,-8273.831378,-518.144159
4606.825717,370.102971,-8503.660028,-370.102971
4606.826041,518.144159,-9193.145976,-518.144159
4606.826366,740.205942,-8580.269578,-296.082377
4606.826690,148.041188,-8350.440928,0.000000
4606.827015,296.082377,-8810.098227,0.000000
4606.827339,148.041188,-8197.221829,-296.082377
4606.827664,444.123565,-8427.050478,-296.082377
4606.827988,444.123565,-8427.050478,0.000000
4606.828312,888.247130,-8350.440928,-222.061783
4606.828637,518.144159,-8503.660028,-370.102971
4606.828961,592.164754,-8427.050478,-814.226536
4606.829286,592.164754,-8733.488677,-444.123565
4606.829610,370.102971,-8503.660028,-444.123565
4606.829935,518.144159,-8427.050478,-296.082377
4606.830259,74.020594,-8503.660028,-222.061783
4606.830583,444.123565,-8810.098227,-444.123565
4606.830908,666.185348,-8503.660028,-444.123565
4606.831232,814.226536,-8733.488677,-666.185348
4606.831557,666.185348,-8886.707777,-296.082377
4606.831881,962.267725,-9039.926876,-296.082377
4606.832206,296.082377,-8733.488677,-222.061783
4606.832530,0.000000,-8580.269578,-296.082377
4606.832854,74.020594,-8963.317327,-296.082377
4606.833179,0.000000,-8733.488677,74.020594
4606.833503,74.020594,-8580.269578,-222.061783
4606.833828,296.082377,-8733.488677,-222.061783
4606.834152,444.123565,-8580.269578,-222.061783
4606.834477,592.164754,-8580.269578,-370.102971
4606.834801,518.144159,-8580.269578,-222.061783
4606.835125,444.123565,-8350.440928,-296.082377
4606.835450,74.020594,-8656.879127,0.000000
4606.835774,0.000000,-8733.488677,-222.061783
4606.836099,518.144159,-8273.831378,-740.205942
4606.836423,148.041188,-8733.488677,-666.185348
4606.836748,296.082377,-8580.269578,0.000000
4606.837072,296.082377,-8733.488677,-148.041188
4606.837396,370.102971,-8656.879127,-370.102971
4606.837721,814.226536,-8427.050478,-518.144159
4606.838045,740.205942,-8350.440928,-370.102971
4606.838370,518.144159,-8656.879127,0.000000
4606.838694,296.082377,-8733.488677,-296.082377
4606.839019,148.041188,-8656.879127,-222.061783
4606.839343,444.123565,-8273.831378,-296.082377
4606.839667,444.123565,-8810.098227,-296.082377
4606.839992,518.144159,-8810.098227,-518.144159
4606.840316,222.061783,-8197.221829,0.000000
4606.840641,148.041188,-8810.098227,-74.020594
4606.840965,222.061783,-8350.440928,-222.061783
4606.841290,444.123565,-8273.831378,0.000000
4606.841614,222.061783,-8427.050478,222.061783
4606.841938,296.082377,-8350.440928,-148.041188
4606.842263,444.123565,-8580.269578,-370.102971
4606.842587,592.164754,-8733.488677,-222.061783
4606.842912,370.102971,-8656.879127,-148.041188
4606.843236,666.185348,-8656.879127,-296.082377
4606.843561,518.144159,-8580.269578,-296.082377
4606.843885,148.041188,-8656.879127,0.000000
4606.844209,222.061783,-8886.707777,-148.041188
4606.844534,444.123565,-7967.393179,0.000000
4606.844858,222.061783,-8427.050478,-444.123565
4606.845183,444.123565,-8350.440928,-370.102971
4606.845507,518.144159,-8733.488677,0.000000
4606.845832,814.226536,-8810.098227,-444.123565
4606.846156,740.205942,-8733.488677,-592.164754
4606.846480,444.123565,-8733.488677,-370.102971
4606.846805,148.041188,-8656.879127,-518.144159
4606.847129,222.061783,-8197.221829,-370.102971
4606.847454,444.123565,-8273.831378,-74.020594
4606.847778,370.102971,-8350.440928,-222.061783
4606.848103,370.102971,-8733.488677,-444.123565
4606.848427,962.267725,-8580.269578,-666.185348
4606.848751,888.247130,-8656.879127,-370.102971
4606.849076,518.144159,-8810.098227,-296.082377
4606.849400,222.061783,-8733.488677,-370.102971
4606.849725,148.041188,-8580.269578,-370.102971
4606.850049,74.020594,-8656.879127,-222.061783
4606.850374,148.041188,-8273.831378,-296.082377
4606.850698,592.164754,-8503.660028,-296.082377
4606.851022,296.082377,-8427.050478,-296.082377
4606.851347,592.164754,-8503.660028,-444.123565
4606.851671,814.226536,-8580.269578,-888.247130
4606.851996,814.226536,-8656.879127,-518.144159
4606.852320,222.061783,-8810.098227,-148.041188
4606.852645,222.061783,-8503.660028,-370.102971
4606.852969,518.144159,-8656.879127,-370.102971
4606.853293,444.123565,-8427.050478,-222.061783
4606.853618,444.123565,-8580.269578,-296.082377
4606.853942,592.164754,-8350.440928,-296.082377
4606.854267,814.226536,-8427.050478,-518.144159
4606.854591,1184.329507,-8733.488677,-148.041188
4606.854916,592.164754,-8503.660028,-666.185348
4606.855240,518.144159,-8963.317327,-296.082377
4606.855564,0.000000,-8503.660028,-296.082377
4606.855889,74.020594,-9039.926876,0.000000
4606.856213,370.102971,-8503.660028,-518.144159
4606.856538,370.102971,-8580.269578,-444.123565
4606.856862,740.205942,-8580.269578,-444.123565
4606.857187,666.185348,-8733.488677,-518.144159
4606.857511,740.205942,-8427.050478,-222.061783
4606.857835,592.164754,-8503.660028,-518.144159
4606.858160,518.144159,-8733.488677,-148.041188
4606.858484,370.102971,-8427.050478,-370.102971
4606.858809,0.000000,-8350.440928,-518.144159
4606.859133,222.061783,-8580.269578,-296.082377
4606.859458,0.000000,-8503.660028,-222.061783
4606.859782,518.144159,-8733.488677,-222.061783
4606.860106,740.205942,-8733.488677,-370.102971
4606.860431,666.185348,-8886.707777,-518.144159
4606.860755,592.164754,-8810.098227,0.000000
4606.861080,296.082377,-8273.831378,0.000000
4606.861404,148.041188,-8427.050478,0.000000
4606.861729,296.082377,-8580.269578,0.000000
4606.862053,222.061783,-8120.612279,-592.164754
4606.862377,444.123565,-9116.536426,-370.102971
4606.862702,370.102971,-8427.050478,-296.082377
4606.863026,74.020594,-8963.317327,296.082377
4606.863351,222.061783,-8427.050478,-444.123565
4606.863675,444.123565,-8733.488677,-222.061783
4606.864000,518.144159,-8427.050478,-370.102971
4606.864324,444.123565,-8886.707777,-222.061783
4606.864648,370.102971,-8427.050478,-148.041188
4606.864973,74.020594,-8810.098227,-296.082377
4606.865297,370.102971,-8427.050478,-370.102971
4606.865622,222.061783,-8733.488677,-444.123565
4606.865946,148.041188,-8886.707777,0.000000
4606.866271,370.102971,-8656.879127,-222.061783
4606.866595,148.041188,-8810.098227,0.000000
4606.866919,148.041188,-8733.488677,0.000000
4606.867244,370.102971,-7814.174080,0.000000
4606.867568,370.102971,-8886.707777,-222.061783
4606.867893,592.164754,-8197.221829,-518.144159
4606.868217,740.205942,-8656.879127,-222.061783
4606.868542,518.144159,-8580.269578,-1036.288319
4606.868866,888.247130,-8580.269578,-296.082377
4606.869190,888.247130,-8656.879127,-592.164754
4606.869515,370.102971,-8733.488677,0.000000
4606.869839,74.020594,-8580.269578,-148.041188
4606.870164,296.082377,-8580.269578,-370.102971
4606.870488,222.061783,-8197.221829,-222.061783
4606.870813,888.247130,-8580.269578,-518.144159
4606.871137,740.205942,-8503.660028,-518.144159
4606.871461,888.247130,-8810.098227,-74.020594
4606.871786,444.123565,-8733.488677,-666.185348
4606.872110,666.185348,-8427.050478,-444.123565
4606.872435,296.082377,-8503.660028,-370.102971
4606.872759,296.082377,-8656.879127,148.041188
4606.873084,296.082377,-8656.879127,-296.082377
4606.873408,74.020594,-8656.879127,-518.144159
4606.873732,370.102971,-8580.269578,-370.102971
4606.874057,518.144159,-8580.269578,-148.041188
4606.874381,518.144159,-8886.707777,-444.123565
4606.874706,740.205942,-8427.050478,-370.102971
4606.875030,518.144159,-8503.660028,-296.082377
4606.875355,296.082377,-8733.488677,-148.041188
4606.875679,74.020594,-8656.879127,222.061783
4606.876004,296.082377,-8733.488677,-518.144159
4606.876328,0.000000,-8580.269578,-222.061783
4606.876652,74.020594,-8810.098227,-370.102971
4606.876977,370.102971,-9269.755526,-592.164754
4606.877301,222.061783,-8580.269578,-370.102971
4606.877626,888.247130,-8580.269578,-518.144159
4606.877950,592.164754,-8733.488677,-592.164754
4606.878275,296.082377,-8427.050478,-222.061783
4606.878599,148.041188,-8120.612279,74.020594
4606.878923,222.061783,-8197.221829,-518.144159
4606.879248,222.061783,-8503.660028,-296.082377
4606.879572,518.144159,-8503.660028,-666.185348
4606.879897,444.123565,-8733.488677,148.041188
4606.880221,518.144159,-8503.660028,-148.041188
4606.880546,518.144159,-8580.269578,-592.164754
4606.880870,370.102971,-8503.660028,0.000000
4606.881194,370.102971,-8503.660028,-592.164754
4606.881519,370.102971,-8427.050478,-518.144159
4606.881843,0.000000,-8350.440928,-444.123565
4606.882168,222.061783,-8733.488677,-444.123565
4606.882492,296.082377,-8427.050478,-222.061783
4606.882817,888.247130,-8427.050478,-444.123565
4606.883141,888.247130,-8810.098227,-592.164754
4606.883465,222.061783,-8503.660028,-370.102971
4606.883790,444.123565,-8886.707777,-518.144159
4606.884114,444.123565,-8963.317327,148.041188
4606.884439,444.123565,-8350.440928,0.000000
4606.884763,592.164754,-8503.660028,-740.205942
4606.885088,814.226536,-8350.440928,-518.144159
4606.885412,370.102971,-8427.050478,-592.164754
4606.885736,296.082377,-8886.707777,-296.082377
4606.886061,518.144159,-8886.707777,-666.185348
4606.886385,444.123565,-9039.926876,-444.123565
4606.886710,222.061783,-8656.879127,0.000000
4606.887034,74.020594,-8427.050478,296.082377
4606.887359,222.061783,-8503.660028,-222.061783
4606.887683,296.082377,-8580.269578,0.000000
4606.888007,444.123565,-8350.440928,-444.123565
4606.888332,814.226536,-8886.707777,0.000000
4606.888656,814.226536,-8273.831378,-148.041188
4606.888981,222.061783,-8810.098227,-666.185348
4606.889305,518.144159,-8810.098227,-370.102971
4606.889630,518.144159,-8350.440928,-518.144159
4606.889954,222.061783,-8810.098227,-444.123565
4606.890278,0.000000,-8273.831378,0.000000
4606.890603,222.061783,-8503.660028,-296.082377
4606.890927,592.164754,-8733.488677,-370.102971
4606.891252,592.164754,-8810.098227,-518.144159
4606.891576,592.164754,-8733.488677,-592.164754
4606.891901,518.144159,-8733.488677,-888.247130
4606.892225,518.144159,-8427.050478,-370.102971
4606.892549,0.000000,-8810.098227,-296.082377
4606.892874,0.000000,-8810.098227,-666.185348
4606.893198,74.020594,-8580.269578,-296.082377
4606.893523,296.082377,-8580.269578,-370.102971
4606.893847,222.061783,-8810.098227,-296.082377
4606.894172,444.123565,-8580.269578,-444.123565
4606.894496,666.185348,-8656.879127,-592.164754
4606.894820,370.102971,-8656.879127,0.000000
4606.895145,518.144159,-8810.098227,-444.123565
4606.895469,222.061783,-7967.393179,0.000000
4606.895794,370.102971,-8427.050478,0.000000
4606.896118,518.144159,-8656.879127,0.000000
4606.896443,222.061783,-8503.660028,-296.082377
4606.896767,740.205942,-8810.098227,-222.061783
4606.897091,888.247130,-8427.050478,-592.164754
4606.897416,740.205942,-8656.879127,0.000000
4606.897740,518.144159,-8886.707777,-148.041188
4606.898065,444.123565,-8580.269578,74.020594
4606.898389,222.061783,-8120.612279,-666.185348
4606.898713,222.061783,-8733.488677,-370.102971
4606.899038,444.123565,-7890.783629,-296.082377
4606.899362,444.123565,-8503.660028,-222.061783
4606.899687,518.144159,-8273.831378,-148.041188
4606.900011,814.226536,-8503.660028,-518.144159
4606.900335,370.102971,-8656.879127,-740.205942
4606.900660,592.164754,-8503.660028,-444.123565
4606.900984,296.082377,-8580.269578,0.000000
4606.901309,0.000000,-8810.098227,0.000000
4606.901633,74.020594,-8197.221829,-666.185348
4606.901957,370.102971,-8580.269578,-370.102971
4606.902282,814.226536,-8580.269578,-296.082377
4606.902606,1110.308913,-8580.269578,-296.082377
4606.902931,666.185348,-8656.879127,-222.061783
4606.903255,592.164754,-8733.488677,-296.082377
4606.903579,962.267725,-8580.269578,-370.102971
4606.903904,740.205942,-8197.221829,-296.082377
4606.904228,296.082377,-8656.879127,0.000000
4606.904553,0.000000,-8273.831378,-222.061783
4606.904877,148.041188,-8503.660028,-148.041188
4606.905201,518.144159,-8427.050478,-370.102971
4606.905526,370.102971,-9039.926876,-592.164754
4606.905850,740.205942,-8963.317327,-370.102971
4606.906175,518.144159,-8580.269578,-518.144159
4606.906499,370.102971,-8656.879127,-370.102971
4606.906824,0.000000,-8886.707777,74.020594
4606.907148,0.000000,-8503.660028,0.000000
4606.907472,222.061783,-8503.660028,-518.144159
4606.907797,148.041188,-8886.707777,-222.061783
4606.908121,296.082377,-8886.707777,-518.144159
4606.908446,518.144159,-8580.269578,-444.123565
4606.908770,370.102971,-9116.536426,-444.123565
4606.909094,518.144159,-8656.879127,-518.144159
4606.909419,962.267725,-8733.488677,-296.082377
4606.909743,74.020594,-8733.488677,-296.082377
4606.910068,74.020594,-8656.879127,-222.061783
4606.910392,296.082377,-8427.050478,-296.082377
4606.910716,592.164754,-8733.488677,-444.123565
4606.911041,592.164754,-8427.050478,-666.185348
4606.911365,370.102971,-8810.098227,-148.041188
4606.911690,444.123565,-8427.050478,-814.226536
4606.912014,444.123565,-8963.317327,-296.082377
4606.912338,518.144159,-8810.098227,-148.041188
4606.912663,444.123565,-8503.660028,0.000000
4606.912987,370.102971,-8580.269578,-370.102971
4606.913312,148.041188,-8503.660028,-444.123565
4606.913636,296.082377,-8503.660028,-222.061783
4606.913960,592.164754,-8350.440928,-592.164754
4606.914285,666.185348,-9193.145976,-370.102971
4606.914609,0.000000,-8427.050478,0.000000
4606.914934,518.144159,-8886.707777,-444.123565
4606.915258,370.102971,-9193.145976,222.061783
4606.915582,370.102971,-8273.831378,-148.041188
4606.915907,296.082377,-8733.488677,0.000000
4606.916231,296.082377,-8273.831378,-444.123565
4606.916556,518.144159,-8273.831378,-296.082377
4606.916880,148.041188,-8273.831378,-518.144159
4606.917204,740.205942,-9039.926876,-370.102971
4606.917529,444.123565,-8427.050478,-592.164754
4606.917853,296.082377,-8810.098227,-518.144159
4606.918178,148.041188,-8886.707777,0.000000
4606.918502,74.020594,-8503.660028,0.000000
4606.918826,370.102971,-8656.879127,0.000000
4606.919151,444.123565,-8656.879127,-444.123565
4606.919475,74.020594,-9269.755526,-222.061783
4606.919800,666.185348,-8350.440928,-222.061783
4606.920124,444.123565,-8810.098227,-592.164754
4606.920448,518.144159,-8810.098227,-296.082377
4606.920773,148.041188,-8733.488677,-296.082377
4606.921097,296.082377,-8427.050478,0.000000
4606.921422,296.082377,-8503.660028,-296.082377
4606.921746,444.123565,-8810.098227,0.000000
4606.922070,518.144159,-8656.879127,-74.020594
4606.922395,666.185348,-8120.612279,0.000000
4606.922719,296.082377,-8733.488677,-296.082377
4606.923044,962.267725,-8733.488677,-296.082377
4606.923368,740.205942,-8427.050478,-296.082377
4606.923693,666.185348,-8580.269578,-444.123565
4606.924017,74.020594,-8427.050478,-222.061783
4606.924341,370.102971,-8350.440928,-370.102971
4606.924666,222.061783,-8810.098227,-296.082377
4606.924990,370.102971,-8503.660028,0.000000
4606.925315,518.144159,-8350.440928,-592.164754
4606.925639,518.144159,-8733.488677,-296.082377
4606.925963,814.226536,-8656.879127,-444.123565
4606.926288,814.226536,-8810.098227,-666.185348
4606.926612,814.226536,-8810.098227,-666.185348
4606.926937,148.041188,-8503.660028,-444.123565
4606.927261,148.041188,-8580.269578,-370.102971
4606.927585,0.000000,-8427.050478,-592.164754
4606.927910,148.041188,-9039.926876,-518.144159
4606.928234,148.041188,-8580.269578,-740.205942
4606.928559,444.123565,-8810.098227,-444.123565
4606.928883,444.123565,-8733.488677,-592.164754
4606.929207,444.123565,-8733.488677,-592.164754
4606.929532,592.164754,-8580.269578,-444.123565
4606.929856,370.102971,-8656.879127,-222.061783
4606.930181,148.041188,-8197.221829,-222.061783
4606.930505,74.020594,-8886.707777,0.000000
4606.930829,0.000000,-9193.145976,-370.102971
4606.931154,740.205942,-8656.879127,-296.082377
4606.931478,592.164754,-8733.488677,-518.144159
4606.931803,814.226536,-8810.098227,-148.041188
4606.932127,592.164754,-8503.660028,-148.041188
4606.932451,740.205942,-9193.145976,0.000000
4606.932776,222.061783,-8350.440928,-74.020594
4606.933100,444.123565,-8580.269578,0.000000
4606.933425,444.123565,-8350.440928,0.000000
4606.933749,666.185348,-8656.879127,0.000000
4606.934073,592.164754,-8886.707777,-370.102971
4606.934398,444.123565,-8427.050478,-444.123565
4606.934722,888.247130,-8503.660028,-666.185348
4606.935047,888.247130,-8886.707777,-148.041188
4606.935371,370.102971,-8810.098227,-222.061783
4606.935695,74.020594,-8580.269578,0.000000
4606.936020,444.123565,-8197.221829,-370.102971
4606.936344,370.102971,-8273.831378,-444.123565
4606.936669,296.082377,-8656.879127,-592.164754
4606.936993,814.226536,-8580.269578,-148.041188
4606.937317,666.185348,-8427.050478,-444.123565
4606.937642,518.144159,-8733.488677,-296.082377
4606.937966,1184.329507,-8656.879127,-296.082377
4606.938291,518.144159,-8580.269578,-296.082377
4606.938615,444.123565,-8503.660028,-222.061783
4606.938939,370.102971,-8273.831378,0.000000
4606.939264,518.144159,-8733.488677,0.000000
4606.939588,370.102971,-8427.050478,0.000000
4606.939913,444.123565,-8427.050478,-370.102971
4606.940237,592.164754,-8656.879127,-592.164754
4606.940561,518.144159,-8503.660028,-370.102971
4606.940886,592.164754,-8733.488677,-296.082377
4606.941210,296.082377,-8580.269578,-222.061783
4606.941535,148.041188,-8503.660028,-222.061783
4606.941859,74.020594,-8733.488677,-518.144159
4606.942184,444.123565,-8427.050478,74.020594
4606.942508,222.061783,-8810.098227,-370.102971
4606.942832,444.123565,-8733.488677,-444.123565
4606.943157,518.144159,-8886.707777,-592.164754
4606.943481,444.123565,-8810.098227,-74.020594
4606.943806,592.164754,-8963.317327,-592.164754
4606.944130,370.102971,-8427.050478,-148.041188
4606.944454,0.000000,-8427.050478,-370.102971
4606.944779,0.000000,-8350.440928,-370.102971
4606.945103,518.144159,-8197.221829,-74.020594
4606.945428,518.144159,-8963.317327,-592.164754
4606.945752,666.185348,-8503.660028,-444.123565
4606.946076,518.144159,-8810.098227,-296.082377
