#time,accel_x,accel_y,accel_z
4162.024405,-1480.411884,-9193.145976,-1332.370696
4162.024730,-1554.432478,-9882.631924,-148.041188
4162.025054,-1850.514855,-9346.365076,-592.164754
4162.025379,-1850.514855,-9729.412825,-666.185348
4162.025704,-1628.453072,-9422.974625,-814.226536
4162.026028,-1702.473667,-9193.145976,-814.226536
4162.026353,-1554.432478,-8733.488677,-666.185348
4162.026678,-1184.329507,-8503.660028,-962.267725
4162.027003,-888.247130,-8656.879127,-666.185348
4162.027327,-222.061783,-8810.098227,-814.226536
4162.027652,-592.164754,-8427.050478,-592.164754
4162.027977,-666.185348,-9116.536426,-1036.288319
4162.028301,-1776.494261,-9422.974625,-888.247130
4162.028626,-2590.720797,-9652.803275,-148.041188
4162.028951,-2960.823768,-9499.584175,-666.185348
4162.029275,-2960.823768,-9576.193725,-296.082377
4162.029600,-2812.782580,-8427.050478,-370.102971
4162.029925,-2812.782580,-8963.317327,-370.102971
4162.030250,-2294.638420,-8427.050478,-370.102971
4162.030574,-1702.473667,-8350.440928,0.000000
4162.030899,-1702.473667,-8350.440928,-370.102971
4162.031224,-1702.473667,-8580.269578,-296.082377
4162.031548,-2442.679609,-8273.831378,-222.061783
4162.031873,-2368.659014,-8656.879127,518.144159
4162.032198,-3627.009116,-8733.488677,222.061783
4162.032523,-3775.050304,-9116.536426,666.185348
4162.032847,-3775.050304,-8733.488677,666.185348
4162.033172,-3627.009116,-8580.269578,666.185348
4162.033497,-3404.947333,-8733.488677,518.144159
4162.033821,-2738.761985,-8044.002729,666.185348
4162.034146,-2738.761985,-7890.783629,370.102971
4162.034471,-2738.761985,-7660.954980,444.123565
4162.034796,-2146.597232,-7431.126331,518.144159
4162.035120,-2516.700203,-8044.002729,148.041188
4162.035444,-2516.700203,-8273.831378,222.061783
4162.035769,-2886.803174,-8427.050478,740.205942
4162.036093,-3108.864956,-7660.954980,814.226536
4162.036417,-3034.844362,-8427.050478,148.041188
4162.036742,-2886.803174,-8810.098227,74.020594
4162.037066,-2442.679609,-8580.269578,222.061783
4162.037390,-2072.576638,-8120.612279,74.020594
4162.037715,-1924.535449,-8656.879127,0.000000
4162.038039,-1628.453072,-7967.393179,-370.102971
4162.038363,-1184.329507,-7890.783629,-296.082377
4162.038688,-1110.308913,-8120.612279,-148.041188
4162.039012,-1480.411884,-7660.954980,74.020594
4162.039336,-1332.370696,-8197.221829,-222.061783
4162.039661,-1406.391290,-8733.488677,-592.164754
4162.039985,-1332.370696,-8810.098227,-518.144159
4162.040309,-1110.308913,-8580.269578,-296.082377
4162.040634,-814.226536,-8580.269578,-888.247130
4162.040958,-1184.329507,-8810.098227,-888.247130
4162.041283,-888.247130,-9039.926876,-1110.308913
4162.041607,-962.267725,-8886.707777,-1110.308913
4162.041931,-148.041188,-8810.098227,-1036.288319
4162.042256,-518.144159,-8886.707777,-962.267725
4162.042580,-222.061783,-8810.098227,-1036.288319
4162.042904,-148.041188,-9116.536426,-1036.288319
4162.043229,222.061783,-8810.098227,-1036.288319
4162.043553,-222.061783,-9039.926876,-1036.288319
4162.043877,74.020594,-9116.536426,-1406.391290
4162.044202,-296.082377,-9116.536426,-1184.329507
4162.044526,-444.123565,-9193.145976,-888.247130
4162.044850,-666.185348,-9039.926876,-1850.514855
4162.045175,-666.185348,-9499.584175,-888.247130
4162.045499,-1184.329507,-8503.660028,-1850.514855
4162.045823,-962.267725,-9193.145976,-1184.329507
4162.046148,-1332.370696,-7967.393179,-1332.370696
4162.046472,-1480.411884,-9039.926876,-962.267725
4162.046796,-1406.391290,-8044.002729,-1110.308913
4162.047121,-1258.350101,-8656.879127,-666.185348
4162.047445,-814.226536,-8656.879127,-888.247130
4162.047769,-518.144159,-8656.879127,-592.164754
4162.048094,-1036.288319,-8733.488677,-592.164754
4162.048418,-1110.308913,-8810.098227,-666.185348
4162.048742,-888.247130,-9269.755526,-666.185348
4162.049067,-1332.370696,-9269.755526,-666.185348
4162.049391,-1702.473667,-8580.269578,0.000000
4162.049715,-1924.535449,-8886.707777,0.000000
4162.050040,-1332.370696,-8733.488677,0.000000
4162.050364,-1184.329507,-8656.879127,592.164754
4162.050689,-444.123565,-8273.831378,0.000000
4162.051013,-592.164754,-8273.831378,666.185348
4162.051337,370.102971,-8120.612279,148.041188
4162.051662,148.041188,-9039.926876,74.020594
4162.051986,0.000000,-8656.879127,222.061783
4162.052310,-1480.411884,-8656.879127,592.164754
4162.052635,-2886.803174,-9346.365076,0.000000
4162.052959,-4367.215058,-9346.365076,296.082377
4162.053283,-5107.421000,-8733.488677,592.164754
4162.053608,-6143.709319,-8733.488677,74.020594
4162.053932,-5773.606348,-8120.612279,370.102971
4162.054256,-5403.503377,-8197.221829,518.144159
4162.054581,-3849.070898,-7660.954980,296.082377
4162.054905,-3478.967927,-7584.345430,518.144159
4162.055229,-2072.576638,-7431.126331,0.000000
4162.055554,-1184.329507,-8120.612279,444.123565
4162.055878,222.061783,-8273.831378,814.226536
4162.056202,148.041188,-8503.660028,518.144159
4162.056527,-962.267725,-8733.488677,0.000000
4162.056851,-1332.370696,-9576.193725,518.144159
4162.057175,-1554.432478,-8733.488677,0.000000
4162.057500,-1924.535449,-9499.584175,148.041188
4162.057824,-2146.597232,-9039.926876,-444.123565
4162.058148,-2664.741391,-8963.317327,-444.123565
4162.058473,-2590.720797,-8656.879127,-1110.308913
4162.058797,-2220.617826,-8656.879127,-370.102971
4162.059122,-1332.370696,-7354.516781,-1036.288319
4162.059446,-592.164754,-7967.393179,-296.082377
4162.059770,370.102971,-7737.564530,-666.185348
4162.060095,888.247130,-8120.612279,-518.144159
4162.060419,1332.370696,-8810.098227,-666.185348
4162.060743,1110.308913,-9039.926876,-666.185348
4162.061068,296.082377,-9499.584175,-592.164754
4162.061392,0.000000,-9346.365076,-962.267725
4162.061716,-666.185348,-9193.145976,-962.267725
4162.062041,-1776.494261,-9116.536426,-1184.329507
4162.062365,-2072.576638,-9729.412825,-1776.494261
4162.062689,-3182.885551,-8886.707777,-1998.556043
4162.063014,-4515.256246,-9116.536426,-2294.638420
4162.063338,-5625.565159,-8273.831378,-1702.473667
4162.063662,-5033.400406,-8197.221829,-1702.473667
4162.063987,-4219.173869,-8580.269578,-1258.350101
4162.064311,-2738.761985,-7890.783629,-1406.391290
4162.064635,0.000000,-8810.098227,-962.267725
4162.064960,1628.453072,-8580.269578,-444.123565
4162.065284,3330.926739,-9039.926876,-518.144159
4162.065608,4367.215058,-9499.584175,-666.185348
4162.065933,3552.988522,-9193.145976,-740.205942
4162.066257,2294.638420,-9269.755526,-814.226536
4162.066581,-148.041188,-9729.412825,-1036.288319
4162.066906,-2590.720797,-8656.879127,-888.247130
4162.067230,-4293.194464,-8656.879127,74.020594
4162.067555,-4737.318029,-7431.126331,-1110.308913
4162.067879,-5181.441594,-8197.221829,-666.185348
4162.068203,-2516.700203,-7584.345430,-1110.308913
4162.068528,296.082377,-7814.174080,0.000000
4162.068852,2146.597232,-6588.421283,-1184.329507
4162.069176,4293.194464,-8963.317327,-592.164754
4162.069501,5181.441594,-8580.269578,-592.164754
4162.069825,4071.132681,-9576.193725,-222.061783
4162.070149,740.205942,-10112.460574,0.000000
4162.070474,-2072.576638,-9652.803275,-296.082377
4162.070798,-6513.812290,-10265.679673,666.185348
4162.071122,-10066.800811,-8580.269578,296.082377
4162.071447,-11251.130318,-8044.002729,962.267725
4162.071771,-9178.553681,-7967.393179,814.226536
4162.072095,-5625.565159,-6818.249932,518.144159
4162.072420,-2886.803174,-6358.592633,-518.144159
4162.072744,3627.009116,-6511.811733,222.061783
4162.073068,7031.956449,-5439.278036,592.164754
4162.073393,10214.842000,-8350.440928,1110.308913
4162.073717,10362.883188,-8810.098227,370.102971
4162.074041,5921.647536,-10265.679673,666.185348
4162.074366,1258.350101,-10878.556072,666.185348
4162.074690,-3627.009116,-11338.213370,222.061783
4162.075014,-7846.182985,-10955.165621,518.144159
4162.075339,-8512.368333,-9269.755526,1406.391290
4162.075663,-7328.038826,-7814.174080,444.123565
4162.075988,-3627.009116,-7354.516781,0.000000
4162.076312,1110.308913,-5286.058936,-666.185348
4162.076636,7698.141797,-6435.202183,-1184.329507
4162.076961,11251.130318,-5975.544884,-370.102971
4162.077285,12065.356855,-7277.907231,444.123565
4162.077609,10140.821405,-7660.954980,74.020594
4162.077934,6365.771101,-9499.584175,1184.329507
4162.078258,0.000000,-11261.603821,0.000000
4162.078582,-4145.153275,-12104.308868,-1258.350101
4162.078907,-9326.594869,-11338.213370,-222.061783
4162.079231,-10658.965565,-10648.727422,-518.144159
4162.079555,-9178.553681,-9652.803275,-222.061783
4162.079880,-4293.194464,-6435.202183,-592.164754
4162.080204,3256.906145,-6205.373534,-444.123565
4162.080528,8290.306550,-4443.353888,-1924.535449
4162.080853,12213.398043,-7048.078582,-740.205942
4162.081177,11991.336260,-6818.249932,-888.247130
4162.081501,10584.944971,-9346.365076,-444.123565
4162.081826,4885.359217,-9499.584175,-148.041188
4162.082150,-666.185348,-11797.870669,-592.164754
4162.082474,-5477.523971,-12563.966167,-1036.288319
4162.082799,-7846.182985,-12563.966167,-1110.308913
4162.083123,-8290.306550,-10418.898773,-1628.453072
4162.083447,-4441.235652,-8580.269578,-962.267725
4162.083772,2368.659014,-7048.078582,-1480.411884
4162.084096,6661.853478,-6281.983084,-1554.432478
4162.084421,9844.739029,-5132.839837,-1998.556043
4162.084745,10362.883188,-6588.421283,74.020594
4162.085069,11103.089130,-6818.249932,-222.061783
4162.085394,5477.523971,-8273.831378,-222.061783
4162.085718,74.020594,-10035.851024,1036.288319
4162.086042,-4885.359217,-11414.822920,-1036.288319
4162.086367,-8956.491898,-12793.794817,-740.205942
4162.086691,-8290.306550,-11644.651570,-1258.350101
4162.087015,-8438.347739,-10265.679673,-2072.576638
4162.087340,-4367.215058,-9039.926876,-666.185348
4162.087664,1036.288319,-6741.640382,-1110.308913
4162.087988,5329.482782,-6358.592633,-666.185348
4162.088313,7105.977043,-6665.030833,0.000000
4162.088637,7254.018232,-6205.373534,740.205942
4162.088961,4737.318029,-6588.421283,1332.370696
4162.089286,1036.288319,-8120.612279,1554.432478
4162.089610,-2664.741391,-9806.022374,666.185348
4162.089934,-6587.832884,-10801.946522,0.000000
4162.090259,-8586.388927,-10878.556072,-148.041188
4162.090583,-7624.121203,-10112.460574,-1258.350101
4162.090907,-4811.338623,-9039.926876,-740.205942
4162.091232,-1406.391290,-7814.174080,-1480.411884
4162.091556,2590.720797,-6971.469032,444.123565
4162.091880,6587.832884,-5898.935335,518.144159
4162.092205,6957.935855,-5592.497135,444.123565
4162.092529,5181.441594,-7124.688131,666.185348
4162.092854,3404.947333,-7431.126331,0.000000
4162.093178,-888.247130,-8427.050478,1702.473667
4162.093502,-4515.256246,-8503.660028,222.061783
4162.093827,-6883.915261,-10189.070123,444.123565
4162.094151,-7550.100608,-9882.631924,-1184.329507
4162.094475,-5477.523971,-9039.926876,-962.267725
4162.094800,-888.247130,-8810.098227,-1702.473667
4162.095124,2590.720797,-8044.002729,-888.247130
4162.095448,5403.503377,-8656.879127,-592.164754
4162.095773,7105.977043,-7890.783629,888.247130
4162.096097,6217.729913,-6971.469032,740.205942
4162.096421,4663.297435,-8044.002729,1258.350101
4162.096746,1036.288319,-8197.221829,1184.329507
4162.097070,-1998.556043,-8656.879127,0.000000
4162.097394,-4441.235652,-9806.022374,-444.123565
4162.097719,-5477.523971,-9039.926876,-962.267725
4162.098043,-3478.967927,-9422.974625,-740.205942
4162.098367,-518.144159,-8810.098227,-2294.638420
4162.098692,3182.885551,-8886.707777,-1924.535449
4162.099016,6735.874072,-7967.393179,-1110.308913
4162.099340,7550.100608,-9039.926876,-222.061783
4162.099665,7402.059420,-8886.707777,148.041188
4162.099989,5107.421000,-8044.002729,814.226536
4162.100313,1110.308913,-8656.879127,740.205942
4162.100638,-666.185348,-9116.536426,-518.144159
4162.100962,-4219.173869,-9116.536426,-1480.411884
4162.101287,-4811.338623,-9039.926876,-962.267725
4162.101611,-3108.864956,-8044.002729,-2146.597232
4162.101935,-444.123565,-8810.098227,-2664.741391
4162.102260,4145.153275,-8810.098227,-2368.659014
4162.102584,6809.894666,-8810.098227,-2220.617826
4162.102908,6883.915261,-9576.193725,-1480.411884
4162.103233,6513.812290,-8963.317327,518.144159
4162.103557,4219.173869,-9576.193725,1258.350101
4162.103881,1850.514855,-9959.241474,592.164754
4162.104206,-1924.535449,-9499.584175,148.041188
4162.104530,-3849.070898,-9806.022374,74.020594
4162.104854,-4441.235652,-8810.098227,-962.267725
4162.105179,-3923.091493,-8733.488677,-1850.514855
4162.105503,962.267725,-9039.926876,-2072.576638
4162.105827,3034.844362,-7124.688131,-1480.411884
4162.106152,5551.544565,-7967.393179,-1036.288319
4162.106476,6291.750507,-8580.269578,-444.123565
4162.106800,5921.647536,-8886.707777,74.020594
4162.107125,2516.700203,-8733.488677,888.247130
4162.107449,-740.205942,-8733.488677,1110.308913
4162.107773,-3108.864956,-9882.631924,1406.391290
4162.108098,-5403.503377,-9576.193725,296.082377
4162.108422,-6439.791695,-9193.145976,-518.144159
4162.108746,-5255.462188,-8197.221829,-1554.432478
4162.109071,-2220.617826,-7431.126331,-1406.391290
4162.109395,1998.556043,-6205.373534,-1406.391290
4162.109720,3997.112087,-7277.907231,-296.082377
4162.110044,5551.544565,-7354.516781,444.123565
4162.110368,3775.050304,-7737.564530,888.247130
4162.110693,1998.556043,-9039.926876,1110.308913
4162.111017,-592.164754,-9422.974625,1258.350101
4162.111341,-3478.967927,-9959.241474,1702.473667
4162.111666,-5773.606348,-9269.755526,962.267725
4162.111990,-5477.523971,-9806.022374,222.061783
4162.112314,-4737.318029,-8197.221829,-518.144159
4162.112639,-1554.432478,-8044.002729,-888.247130
4162.112963,1628.453072,-6281.983084,-1998.556043
4162.113287,5107.421000,-7354.516781,-444.123565
4162.113612,5921.647536,-6052.154434,-444.123565
4162.113936,5847.626942,-8273.831378,1110.308913
4162.114260,3330.926739,-8427.050478,888.247130
4162.114585,-296.082377,-9346.365076,1110.308913
4162.114909,-4737.318029,-9806.022374,592.164754
4162.115233,-6217.729913,-10112.460574,370.102971
4162.115558,-7031.956449,-10035.851024,0.000000
4162.115882,-4663.297435,-9116.536426,-1628.453072
4162.116206,-2368.659014,-7890.783629,-1554.432478
4162.116531,1480.411884,-7507.735880,-2664.741391
4162.116855,5181.441594,-7354.516781,-1110.308913
4162.117179,6587.832884,-5898.935335,-1332.370696
4162.117504,6809.894666,-8120.612279,296.082377
4162.117828,4811.338623,-8120.612279,296.082377
4162.118153,1406.391290,-8963.317327,592.164754
4162.118477,-1924.535449,-10648.727422,814.226536
4162.118801,-3849.070898,-10342.289223,222.061783
4162.119126,-5699.585753,-10878.556072,-592.164754
4162.119450,-3775.050304,-10112.460574,-2442.679609
4162.119774,-1776.494261,-8886.707777,-1776.494261
4162.120099,2368.659014,-8044.002729,-2886.803174
4162.120423,6143.709319,-7354.516781,-2146.597232
4162.120747,7920.203579,-6511.811733,-1258.350101
4162.121072,8068.244768,-7354.516781,-444.123565
4162.121396,6439.791695,-7737.564530,-518.144159
4162.121720,3034.844362,-9039.926876,814.226536
4162.122045,-1332.370696,-9193.145976,518.144159
4162.122369,-4737.318029,-10801.946522,74.020594
4162.122693,-6365.771101,-10418.898773,-1332.370696
4162.123018,-6661.853478,-10572.117872,-2072.576638
4162.123342,-3923.091493,-9039.926876,-2368.659014
4162.123666,-222.061783,-8273.831378,-2220.617826
4162.123991,4663.297435,-7277.907231,-1850.514855
4162.124315,7328.038826,-7124.688131,-1110.308913
4162.124639,7846.182985,-6971.469032,-518.144159
4162.124964,7476.080014,-7737.564530,592.164754
4162.125288,4737.318029,-7507.735880,1184.329507
4162.125612,666.185348,-9193.145976,1184.329507
4162.125937,-3108.864956,-10418.898773,1258.350101
4162.126261,-5625.565159,-10342.289223,-296.082377
4162.126585,-5107.421000,-10801.946522,-592.164754
4162.126910,-5181.441594,-9193.145976,-2072.576638
4162.127234,-1702.473667,-9193.145976,-1554.432478
4162.127559,2220.617826,-7354.516781,-1332.370696
4162.127883,4663.297435,-6741.640382,74.020594
4162.128207,8956.491898,-7277.907231,-148.041188
4162.128532,6883.915261,-7737.564530,1110.308913
4162.128856,3997.112087,-7431.126331,1776.494261
4162.129180,1184.329507,-8580.269578,1406.391290
4162.129505,-2960.823768,-9039.926876,1332.370696
4162.129829,-6291.750507,-10112.460574,740.205942
4162.130153,-7105.977043,-9193.145976,-296.082377
4162.130478,-6661.853478,-9882.631924,-962.267725
4162.130802,-3997.112087,-8350.440928,-666.185348
4162.131126,666.185348,-7890.783629,-1628.453072
4162.131451,2516.700203,-7660.954980,-962.267725
4162.131775,4219.173869,-6818.249932,370.102971
4162.132099,6513.812290,-6971.469032,1776.494261
4162.132424,3997.112087,-7507.735880,1110.308913
4162.132748,-296.082377,-9576.193725,2442.679609
4162.133072,-2294.638420,-8580.269578,1184.329507
4162.133397,-6217.729913,-10572.117872,1480.411884
4162.133721,-5773.606348,-10035.851024,-1258.350101
4162.134045,-5625.565159,-9959.241474,-1406.391290
4162.134370,-4885.359217,-9576.193725,-1406.391290
4162.134694,-444.123565,-8044.002729,-2368.659014
4162.135018,1924.535449,-7584.345430,-1406.391290
4162.135343,4737.318029,-7737.564530,-518.144159
4162.135667,6513.812290,-7354.516781,444.123565
4162.135991,5551.544565,-7507.735880,148.041188
4162.136315,2886.803174,-9039.926876,2442.679609
4162.136640,444.123565,-8810.098227,592.164754
4162.136964,-2738.761985,-10189.070123,296.082377
4162.137288,-5255.462188,-9806.022374,-1998.556043
4162.137612,-5551.544565,-10342.289223,-1850.514855
4162.137936,-4885.359217,-8503.660028,-2516.700203
4162.138260,-1480.411884,-9039.926876,-1406.391290
4162.138585,2442.679609,-7354.516781,-2368.659014
4162.138909,4663.297435,-8273.831378,-962.267725
4162.139233,5921.647536,-8044.002729,-1258.350101
4162.139557,6069.688724,-8427.050478,148.041188
4162.139881,3849.070898,-9039.926876,1036.288319
4162.140205,592.164754,-8656.879127,222.061783
4162.140530,-1332.370696,-10342.289223,1036.288319
4162.140854,-3775.050304,-9959.241474,-1702.473667
4162.141178,-3997.112087,-10648.727422,-1480.411884
4162.141502,-2590.720797,-8733.488677,-2294.638420
4162.141826,592.164754,-8886.707777,-1480.411884
4162.142150,3404.947333,-6741.640382,-2516.700203
4162.142475,7105.977043,-7660.954980,-296.082377
4162.142799,7105.977043,-5822.325785,-666.185348
4162.143123,6957.935855,-8963.317327,1036.288319
4162.143447,5181.441594,-8273.831378,-148.041188
4162.143771,1554.432478,-9652.803275,962.267725
4162.144095,-1924.535449,-8503.660028,370.102971
4162.144420,-4293.194464,-9729.412825,-370.102971
4162.144744,-4737.318029,-10189.070123,-592.164754
4162.145068,-3701.029710,-8580.269578,-1998.556043
4162.145392,-1258.350101,-8733.488677,-2146.597232
4162.145716,1406.391290,-7277.907231,-2738.761985
4162.146040,4589.276840,-7507.735880,-592.164754
4162.146365,6957.935855,-7201.297681,0.000000
4162.146689,5921.647536,-7967.393179,740.205942
4162.147013,4737.318029,-8273.831378,592.164754
4162.147337,2072.576638,-9193.145976,1110.308913
4162.147661,-1332.370696,-9039.926876,1110.308913
4162.147986,-2590.720797,-9806.022374,74.020594
4162.148310,-4441.235652,-9652.803275,-296.082377
4162.148634,-4071.132681,-9039.926876,-1184.329507
4162.148958,-1998.556043,-8580.269578,-1776.494261
4162.149282,1480.411884,-7584.345430,-2368.659014
4162.149606,3478.967927,-7660.954980,-888.247130
4162.149931,5033.400406,-7048.078582,-370.102971
4162.150255,5107.421000,-8044.002729,1184.329507
4162.150579,3108.864956,-7967.393179,1332.370696
4162.150903,888.247130,-9193.145976,1628.453072
4162.151227,-2220.617826,-8963.317327,518.144159
4162.151551,-3849.070898,-10265.679673,370.102971
4162.151876,-6957.935855,-9806.022374,-666.185348
4162.152200,-6587.832884,-9422.974625,-1998.556043
4162.152524,-4145.153275,-8886.707777,-592.164754
4162.152848,-814.226536,-7354.516781,-2146.597232
4162.153172,2442.679609,-7507.735880,-814.226536
4162.153496,4663.297435,-7124.688131,-814.226536
4162.153821,5625.565159,-7660.954980,740.205942
4162.154145,4811.338623,-8427.050478,962.267725
4162.154469,2590.720797,-8273.831378,1406.391290
4162.154793,-962.267725,-9193.145976,1480.411884
4162.155117,-4145.153275,-9729.412825,0.000000
4162.155441,-5477.523971,-10495.508323,-518.144159
4162.155766,-5181.441594,-9652.803275,-1702.473667
4162.156090,-3775.050304,-9116.536426,-1036.288319
4162.156414,-370.102971,-8197.221829,-2220.617826
4162.156738,2516.700203,-7507.735880,-1850.514855
4162.157062,4663.297435,-7507.735880,0.000000
4162.157386,5847.626942,-7354.516781,0.000000
4162.157711,4589.276840,-7584.345430,518.144159
4162.158035,3478.967927,-8427.050478,814.226536
4162.158359,296.082377,-9346.365076,814.226536
4162.158683,-3108.864956,-9806.022374,814.226536
4162.159007,-4737.318029,-10495.508323,-592.164754
4162.159332,-6143.709319,-9652.803275,-1406.391290
4162.159656,-5181.441594,-9269.755526,-1554.432478
4162.159980,-2072.576638,-8656.879127,-1850.514855
4162.160304,2072.576638,-7354.516781,-1332.370696
4162.160628,4737.318029,-7201.297681,-518.144159
4162.160952,6809.894666,-7048.078582,0.000000
4162.161277,7031.956449,-8350.440928,592.164754
4162.161601,5107.421000,-8350.440928,296.082377
4162.161925,1702.473667,-8580.269578,592.164754
4162.162249,-1184.329507,-9499.584175,1036.288319
4162.162573,-3627.009116,-9576.193725,0.000000
4162.162897,-3627.009116,-10112.460574,-888.247130
4162.163222,-2886.803174,-9039.926876,-1776.494261
4162.163546,-814.226536,-9269.755526,-1702.473667
4162.163870,2442.679609,-7201.297681,-1702.473667
4162.164194,5551.544565,-7737.564530,-962.267725
4162.164518,6957.935855,-7354.516781,0.000000
4162.164842,7105.977043,-6818.249932,296.082377
4162.165167,5329.482782,-8044.002729,592.164754
4162.165491,1776.494261,-8044.002729,1110.308913
4162.165815,-2072.576638,-9422.974625,814.226536
4162.166139,-4515.256246,-9806.022374,0.000000
4162.166463,-4885.359217,-9806.022374,-666.185348
4162.166787,-4589.276840,-9576.193725,-1628.453072
4162.167112,-3256.906145,-8350.440928,-2220.617826
4162.167436,888.247130,-8197.221829,-1480.411884
4162.167760,2812.782580,-6818.249932,-1480.411884
4162.168084,5625.565159,-8044.002729,222.061783
4162.168408,5773.606348,-6588.421283,0.000000
4162.168732,3552.988522,-8963.317327,1110.308913
4162.169057,1258.350101,-7277.907231,148.041188
4162.169381,-1036.288319,-9422.974625,962.267725
4162.169705,-3108.864956,-10572.117872,222.061783
4162.170029,-3997.112087,-9959.241474,-1110.308913
4162.170353,-3849.070898,-9806.022374,-1184.329507
4162.170678,-2812.782580,-8886.707777,-1776.494261
4162.171002,1184.329507,-8197.221829,-1036.288319
4162.171326,4071.132681,-6818.249932,-2072.576638
4162.171650,5625.565159,-8120.612279,518.144159
4162.171974,5107.421000,-6435.202183,-222.061783
4162.172298,4515.256246,-8963.317327,1332.370696
4162.172623,1924.535449,-8044.002729,814.226536
4162.172947,-1332.370696,-9882.631924,888.247130
4162.173271,-4441.235652,-9576.193725,0.000000
4162.173595,-6661.853478,-9959.241474,-740.205942
4162.173919,-7254.018232,-9806.022374,-888.247130
4162.174243,-4737.318029,-9116.536426,-1480.411884
4162.174568,-2220.617826,-8427.050478,-1258.350101
4162.174892,1924.535449,-7584.345430,-1924.535449
4162.175216,4441.235652,-7431.126331,0.000000
4162.175540,4293.194464,-7354.516781,-222.061783
4162.175864,5107.421000,-8503.660028,592.164754
4162.176188,2442.679609,-8273.831378,666.185348
4162.176513,148.041188,-9039.926876,1332.370696
4162.176837,-2590.720797,-9422.974625,296.082377
4162.177161,-4515.256246,-10418.898773,444.123565
4162.177485,-4737.318029,-10112.460574,-1554.432478
4162.177809,-3775.050304,-9346.365076,-1554.432478
4162.178133,-1332.370696,-9039.926876,-1332.370696
4162.178458,2442.679609,-7431.126331,-1036.288319
4162.178782,5403.503377,-7277.907231,148.041188
4162.179106,7476.080014,-7048.078582,148.041188
4162.179430,6809.894666,-7814.174080,962.267725
4162.179754,4219.173869,-8197.221829,518.144159
4162.180078,1258.350101,-9116.536426,666.185348
4162.180403,-2294.638420,-9729.412825,0.000000
4162.180727,-3775.050304,-10265.679673,0.000000
4162.181051,-5773.606348,-9806.022374,-1258.350101
4162.181375,-4959.379811,-9806.022374,-1258.350101
4162.181699,-1850.514855,-9116.536426,-1554.432478
4162.182024,1258.350101,-8044.002729,-1332.370696
4162.182348,4885.359217,-7431.126331,-1110.308913
4162.182672,6217.729913,-6741.640382,-148.041188
4162.182996,7031.956449,-7354.516781,888.247130
4162.183320,5329.482782,-8044.002729,296.082377
4162.183644,2368.659014,-8963.317327,740.205942
4162.183969,-222.061783,-9346.365076,444.123565
4162.184293,-2664.741391,-10112.460574,-222.061783
4162.184617,-5033.400406,-10035.851024,-370.102971
4162.184941,-3330.926739,-9116.536426,-740.205942
4162.185265,-2146.597232,-8580.269578,-888.247130
4162.185589,2294.638420,-8273.831378,-1332.370696
4162.185914,5033.400406,-7277.907231,-962.267725
4162.186238,6587.832884,-7814.174080,-444.123565
4162.186562,7031.956449,-7354.516781,0.000000
4162.186886,5181.441594,-7660.954980,370.102971
4162.187210,2442.679609,-9116.536426,666.185348
4162.187534,-1036.288319,-9269.755526,518.144159
4162.187859,-4589.276840,-10189.070123,-518.144159
4162.188183,-6291.750507,-10265.679673,-962.267725
4162.188507,-6217.729913,-9959.241474,-1258.350101
4162.188831,-4293.194464,-9576.193725,-962.267725
4162.189155,444.123565,-7890.783629,-1110.308913
4162.189479,2072.576638,-7354.516781,-1184.329507
4162.189804,6365.771101,-7354.516781,-370.102971
4162.190128,5847.626942,-6665.030833,0.000000
4162.190452,5551.544565,-8810.098227,296.082377
4162.190776,2960.823768,-7890.783629,296.082377
4162.191100,222.061783,-9346.365076,814.226536
4162.191424,-3108.864956,-9959.241474,370.102971
4162.191749,-6069.688724,-10801.946522,0.000000
4162.192073,-5995.668130,-10878.556072,-1554.432478
4162.192397,-4663.297435,-8733.488677,-1480.411884
4162.192721,-2368.659014,-8503.660028,-1702.473667
4162.193045,2146.597232,-8886.707777,-1480.411884
4162.193370,5255.462188,-6435.202183,-518.144159
4162.193694,6513.812290,-8044.002729,1036.288319
4162.194018,5255.462188,-7354.516781,-814.226536
4162.194342,4589.276840,-8656.879127,888.247130
4162.194666,148.041188,-8733.488677,296.082377
4162.194990,-2960.823768,-9959.241474,0.000000
4162.195315,-5329.482782,-10035.851024,518.144159
4162.195639,-7698.141797,-10035.851024,-740.205942
4162.195963,-6513.812290,-9806.022374,-1036.288319
4162.196287,-3478.967927,-7890.783629,-1776.494261
4162.196611,0.000000,-8044.002729,-1110.308913
4162.196935,3997.112087,-6435.202183,-518.144159
4162.197260,5995.668130,-7354.516781,370.102971
4162.197584,5699.585753,-7354.516781,0.000000
4162.197908,4885.359217,-7507.735880,814.226536
4162.198232,2368.659014,-8886.707777,444.123565
4162.198556,-296.082377,-9806.022374,962.267725
4162.198880,-2812.782580,-9039.926876,-296.082377
4162.199205,-4885.359217,-11184.994271,74.020594
4162.199529,-5033.400406,-8810.098227,-1702.473667
4162.199853,-3108.864956,-9116.536426,-1184.329507
4162.200177,-222.061783,-7737.564530,-1258.350101
4162.200501,3849.070898,-7354.516781,0.000000
4162.200825,5477.523971,-7201.297681,-518.144159
4162.201150,5995.668130,-7431.126331,444.123565
4162.201474,5847.626942,-7584.345430,518.144159
4162.201798,3034.844362,-8656.879127,296.082377
4162.202122,-444.123565,-9269.755526,370.102971
4162.202446,-3034.844362,-10342.289223,-296.082377
4162.202770,-6365.771101,-9422.974625,-370.102971
4162.203095,-5477.523971,-8810.098227,-1998.556043
4162.203419,-4811.338623,-9729.412825,-1628.453072
4162.203743,-1924.535449,-7354.516781,-1554.432478
4162.204067,2664.741391,-7584.345430,-1036.288319
4162.204391,4367.215058,-7354.516781,-1554.432478
4162.204716,6439.791695,-7660.954980,148.041188
4162.205040,5329.482782,-7660.954980,888.247130
4162.205364,4293.194464,-8810.098227,0.000000
4162.205688,2812.782580,-9422.974625,814.226536
4162.206012,-1628.453072,-8963.317327,-370.102971
4162.206336,-4737.318029,-10648.727422,-592.164754
4162.206661,-3701.029710,-9882.631924,-1850.514855
4162.206985,-3108.864956,-8886.707777,-1480.411884
4162.207309,-962.267725,-7967.393179,-1998.556043
4162.207633,3108.864956,-7967.393179,-1998.556043
4162.207957,4071.132681,-7660.954980,-1924.535449
4162.208281,5403.503377,-7737.564530,-370.102971
4162.208606,5699.585753,-9652.803275,-370.102971
4162.208930,3627.009116,-9039.926876,518.144159
4162.209254,2294.638420,-8580.269578,296.082377
4162.209578,-1850.514855,-10035.851024,0.000000
4162.209902,-4219.173869,-10112.460574,-814.226536
4162.210226,-5403.503377,-10265.679673,-962.267725
4162.210551,-4219.173869,-8503.660028,-1258.350101
4162.210875,-4071.132681,-8350.440928,-1628.453072
4162.211199,-518.144159,-8427.050478,-2294.638420
4162.211523,3108.864956,-7507.735880,-1184.329507
4162.211847,5033.400406,-8197.221829,444.123565
4162.212171,5181.441594,-8427.050478,0.000000
4162.212496,4515.256246,-9039.926876,1036.288319
4162.212820,1406.391290,-9652.803275,1110.308913
4162.213144,-370.102971,-9193.145976,962.267725
4162.213468,-3627.009116,-9806.022374,0.000000
4162.213792,-3849.070898,-10189.070123,-592.164754
4162.214116,-3775.050304,-8656.879127,-814.226536
4162.214441,-1702.473667,-8350.440928,-1110.308913
4162.214765,0.000000,-7737.564530,-2072.576638
4162.215089,2886.803174,-7507.735880,-518.144159
4162.215413,4441.235652,-7431.126331,74.020594
4162.215737,4145.153275,-8273.831378,1036.288319
4162.216062,4219.173869,-8427.050478,888.247130
4162.216386,1406.391290,-8656.879127,962.267725
4162.216710,-1184.329507,-9499.584175,1036.288319
4162.217034,-3627.009116,-9806.022374,148.041188
4162.217358,-5329.482782,-9499.584175,-666.185348
4162.217682,-4811.338623,-8580.269578,-740.205942
4162.218007,-3997.112087,-8197.221829,-1184.329507
4162.218331,-814.226536,-7507.735880,-1332.370696
4162.218655,2738.761985,-7048.078582,-666.185348
4162.218979,4959.379811,-7431.126331,-148.041188
4162.219303,5403.503377,-7967.393179,666.185348
4162.219627,4737.318029,-8120.612279,888.247130
4162.219952,3108.864956,-9422.974625,740.205942
4162.220276,222.061783,-8580.269578,740.205942
4162.220600,-2886.803174,-10342.289223,296.082377
4162.220924,-4145.153275,-9499.584175,148.041188
4162.221248,-3923.091493,-8733.488677,-814.226536
4162.221572,-3108.864956,-9039.926876,-1776.494261
4162.221897,-296.082377,-7890.783629,-1480.411884
4162.222221,2220.617826,-7048.078582,-1554.432478
4162.222545,4145.153275,-7814.174080,-740.205942
4162.222869,5995.668130,-7507.735880,222.061783
4162.223193,4589.276840,-8120.612279,222.061783
4162.223517,2886.803174,-9269.755526,740.205942
4162.223842,1036.288319,-8810.098227,592.164754
4162.224166,-1702.473667,-10189.070123,-370.102971
4162.224490,-3478.967927,-9422.974625,-1184.329507
4162.224814,-4737.318029,-9422.974625,-1480.411884
4162.225138,-4293.194464,-8886.707777,-2220.617826
4162.225462,-2886.803174,-7507.735880,-1998.556043
4162.225787,814.226536,-7277.907231,-1406.391290
4162.226111,3404.947333,-7584.345430,-1258.350101
4162.226435,5181.441594,-8197.221829,-222.061783
4162.226759,5847.626942,-8427.050478,-518.144159
4162.227083,4219.173869,-9193.145976,370.102971
4162.227408,1036.288319,-9269.755526,-518.144159
4162.227732,-1850.514855,-10035.851024,592.164754
4162.228056,-3997.112087,-9499.584175,-296.082377
4162.228380,-4515.256246,-10878.556072,-1036.288319
4162.228704,-3330.926739,-9499.584175,-1998.556043
4162.229028,-1036.288319,-7660.954980,-1850.514855
4162.229353,1776.494261,-7890.783629,-1776.494261
4162.229677,3404.947333,-6971.469032,-1480.411884
4162.230001,5625.565159,-7967.393179,222.061783
4162.230325,5181.441594,-7584.345430,0.000000
4162.230649,3108.864956,-8656.879127,592.164754
4162.230973,888.247130,-9039.926876,592.164754
4162.231298,-1332.370696,-10035.851024,666.185348
4162.231622,-4071.132681,-9806.022374,-592.164754
4162.231946,-5329.482782,-10189.070123,-814.226536
4162.232270,-5033.400406,-9269.755526,-888.247130
4162.232594,-3627.009116,-8503.660028,-1628.453072
4162.232918,-222.061783,-7814.174080,-1258.350101
4162.233243,2960.823768,-7277.907231,-740.205942
4162.233567,5329.482782,-7660.954980,-296.082377
4162.233891,5551.544565,-7737.564530,222.061783
4162.234215,4367.215058,-8427.050478,888.247130
4162.234539,1628.453072,-8886.707777,814.226536
4162.234863,-148.041188,-9422.974625,1480.411884
4162.235188,-2072.576638,-9652.803275,444.123565
4162.235512,-4145.153275,-10495.508323,222.061783
4162.235836,-3330.926739,-9576.193725,-1036.288319
4162.236160,-2220.617826,-8580.269578,-1110.308913
4162.236484,666.185348,-8273.831378,-666.185348
4162.236809,3330.926739,-6511.811733,-740.205942
4162.237133,5995.668130,-7584.345430,444.123565
4162.237457,5847.626942,-6894.859482,666.185348
4162.237781,5181.441594,-8427.050478,962.267725
4162.238105,2590.720797,-8886.707777,592.164754
4162.238430,-666.185348,-9959.241474,592.164754
4162.238754,-4219.173869,-10112.460574,-148.041188
4162.239078,-6587.832884,-9729.412825,370.102971
4162.239402,-5847.626942,-9576.193725,-370.102971
4162.239726,-3849.070898,-9039.926876,-592.164754
4162.240050,-1554.432478,-7431.126331,-1406.391290
4162.240375,3108.864956,-7048.078582,-666.185348
4162.240699,4811.338623,-7201.297681,-888.247130
4162.241023,5773.606348,-7967.393179,814.226536
4162.241347,5255.462188,-7354.516781,222.061783
4162.241671,2664.741391,-8963.317327,1332.370696
4162.241996,1332.370696,-8886.707777,1036.288319
4162.242320,-1480.411884,-9652.803275,148.041188
4162.242644,-3034.844362,-11031.775171,-518.144159
4162.242968,-4885.359217,-9729.412825,-1406.391290
4162.243292,-3775.050304,-9576.193725,0.000000
4162.243617,-1110.308913,-7201.297681,-1998.556043
4162.243941,1702.473667,-7814.174080,-666.185348
4162.244265,4959.379811,-6894.859482,-814.226536
4162.244589,6069.688724,-7354.516781,0.000000
4162.244913,5847.626942,-8886.707777,-592.164754
4162.245238,4663.297435,-8580.269578,0.000000
4162.245562,444.123565,-9116.536426,148.041188
4162.245886,-2072.576638,-10418.898773,-148.041188
4162.246210,-4737.318029,-9959.241474,-592.164754
4162.246534,-6291.750507,-9806.022374,-1036.288319
4162.246859,-5255.462188,-9729.412825,-1480.411884
4162.247183,-3034.844362,-8197.221829,-1924.535449
4162.247507,518.144159,-7967.393179,-1702.473667
4162.247831,3404.947333,-6665.030833,-1554.432478
4162.248155,4663.297435,-8427.050478,-518.144159
4162.248479,5847.626942,-7124.688131,-370.102971
4162.248804,4811.338623,-8733.488677,444.123565
4162.249128,2812.782580,-9039.926876,74.020594
4162.249452,-962.267725,-9652.803275,814.226536
4162.249776,-3034.844362,-9882.631924,-1110.308913
4162.250100,-4145.153275,-10801.946522,-222.061783
4162.250425,-4737.318029,-8733.488677,-1110.308913
4162.250749,-2590.720797,-8963.317327,-1480.411884
4162.251073,518.144159,-7660.954980,-1850.514855
4162.251397,2072.576638,-7124.688131,-1184.329507
4162.251721,5477.523971,-7890.783629,-222.061783
4162.252046,5033.400406,-7584.345430,444.123565
4162.252370,4737.318029,-8580.269578,814.226536
4162.252694,2072.576638,-8580.269578,222.061783
4162.253018,-666.185348,-9499.584175,592.164754
4162.253342,-3256.906145,-9882.631924,-740.205942
4162.253667,-5329.482782,-10112.460574,-148.041188
4162.253991,-4811.338623,-9652.803275,-370.102971
4162.254315,-3701.029710,-8810.098227,-1480.411884
4162.254639,-1110.308913,-7277.907231,-1258.350101
4162.254963,1850.514855,-6511.811733,-1258.350101
4162.255287,4737.318029,-7660.954980,0.000000
4162.255612,6069.688724,-7354.516781,444.123565
4162.255936,6217.729913,-8503.660028,444.123565
4162.256260,4293.194464,-8656.879127,296.082377
4162.256584,1332.370696,-9269.755526,740.205942
4162.256908,-1480.411884,-9806.022374,296.082377
4162.257233,-2738.761985,-9729.412825,148.041188
4162.257557,-3701.029710,-9346.365076,-444.123565
4162.257881,-4219.173869,-8427.050478,-592.164754
4162.258205,-1184.329507,-8044.002729,-888.247130
4162.258529,370.102971,-7277.907231,-1702.473667
4162.258854,2886.803174,-7584.345430,-444.123565
4162.259178,3997.112087,-7277.907231,0.000000
4162.259502,4441.235652,-8810.098227,962.267725
4162.259826,3108.864956,-8427.050478,888.247130
4162.260150,814.226536,-8810.098227,1184.329507
4162.260475,-2960.823768,-9652.803275,592.164754
4162.260799,-3775.050304,-10112.460574,518.144159
4162.261123,-5033.400406,-9269.755526,-740.205942
4162.261447,-3627.009116,-9576.193725,-1258.350101
4162.261771,-1776.494261,-7124.688131,-1258.350101
4162.262096,1406.391290,-7431.126331,-1184.329507
4162.262420,4737.318029,-6741.640382,-296.082377
4162.262744,6291.750507,-7660.954980,0.000000
4162.263068,5995.668130,-8810.098227,444.123565
4162.263392,4737.318029,-8273.831378,444.123565
4162.263716,2072.576638,-9039.926876,518.144159
4162.264041,222.061783,-10265.679673,814.226536
4162.264365,-1850.514855,-9499.584175,518.144159
4162.264689,-2516.700203,-10112.460574,-148.041188
4162.265013,-3256.906145,-9193.145976,-1110.308913
4162.265337,-3256.906145,-8120.612279,-1924.535449
4162.265662,444.123565,-8503.660028,-1628.453072
4162.265986,2368.659014,-7277.907231,-666.185348
4162.266310,7254.018232,-7967.393179,0.000000
4162.266634,3552.988522,-8963.317327,-1332.370696
4162.266958,3330.926739,-9576.193725,296.082377
4162.267283,444.123565,-9193.145976,444.123565
4162.267607,-1036.288319,-10265.679673,-518.144159
4162.267931,-4219.173869,-10035.851024,222.061783
4162.268255,-5033.400406,-9116.536426,-888.247130
4162.268579,-3849.070898,-9729.412825,0.000000
4162.268904,-2664.741391,-7048.078582,-2368.659014
4162.269228,370.102971,-8810.098227,-592.164754
4162.269552,3627.009116,-6128.763984,-1924.535449
4162.269876,4737.318029,-8580.269578,-518.144159
4162.270200,5551.544565,-7660.954980,-962.267725
4162.270525,4441.235652,-8886.707777,518.144159
4162.270849,3478.967927,-9499.584175,370.102971
4162.271173,-518.144159,-9729.412825,592.164754
4162.271497,-1184.329507,-9806.022374,222.061783
4162.271821,-4293.194464,-9729.412825,-814.226536
4162.272145,-4145.153275,-9499.584175,-148.041188
4162.272470,-2812.782580,-8120.612279,-1406.391290
4162.272794,-296.082377,-7814.174080,-1702.473667
4162.273118,1924.535449,-7124.688131,-2072.576638
4162.273442,4441.235652,-7048.078582,-1110.308913
4162.273766,4145.153275,-7584.345430,296.082377
4162.274091,3552.988522,-8273.831378,666.185348
4162.274415,2220.617826,-9346.365076,148.041188
4162.274739,0.000000,-9499.584175,1110.308913
4162.275063,-2886.803174,-10418.898773,888.247130
4162.275387,-4293.194464,-9959.241474,0.000000
4162.275712,-5625.565159,-9116.536426,-666.185348
4162.276036,-3849.070898,-8427.050478,-1406.391290
4162.276360,-1628.453072,-7814.174080,-1184.329507
4162.276684,962.267725,-6281.983084,-1480.411884
4162.277008,3775.050304,-7660.954980,-148.041188
4162.277333,5255.462188,-6971.469032,74.020594
4162.277657,4737.318029,-8044.002729,666.185348
4162.277981,4737.318029,-8120.612279,814.226536
4162.278305,2220.617826,-9269.755526,962.267725
4162.278629,-518.144159,-9499.584175,0.000000
4162.278954,-3108.864956,-9806.022374,888.247130
4162.279278,-4515.256246,-9499.584175,0.000000
4162.279602,-4145.153275,-8963.317327,-962.267725
4162.279926,-1332.370696,-7507.735880,-1480.411884
4162.280250,1406.391290,-7048.078582,-1554.432478
4162.280574,3256.906145,-6971.469032,-1036.288319
4162.280899,5551.544565,-7124.688131,518.144159
4162.281223,5403.503377,-8044.002729,296.082377
4162.281547,4145.153275,-8350.440928,592.164754
4162.281871,2146.597232,-9269.755526,740.205942
4162.282195,-1406.391290,-10189.070123,370.102971
4162.282520,-3108.864956,-10112.460574,148.041188
4162.282844,-4663.297435,-10035.851024,-222.061783
4162.283168,-4811.338623,-9422.974625,-740.205942
4162.283492,-2590.720797,-8197.221829,-1258.350101
4162.283816,814.226536,-7660.954980,-2220.617826
4162.284141,3034.844362,-6741.640382,-1184.329507
4162.284465,4811.338623,-7048.078582,-370.102971
4162.284789,5403.503377,-7737.564530,74.020594
4162.285113,5255.462188,-8963.317327,666.185348
4162.285437,2886.803174,-9193.145976,74.020594
4162.285762,296.082377,-9882.631924,74.020594
4162.286086,-2146.597232,-9882.631924,-222.061783
4162.286410,-3627.009116,-10648.727422,-1258.350101
4162.286734,-3775.050304,-9116.536426,-962.267725
4162.287058,-2590.720797,-8733.488677,-592.164754
4162.287382,0.000000,-7967.393179,-1850.514855
4162.287707,2664.741391,-7124.688131,-1332.370696
4162.288031,4367.215058,-7431.126331,-1332.370696
4162.288355,5847.626942,-8044.002729,370.102971
4162.288679,5033.400406,-8503.660028,0.000000
4162.289003,3182.885551,-9729.412825,0.000000
4162.289328,592.164754,-9346.365076,370.102971
4162.289652,-3256.906145,-10801.946522,0.000000
4162.289976,-5329.482782,-10725.336972,-444.123565
4162.290300,-5625.565159,-9576.193725,-444.123565
4162.290624,-4811.338623,-8886.707777,-740.205942
4162.290949,-3330.926739,-7431.126331,-1924.535449
4162.291273,888.247130,-7354.516781,-740.205942
4162.291597,2960.823768,-6971.469032,-666.185348
4162.291921,5551.544565,-8120.612279,296.082377
4162.292245,5329.482782,-7967.393179,0.000000
4162.292570,3849.070898,-9346.365076,444.123565
4162.292894,1406.391290,-9576.193725,962.267725
4162.293218,-370.102971,-10035.851024,666.185348
4162.293542,-2516.700203,-10801.946522,148.041188
4162.293866,-4071.132681,-9193.145976,-222.061783
4162.294191,-4811.338623,-8963.317327,296.082377
4162.294515,-2664.741391,-7201.297681,-1110.308913
4162.294839,222.061783,-7737.564530,-592.164754
4162.295163,3108.864956,-6741.640382,-1184.329507
4162.295487,4441.235652,-7354.516781,0.000000
4162.295811,3923.091493,-7431.126331,0.000000
4162.296136,3997.112087,-9039.926876,1406.391290
4162.296460,1184.329507,-8044.002729,592.164754
4162.296784,-888.247130,-9959.241474,592.164754
4162.297108,-2664.741391,-9882.631924,518.144159
4162.297432,-4737.318029,-9499.584175,-740.205942
4162.297757,-4367.215058,-9039.926876,74.020594
4162.298081,-3034.844362,-7507.735880,-1332.370696
4162.298405,0.000000,-7354.516781,-1184.329507
4162.298729,2442.679609,-6358.592633,-666.185348
4162.299053,4441.235652,-7660.954980,-370.102971
4162.299378,5329.482782,-7507.735880,-148.041188
4162.299702,4663.297435,-8197.221829,0.000000
4162.300026,2664.741391,-8886.707777,444.123565
4162.300350,1036.288319,-9499.584175,222.061783
4162.300674,-1258.350101,-9499.584175,740.205942
4162.300999,-2664.741391,-9806.022374,222.061783
4162.301323,-3849.070898,-9193.145976,-962.267725
4162.301647,-2368.659014,-8503.660028,-1480.411884
4162.301971,74.020594,-7737.564530,-1702.473667
4162.302295,1850.514855,-7124.688131,-1110.308913
4162.302620,4515.256246,-7048.078582,-74.020594
4162.302944,5551.544565,-7890.783629,-296.082377
4162.303268,3330.926739,-8656.879127,-370.102971
4162.303592,1850.514855,-8503.660028,0.000000
4162.303916,444.123565,-9882.631924,-148.041188
4162.304240,-1776.494261,-10648.727422,-518.144159
4162.304565,-4293.194464,-9652.803275,-518.144159
4162.304889,-4367.215058,-10112.460574,-370.102971
4162.305213,-3997.112087,-8044.002729,-1184.329507
4162.305537,-962.267725,-8120.612279,-1332.370696
4162.305861,2886.803174,-7660.954980,-2294.638420
4162.306186,4959.379811,-7584.345430,-1850.514855
4162.306510,5329.482782,-8044.002729,0.000000
4162.306834,5329.482782,-7660.954980,-740.205942
4162.307158,3627.009116,-9499.584175,0.000000
4162.307482,1776.494261,-9806.022374,74.020594
4162.307807,-1184.329507,-9269.755526,296.082377
4162.308131,-3108.864956,-10035.851024,-296.082377
4162.308455,-3701.029710,-9576.193725,-666.185348
4162.308779,-3775.050304,-8656.879127,-740.205942
4162.309103,-1110.308913,-8120.612279,-1258.350101
4162.309428,222.061783,-7124.688131,-1258.350101
4162.309752,3330.926739,-6894.859482,-1036.288319
4162.310076,4367.215058,-7737.564530,-740.205942
4162.310400,5107.421000,-8120.612279,-740.205942
4162.310724,2294.638420,-8963.317327,222.061783
4162.311048,814.226536,-9116.536426,-296.082377
4162.311373,-2442.679609,-10189.070123,814.226536
4162.311697,-3404.947333,-9806.022374,444.123565
4162.312021,-4959.379811,-9959.241474,-148.041188
4162.312345,-5403.503377,-9193.145976,-814.226536
4162.312669,-2664.741391,-8273.831378,-814.226536
4162.312994,-444.123565,-6971.469032,-962.267725
4162.313318,4071.132681,-7814.174080,-148.041188
4162.313642,4811.338623,-6818.249932,-222.061783
4162.313966,5403.503377,-7584.345430,0.000000
4162.314290,5033.400406,-8580.269578,370.102971
4162.314615,2220.617826,-9422.974625,222.061783
4162.314939,-370.102971,-9806.022374,1184.329507
4162.315263,-4515.256246,-9346.365076,222.061783
4162.315587,-5773.606348,-10342.289223,222.061783
4162.315911,-5107.421000,-9499.584175,296.082377
4162.316236,-2812.782580,-9193.145976,-592.164754
4162.316560,-666.185348,-7967.393179,-370.102971
4162.316884,1702.473667,-6894.859482,-962.267725
4162.317208,3923.091493,-7354.516781,814.226536
4162.317532,5551.544565,-6205.373534,222.061783
4162.317857,5403.503377,-9039.926876,296.082377
4162.318181,3923.091493,-8273.831378,1184.329507
4162.318505,296.082377,-8963.317327,1184.329507
4162.318829,-1184.329507,-10418.898773,222.061783
4162.319153,-3701.029710,-9652.803275,444.123565
4162.319477,-4885.359217,-9806.022374,0.000000
4162.319802,-4589.276840,-8656.879127,-296.082377
4162.320126,-1258.350101,-7507.735880,-592.164754
4162.320450,1628.453072,-6894.859482,-592.164754
4162.320774,4367.215058,-6665.030833,-888.247130
4162.321098,5551.544565,-7814.174080,-740.205942
4162.321423,4589.276840,-7890.783629,-592.164754
4162.321747,3404.947333,-7814.174080,592.164754
4162.322071,1036.288319,-9499.584175,592.164754
4162.322395,-1776.494261,-9882.631924,518.144159
4162.322719,-3552.988522,-9959.241474,-666.185348
4162.323044,-4219.173869,-10418.898773,-1406.391290
4162.323368,-3849.070898,-8656.879127,-888.247130
4162.323692,-740.205942,-7354.516781,-370.102971
4162.324016,1332.370696,-7584.345430,-888.247130
4162.324340,4885.359217,-7354.516781,-1406.391290
4162.324665,6809.894666,-7431.126331,-1480.411884
4162.324989,6735.874072,-7584.345430,-962.267725
4162.325313,4145.153275,-8273.831378,-518.144159
4162.325637,2368.659014,-9806.022374,-666.185348
4162.325961,-1184.329507,-10418.898773,0.000000
4162.326286,-3478.967927,-10112.460574,0.000000
4162.326610,-4071.132681,-10265.679673,-370.102971
4162.326934,-5033.400406,-9422.974625,-1258.350101
4162.327258,-1776.494261,-8810.098227,-1924.535449
4162.327582,962.267725,-7048.078582,-1406.391290
4162.327906,4219.173869,-7890.783629,-1406.391290
4162.328231,5403.503377,-7277.907231,-1406.391290
4162.328555,5551.544565,-8044.002729,296.082377
4162.328879,5033.400406,-8350.440928,-1406.391290
4162.329203,2590.720797,-8810.098227,-370.102971
4162.329527,-296.082377,-9729.412825,0.000000
4162.329852,-2368.659014,-10878.556072,-370.102971
4162.330176,-4811.338623,-9806.022374,-888.247130
4162.330500,-5921.647536,-9806.022374,-592.164754
4162.330824,-3552.988522,-8886.707777,-296.082377
4162.331148,-1998.556043,-7354.516781,-1554.432478
4162.331473,3701.029710,-7584.345430,-296.082377
4162.331797,3701.029710,-6665.030833,-1258.350101
4162.332121,7105.977043,-8656.879127,-148.041188
4162.332445,4071.132681,-7354.516781,-814.226536
4162.332769,3108.864956,-9422.974625,814.226536
4162.333094,-370.102971,-8733.488677,148.041188
4162.333418,-2812.782580,-10342.289223,740.205942
4162.333742,-4959.379811,-9729.412825,296.082377
4162.334066,-5477.523971,-9039.926876,-370.102971
4162.334390,-4959.379811,-8963.317327,74.020594
4162.334715,-1036.288319,-7124.688131,-444.123565
4162.335039,1480.411884,-7048.078582,148.041188
4162.335363,3923.091493,-6588.421283,-962.267725
4162.335687,5551.544565,-7354.516781,-370.102971
4162.336011,5477.523971,-7814.174080,-1036.288319
4162.336335,3849.070898,-8427.050478,148.041188
4162.336660,1258.350101,-8963.317327,518.144159
4162.336984,-2146.597232,-10035.851024,1480.411884
4162.337308,-4959.379811,-9729.412825,444.123565
4162.337633,-4515.256246,-10112.460574,444.123565
4162.337957,-4811.338623,-8656.879127,-222.061783
4162.338281,-1332.370696,-7890.783629,-740.205942
4162.338606,296.082377,-7201.297681,-518.144159
4162.338930,3923.091493,-6588.421283,-592.164754
4162.339254,4367.215058,-7431.126331,74.020594
4162.339579,5107.421000,-8044.002729,-592.164754
4162.339903,3923.091493,-8273.831378,370.102971
4162.340227,1998.556043,-9039.926876,0.000000
4162.340551,-1554.432478,-10342.289223,814.226536
4162.340876,-4219.173869,-9806.022374,814.226536
4162.341200,-5107.421000,-10112.460574,888.247130
4162.341524,-4441.235652,-9116.536426,-518.144159
4162.341849,-2516.700203,-8044.002729,-444.123565
4162.342173,1184.329507,-7048.078582,-740.205942
4162.342497,3923.091493,-7201.297681,-962.267725
4162.342822,5403.503377,-7354.516781,-592.164754
4162.343146,6217.729913,-7660.954980,0.000000
4162.343470,5329.482782,-8350.440928,-740.205942
4162.343795,2516.700203,-9116.536426,74.020594
4162.344119,-222.061783,-9806.022374,296.082377
4162.344443,-1850.514855,-10418.898773,-444.123565
4162.344767,-4219.173869,-10648.727422,-296.082377
4162.345092,-4219.173869,-9039.926876,-740.205942
4162.345416,-2886.803174,-8733.488677,-740.205942
4162.345740,962.267725,-6588.421283,-1110.308913
4162.346065,3997.112087,-7507.735880,-814.226536
4162.346389,5625.565159,-7890.783629,-1480.411884
4162.346713,5477.523971,-7584.345430,-1554.432478
4162.347038,4663.297435,-8273.831378,-148.041188
4162.347362,2146.597232,-8503.660028,-1110.308913
4162.347686,-444.123565,-9806.022374,518.144159
4162.348011,-3478.967927,-9806.022374,222.061783
4162.348335,-3923.091493,-10572.117872,0.000000
4162.348659,-4885.359217,-10035.851024,-740.205942
4162.348983,-2072.576638,-9346.365076,-1554.432478
4162.349308,222.061783,-7277.907231,-1850.514855
4162.349632,3182.885551,-7660.954980,-1036.288319
4162.349956,5033.400406,-7814.174080,-370.102971
4162.350281,5329.482782,-6741.640382,-962.267725
4162.350605,5255.462188,-9269.755526,-666.185348
4162.350929,2664.741391,-8197.221829,-1036.288319
4162.351254,0.000000,-9959.241474,518.144159
4162.351578,-3034.844362,-9576.193725,0.000000
4162.351902,-4441.235652,-10725.336972,148.041188
4162.352227,-4441.235652,-8886.707777,-444.123565
4162.352551,-3701.029710,-8503.660028,-222.061783
4162.352875,-666.185348,-7584.345430,-962.267725
4162.353199,2072.576638,-7277.907231,-888.247130
4162.353524,4959.379811,-7660.954980,-296.082377
4162.353848,5033.400406,-7277.907231,-1110.308913
4162.354172,4219.173869,-8503.660028,0.000000
4162.354497,2738.761985,-8044.002729,-222.061783
4162.354821,0.000000,-9499.584175,444.123565
4162.355145,-1924.535449,-10035.851024,296.082377
4162.355470,-3997.112087,-9422.974625,148.041188
4162.355794,-4737.318029,-9806.022374,148.041188
4162.356118,-5033.400406,-8503.660028,-444.123565
4162.356442,-1924.535449,-7584.345430,-592.164754
4162.356767,666.185348,-6894.859482,-370.102971
4162.357091,3997.112087,-6741.640382,0.000000
4162.357415,5995.668130,-7201.297681,-1258.350101
4162.357740,4589.276840,-7890.783629,-1110.308913
4162.358064,3034.844362,-8656.879127,-370.102971
4162.358388,1110.308913,-8656.879127,518.144159
4162.358713,-1480.411884,-9652.803275,592.164754
4162.359037,-2960.823768,-10342.289223,1258.350101
4162.359361,-4293.194464,-9729.412825,148.041188
4162.359686,-4589.276840,-7890.783629,518.144159
4162.360010,-1480.411884,-8350.440928,-666.185348
4162.360334,666.185348,-7507.735880,-1332.370696
4162.360658,4737.318029,-7354.516781,0.000000
4162.360983,4959.379811,-6281.983084,-888.247130
4162.361307,5033.400406,-9499.584175,-222.061783
4162.361631,3108.864956,-8503.660028,74.020594
4162.361956,1924.535449,-9039.926876,-370.102971
4162.362280,-1406.391290,-10418.898773,592.164754
4162.362604,-3775.050304,-9806.022374,-148.041188
4162.362929,-3997.112087,-10495.508323,518.144159
4162.363253,-4885.359217,-8810.098227,148.041188
4162.363577,-2960.823768,-8580.269578,-666.185348
4162.363902,1036.288319,-7201.297681,-518.144159
4162.364226,2812.782580,-6971.469032,-740.205942
4162.364550,5551.544565,-7967.393179,-962.267725
4162.364874,5403.503377,-6741.640382,-1406.391290
4162.365199,4737.318029,-8886.707777,-814.226536
4162.365523,1776.494261,-8810.098227,222.061783
4162.365847,-222.061783,-9806.022374,296.082377
4162.366172,-2442.679609,-10572.117872,0.000000
4162.366496,-3997.112087,-10418.898773,222.061783
4162.366820,-4071.132681,-9576.193725,0.000000
4162.367145,-2738.761985,-9193.145976,-370.102971
4162.367469,814.226536,-7660.954980,-888.247130
4162.367793,4441.235652,-7507.735880,-1406.391290
4162.368118,5773.606348,-7277.907231,-1184.329507
4162.368442,5181.441594,-8044.002729,-1332.370696
4162.368766,4515.256246,-7967.393179,-518.144159
4162.369090,1628.453072,-8656.879127,444.123565
4162.369415,-370.102971,-9652.803275,74.020594
4162.369739,-1850.514855,-10189.070123,0.000000
4162.370063,-4811.338623,-9806.022374,148.041188
4162.370388,-4885.359217,-10035.851024,-296.082377
4162.370712,-3034.844362,-8810.098227,-296.082377
4162.371036,-740.205942,-7890.783629,0.000000
4162.371361,2590.720797,-7660.954980,-962.267725
4162.371685,5107.421000,-7201.297681,-1258.350101
4162.372009,4959.379811,-7201.297681,-888.247130
4162.372334,4885.359217,-7737.564530,-1258.350101
4162.372658,3330.926739,-9039.926876,-370.102971
4162.372982,74.020594,-9576.193725,370.102971
4162.373306,-1776.494261,-9499.584175,592.164754
4162.373631,-4959.379811,-10112.460574,518.144159
4162.373955,-4959.379811,-9882.631924,-148.041188
4162.374279,-3923.091493,-8427.050478,0.000000
4162.374604,-740.205942,-7890.783629,-814.226536
4162.374928,1998.556043,-7507.735880,-518.144159
4162.375252,5329.482782,-6818.249932,-888.247130
4162.375577,5329.482782,-7354.516781,-962.267725
4162.375901,4367.215058,-7354.516781,-666.185348
4162.376225,3108.864956,-8427.050478,-296.082377
4162.376550,222.061783,-9499.584175,222.061783
4162.376874,-1924.535449,-9882.631924,444.123565
4162.377198,-4071.132681,-9576.193725,0.000000
4162.377522,-5625.565159,-10342.289223,444.123565
4162.377847,-5033.400406,-8886.707777,-370.102971
4162.378171,-2442.679609,-8044.002729,-444.123565
4162.378495,1184.329507,-7584.345430,-518.144159
4162.378820,4071.132681,-6971.469032,-888.247130
4162.379144,6069.688724,-7431.126331,-666.185348
4162.379468,4959.379811,-7277.907231,-1184.329507
4162.379793,4515.256246,-9422.974625,-296.082377
4162.380117,1258.350101,-8733.488677,-222.061783
4162.380441,-814.226536,-9882.631924,888.247130
4162.380766,-3256.906145,-9499.584175,74.020594
4162.381090,-4811.338623,-10725.336972,518.144159
4162.381414,-5033.400406,-8503.660028,-222.061783
4162.381738,-3108.864956,-8503.660028,-1110.308913
4162.382063,296.082377,-8044.002729,-666.185348
4162.382387,3923.091493,-6894.859482,-1036.288319
4162.382711,5921.647536,-7737.564530,-1110.308913
4162.383036,5699.585753,-7660.954980,-1036.288319
4162.383360,4367.215058,-8427.050478,-296.082377
4162.383684,2220.617826,-8810.098227,-222.061783
4162.384009,-666.185348,-10265.679673,370.102971
4162.384333,-2812.782580,-10035.851024,74.020594
4162.384657,-5477.523971,-9806.022374,0.000000
4162.384982,-5477.523971,-9806.022374,-740.205942
4162.385306,-3478.967927,-8580.269578,-592.164754
4162.385630,222.061783,-7507.735880,-444.123565
4162.385954,3552.988522,-7048.078582,-814.226536
4162.386279,5107.421000,-7354.516781,-1628.453072
4162.386603,5995.668130,-6818.249932,-1036.288319
4162.386927,4219.173869,-8886.707777,-370.102971
4162.387252,3256.906145,-9116.536426,-740.205942
4162.387576,-148.041188,-9116.536426,592.164754
4162.387900,-1998.556043,-9882.631924,148.041188
4162.388225,-4515.256246,-11031.775171,0.000000
4162.388549,-3478.967927,-9806.022374,0.000000
4162.388873,-3404.947333,-8733.488677,0.000000
4162.389197,592.164754,-8044.002729,-592.164754
4162.389522,3256.906145,-7354.516781,-1110.308913
4162.389846,5921.647536,-7048.078582,-1258.350101
4162.390170,6069.688724,-7354.516781,-888.247130
4162.390495,4737.318029,-7967.393179,-814.226536
4162.390819,3034.844362,-8733.488677,-296.082377
4162.391143,-148.041188,-9806.022374,222.061783
4162.391468,-2960.823768,-10342.289223,222.061783
4162.391792,-5477.523971,-9729.412825,370.102971
4162.392116,-4811.338623,-10035.851024,0.000000
4162.392441,-3478.967927,-9346.365076,-814.226536
4162.392765,-1332.370696,-7737.564530,-518.144159
4162.393089,3627.009116,-7277.907231,-666.185348
4162.393413,5255.462188,-6588.421283,-1332.370696
4162.393738,5921.647536,-7967.393179,0.000000
4162.394062,5551.544565,-7584.345430,-370.102971
4162.394386,2886.803174,-8273.831378,0.000000
4162.394711,814.226536,-9652.803275,592.164754
4162.395035,-962.267725,-9346.365076,222.061783
4162.395359,-3478.967927,-11031.775171,1998.556043
4162.395684,-4811.338623,-9729.412825,-296.082377
4162.396008,-4293.194464,-9422.974625,296.082377
4162.396332,-2516.700203,-7737.564530,-814.226536
4162.396657,1184.329507,-7737.564530,0.000000
4162.396981,4515.256246,-6281.983084,-888.247130
4162.397305,7105.977043,-7354.516781,-444.123565
4162.397629,5847.626942,-7660.954980,-740.205942
4162.397954,4589.276840,-8197.221829,-444.123565
4162.398278,1184.329507,-9346.365076,296.082377
4162.398602,-1924.535449,-9806.022374,888.247130
4162.398927,-3701.029710,-10189.070123,444.123565
4162.399251,-5773.606348,-10342.289223,222.061783
4162.399575,-5699.585753,-9499.584175,-296.082377
4162.399900,-3701.029710,-7967.393179,-666.185348
4162.400224,-296.082377,-7737.564530,-592.164754
4162.400548,3108.864956,-6818.249932,-1480.411884
4162.400873,4959.379811,-7507.735880,-1110.308913
4162.401197,4737.318029,-7584.345430,-296.082377
4162.401521,4071.132681,-7584.345430,-222.061783
4162.401845,1332.370696,-8963.317327,-518.144159
4162.402170,-370.102971,-9729.412825,1258.350101
4162.402494,-2442.679609,-9806.022374,444.123565
4162.402818,-3701.029710,-11031.775171,148.041188
4162.403143,-4145.153275,-9882.631924,-296.082377
4162.403467,-3701.029710,-8503.660028,-1036.288319
4162.403791,-444.123565,-8273.831378,-1036.288319
4162.404116,2368.659014,-7201.297681,-444.123565
4162.404440,5033.400406,-7737.564530,-666.185348
4162.404764,5477.523971,-6818.249932,-740.205942
4162.405089,4589.276840,-8427.050478,-296.082377
4162.405413,2516.700203,-8503.660028,-814.226536
4162.405737,-370.102971,-9422.974625,740.205942
4162.406061,-2664.741391,-9882.631924,-222.061783
4162.406386,-4589.276840,-10495.508323,666.185348
4162.406710,-5847.626942,-9499.584175,0.000000
4162.407034,-4959.379811,-9039.926876,-296.082377
4162.407359,-1258.350101,-7584.345430,-1406.391290
4162.407683,2072.576638,-7890.783629,-1332.370696
4162.408007,5033.400406,-7584.345430,-1406.391290
4162.408332,5033.400406,-7277.907231,-444.123565
4162.408656,4737.318029,-8197.221829,-518.144159
4162.408980,3256.906145,-8427.050478,0.000000
4162.409305,592.164754,-8886.707777,74.020594
4162.409629,-666.185348,-10112.460574,-148.041188
4162.409953,-3034.844362,-10572.117872,-296.082377
4162.410277,-4367.215058,-10112.460574,-74.020594
4162.410602,-3108.864956,-8963.317327,0.000000
4162.410926,0.000000,-8120.612279,-74.020594
4162.411250,3034.844362,-7431.126331,-1332.370696
4162.411575,4737.318029,-6665.030833,-1184.329507
4162.411899,6661.853478,-8044.002729,-370.102971
4162.412223,5403.503377,-8503.660028,-444.123565
4162.412548,3923.091493,-8810.098227,0.000000
4162.412872,740.205942,-8733.488677,148.041188
4162.413196,-2442.679609,-9729.412825,370.102971
4162.413521,-3775.050304,-10495.508323,0.000000
4162.413845,-4885.359217,-9882.631924,-518.144159
4162.414169,-5033.400406,-9269.755526,-148.041188
4162.414493,-3478.967927,-8044.002729,-888.247130
4162.414818,962.267725,-7354.516781,-444.123565
4162.415142,3552.988522,-6665.030833,-592.164754
4162.415466,6809.894666,-7354.516781,-370.102971
4162.415791,5847.626942,-6894.859482,-740.205942
4162.416115,5107.421000,-8197.221829,148.041188
4162.416439,2738.761985,-8810.098227,-222.061783
4162.416764,518.144159,-10265.679673,0.000000
4162.417088,-2368.659014,-10342.289223,222.061783
4162.417412,-4145.153275,-9576.193725,0.000000
4162.417737,-4367.215058,-9193.145976,0.000000
4162.418061,-3330.926739,-8963.317327,-592.164754
4162.418385,0.000000,-8120.612279,-296.082377
4162.418709,4293.194464,-7048.078582,-296.082377
4162.419034,4515.256246,-7660.954980,-1258.350101
4162.419358,6365.771101,-7354.516781,-962.267725
4162.419682,4811.338623,-7967.393179,222.061783
4162.420007,2072.576638,-7737.564530,-666.185348
4162.420331,-592.164754,-9806.022374,1110.308913
4162.420655,-3627.009116,-9499.584175,-296.082377
4162.420980,-5625.565159,-11414.822920,444.123565
4162.421304,-5995.668130,-8503.660028,-1332.370696
4162.421628,-4737.318029,-9806.022374,222.061783
4162.421952,-1184.329507,-7277.907231,-814.226536
4162.422277,3775.050304,-7431.126331,-666.185348
4162.422601,3849.070898,-7431.126331,-1036.288319
4162.422925,6217.729913,-7354.516781,-222.061783
4162.423250,5329.482782,-7660.954980,74.020594
4162.423574,2738.761985,-8810.098227,0.000000
4162.423898,962.267725,-9193.145976,148.041188
4162.424223,-1332.370696,-10265.679673,444.123565
4162.424547,-3627.009116,-10112.460574,0.000000
4162.424871,-5403.503377,-9806.022374,-962.267725
4162.425196,-5551.544565,-9806.022374,0.000000
4162.425520,-2590.720797,-7967.393179,-296.082377
4162.425844,1628.453072,-7354.516781,-444.123565
4162.426168,3701.029710,-7431.126331,-296.082377
4162.426493,6365.771101,-7890.783629,-518.144159
4162.426817,5477.523971,-7660.954980,-370.102971
4162.427141,3552.988522,-8733.488677,-296.082377
4162.427466,296.082377,-8963.317327,666.185348
4162.427790,-1480.411884,-10418.898773,296.082377
4162.428114,-4737.318029,-10878.556072,222.061783
4162.428439,-5403.503377,-9346.365076,148.041188
4162.428763,-4737.318029,-9039.926876,-888.247130
4162.429087,-2812.782580,-8120.612279,-518.144159
4162.429412,888.247130,-7507.735880,-666.185348
4162.429736,4293.194464,-6818.249932,-666.185348
4162.430060,5477.523971,-7277.907231,-444.123565
4162.430384,6143.709319,-7431.126331,-592.164754
4162.430709,4811.338623,-7431.126331,0.000000
4162.431033,2294.638420,-8963.317327,518.144159
4162.431357,0.000000,-9729.412825,-592.164754
4162.431682,-2442.679609,-9959.241474,74.020594
4162.432006,-3775.050304,-10189.070123,-814.226536
4162.432330,-4293.194464,-9806.022374,-518.144159
4162.432655,-2368.659014,-8503.660028,-1184.329507
4162.432979,370.102971,-8197.221829,-518.144159
4162.433303,4145.153275,-7277.907231,-666.185348
4162.433628,5403.503377,-7737.564530,-148.041188
4162.433952,6513.812290,-7431.126331,-592.164754
4162.434276,5625.565159,-8044.002729,-592.164754
4162.434600,2368.659014,-8963.317327,0.000000
4162.434925,-814.226536,-9729.412825,666.185348
4162.435249,-2442.679609,-9882.631924,74.020594
4162.435573,-3775.050304,-10648.727422,-296.082377
4162.435898,-4071.132681,-9346.365076,-518.144159
4162.436222,-2072.576638,-8427.050478,-592.164754
4162.436546,-814.226536,-7737.564530,-1258.350101
4162.436871,2516.700203,-7354.516781,-1036.288319
4162.437195,5625.565159,-8120.612279,-518.144159
4162.437519,5773.606348,-6894.859482,-1406.391290
4162.437843,5477.523971,-9499.584175,592.164754
4162.438168,3182.885551,-7660.954980,-1036.288319
4162.438492,740.205942,-9882.631924,592.164754
4162.438816,-1924.535449,-10418.898773,-666.185348
4162.439141,-4071.132681,-9652.803275,-444.123565
4162.439465,-4737.318029,-9729.412825,0.000000
4162.439789,-3997.112087,-9346.365076,-444.123565
4162.440113,-814.226536,-8580.269578,-666.185348
4162.440438,1776.494261,-7354.516781,-740.205942
4162.440762,4145.153275,-7814.174080,-296.082377
4162.441086,6069.688724,-7507.735880,-740.205942
4162.441411,5329.482782,-8350.440928,-740.205942
4162.441735,3182.885551,-9039.926876,0.000000
4162.442059,740.205942,-8580.269578,0.000000
4162.442383,-2368.659014,-10112.460574,-296.082377
4162.442708,-4737.318029,-10418.898773,444.123565
4162.443032,-5921.647536,-9193.145976,-296.082377
4162.443356,-4071.132681,-9116.536426,-740.205942
4162.443680,-2590.720797,-7890.783629,-1184.329507
4162.444005,1110.308913,-7431.126331,-518.144159
4162.444329,2960.823768,-7354.516781,-740.205942
4162.444653,5551.544565,-7354.516781,-740.205942
4162.444978,4737.318029,-8197.221829,74.020594
4162.445302,3256.906145,-7660.954980,-370.102971
4162.445626,962.267725,-9422.974625,-222.061783
4162.445950,-1554.432478,-10418.898773,0.000000
4162.446275,-4515.256246,-10265.679673,1184.329507
4162.446599,-4959.379811,-9346.365076,-962.267725
4162.446923,-5181.441594,-9806.022374,370.102971
4162.447248,-2146.597232,-7354.516781,0.000000
4162.447572,814.226536,-7048.078582,-296.082377
4162.447896,4663.297435,-7354.516781,-148.041188
4162.448220,6365.771101,-6818.249932,0.000000
4162.448545,5699.585753,-8197.221829,-296.082377
4162.448869,3701.029710,-8350.440928,148.041188
4162.449193,1628.453072,-8886.707777,148.041188
4162.449517,-1998.556043,-9652.803275,0.000000
4162.449842,-3701.029710,-9806.022374,740.205942
4162.450166,-6365.771101,-9346.365076,-222.061783
4162.450490,-5773.606348,-9269.755526,-1036.288319
4162.450815,-3182.885551,-8656.879127,-518.144159
4162.451139,-444.123565,-7354.516781,-296.082377
4162.451463,4663.297435,-6435.202183,-962.267725
4162.451787,5921.647536,-7660.954980,0.000000
4162.452112,6291.750507,-6281.983084,-888.247130
4162.452436,5181.441594,-7507.735880,-222.061783
4162.452760,2368.659014,-9882.631924,-666.185348
4162.453085,-148.041188,-9193.145976,0.000000
4162.453409,-2960.823768,-10265.679673,222.061783
4162.453733,-4737.318029,-10495.508323,-592.164754
4162.454057,-3849.070898,-8963.317327,-148.041188
4162.454382,-2516.700203,-8197.221829,-962.267725
4162.454706,592.164754,-7890.783629,-740.205942
4162.455030,3256.906145,-6358.592633,-888.247130
4162.455355,6513.812290,-7660.954980,0.000000
4162.455679,6217.729913,-6971.469032,-666.185348
4162.456003,5477.523971,-8656.879127,0.000000
4162.456327,3034.844362,-8503.660028,-1258.350101
4162.456652,-296.082377,-9882.631924,74.020594
4162.456976,-3256.906145,-10112.460574,-444.123565
4162.457300,-5477.523971,-10648.727422,-666.185348
4162.457624,-4663.297435,-9269.755526,0.000000
4162.457949,-4367.215058,-8273.831378,-296.082377
4162.458273,-666.185348,-7737.564530,-666.185348
4162.458597,2072.576638,-6665.030833,-1332.370696
4162.458922,5773.606348,-7967.393179,-518.144159
4162.459246,6143.709319,-7354.516781,-1184.329507
4162.459570,5625.565159,-8580.269578,-592.164754
4162.459894,2960.823768,-8197.221829,-962.267725
4162.460219,814.226536,-9499.584175,-148.041188
4162.460543,-2294.638420,-9806.022374,0.000000
4162.460867,-4663.297435,-10572.117872,74.020594
4162.461192,-4737.318029,-9422.974625,0.000000
4162.461516,-3627.009116,-9193.145976,-222.061783
4162.461840,-666.185348,-8044.002729,-1406.391290
4162.462164,2442.679609,-7354.516781,-1110.308913
4162.462489,5477.523971,-7354.516781,0.000000
4162.462813,7105.977043,-6971.469032,-518.144159
4162.463137,5699.585753,-8427.050478,0.000000
4162.463462,3775.050304,-9039.926876,-962.267725
4162.463786,-222.061783,-9193.145976,0.000000
4162.464110,-2738.761985,-10648.727422,-518.144159
4162.464434,-5181.441594,-10035.851024,0.000000
4162.464759,-5847.626942,-9422.974625,-296.082377
4162.465083,-5255.462188,-9729.412825,-666.185348
4162.465407,-2442.679609,-8120.612279,-370.102971
4162.465731,962.267725,-7354.516781,0.000000
4162.466056,4441.235652,-6971.469032,-814.226536
4162.466380,6439.791695,-7201.297681,-370.102971
4162.466704,5921.647536,-7354.516781,-296.082377
4162.467029,5107.421000,-7967.393179,-296.082377
4162.467353,2294.638420,-8886.707777,-296.082377
4162.467677,-1184.329507,-10342.289223,148.041188
4162.468001,-3701.029710,-9806.022374,370.102971
4162.468326,-5699.585753,-10342.289223,-148.041188
4162.468650,-5847.626942,-9576.193725,-592.164754
4162.468974,-3478.967927,-8350.440928,-222.061783
4162.469299,-518.144159,-7201.297681,-518.144159
4162.469623,2886.803174,-7354.516781,0.000000
4162.469947,6365.771101,-6971.469032,-296.082377
4162.470271,7254.018232,-7737.564530,-222.061783
4162.470596,5847.626942,-8580.269578,-592.164754
4162.470920,2960.823768,-9039.926876,148.041188
4162.471244,-814.226536,-9576.193725,370.102971
4162.471568,-3552.988522,-10112.460574,592.164754
4162.471893,-5995.668130,-10342.289223,0.000000
4162.472217,-7105.977043,-9652.803275,74.020594
4162.472541,-5551.544565,-8197.221829,-666.185348
4162.472866,-1776.494261,-8044.002729,222.061783
4162.473190,1702.473667,-7124.688131,-1258.350101
4162.473514,5847.626942,-7507.735880,-148.041188
4162.473838,6365.771101,-6358.592633,-444.123565
4162.474163,6587.832884,-8120.612279,-222.061783
4162.474487,4885.359217,-9116.536426,-222.061783
4162.474811,1924.535449,-8963.317327,444.123565
4162.475136,-888.247130,-10418.898773,0.000000
4162.475460,-3627.009116,-10265.679673,-814.226536
4162.475784,-4737.318029,-10112.460574,-296.082377
4162.476108,-4515.256246,-8580.269578,-444.123565
4162.476433,-1628.453072,-7737.564530,-444.123565
4162.476757,1406.391290,-7584.345430,-814.226536
4162.477081,3997.112087,-7048.078582,-1036.288319
4162.477406,6069.688724,-7584.345430,148.041188
4162.477730,6217.729913,-7967.393179,-1110.308913
4162.478054,4071.132681,-8810.098227,-814.226536
4162.478378,1406.391290,-9652.803275,-444.123565
4162.478703,-2368.659014,-9729.412825,-370.102971
4162.479027,-4663.297435,-10342.289223,0.000000
4162.479351,-5773.606348,-9806.022374,-962.267725
4162.479675,-4663.297435,-9882.631924,0.000000
4162.480000,-3034.844362,-7354.516781,-1332.370696
4162.480324,1332.370696,-7660.954980,-592.164754
4162.480648,4663.297435,-6818.249932,-1332.370696
4162.480973,6143.709319,-7584.345430,-444.123565
4162.481297,6587.832884,-7354.516781,-1036.288319
4162.481621,5033.400406,-8810.098227,0.000000
4162.481945,1776.494261,-8733.488677,-962.267725
4162.482270,74.020594,-9959.241474,74.020594
4162.482594,-3627.009116,-9959.241474,-148.041188
4162.482918,-5255.462188,-10112.460574,-740.205942
4162.483243,-4367.215058,-9499.584175,0.000000
4162.483567,-3034.844362,-7737.564530,-740.205942
4162.483891,1110.308913,-7660.954980,-518.144159
4162.484215,3923.091493,-6435.202183,-740.205942
4162.484540,6957.935855,-7660.954980,-148.041188
4162.484864,6513.812290,-7890.783629,-888.247130
4162.485188,4737.318029,-8580.269578,-74.020594
4162.485512,2590.720797,-9039.926876,-296.082377
4162.485837,-962.267725,-10189.070123,888.247130
4162.486161,-3923.091493,-10418.898773,592.164754
4162.486485,-5181.441594,-9729.412825,-222.061783
4162.486810,-5847.626942,-9499.584175,-370.102971
4162.487134,-4145.153275,-7967.393179,-740.205942
4162.487458,-1924.535449,-7201.297681,-444.123565
4162.487782,3182.885551,-7354.516781,-1110.308913
4162.488107,4367.215058,-6588.421283,-370.102971
4162.488431,5699.585753,-7354.516781,-518.144159
4162.488755,6365.771101,-7814.174080,-296.082377
4162.489080,3330.926739,-9193.145976,-222.061783
4162.489404,0.000000,-9729.412825,592.164754
4162.489728,-2146.597232,-10418.898773,148.041188
4162.490052,-4885.359217,-10725.336972,1110.308913
4162.490377,-4663.297435,-9652.803275,444.123565
4162.490701,-3552.988522,-7890.783629,-444.123565
4162.491025,-1628.453072,-7737.564530,-222.061783
4162.491350,2664.741391,-6741.640382,-888.247130
4162.491674,4885.359217,-7354.516781,0.000000
4162.491998,6365.771101,-7201.297681,-444.123565
4162.492322,6069.688724,-8273.831378,148.041188
4162.492647,3478.967927,-8656.879127,-592.164754
4162.492971,-370.102971,-9116.536426,814.226536
4162.493295,-3330.926739,-10418.898773,370.102971
4162.493619,-5107.421000,-10725.336972,1110.308913
4162.493944,-6291.750507,-9269.755526,-592.164754
4162.494268,-5329.482782,-9652.803275,0.000000
4162.494592,-3478.967927,-7354.516781,-814.226536
4162.494917,1258.350101,-7277.907231,-518.144159
4162.495241,4737.318029,-6588.421283,-888.247130
4162.495565,5699.585753,-7431.126331,-296.082377
4162.495889,7031.956449,-7584.345430,-740.205942
4162.496214,4367.215058,-8197.221829,-888.247130
4162.496538,2368.659014,-10265.679673,-222.061783
4162.496862,-1406.391290,-9882.631924,370.102971
4162.497187,-3404.947333,-10342.289223,888.247130
4162.497511,-4885.359217,-9959.241474,-444.123565
4162.497835,-4293.194464,-9806.022374,148.041188
4162.498159,-2220.617826,-7354.516781,-1258.350101
4162.498484,666.185348,-7660.954980,-1036.288319
4162.498808,4219.173869,-6741.640382,-888.247130
4162.499132,6365.771101,-7354.516781,-444.123565
4162.499456,5995.668130,-7737.564530,-1850.514855
4162.499781,4737.318029,-9346.365076,-74.020594
4162.500105,814.226536,-8197.221829,-370.102971
4162.500429,-1776.494261,-11261.603821,592.164754
4162.500754,-4293.194464,-10495.508323,-74.020594
4162.501078,-6735.874072,-10342.289223,-222.061783
4162.501402,-4663.297435,-9729.412825,0.000000
4162.501726,-4441.235652,-7737.564530,-740.205942
4162.502051,-148.041188,-7584.345430,-740.205942
4162.502375,2960.823768,-6665.030833,-1258.350101
4162.502699,5921.647536,-7584.345430,-518.144159
4162.503024,6439.791695,-7431.126331,-666.185348
4162.503348,5181.441594,-7737.564530,-518.144159
4162.503672,3256.906145,-8810.098227,-740.205942
4162.503996,-592.164754,-10189.070123,740.205942
4162.504321,-2960.823768,-9422.974625,666.185348
4162.504645,-3997.112087,-11031.775171,296.082377
4162.504969,-4515.256246,-9729.412825,-962.267725
4162.505294,-2368.659014,-8350.440928,222.061783
4162.505618,1258.350101,-7354.516781,-518.144159
4162.505942,3182.885551,-6818.249932,-370.102971
4162.506266,6513.812290,-6358.592633,-518.144159
4162.506591,7031.956449,-6818.249932,-592.164754
4162.506915,6291.750507,-8886.707777,-592.164754
4162.507239,3182.885551,-8503.660028,-814.226536
4162.507563,-148.041188,-9576.193725,148.041188
4162.507888,-4367.215058,-9729.412825,296.082377
4162.508212,-5551.544565,-11031.775171,518.144159
4162.508536,-5477.523971,-9806.022374,0.000000
4162.508861,-4885.359217,-8886.707777,74.020594
4162.509185,-2368.659014,-7354.516781,-370.102971
4162.509509,1998.556043,-6741.640382,-296.082377
4162.509833,5773.606348,-7048.078582,-1110.308913
4162.510158,7402.059420,-7124.688131,-888.247130
4162.510482,5995.668130,-7507.735880,-370.102971
4162.510806,4737.318029,-8120.612279,-370.102971
4162.511131,592.164754,-9422.974625,-296.082377
4162.511455,-1332.370696,-10648.727422,74.020594
4162.511779,-5403.503377,-10112.460574,592.164754
4162.512103,-4737.318029,-9269.755526,296.082377
4162.512428,-5329.482782,-9346.365076,814.226536
4162.512752,-962.267725,-7737.564530,-222.061783
4162.513076,1480.411884,-7201.297681,-518.144159
4162.513400,4959.379811,-7277.907231,-666.185348
4162.513725,5995.668130,-7354.516781,-592.164754
4162.514049,6735.874072,-7277.907231,-888.247130
4162.514373,3775.050304,-8656.879127,-814.226536
4162.514698,2442.679609,-9039.926876,0.000000
4162.515022,-2516.700203,-9346.365076,-222.061783
4162.515346,-4885.359217,-11951.089769,1184.329507
4162.515670,-6365.771101,-9499.584175,-592.164754
4162.515995,-7031.956449,-9806.022374,444.123565
4162.516319,-4219.173869,-8273.831378,-370.102971
4162.516643,0.000000,-7354.516781,-666.185348
4162.516968,3034.844362,-6971.469032,-1258.350101
4162.517292,5921.647536,-7277.907231,-666.185348
4162.517616,6143.709319,-6741.640382,-1480.411884
4162.517940,5181.441594,-8810.098227,-962.267725
4162.518265,2442.679609,-8197.221829,-740.205942
4162.518589,-222.061783,-10265.679673,666.185348
4162.518913,-3478.967927,-10112.460574,-666.185348
4162.519238,-4737.318029,-10955.165621,814.226536
4162.519562,-5033.400406,-9806.022374,-148.041188
4162.519886,-3478.967927,-8120.612279,296.082377
4162.520210,0.000000,-7354.516781,-666.185348
4162.520535,3034.844362,-6971.469032,-888.247130
4162.520859,5995.668130,-7507.735880,-666.185348
4162.521183,6587.832884,-6511.811733,-962.267725
4162.521507,5403.503377,-8350.440928,-962.267725
4162.521832,3108.864956,-8120.612279,-1036.288319
4162.522156,-370.102971,-9806.022374,0.000000
4162.522480,-2812.782580,-10189.070123,148.041188
4162.522805,-4885.359217,-10495.508323,814.226536
4162.523129,-5403.503377,-9882.631924,0.000000
4162.523453,-5033.400406,-8503.660028,74.020594
4162.523777,-814.226536,-8120.612279,-222.061783
4162.524102,2294.638420,-6435.202183,-370.102971
4162.524426,4885.359217,-7277.907231,-592.164754
4162.524750,5995.668130,-6894.859482,-1332.370696
4162.525075,5329.482782,-8733.488677,-1184.329507
4162.525399,3849.070898,-8197.221829,-814.226536
4162.525723,1036.288319,-9499.584175,814.226536
4162.526047,-1776.494261,-9116.536426,592.164754
4162.526372,-3034.844362,-10801.946522,888.247130
4162.526696,-3256.906145,-9193.145976,0.000000
4162.527020,-3775.050304,-9039.926876,592.164754
4162.527344,-814.226536,-7584.345430,0.000000
4162.527669,2146.597232,-6894.859482,-370.102971
4162.527993,5773.606348,-7124.688131,-740.205942
4162.528317,6735.874072,-7048.078582,-814.226536
4162.528642,5477.523971,-8273.831378,-1406.391290
4162.528966,3849.070898,-7890.783629,-666.185348
4162.529290,518.144159,-9806.022374,74.020594
4162.529614,-2886.803174,-9806.022374,296.082377
4162.529939,-5403.503377,-10342.289223,962.267725
4162.530263,-5625.565159,-9806.022374,0.000000
4162.530587,-5255.462188,-8886.707777,0.000000
4162.530912,-2812.782580,-7737.564530,222.061783
4162.531236,1628.453072,-7354.516781,-370.102971
4162.531560,5255.462188,-7354.516781,-1702.473667
4162.531884,5403.503377,-7201.297681,-1036.288319
4162.532209,6365.771101,-8044.002729,-814.226536
4162.532533,3256.906145,-7890.783629,-1258.350101
4162.532857,1480.411884,-9806.022374,888.247130
4162.533182,-1480.411884,-9116.536426,0.000000
4162.533506,-3552.988522,-11261.603821,740.205942
4162.533830,-4885.359217,-9269.755526,-370.102971
4162.534154,-3627.009116,-10189.070123,296.082377
4162.534479,-2294.638420,-7354.516781,-518.144159
4162.534803,222.061783,-7890.783629,148.041188
4162.535127,4663.297435,-7277.907231,-962.267725
4162.535451,5847.626942,-7584.345430,-1332.370696
4162.535776,5847.626942,-7660.954980,-1258.350101
4162.536100,4219.173869,-8810.098227,-518.144159
4162.536424,888.247130,-8350.440928,-962.267725
4162.536749,-2590.720797,-9959.241474,518.144159
4162.537073,-4959.379811,-9806.022374,0.000000
4162.537397,-5699.585753,-10495.508323,814.226536
4162.537721,-5403.503377,-9499.584175,-518.144159
4162.538046,-3923.091493,-8656.879127,74.020594
4162.538370,0.000000,-6818.249932,-518.144159
4162.538695,3330.926739,-7507.735880,-518.144159
4162.539019,6291.750507,-7124.688131,-1184.329507
4162.539343,5995.668130,-7431.126331,-1480.411884
4162.539668,5847.626942,-8580.269578,-814.226536
4162.539992,2812.782580,-8427.050478,-518.144159
4162.540316,-518.144159,-10418.898773,0.000000
4162.540641,-2368.659014,-9959.241474,222.061783
4162.540965,-4293.194464,-10189.070123,-296.082377
4162.541289,-5255.462188,-9806.022374,518.144159
4162.541614,-3256.906145,-7890.783629,-296.082377
4162.541938,-1110.308913,-8120.612279,444.123565
4162.542262,2294.638420,-7048.078582,-962.267725
4162.542587,5403.503377,-7201.297681,-296.082377
4162.542911,7105.977043,-6971.469032,-1924.535449
4162.543235,5625.565159,-8273.831378,-1036.288319
4162.543560,3034.844362,-8350.440928,-1332.370696
4162.543884,518.144159,-10035.851024,814.226536
4162.544208,-2812.782580,-10189.070123,0.000000
4162.544533,-4737.318029,-10801.946522,296.082377
4162.544857,-5403.503377,-9346.365076,74.020594
4162.545181,-5181.441594,-7890.783629,222.061783
4162.545506,-1850.514855,-8120.612279,0.000000
4162.545830,1702.473667,-6665.030833,-814.226536
4162.546154,5995.668130,-7507.735880,-740.205942
4162.546479,6587.832884,-6818.249932,-1628.453072
4162.546803,6217.729913,-8044.002729,-370.102971
4162.547128,4663.297435,-7967.393179,-1184.329507
4162.547452,1628.453072,-9806.022374,74.020594
4162.547776,-1628.453072,-9806.022374,444.123565
4162.548101,-3923.091493,-9499.584175,1036.288319
4162.548425,-4811.338623,-9806.022374,148.041188
4162.548749,-3849.070898,-9576.193725,-148.041188
4162.549074,-1702.473667,-8656.879127,-296.082377
4162.549398,1628.453072,-6818.249932,-814.226536
4162.549722,4663.297435,-7277.907231,148.041188
4162.550047,6809.894666,-7354.516781,-1332.370696
4162.550371,6439.791695,-7354.516781,-888.247130
4162.550695,4811.338623,-8350.440928,-1258.350101
4162.551020,1776.494261,-9269.755526,0.000000
4162.551344,-1184.329507,-9729.412825,-592.164754
4162.551668,-4441.235652,-10801.946522,444.123565
4162.551993,-4885.359217,-9193.145976,444.123565
4162.552317,-6291.750507,-9039.926876,222.061783
4162.552641,-4737.318029,-8273.831378,-148.041188
4162.552966,148.041188,-7507.735880,-222.061783
4162.553290,3552.988522,-7048.078582,-1480.411884
4162.553614,6291.750507,-7507.735880,-1480.411884
4162.553939,5773.606348,-6818.249932,-1480.411884
4162.554263,4293.194464,-8273.831378,-666.185348
4162.554587,1924.535449,-8580.269578,-1332.370696
4162.554912,-888.247130,-10955.165621,222.061783
4162.555236,-2442.679609,-9806.022374,-444.123565
4162.555561,-4885.359217,-9959.241474,888.247130
4162.555885,-4441.235652,-9116.536426,-370.102971
4162.556209,-3182.885551,-9116.536426,666.185348
4162.556534,2590.720797,-6665.030833,592.164754
4162.556858,888.247130,-7584.345430,-1480.411884
4162.557182,6069.688724,-7354.516781,-740.205942
4162.557507,4663.297435,-6971.469032,-814.226536
4162.557831,5477.523971,-8197.221829,-1776.494261
4162.558155,2590.720797,-8656.879127,-592.164754
4162.558480,-592.164754,-9806.022374,-370.102971
4162.558804,-4219.173869,-9806.022374,814.226536
4162.559128,-5625.565159,-9806.022374,0.000000
4162.559453,-6661.853478,-10112.460574,518.144159
4162.559777,-5773.606348,-8503.660028,0.000000
4162.560101,-1702.473667,-8120.612279,-370.102971
4162.560426,1554.432478,-7890.783629,-518.144159
4162.560750,6365.771101,-5592.497135,-1036.288319
4162.561074,6735.874072,-7967.393179,-1184.329507
4162.561399,4737.318029,-7737.564530,-1258.350101
4162.561723,3404.947333,-8656.879127,-148.041188
4162.562047,518.144159,-8963.317327,0.000000
4162.562372,-2146.597232,-9959.241474,1258.350101
4162.562696,-4367.215058,-10112.460574,0.000000
4162.563020,-5477.523971,-9729.412825,-666.185348
4162.563345,-4071.132681,-9806.022374,518.144159
4162.563669,-2368.659014,-7354.516781,-148.041188
4162.563993,2960.823768,-7354.516781,444.123565
4162.564318,4515.256246,-6971.469032,-592.164754
4162.564642,6143.709319,-7277.907231,-296.082377
4162.564967,6809.894666,-6894.859482,-1850.514855
4162.565291,4959.379811,-9116.536426,-296.082377
4162.565615,1554.432478,-8886.707777,-296.082377
4162.565940,-1850.514855,-9806.022374,0.000000
4162.566264,-3256.906145,-11031.775171,740.205942
4162.566588,-6809.894666,-9499.584175,888.247130
4162.566913,-6069.688724,-9039.926876,222.061783
4162.567237,-3627.009116,-8120.612279,-370.102971
4162.567561,592.164754,-7201.297681,518.144159
4162.567886,4589.276840,-6894.859482,-814.226536
4162.568210,6439.791695,-7584.345430,-444.123565
4162.568534,5921.647536,-6971.469032,-1036.288319
4162.568859,4959.379811,-8963.317327,-1184.329507
4162.569183,2368.659014,-9116.536426,-962.267725
4162.569507,0.000000,-10572.117872,370.102971
4162.569832,-2516.700203,-9346.365076,0.000000
4162.570156,-5181.441594,-10112.460574,666.185348
4162.570480,-5699.585753,-9193.145976,-592.164754
4162.570805,-3627.009116,-8886.707777,814.226536
4162.571129,0.000000,-6894.859482,-444.123565
4162.571453,3849.070898,-7737.564530,-296.082377
4162.571778,6809.894666,-7277.907231,-1110.308913
4162.572102,6735.874072,-7584.345430,-1702.473667
4162.572426,5625.565159,-7737.564530,-1998.556043
4162.572751,2664.741391,-9193.145976,-370.102971
4162.573075,-962.267725,-9652.803275,-740.205942
4162.573400,-3923.091493,-10495.508323,296.082377
4162.573724,-5699.585753,-9882.631924,-370.102971
4162.574048,-6291.750507,-10265.679673,0.000000
4162.574373,-5033.400406,-8197.221829,-888.247130
4162.574697,-1554.432478,-8503.660028,74.020594
4162.575021,2664.741391,-7354.516781,-888.247130
4162.575346,6217.729913,-8120.612279,-740.205942
4162.575670,6957.935855,-6971.469032,-2072.576638
4162.575994,4737.318029,-8273.831378,-888.247130
4162.576319,2664.741391,-8273.831378,-1258.350101
4162.576643,1110.308913,-11031.775171,0.000000
4162.576967,-1480.411884,-9576.193725,-148.041188
4162.577292,-4737.318029,-10572.117872,444.123565
4162.577616,-4811.338623,-9269.755526,-222.061783
4162.577940,-4145.153275,-9729.412825,888.247130
4162.578265,-1110.308913,-7737.564530,-666.185348
4162.578589,1776.494261,-7431.126331,0.000000
4162.578913,5995.668130,-6894.859482,0.000000
4162.579238,6439.791695,-7967.393179,-1850.514855
4162.579562,5699.585753,-7967.393179,-666.185348
4162.579886,2738.761985,-8044.002729,-592.164754
4162.580211,518.144159,-9499.584175,-296.082377
4162.580535,-2368.659014,-10572.117872,74.020594
4162.580859,-3997.112087,-10112.460574,518.144159
4162.581184,-5403.503377,-9652.803275,814.226536
4162.581508,-5477.523971,-8963.317327,740.205942
4162.581833,-2368.659014,-8273.831378,0.000000
4162.582157,666.185348,-7048.078582,0.000000
4162.582481,4145.153275,-6894.859482,-666.185348
4162.582806,6069.688724,-7354.516781,-888.247130
4162.583130,5477.523971,-7507.735880,-592.164754
4162.583454,3701.029710,-8273.831378,-1406.391290
4162.583779,1258.350101,-8963.317327,-444.123565
4162.584103,-888.247130,-9039.926876,592.164754
4162.584427,-3478.967927,-9576.193725,888.247130
4162.584752,-4219.173869,-9882.631924,370.102971
4162.585076,-4515.256246,-9806.022374,370.102971
4162.585400,-2368.659014,-8503.660028,0.000000
4162.585725,2146.597232,-7277.907231,148.041188
4162.586049,4219.173869,-7354.516781,0.000000
4162.586373,6291.750507,-7737.564530,-222.061783
4162.586698,5847.626942,-7124.688131,-1554.432478
4162.587022,3404.947333,-8197.221829,-370.102971
4162.587346,1184.329507,-7737.564530,-296.082377
4162.587671,-814.226536,-9729.412825,-444.123565
4162.587995,-3627.009116,-10725.336972,0.000000
4162.588319,-5847.626942,-9422.974625,296.082377
4162.588644,-6069.688724,-9346.365076,222.061783
4162.588968,-3923.091493,-8810.098227,-444.123565
4162.589292,0.000000,-8580.269578,222.061783
4162.589617,2738.761985,-6971.469032,-1110.308913
4162.589941,5403.503377,-7584.345430,-592.164754
4162.590265,6439.791695,-7354.516781,-1406.391290
4162.590590,4885.359217,-8810.098227,-370.102971
4162.590914,2960.823768,-8503.660028,-1850.514855
4162.591239,-148.041188,-9576.193725,0.000000
4162.591563,-2738.761985,-10035.851024,0.000000
4162.591887,-4293.194464,-11108.384721,666.185348
4162.592212,-4811.338623,-9652.803275,-222.061783
4162.592536,-4145.153275,-9806.022374,74.020594
4162.592860,0.000000,-7737.564530,-666.185348
4162.593185,2812.782580,-7814.174080,-370.102971
4162.593509,6069.688724,-6665.030833,-666.185348
4162.593833,6069.688724,-7660.954980,-888.247130
4162.594158,5329.482782,-8503.660028,-1184.329507
4162.594482,2738.761985,-7737.564530,-666.185348
4162.594806,-296.082377,-9346.365076,-814.226536
4162.595131,-2738.761985,-10112.460574,-814.226536
4162.595455,-5255.462188,-9806.022374,74.020594
4162.595779,-5625.565159,-10112.460574,74.020594
4162.596104,-4959.379811,-9269.755526,0.000000
4162.596428,-2516.700203,-8580.269578,0.000000
4162.596752,1480.411884,-7431.126331,-296.082377
4162.597077,4515.256246,-7660.954980,-592.164754
4162.597401,5995.668130,-7354.516781,-1924.535449
4162.597725,4737.318029,-8044.002729,-888.247130
4162.598050,4219.173869,-7890.783629,-1554.432478
4162.598374,1406.391290,-9806.022374,-148.041188
4162.598698,-1184.329507,-8963.317327,-444.123565
4162.599023,-3552.988522,-10418.898773,74.020594
4162.599347,-5033.400406,-9039.926876,-222.061783
4162.599672,-3404.947333,-9576.193725,666.185348
4162.599996,-1184.329507,-7737.564530,-148.041188
4162.600320,1628.453072,-7890.783629,74.020594
4162.600645,4885.359217,-6971.469032,-444.123565
4162.600969,5921.647536,-7890.783629,-666.185348
4162.601293,6365.771101,-7584.345430,-962.267725
4162.601618,3849.070898,-8273.831378,-814.226536
4162.601942,592.164754,-8427.050478,-444.123565
4162.602266,-666.185348,-9499.584175,0.000000
4162.602591,-4737.318029,-10265.679673,814.226536
4162.602915,-5033.400406,-9269.755526,0.000000
4162.603239,-3627.009116,-8886.707777,518.144159
4162.603564,-2960.823768,-8197.221829,-296.082377
4162.603888,1036.288319,-9116.536426,666.185348
4162.604212,3849.070898,-6358.592633,-1184.329507
4162.604537,5773.606348,-8733.488677,222.061783
4162.604861,5255.462188,-6435.202183,-1480.411884
4162.605185,4219.173869,-8733.488677,-666.185348
4162.605510,1850.514855,-8733.488677,-962.267725
4162.605834,-666.185348,-9959.241474,0.000000
4162.606158,-2368.659014,-9499.584175,74.020594
4162.606483,-4811.338623,-9652.803275,592.164754
4162.606807,-4071.132681,-9269.755526,222.061783
4162.607131,-2294.638420,-9346.365076,444.123565
4162.607456,222.061783,-7890.783629,-814.226536
4162.607780,2960.823768,-8197.221829,222.061783
4162.608105,5477.523971,-6894.859482,-962.267725
4162.608429,6143.709319,-7967.393179,-1110.308913
4162.608753,4145.153275,-8273.831378,-1554.432478
4162.609078,2146.597232,-8427.050478,-814.226536
4162.609402,-1332.370696,-9116.536426,-592.164754
4162.609726,-4071.132681,-10189.070123,222.061783
4162.610051,-5551.544565,-9806.022374,-592.164754
4162.610375,-5477.523971,-10035.851024,296.082377
4162.610699,-4737.318029,-8656.879127,-1036.288319
4162.611024,-444.123565,-8427.050478,296.082377
4162.611348,2072.576638,-7124.688131,-666.185348
4162.611672,5329.482782,-7967.393179,-814.226536
4162.611997,6217.729913,-6894.859482,-1850.514855
4162.612321,4737.318029,-9039.926876,-1332.370696
4162.612645,3256.906145,-8044.002729,-1480.411884
4162.612970,-370.102971,-9576.193725,-666.185348
4162.613294,-2146.597232,-9882.631924,-814.226536
4162.613618,-5181.441594,-10112.460574,296.082377
4162.613943,-5403.503377,-9193.145976,-444.123565
4162.614267,-4811.338623,-10189.070123,962.267725
4162.614591,-1332.370696,-8044.002729,-888.247130
4162.614916,1628.453072,-8503.660028,444.123565
4162.615240,5255.462188,-6511.811733,-1110.308913
4162.615564,6809.894666,-8273.831378,-1628.453072
4162.615889,5847.626942,-8120.612279,-1776.494261
4162.616213,4589.276840,-8273.831378,-296.082377
4162.616537,-370.102971,-8580.269578,-740.205942
4162.616862,-1258.350101,-10265.679673,74.020594
4162.617186,-4737.318029,-9039.926876,-444.123565
4162.617511,-5329.482782,-10572.117872,1924.535449
4162.617835,-5329.482782,-8120.612279,-296.082377
4162.618159,-2886.803174,-9422.974625,1036.288319
4162.618484,444.123565,-6818.249932,-962.267725
4162.618808,3552.988522,-7967.393179,666.185348
4162.619132,6661.853478,-7124.688131,-1924.535449
4162.619457,6735.874072,-7354.516781,148.041188
4162.619781,4737.318029,-7660.954980,-444.123565
4162.620105,3108.864956,-8733.488677,-814.226536
4162.620430,-740.205942,-9652.803275,-296.082377
4162.620754,-2960.823768,-9422.974625,-444.123565
4162.621078,-5329.482782,-9806.022374,740.205942
4162.621403,-4737.318029,-9499.584175,666.185348
4162.621727,-2886.803174,-9193.145976,518.144159
4162.622051,1110.308913,-7354.516781,222.061783
4162.622376,3552.988522,-7354.516781,0.000000
4162.622700,6587.832884,-7277.907231,-296.082377
4162.623024,6883.915261,-7431.126331,-518.144159
4162.623349,5403.503377,-8350.440928,-962.267725
4162.623673,2442.679609,-8350.440928,-740.205942
4162.623997,-222.061783,-8810.098227,0.000000
4162.624322,-3404.947333,-10265.679673,0.000000
4162.624646,-6143.709319,-9422.974625,74.020594
4162.624970,-5625.565159,-10112.460574,1258.350101
4162.625295,-3256.906145,-7814.174080,222.061783
4162.625619,-1850.514855,-8886.707777,-222.061783
4162.625944,3627.009116,-7354.516781,-296.082377
4162.626268,4959.379811,-7507.735880,-888.247130
4162.626592,5551.544565,-7890.783629,-962.267725
4162.626917,5181.441594,-9039.926876,-1554.432478
4162.627241,1924.535449,-8044.002729,-1554.432478
4162.627565,518.144159,-9346.365076,222.061783
4162.627890,-2220.617826,-9499.584175,-1332.370696
4162.628214,-3330.926739,-10265.679673,222.061783
4162.628538,-4811.338623,-8580.269578,296.082377
4162.628863,-3923.091493,-9729.412825,222.061783
4162.629187,-814.226536,-8503.660028,0.000000
4162.629511,3034.844362,-8044.002729,0.000000
4162.629836,4737.318029,-7660.954980,-962.267725
4162.630160,5625.565159,-7354.516781,-1184.329507
4162.630484,4589.276840,-7814.174080,-1998.556043
4162.630809,3182.885551,-9729.412825,-1036.288319
4162.631133,740.205942,-8810.098227,-1110.308913
4162.631457,-3034.844362,-9039.926876,-592.164754
4162.631782,-4441.235652,-9729.412825,-148.041188
4162.632106,-5329.482782,-10112.460574,0.000000
4162.632430,-5995.668130,-9959.241474,592.164754
4162.632755,-3330.926739,-7048.078582,-1184.329507
4162.633079,666.185348,-9039.926876,518.144159
4162.633403,4367.215058,-6358.592633,-1554.432478
4162.633728,6513.812290,-7967.393179,-740.205942
4162.634052,4663.297435,-8044.002729,-1480.411884
4162.634377,3330.926739,-8503.660028,-222.061783
4162.634701,1554.432478,-8503.660028,-1184.329507
4162.635025,-888.247130,-9806.022374,296.082377
4162.635350,-3552.988522,-9576.193725,0.000000
4162.635674,-5107.421000,-9422.974625,592.164754
4162.635998,-4219.173869,-8963.317327,296.082377
4162.636323,-2146.597232,-8350.440928,0.000000
4162.636647,1258.350101,-7737.564530,-296.082377
4162.636971,3849.070898,-7048.078582,148.041188
4162.637296,6661.853478,-7890.783629,0.000000
4162.637620,5921.647536,-6665.030833,-888.247130
4162.637944,5181.441594,-8963.317327,-370.102971
4162.638269,2220.617826,-8503.660028,-444.123565
4162.638593,-518.144159,-8810.098227,-444.123565
4162.638917,-4071.132681,-9882.631924,0.000000
4162.639242,-4441.235652,-10035.851024,74.020594
4162.639566,-5847.626942,-9039.926876,370.102971
4162.639890,-4219.173869,-8350.440928,0.000000
4162.640215,-666.185348,-7890.783629,1332.370696
4162.640539,2368.659014,-7431.126331,0.000000
4162.640863,5033.400406,-7660.954980,-370.102971
4162.641188,6143.709319,-6971.469032,-1258.350101
4162.641512,5625.565159,-7660.954980,0.000000
4162.641837,3182.885551,-8273.831378,-1110.308913
4162.642161,666.185348,-9806.022374,148.041188
4162.642485,-2368.659014,-9269.755526,74.020594
4162.642810,-4145.153275,-9806.022374,0.000000
4162.643134,-3256.906145,-9269.755526,0.000000
4162.643458,-1554.432478,-9193.145976,0.000000
4162.643783,888.247130,-8197.221829,-74.020594
4162.644107,3627.009116,-7354.516781,0.000000
4162.644432,5699.585753,-8120.612279,0.000000
4162.644756,6809.894666,-7354.516781,-1332.370696
4162.645080,5181.441594,-8580.269578,-1184.329507
4162.645405,2146.597232,-8810.098227,-1332.370696
4162.645729,-1628.453072,-9346.365076,0.000000
4162.646053,-3552.988522,-9193.145976,-592.164754
4162.646378,-5551.544565,-10035.851024,-222.061783
4162.646702,-4737.318029,-8886.707777,-74.020594
4162.647026,-2960.823768,-9269.755526,0.000000
4162.647351,-1110.308913,-7814.174080,-370.102971
4162.647675,3775.050304,-8197.221829,0.000000
4162.648000,5107.421000,-7431.126331,-1110.308913
4162.648324,5699.585753,-8350.440928,-666.185348
4162.648648,4663.297435,-7814.174080,-1184.329507
4162.648973,2368.659014,-8886.707777,-962.267725
4162.649297,-518.144159,-9269.755526,-1184.329507
4162.649621,-2590.720797,-10418.898773,-222.061783
4162.649946,-4071.132681,-9039.926876,-666.185348
4162.650270,-4737.318029,-9806.022374,-296.082377
4162.650594,-4293.194464,-8273.831378,-296.082377
4162.650919,-444.123565,-8886.707777,814.226536
4162.651243,1998.556043,-7507.735880,-1332.370696
4162.651568,5921.647536,-8810.098227,370.102971
4162.651892,6587.832884,-6818.249932,-1110.308913
4162.652216,5995.668130,-9116.536426,-888.247130
4162.652541,3478.967927,-8350.440928,-1406.391290
4162.652865,-148.041188,-9422.974625,-296.082377
4162.653189,-3108.864956,-10189.070123,-740.205942
4162.653514,-6217.729913,-9806.022374,-444.123565
4162.653838,-7031.956449,-9806.022374,222.061783
4162.654162,-6217.729913,-8656.879127,518.144159
4162.654487,-3256.906145,-8427.050478,148.041188
4162.654811,444.123565,-7354.516781,592.164754
4162.655136,3997.112087,-7277.907231,-592.164754
4162.655460,6365.771101,-7507.735880,-888.247130
4162.655784,7105.977043,-7354.516781,-518.144159
4162.656109,4367.215058,-8503.660028,-1036.288319
4162.656433,2442.679609,-9422.974625,-666.185348
4162.656757,-1480.411884,-9576.193725,-222.061783
4162.657082,-5033.400406,-9346.365076,370.102971
4162.657406,-6291.750507,-9422.974625,444.123565
4162.657731,-5551.544565,-9499.584175,444.123565
4162.658055,-3034.844362,-7814.174080,0.000000
4162.658379,962.267725,-7890.783629,1554.432478
4162.658704,3330.926739,-5745.716235,-148.041188
4162.659028,7254.018232,-8120.612279,74.020594
4162.659352,7920.203579,-6971.469032,-1036.288319
4162.659677,6217.729913,-9039.926876,74.020594
4162.660001,2812.782580,-7584.345430,-1184.329507
4162.660325,-740.205942,-9422.974625,0.000000
4162.660650,-3849.070898,-10035.851024,-222.061783
4162.660974,-6661.853478,-9806.022374,814.226536
4162.661299,-5403.503377,-9422.974625,-222.061783
4162.661623,-5033.400406,-9422.974625,222.061783
4162.661947,-1924.535449,-8120.612279,1110.308913
4162.662272,1998.556043,-7201.297681,0.000000
4162.662596,5699.585753,-7507.735880,-740.205942
4162.662920,7105.977043,-7507.735880,-666.185348
4162.663245,7105.977043,-7814.174080,-1036.288319
4162.663569,3775.050304,-8350.440928,-1184.329507
4162.663893,1924.535449,-9346.365076,-370.102971
4162.664218,-1184.329507,-10035.851024,-370.102971
4162.664542,-3997.112087,-9346.365076,-814.226536
4162.664867,-4293.194464,-10189.070123,370.102971
4162.665191,-4663.297435,-7737.564530,-518.144159
4162.665515,-2368.659014,-9116.536426,518.144159
4162.665840,1628.453072,-7354.516781,-814.226536
4162.666164,4071.132681,-7814.174080,0.000000
4162.666488,6291.750507,-6741.640382,-1480.411884
4162.666813,5403.503377,-8656.879127,-1332.370696
4162.667137,3552.988522,-8044.002729,-1702.473667
4162.667462,-148.041188,-9116.536426,-1702.473667
4162.667786,-1332.370696,-9959.241474,-888.247130
4162.668110,-3997.112087,-10342.289223,-962.267725
4162.668435,-4515.256246,-9193.145976,-592.164754
4162.668759,-5107.421000,-9806.022374,592.164754
4162.669083,-4071.132681,-7814.174080,222.061783
4162.669408,666.185348,-8580.269578,296.082377
4162.669732,4367.215058,-7737.564530,-592.164754
4162.670056,5403.503377,-8427.050478,-888.247130
4162.670381,5551.544565,-7048.078582,-1258.350101
4162.670705,4367.215058,-8580.269578,-1850.514855
4162.671030,1924.535449,-9269.755526,-1110.308913
4162.671354,-296.082377,-9193.145976,-666.185348
4162.671678,-3182.885551,-10189.070123,-370.102971
4162.672003,-3997.112087,-9729.412825,0.000000
4162.672327,-4293.194464,-9576.193725,740.205942
4162.672651,-2368.659014,-8810.098227,148.041188
4162.672976,962.267725,-7814.174080,-444.123565
4162.673300,3182.885551,-8197.221829,-444.123565
4162.673624,5477.523971,-7660.954980,-370.102971
4162.673949,5773.606348,-7584.345430,0.000000
4162.674273,4589.276840,-8350.440928,-888.247130
4162.674598,1850.514855,-8963.317327,74.020594
4162.674922,-1628.453072,-8273.831378,-666.185348
4162.675246,-3552.988522,-9729.412825,740.205942
4162.675571,-4811.338623,-9652.803275,74.020594
4162.675895,-4367.215058,-9499.584175,296.082377
4162.676219,-3923.091493,-8656.879127,518.144159
4162.676544,-1480.411884,-7507.735880,444.123565
4162.676868,2886.803174,-8044.002729,-148.041188
4162.677193,4589.276840,-7507.735880,-148.041188
4162.677517,5107.421000,-7124.688131,0.000000
4162.677841,5107.421000,-6971.469032,-370.102971
4162.678166,3182.885551,-8733.488677,-592.164754
4162.678490,74.020594,-9039.926876,-444.123565
4162.678814,-1850.514855,-9806.022374,0.000000
4162.679139,-4071.132681,-9193.145976,0.000000
4162.679463,-4737.318029,-9422.974625,74.020594
4162.679787,-3478.967927,-7967.393179,444.123565
4162.680112,-888.247130,-7967.393179,1258.350101
4162.680436,2590.720797,-7584.345430,0.000000
4162.680761,4811.338623,-7584.345430,666.185348
4162.681085,8290.306550,-7354.516781,-1332.370696
4162.681409,6143.709319,-9806.022374,-592.164754
4162.681734,2738.761985,-7048.078582,-2738.761985
4162.682058,-592.164754,-10495.508323,2072.576638
4162.682382,-3034.844362,-7737.564530,-2664.741391
4162.682707,-5181.441594,-11108.384721,1776.494261
4162.683031,-4145.153275,-8503.660028,-1480.411884
4162.683355,-4959.379811,-9729.412825,962.267725
4162.683680,-2442.679609,-6511.811733,-888.247130
4162.684004,2072.576638,-8580.269578,1332.370696
4162.684329,4441.235652,-6971.469032,-1258.350101
4162.684653,4885.359217,-8273.831378,-962.267725
4162.684977,5847.626942,-7890.783629,-1110.308913
4162.685302,2960.823768,-7584.345430,-1554.432478
4162.685626,1998.556043,-10112.460574,-1406.391290
4162.685950,-888.247130,-10189.070123,-1036.288319
4162.686275,-3701.029710,-10725.336972,-370.102971
4162.686599,-5033.400406,-8963.317327,-666.185348
4162.686923,-3552.988522,-9116.536426,222.061783
4162.687248,-1998.556043,-8656.879127,740.205942
4162.687572,2368.659014,-7814.174080,-962.267725
4162.687897,4367.215058,-7814.174080,0.000000
4162.688221,5921.647536,-6665.030833,-962.267725
4162.688545,7105.977043,-8580.269578,-592.164754
4162.688870,5033.400406,-8197.221829,-1998.556043
4162.689194,2368.659014,-10189.070123,-1036.288319
4162.689518,-2146.597232,-9576.193725,-370.102971
4162.689843,-4145.153275,-9422.974625,0.000000
4162.690167,-4811.338623,-9959.241474,74.020594
4162.690492,-4737.318029,-9499.584175,0.000000
4162.690816,-3108.864956,-8120.612279,-444.123565
4162.691140,444.123565,-7967.393179,518.144159
4162.691465,3034.844362,-6358.592633,-444.123565
4162.691789,6217.729913,-8503.660028,0.000000
4162.692113,5551.544565,-6435.202183,-1776.494261
4162.692438,4737.318029,-8580.269578,518.144159
4162.692762,2220.617826,-8273.831378,-1702.473667
4162.693086,-518.144159,-9652.803275,-444.123565
4162.693411,-2442.679609,-9806.022374,-370.102971
4162.693735,-4145.153275,-9882.631924,148.041188
4162.694060,-4219.173869,-9269.755526,222.061783
4162.694384,-3478.967927,-8503.660028,814.226536
4162.694708,-666.185348,-7354.516781,740.205942
4162.695033,3478.967927,-7584.345430,370.102971
4162.695357,5921.647536,-7660.954980,-1406.391290
4162.695681,5773.606348,-7814.174080,296.082377
4162.696006,4441.235652,-6741.640382,-1184.329507
4162.696330,3552.988522,-9729.412825,222.061783
4162.696654,962.267725,-8503.660028,-888.247130
4162.696979,-2220.617826,-10342.289223,814.226536
4162.697303,-6143.709319,-9422.974625,-592.164754
4162.697628,-5477.523971,-9806.022374,0.000000
4162.697952,-4737.318029,-9959.241474,444.123565
4162.698276,-2960.823768,-7277.907231,666.185348
4162.698601,1998.556043,-7584.345430,370.102971
4162.698925,3182.885551,-6971.469032,-1258.350101
4162.699249,5403.503377,-8197.221829,0.000000
4162.699574,5625.565159,-7431.126331,-1628.453072
4162.699898,3552.988522,-9039.926876,-1184.329507
4162.700223,888.247130,-8580.269578,-666.185348
4162.700547,-1036.288319,-9499.584175,0.000000
4162.700871,-4219.173869,-10418.898773,-444.123565
4162.701196,-3701.029710,-9269.755526,-592.164754
4162.701520,-3997.112087,-9576.193725,814.226536
4162.701844,-3552.988522,-7660.954980,666.185348
4162.702169,1850.514855,-8427.050478,0.000000
4162.702493,4737.318029,-7277.907231,-814.226536
4162.702817,6291.750507,-8656.879127,0.000000
4162.703142,5181.441594,-7201.297681,-1110.308913
4162.703466,3997.112087,-8350.440928,-370.102971
4162.703791,1554.432478,-9193.145976,-888.247130
4162.704115,-1776.494261,-9806.022374,-1036.288319
4162.704439,-4737.318029,-10035.851024,-1110.308913
4162.704764,-5329.482782,-10495.508323,74.020594
4162.705088,-6291.750507,-9269.755526,148.041188
4162.705412,-4219.173869,-8350.440928,518.144159
4162.705737,222.061783,-7431.126331,0.000000
4162.706061,3552.988522,-8197.221829,-666.185348
4162.706385,4589.276840,-7737.564530,-740.205942
4162.706710,6439.791695,-7124.688131,-1110.308913
4162.707034,6069.688724,-8656.879127,-1110.308913
4162.707359,3923.091493,-9193.145976,-1184.329507
4162.707683,-592.164754,-9422.974625,-296.082377
4162.708007,-2442.679609,-10112.460574,74.020594
4162.708332,-3997.112087,-9806.022374,-1036.288319
4162.708656,-4367.215058,-9499.584175,0.000000
4162.708980,-3256.906145,-8733.488677,666.185348
4162.709305,-296.082377,-8273.831378,222.061783
4162.709629,3108.864956,-7584.345430,0.000000
4162.709954,5551.544565,-7354.516781,-370.102971
4162.710278,7402.059420,-7737.564530,-1184.329507
4162.710602,5625.565159,-7814.174080,-962.267725
4162.710927,3552.988522,-9039.926876,-1554.432478
4162.711251,0.000000,-9806.022374,-370.102971
4162.711575,-3478.967927,-8580.269578,-444.123565
4162.711900,-5329.482782,-10648.727422,592.164754
4162.712224,-5551.544565,-9039.926876,-518.144159
4162.712548,-3627.009116,-9576.193725,148.041188
4162.712873,-2146.597232,-8197.221829,0.000000
4162.713197,1850.514855,-7201.297681,148.041188
4162.713522,4885.359217,-7354.516781,-666.185348
4162.713846,6365.771101,-7890.783629,-1480.411884
4162.714170,6587.832884,-7737.564530,-444.123565
4162.714495,3849.070898,-8427.050478,-222.061783
4162.714819,1554.432478,-8503.660028,-888.247130
4162.715143,-814.226536,-10572.117872,0.000000
4162.715468,-3627.009116,-8886.707777,-888.247130
4162.715792,-4589.276840,-10495.508323,222.061783
4162.716116,-3552.988522,-8273.831378,0.000000
4162.716441,-814.226536,-8656.879127,962.267725
4162.716765,888.247130,-7048.078582,0.000000
4162.717090,4959.379811,-7814.174080,-592.164754
4162.717414,5403.503377,-7814.174080,-888.247130
4162.717738,5773.606348,-7737.564530,-296.082377
4162.718063,3775.050304,-8044.002729,-666.185348
4162.718387,222.061783,-8963.317327,-1110.308913
4162.718711,-2368.659014,-10189.070123,74.020594
4162.719036,-4737.318029,-9422.974625,-740.205942
4162.719360,-5625.565159,-9882.631924,-222.061783
4162.719684,-6143.709319,-9193.145976,-592.164754
4162.720009,-1998.556043,-9116.536426,1776.494261
4162.720333,-1628.453072,-7048.078582,-518.144159
4162.720658,3552.988522,-6588.421283,-148.041188
4162.720982,6069.688724,-7814.174080,-1332.370696
4162.721306,5107.421000,-8427.050478,-370.102971
4162.721631,4293.194464,-7660.954980,-740.205942
4162.721955,1258.350101,-8580.269578,-1258.350101
4162.722279,-740.205942,-10725.336972,-962.267725
4162.722604,-4737.318029,-8886.707777,-962.267725
4162.722928,-5403.503377,-10035.851024,0.000000
4162.723253,-4663.297435,-9039.926876,148.041188
4162.723577,-2294.638420,-9039.926876,296.082377
4162.723901,370.102971,-7814.174080,0.000000
4162.724226,3552.988522,-6588.421283,-370.102971
4162.724550,4959.379811,-7967.393179,0.000000
4162.724874,5921.647536,-8427.050478,-1628.453072
4162.725199,4293.194464,-9116.536426,-888.247130
4162.725523,2294.638420,-9039.926876,-814.226536
4162.725847,-740.205942,-9652.803275,-1628.453072
4162.726172,-4071.132681,-10035.851024,-740.205942
4162.726496,-6513.812290,-9576.193725,740.205942
4162.726821,-6365.771101,-8810.098227,518.144159
4162.727145,-5329.482782,-8273.831378,1184.329507
4162.727469,-814.226536,-7354.516781,0.000000
4162.727794,2960.823768,-7124.688131,222.061783
4162.728118,5403.503377,-6665.030833,-814.226536
4162.728442,7402.059420,-7890.783629,-592.164754
4162.728767,5847.626942,-7890.783629,-1258.350101
4162.729091,3997.112087,-9422.974625,74.020594
4162.729415,592.164754,-8886.707777,-666.185348
4162.729740,-1924.535449,-9806.022374,518.144159
4162.730064,-3849.070898,-10342.289223,74.020594
4162.730389,-5033.400406,-8427.050478,296.082377
4162.730713,-3552.988522,-9039.926876,296.082377
4162.731037,222.061783,-7201.297681,0.000000
4162.731362,3701.029710,-7354.516781,222.061783
4162.731686,5329.482782,-6128.763984,-370.102971
4162.732010,6069.688724,-7660.954980,814.226536
4162.732335,5773.606348,-7048.078582,-814.226536
4162.732659,4737.318029,-9729.412825,0.000000
4162.732984,1184.329507,-9039.926876,-1332.370696
4162.733308,-1850.514855,-10265.679673,-296.082377
4162.733632,-5033.400406,-9652.803275,-518.144159
4162.733957,-6217.729913,-9959.241474,888.247130
4162.734281,-4811.338623,-8503.660028,222.061783
4162.734605,-3034.844362,-8197.221829,518.144159
4162.734930,1332.370696,-7277.907231,-592.164754
4162.735254,3997.112087,-6205.373534,-740.205942
4162.735578,6069.688724,-7814.174080,-814.226536
4162.735903,6217.729913,-7507.735880,-1480.411884
4162.736227,5329.482782,-8427.050478,-1110.308913
4162.736552,2368.659014,-9039.926876,-888.247130
4162.736876,888.247130,-10265.679673,370.102971
4162.737200,-2146.597232,-9959.241474,-740.205942
4162.737525,-4293.194464,-10495.508323,-370.102971
4162.737849,-4367.215058,-8810.098227,-74.020594
4162.738173,-1776.494261,-8427.050478,222.061783
4162.738498,740.205942,-7354.516781,-592.164754
4162.738822,4441.235652,-7124.688131,0.000000
4162.739146,5329.482782,-7124.688131,-740.205942
4162.739471,5551.544565,-8273.831378,-444.123565
4162.739795,4737.318029,-8656.879127,-1406.391290
4162.740120,1998.556043,-9806.022374,-1110.308913
4162.740444,-1184.329507,-9882.631924,-444.123565
4162.740768,-4145.153275,-9576.193725,-592.164754
4162.741093,-6291.750507,-10112.460574,-370.102971
4162.741417,-6661.853478,-9576.193725,0.000000
4162.741741,-4441.235652,-8197.221829,-222.061783
4162.742066,-1554.432478,-7584.345430,-148.041188
4162.742390,1776.494261,-7277.907231,-888.247130
4162.742715,5033.400406,-7431.126331,-222.061783
4162.743039,6365.771101,-7354.516781,-518.144159
4162.743363,5329.482782,-8886.707777,-222.061783
4162.743688,3256.906145,-8886.707777,-1110.308913
4162.744012,0.000000,-9806.022374,-370.102971
4162.744336,-2368.659014,-9806.022374,-740.205942
4162.744661,-4811.338623,-10112.460574,-296.082377
4162.744985,-5403.503377,-9116.536426,148.041188
4162.745310,-3256.906145,-8120.612279,0.000000
4162.745634,-814.226536,-7660.954980,0.000000
4162.745958,1776.494261,-7584.345430,0.000000
4162.746283,5107.421000,-6665.030833,0.000000
4162.746607,6661.853478,-8273.831378,74.020594
4162.746931,5847.626942,-8120.612279,-666.185348
4162.747256,3034.844362,-9269.755526,0.000000
4162.747580,0.000000,-8427.050478,0.000000
4162.747904,-3404.947333,-9959.241474,-962.267725
4162.748229,-5329.482782,-9806.022374,-370.102971
4162.748553,-5551.544565,-9806.022374,0.000000
4162.748878,-5255.462188,-7737.564530,0.000000
4162.749202,-2368.659014,-7660.954980,666.185348
4162.749526,2072.576638,-6281.983084,148.041188
4162.749851,4589.276840,-7124.688131,518.144159
4162.750175,5551.544565,-7277.907231,-370.102971
4162.750499,6365.771101,-8580.269578,222.061783
4162.750824,4441.235652,-8273.831378,-1406.391290
4162.751148,1110.308913,-10418.898773,-444.123565
4162.751473,-1036.288319,-9729.412825,-814.226536
4162.751797,-3034.844362,-10342.289223,-222.061783
4162.752121,-5625.565159,-8580.269578,-444.123565
4162.752446,-3923.091493,-8656.879127,740.205942
4162.752770,-1184.329507,-6971.469032,296.082377
4162.753094,1776.494261,-7354.516781,0.000000
4162.753419,4811.338623,-7277.907231,518.144159
4162.753743,6809.894666,-7431.126331,-666.185348
4162.754068,5625.565159,-8810.098227,-518.144159
4162.754392,5403.503377,-9193.145976,-1628.453072
4162.754716,3108.864956,-9729.412825,-888.247130
4162.755041,-2886.803174,-10418.898773,-888.247130
4162.755365,-3849.070898,-9806.022374,-518.144159
4162.755689,-5551.544565,-9346.365076,-592.164754
4162.756014,-4293.194464,-8044.002729,-518.144159
4162.756338,-2516.700203,-7584.345430,888.247130
4162.756663,296.082377,-6971.469032,0.000000
4162.756987,4515.256246,-8580.269578,-444.123565
4162.757311,4515.256246,-7048.078582,-1628.453072
4162.757636,4515.256246,-8580.269578,0.000000
4162.757960,5847.626942,-8197.221829,-2368.659014
4162.758284,3108.864956,-12104.308868,0.000000
4162.758609,222.061783,-8733.488677,-1850.514855
4162.758933,-2220.617826,-10495.508323,222.061783
4162.759258,-4441.235652,-8886.707777,-1628.453072
4162.759582,-3997.112087,-9959.241474,296.082377
4162.759906,-2368.659014,-6818.249932,-444.123565
4162.760231,666.185348,-8273.831378,1036.288319
4162.760555,3330.926739,-6741.640382,-888.247130
4162.760879,5921.647536,-7660.954980,444.123565
4162.761204,6809.894666,-8120.612279,-1776.494261
4162.761528,4959.379811,-9882.631924,148.041188
4162.761853,3182.885551,-9039.926876,-1998.556043
4162.762177,-1554.432478,-11031.775171,-148.041188
4162.762501,-3923.091493,-9422.974625,-296.082377
4162.762826,-5403.503377,-9499.584175,-370.102971
4162.763150,-5255.462188,-9806.022374,-222.061783
4162.763474,-5033.400406,-7354.516781,148.041188
4162.763799,-1776.494261,-8044.002729,592.164754
4162.764123,962.267725,-6818.249932,-74.020594
4162.764448,4959.379811,-7660.954980,-148.041188
4162.764772,5773.606348,-7584.345430,0.000000
4162.765096,5033.400406,-8350.440928,0.000000
4162.765421,2590.720797,-9882.631924,-740.205942
4162.765745,518.144159,-9882.631924,-1036.288319
4162.766069,-2664.741391,-9806.022374,888.247130
4162.766394,-4367.215058,-9039.926876,-518.144159
4162.766718,-4959.379811,-9116.536426,-148.041188
4162.767042,-4441.235652,-8350.440928,592.164754
4162.767367,-1998.556043,-7277.907231,1036.288319
4162.767691,962.267725,-6511.811733,222.061783
4162.768016,5181.441594,-7354.516781,444.123565
4162.768340,5773.606348,-6971.469032,592.164754
4162.768664,5477.523971,-8044.002729,-444.123565
4162.768989,3552.988522,-9576.193725,-666.185348
4162.769313,1406.391290,-9729.412825,-1406.391290
4162.769637,-2294.638420,-10035.851024,-370.102971
4162.769962,-4737.318029,-9193.145976,0.000000
4162.770286,-5847.626942,-8733.488677,148.041188
4162.770611,-5403.503377,-8350.440928,-148.041188
4162.770935,-4145.153275,-7354.516781,962.267725
4162.771259,0.000000,-7201.297681,814.226536
4162.771584,2886.803174,-6588.421283,0.000000
4162.771908,6365.771101,-8120.612279,0.000000
4162.772232,5255.462188,-8120.612279,-888.247130
4162.772557,4293.194464,-9422.974625,-1406.391290
4162.772881,2590.720797,-9882.631924,-1036.288319
4162.773206,-592.164754,-10112.460574,-592.164754
4162.773530,-2368.659014,-9959.241474,0.000000
4162.773854,-3775.050304,-8810.098227,-148.041188
4162.774179,-3627.009116,-9269.755526,-518.144159
4162.774503,-2442.679609,-8044.002729,0.000000
4162.774827,888.247130,-7584.345430,444.123565
4162.775152,4071.132681,-6971.469032,-740.205942
4162.775476,5847.626942,-7660.954980,296.082377
4162.775801,6291.750507,-7507.735880,-1110.308913
4162.776125,4959.379811,-9576.193725,-888.247130
4162.776449,1998.556043,-9882.631924,-1628.453072
4162.776774,-1998.556043,-10112.460574,-1258.350101
4162.777098,-3775.050304,-9652.803275,-1480.411884
4162.777422,-5995.668130,-9806.022374,-296.082377
4162.777747,-5181.441594,-8886.707777,-666.185348
4162.778071,-3701.029710,-8044.002729,0.000000
4162.778396,-666.185348,-7660.954980,0.000000
4162.778720,3627.009116,-6971.469032,-296.082377
4162.779044,7031.956449,-7507.735880,-740.205942
4162.779369,7254.018232,-8273.831378,-666.185348
4162.779693,5847.626942,-8810.098227,-1628.453072
4162.780017,3108.864956,-9422.974625,-1776.494261
4162.780342,-222.061783,-10418.898773,-1258.350101
4162.780666,-2812.782580,-9652.803275,-666.185348
4162.780991,-3701.029710,-10189.070123,-592.164754
4162.781315,-4515.256246,-8886.707777,-740.205942
4162.781639,-3701.029710,-8503.660028,0.000000
4162.781964,0.000000,-6971.469032,222.061783
4162.782288,3775.050304,-7354.516781,444.123565
4162.782612,6365.771101,-7201.297681,0.000000
4162.782937,7105.977043,-8120.612279,-148.041188
4162.783261,5329.482782,-8427.050478,-1628.453072
4162.783585,2812.782580,-10112.460574,-1110.308913
4162.783910,-814.226536,-9806.022374,-444.123565
4162.784234,-3775.050304,-9806.022374,148.041188
4162.784559,-4885.359217,-9959.241474,74.020594
4162.784883,-6143.709319,-8886.707777,-222.061783
4162.785207,-5181.441594,-8810.098227,444.123565
4162.785532,-2220.617826,-6894.859482,222.061783
4162.785856,1702.473667,-7354.516781,1924.535449
4162.786180,4071.132681,-6741.640382,0.000000
4162.786505,7179.997637,-8503.660028,296.082377
4162.786829,5329.482782,-7507.735880,-666.185348
4162.787154,2516.700203,-9499.584175,-1332.370696
4162.787478,1702.473667,-9806.022374,-444.123565
4162.787802,-2664.741391,-10035.851024,-148.041188
4162.788127,-5107.421000,-9729.412825,518.144159
4162.788451,-4885.359217,-8656.879127,-222.061783
4162.788775,-5329.482782,-8503.660028,-148.041188
4162.789100,-2442.679609,-7660.954980,1332.370696
4162.789424,1628.453072,-6052.154434,592.164754
4162.789749,3775.050304,-7584.345430,592.164754
4162.790073,5847.626942,-7507.735880,222.061783
4162.790397,5477.523971,-7967.393179,0.000000
4162.790722,4515.256246,-9422.974625,-962.267725
4162.791046,1406.391290,-9806.022374,-962.267725
4162.791370,-1924.535449,-9806.022374,-1110.308913
4162.791695,-5625.565159,-9729.412825,74.020594
4162.792019,-6069.688724,-9116.536426,-814.226536
4162.792344,-5551.544565,-9729.412825,148.041188
4162.792668,-3256.906145,-6971.469032,518.144159
4162.792992,-1110.308913,-7584.345430,518.144159
4162.793317,4071.132681,-7431.126331,-518.144159
4162.793641,6587.832884,-7660.954980,-592.164754
4162.793965,6069.688724,-7967.393179,-1110.308913
4162.794290,5551.544565,-9116.536426,-666.185348
4162.794614,2294.638420,-9729.412825,-1850.514855
4162.794939,-1110.308913,-10495.508323,-962.267725
4162.795263,-2886.803174,-10418.898773,-148.041188
4162.795587,-5329.482782,-10342.289223,-592.164754
4162.795912,-4219.173869,-9193.145976,-962.267725
4162.796236,-2738.761985,-8427.050478,-296.082377
4162.796560,296.082377,-8197.221829,370.102971
4162.796885,2960.823768,-5975.544884,-444.123565
4162.797209,5625.565159,-7737.564530,0.000000
4162.797534,6291.750507,-8197.221829,-444.123565
4162.797858,5699.585753,-9039.926876,-888.247130
4162.798182,2738.761985,-9422.974625,-1554.432478
4162.798507,0.000000,-10495.508323,-1332.370696
4162.798831,-3256.906145,-10112.460574,-1332.370696
4162.799155,-4589.276840,-9652.803275,-592.164754
4162.799480,-3923.091493,-9422.974625,-222.061783
4162.799804,-3552.988522,-7737.564530,0.000000
4162.800129,-1258.350101,-8273.831378,666.185348
4162.800453,2590.720797,-6358.592633,-370.102971
4162.800777,5625.565159,-7814.174080,0.000000
4162.801102,8956.491898,-7507.735880,-518.144159
4162.801426,2738.761985,-8810.098227,-1776.494261
4162.801750,2812.782580,-9729.412825,-1258.350101
4162.802075,-444.123565,-9269.755526,-1258.350101
4162.802399,-740.205942,-10725.336972,-740.205942
4162.802723,-3108.864956,-9959.241474,0.000000
4162.803048,-3849.070898,-9193.145976,-888.247130
4162.803372,-4293.194464,-8810.098227,962.267725
4162.803697,0.000000,-7507.735880,0.000000
4162.804021,3478.967927,-8273.831378,518.144159
4162.804345,5329.482782,-5592.497135,-444.123565
4162.804670,7105.977043,-8273.831378,74.020594
4162.804994,4589.276840,-7277.907231,-518.144159
4162.805318,4145.153275,-10035.851024,-666.185348
4162.805643,666.185348,-9806.022374,-1554.432478
4162.805967,-3404.947333,-10495.508323,-148.041188
4162.806292,-5477.523971,-9346.365076,-296.082377
4162.806616,-5921.647536,-9346.365076,-370.102971
4162.806940,-4737.318029,-8580.269578,296.082377
4162.807265,-2146.597232,-7507.735880,1258.350101
4162.807589,148.041188,-6435.202183,370.102971
4162.807913,4663.297435,-8044.002729,222.061783
4162.808238,6439.791695,-7584.345430,-370.102971
4162.808562,5699.585753,-7890.783629,-814.226536
4162.808887,4663.297435,-9422.974625,-592.164754
4162.809211,666.185348,-9269.755526,-1184.329507
4162.809535,-2220.617826,-10572.117872,0.000000
4162.809860,-4219.173869,-9346.365076,0.000000
4162.810184,-5699.585753,-9729.412825,222.061783
4162.810508,-5699.585753,-8810.098227,0.000000
4162.810833,-2738.761985,-8733.488677,592.164754
4162.811157,1110.308913,-6894.859482,962.267725
4162.811482,3701.029710,-7354.516781,518.144159
4162.811806,6069.688724,-7354.516781,-370.102971
4162.812130,5773.606348,-8503.660028,0.000000
4162.812455,4811.338623,-8963.317327,-962.267725
4162.812779,2812.782580,-9039.926876,-592.164754
4162.813103,-1332.370696,-9959.241474,-1110.308913
4162.813428,-4219.173869,-10035.851024,0.000000
4162.813752,-6587.832884,-9269.755526,-962.267725
4162.814077,-6735.874072,-9116.536426,-444.123565
4162.814401,-4737.318029,-7814.174080,814.226536
4162.814725,-1110.308913,-6894.859482,962.267725
4162.815050,1036.288319,-7507.735880,-148.041188
4162.815374,5181.441594,-7048.078582,-814.226536
4162.815698,5995.668130,-7737.564530,-666.185348
4162.816023,5403.503377,-9039.926876,-1036.288319
4162.816347,3478.967927,-9039.926876,-1332.370696
4162.816672,-370.102971,-10112.460574,-1036.288319
4162.816996,-2220.617826,-10189.070123,-518.144159
4162.817320,-4219.173869,-9806.022374,-888.247130
