#time,accel_x,accel_y,accel_z
4012.414691,-1332.370696,-9116.536426,-814.226536
4012.415015,-1258.350101,-9269.755526,-814.226536
4012.415340,-1480.411884,-10265.679673,-962.267725
4012.415664,-1480.411884,-9193.145976,-1110.308913
4012.415988,-1776.494261,-8810.098227,-1036.288319
4012.416313,-1184.329507,-9193.145976,-962.267725
4012.416637,-962.267725,-8580.269578,-1332.370696
4012.416961,-296.082377,-8886.707777,-962.267725
4012.417286,-222.061783,-8733.488677,-1258.350101
4012.417610,0.000000,-9499.584175,-1184.329507
4012.417935,74.020594,-9269.755526,-1628.453072
4012.418259,-592.164754,-10342.289223,-814.226536
4012.418583,-1924.535449,-9422.974625,-1332.370696
4012.418908,-1924.535449,-9422.974625,-814.226536
4012.419232,-2442.679609,-8886.707777,-1332.370696
4012.419557,-2442.679609,-9959.241474,-740.205942
4012.419881,-2442.679609,-9039.926876,-1110.308913
4012.420205,-2146.597232,-8733.488677,-370.102971
4012.420530,-1998.556043,-8427.050478,-888.247130
4012.420854,-1702.473667,-8580.269578,-1036.288319
4012.421179,-1850.514855,-8350.440928,-740.205942
4012.421503,-1998.556043,-9116.536426,-444.123565
4012.421827,-2368.659014,-9116.536426,-296.082377
4012.422152,-3034.844362,-9116.536426,0.000000
4012.422476,-3256.906145,-8810.098227,222.061783
4012.422801,-3404.947333,-8656.879127,0.000000
4012.423125,-3034.844362,-8733.488677,74.020594
4012.423449,-3478.967927,-8810.098227,296.082377
4012.423774,-2960.823768,-8120.612279,148.041188
4012.424098,-2812.782580,-8197.221829,-148.041188
4012.424423,-3182.885551,-7584.345430,-592.164754
4012.424747,-2368.659014,-8197.221829,296.082377
4012.425071,-3330.926739,-7814.174080,222.061783
4012.425396,-3701.029710,-8580.269578,148.041188
4012.425720,-3256.906145,-8197.221829,222.061783
4012.426045,-3256.906145,-8733.488677,888.247130
4012.426369,-3404.947333,-8350.440928,0.000000
4012.426693,-2664.741391,-8273.831378,518.144159
4012.427018,-2886.803174,-8273.831378,1036.288319
4012.427342,-2368.659014,-8120.612279,222.061783
4012.427667,-2072.576638,-8120.612279,148.041188
4012.427991,-2146.597232,-8044.002729,518.144159
4012.428315,-1702.473667,-7737.564530,222.061783
4012.428637,-1702.473667,-7890.783629,74.020594
4012.428961,-1036.288319,-8427.050478,444.123565
4012.429285,-1258.350101,-8273.831378,592.164754
4012.429609,-592.164754,-8273.831378,74.020594
4012.429934,-518.144159,-8656.879127,518.144159
4012.430258,0.000000,-8656.879127,222.061783
4012.430582,296.082377,-8503.660028,370.102971
4012.430906,518.144159,-8273.831378,-518.144159
4012.431231,814.226536,-9193.145976,0.000000
4012.431555,740.205942,-8197.221829,-370.102971
4012.431879,1258.350101,-8733.488677,-296.082377
4012.432203,1036.288319,-8503.660028,-222.061783
4012.432528,1184.329507,-8580.269578,148.041188
4012.432852,1554.432478,-8350.440928,-592.164754
4012.433176,2072.576638,-8350.440928,-370.102971
4012.433500,2368.659014,-8273.831378,-666.185348
4012.433825,2812.782580,-9422.974625,-222.061783
4012.434149,3182.885551,-8427.050478,-740.205942
4012.434473,3108.864956,-8733.488677,-888.247130
4012.434797,3108.864956,-8580.269578,-1110.308913
4012.435122,3182.885551,-8886.707777,-1110.308913
4012.435446,2294.638420,-8656.879127,-1258.350101
4012.435770,2220.617826,-8810.098227,-1184.329507
4012.436094,2072.576638,-8733.488677,-1480.411884
4012.436419,2146.597232,-8427.050478,-1258.350101
4012.436743,2368.659014,-8120.612279,-1332.370696
4012.437067,2738.761985,-8733.488677,-1184.329507
4012.437391,2960.823768,-8656.879127,-1702.473667
4012.437716,3034.844362,-8580.269578,-1480.411884
4012.438040,2590.720797,-8886.707777,-962.267725
4012.438364,2442.679609,-8656.879127,-1702.473667
4012.438688,2072.576638,-9269.755526,-1258.350101
4012.439013,1702.473667,-9116.536426,-1036.288319
4012.439337,1924.535449,-9422.974625,-888.247130
4012.439661,1258.350101,-9116.536426,-1406.391290
4012.439985,1554.432478,-9116.536426,-740.205942
4012.440310,1554.432478,-8580.269578,-1406.391290
4012.440634,1332.370696,-8963.317327,-1036.288319
4012.440958,1702.473667,-8427.050478,-888.247130
4012.441282,1036.288319,-8963.317327,-666.185348
4012.441607,666.185348,-9346.365076,-1036.288319
4012.441931,148.041188,-8886.707777,-444.123565
4012.442255,962.267725,-9729.412825,-962.267725
4012.442579,74.020594,-9269.755526,-666.185348
4012.442904,0.000000,-9806.022374,0.000000
4012.443228,-740.205942,-8810.098227,-222.061783
4012.443552,-888.247130,-9499.584175,0.000000
4012.443876,-1924.535449,-9116.536426,0.000000
4012.444200,-2220.617826,-8810.098227,74.020594
4012.444525,-2294.638420,-8580.269578,0.000000
4012.444849,-2442.679609,-8427.050478,222.061783
4012.445173,-2368.659014,-8273.831378,370.102971
4012.445497,-1998.556043,-8350.440928,666.185348
4012.445822,-1406.391290,-8580.269578,222.061783
4012.446146,-1480.411884,-8580.269578,592.164754
4012.446470,-592.164754,-8963.317327,1110.308913
4012.446794,-1036.288319,-8427.050478,962.267725
4012.447119,-1110.308913,-8580.269578,888.247130
4012.447443,-1406.391290,-8427.050478,740.205942
4012.447767,-1480.411884,-8427.050478,1036.288319
4012.448091,-1924.535449,-7660.954980,296.082377
4012.448416,-1480.411884,-7890.783629,518.144159
4012.448740,-1406.391290,-7814.174080,666.185348
4012.449064,-296.082377,-7814.174080,1036.288319
4012.449388,-222.061783,-7354.516781,518.144159
4012.449713,444.123565,-7814.174080,888.247130
4012.450037,296.082377,-7967.393179,444.123565
4012.450361,814.226536,-8350.440928,518.144159
4012.450685,1258.350101,-8044.002729,0.000000
4012.451010,962.267725,-8733.488677,222.061783
4012.451334,444.123565,-8120.612279,370.102971
4012.451658,0.000000,-8197.221829,518.144159
4012.451982,296.082377,-8580.269578,-148.041188
4012.452307,-296.082377,-8273.831378,0.000000
4012.452631,0.000000,-7967.393179,-296.082377
4012.452955,0.000000,-7814.174080,-296.082377
4012.453279,444.123565,-8044.002729,-444.123565
4012.453604,1258.350101,-8580.269578,-370.102971
4012.453928,1628.453072,-8120.612279,-740.205942
4012.454252,1480.411884,-8427.050478,-1036.288319
4012.454576,1998.556043,-8886.707777,-1036.288319
4012.454901,2146.597232,-9039.926876,0.000000
4012.455225,1850.514855,-8810.098227,-1332.370696
4012.455549,1776.494261,-9269.755526,-1258.350101
4012.455873,1702.473667,-8963.317327,-1332.370696
4012.456198,1406.391290,-9346.365076,-1776.494261
4012.456522,1480.411884,-9193.145976,-1406.391290
4012.456846,1332.370696,-8963.317327,-1554.432478
4012.457170,1184.329507,-8733.488677,-1776.494261
4012.457495,1406.391290,-8886.707777,-1702.473667
4012.457819,2146.597232,-9499.584175,-1480.411884
4012.458143,1924.535449,-8963.317327,-1480.411884
4012.458467,2220.617826,-8886.707777,-1332.370696
4012.458792,2368.659014,-9116.536426,-1702.473667
4012.459116,2590.720797,-9806.022374,-1406.391290
4012.459440,2368.659014,-9499.584175,-1776.494261
4012.459764,2220.617826,-9269.755526,-1258.350101
4012.460089,1702.473667,-9193.145976,-1184.329507
4012.460413,1036.288319,-9269.755526,-1406.391290
4012.460737,1184.329507,-9269.755526,-1480.411884
4012.461061,296.082377,-8963.317327,-962.267725
4012.461386,296.082377,-8810.098227,-1258.350101
4012.461710,518.144159,-8656.879127,-888.247130
4012.462034,814.226536,-8427.050478,-444.123565
4012.462358,740.205942,-8733.488677,-888.247130
4012.462683,740.205942,-8656.879127,-666.185348
4012.463007,888.247130,-8810.098227,-740.205942
4012.463331,740.205942,-8810.098227,-148.041188
4012.463655,222.061783,-8733.488677,-296.082377
4012.463980,74.020594,-8733.488677,222.061783
4012.464304,-518.144159,-8580.269578,0.000000
4012.464628,-1036.288319,-8810.098227,222.061783
4012.464952,-592.164754,-8273.831378,444.123565
4012.465277,-1554.432478,-7967.393179,444.123565
4012.465601,-1036.288319,-8273.831378,444.123565
4012.465925,-1258.350101,-7814.174080,814.226536
4012.466249,-1036.288319,-7660.954980,888.247130
4012.466574,-444.123565,-7814.174080,666.185348
4012.466898,-296.082377,-8120.612279,962.267725
4012.467222,-370.102971,-7967.393179,666.185348
4012.467546,148.041188,-8197.221829,962.267725
4012.467871,0.000000,-8044.002729,888.247130
4012.468195,0.000000,-8580.269578,962.267725
4012.468519,-370.102971,-8427.050478,740.205942
4012.468843,-370.102971,-8120.612279,1258.350101
4012.469168,-444.123565,-7890.783629,666.185348
4012.469492,-740.205942,-8120.612279,1110.308913
4012.469816,-296.082377,-8120.612279,962.267725
4012.470140,-148.041188,-8427.050478,814.226536
4012.470465,-296.082377,-7660.954980,1184.329507
4012.470789,0.000000,-8197.221829,666.185348
4012.471113,74.020594,-7890.783629,666.185348
4012.471437,222.061783,-8503.660028,518.144159
4012.471762,370.102971,-8810.098227,592.164754
4012.472086,370.102971,-8733.488677,148.041188
4012.472410,444.123565,-8427.050478,370.102971
4012.472734,0.000000,-8503.660028,222.061783
4012.473059,222.061783,-8963.317327,296.082377
4012.473383,148.041188,-8886.707777,-888.247130
4012.473707,370.102971,-9039.926876,0.000000
4012.474031,518.144159,-8044.002729,-444.123565
4012.474355,740.205942,-8656.879127,-370.102971
4012.474680,740.205942,-8427.050478,-666.185348
4012.475004,888.247130,-8886.707777,-370.102971
4012.475328,1258.350101,-8733.488677,-1258.350101
4012.475652,1850.514855,-8810.098227,-814.226536
4012.475977,1998.556043,-8580.269578,-1036.288319
4012.476301,1628.453072,-8963.317327,-962.267725
4012.476625,2294.638420,-8733.488677,-1554.432478
4012.476949,2072.576638,-9039.926876,-1332.370696
4012.477274,2220.617826,-9193.145976,-1406.391290
4012.477598,1776.494261,-8044.002729,-1258.350101
4012.477922,1554.432478,-8963.317327,-1554.432478
4012.478246,962.267725,-8810.098227,-1628.453072
4012.478571,1110.308913,-8810.098227,-1554.432478
4012.478895,888.247130,-8886.707777,-1702.473667
4012.479219,1110.308913,-8350.440928,-1258.350101
4012.479543,888.247130,-9039.926876,-1554.432478
4012.479868,814.226536,-9039.926876,-1702.473667
4012.480192,962.267725,-8963.317327,-1776.494261
4012.480516,222.061783,-8886.707777,-1776.494261
4012.480840,962.267725,-9039.926876,-1554.432478
4012.481165,370.102971,-9269.755526,-1184.329507
4012.481489,962.267725,-9346.365076,-1406.391290
4012.481813,148.041188,-9039.926876,-1554.432478
4012.482137,666.185348,-9346.365076,-1184.329507
4012.482462,370.102971,-8886.707777,-888.247130
4012.482786,0.000000,-8886.707777,-814.226536
4012.483110,-296.082377,-9193.145976,-814.226536
4012.483434,-518.144159,-8963.317327,-296.082377
4012.483759,-592.164754,-8503.660028,-814.226536
4012.484083,-592.164754,-8810.098227,-222.061783
4012.484407,-148.041188,-8810.098227,-222.061783
4012.484731,0.000000,-8580.269578,0.000000
4012.485056,74.020594,-8656.879127,-148.041188
4012.485380,444.123565,-8427.050478,148.041188
4012.485704,592.164754,-8350.440928,0.000000
4012.486028,814.226536,-8580.269578,0.000000
4012.486353,296.082377,-8503.660028,666.185348
4012.486677,0.000000,-8580.269578,592.164754
4012.487001,0.000000,-8427.050478,592.164754
4012.487325,-518.144159,-8120.612279,444.123565
4012.487650,-444.123565,-8733.488677,962.267725
4012.487974,-518.144159,-8044.002729,1110.308913
4012.488298,-444.123565,-8197.221829,888.247130
4012.488622,0.000000,-8044.002729,888.247130
4012.488947,0.000000,-8197.221829,1406.391290
4012.489271,592.164754,-8197.221829,666.185348
4012.489595,888.247130,-7660.954980,888.247130
4012.489919,370.102971,-7890.783629,888.247130
4012.490244,222.061783,-7890.783629,962.267725
4012.490568,296.082377,-7967.393179,666.185348
4012.490892,0.000000,-8044.002729,740.205942
4012.491216,0.000000,-8120.612279,888.247130
4012.491541,-296.082377,-8273.831378,1110.308913
4012.491865,-296.082377,-8120.612279,814.226536
4012.492189,-370.102971,-7967.393179,666.185348
4012.492513,222.061783,-8427.050478,370.102971
4012.492838,888.247130,-7890.783629,74.020594
4012.493162,592.164754,-8044.002729,222.061783
4012.493486,1110.308913,-8044.002729,-74.020594
4012.493810,1258.350101,-8120.612279,-296.082377
4012.494135,1184.329507,-8350.440928,-222.061783
4012.494459,1702.473667,-8886.707777,-518.144159
4012.494783,1110.308913,-8963.317327,-666.185348
4012.495107,1332.370696,-9193.145976,-370.102971
4012.495432,1110.308913,-9039.926876,-962.267725
4012.495756,1110.308913,-9193.145976,-888.247130
4012.496080,888.247130,-8810.098227,-888.247130
4012.496404,1110.308913,-8886.707777,-740.205942
4012.496729,1110.308913,-8886.707777,-1332.370696
4012.497053,1036.288319,-9346.365076,-1184.329507
4012.497377,1258.350101,-9576.193725,-1184.329507
4012.497701,962.267725,-8886.707777,-1628.453072
4012.498026,1332.370696,-9346.365076,-1480.411884
4012.498350,444.123565,-8733.488677,-1406.391290
4012.498674,1036.288319,-9729.412825,-962.267725
4012.498998,518.144159,-9499.584175,-1702.473667
4012.499323,1036.288319,-9806.022374,-1406.391290
4012.499647,888.247130,-9116.536426,-1850.514855
4012.499971,740.205942,-9422.974625,-962.267725
4012.500295,0.000000,-9346.365076,-1406.391290
4012.500620,370.102971,-9806.022374,-1184.329507
4012.500944,370.102971,-8810.098227,-1702.473667
4012.501268,444.123565,-8886.707777,-1480.411884
4012.501592,0.000000,-8733.488677,-518.144159
4012.501917,222.061783,-8810.098227,-962.267725
4012.502241,444.123565,-8733.488677,-1332.370696
4012.502565,666.185348,-8733.488677,-1184.329507
4012.502889,962.267725,-8350.440928,-1184.329507
4012.503214,962.267725,-8580.269578,-592.164754
4012.503538,592.164754,-8810.098227,-444.123565
4012.503862,962.267725,-8656.879127,-592.164754
4012.504186,444.123565,-8350.440928,-518.144159
4012.504510,666.185348,-8044.002729,-370.102971
4012.504835,296.082377,-8350.440928,0.000000
4012.505159,-666.185348,-7814.174080,-222.061783
4012.505483,-518.144159,-8427.050478,74.020594
4012.505807,-814.226536,-7814.174080,74.020594
4012.506132,-370.102971,-8656.879127,148.041188
4012.506456,-740.205942,-7354.516781,-148.041188
4012.506780,0.000000,-8044.002729,666.185348
4012.507104,-518.144159,-7660.954980,148.041188
4012.507429,148.041188,-8810.098227,74.020594
4012.507753,-148.041188,-8120.612279,222.061783
4012.508077,0.000000,-8350.440928,740.205942
4012.508401,0.000000,-8120.612279,222.061783
4012.508726,370.102971,-8273.831378,740.205942
4012.509050,148.041188,-8273.831378,666.185348
4012.509374,-222.061783,-7967.393179,592.164754
4012.509698,-148.041188,-8886.707777,296.082377
4012.510023,-592.164754,-8350.440928,518.144159
4012.510347,-444.123565,-8120.612279,222.061783
4012.510671,-740.205942,-8273.831378,296.082377
4012.510995,-296.082377,-8350.440928,518.144159
4012.511320,-666.185348,-7890.783629,444.123565
4012.511644,444.123565,-8580.269578,148.041188
4012.511968,518.144159,-8580.269578,296.082377
4012.512292,666.185348,-8427.050478,0.000000
4012.512617,814.226536,-8656.879127,148.041188
4012.512941,962.267725,-8656.879127,370.102971
4012.513265,888.247130,-8886.707777,-222.061783
4012.513589,1110.308913,-8810.098227,0.000000
4012.513914,222.061783,-8427.050478,74.020594
4012.514238,592.164754,-8963.317327,-222.061783
4012.514562,518.144159,-8044.002729,-888.247130
4012.514886,814.226536,-8810.098227,-222.061783
4012.515211,740.205942,-8044.002729,-1258.350101
4012.515535,1110.308913,-8427.050478,-296.082377
4012.515859,1480.411884,-8656.879127,-1110.308913
4012.516183,1702.473667,-8963.317327,-814.226536
4012.516508,1332.370696,-8503.660028,-1184.329507
4012.516832,1258.350101,-9193.145976,-962.267725
4012.517156,1924.535449,-8120.612279,-1110.308913
4012.517480,1332.370696,-8963.317327,-1110.308913
4012.517805,888.247130,-9039.926876,-1406.391290
4012.518129,444.123565,-8886.707777,-1036.288319
4012.518453,148.041188,-8656.879127,-1480.411884
4012.518777,0.000000,-8656.879127,-814.226536
4012.519102,0.000000,-8044.002729,-1406.391290
4012.519426,518.144159,-8503.660028,-814.226536
4012.519750,296.082377,-8580.269578,-1184.329507
4012.520074,888.247130,-8503.660028,-1406.391290
4012.520399,1332.370696,-9039.926876,-1702.473667
4012.520723,2072.576638,-9193.145976,-888.247130
4012.521047,1702.473667,-9116.536426,-1406.391290
4012.521371,1406.391290,-9346.365076,-814.226536
4012.521696,1258.350101,-9346.365076,-1110.308913
4012.522020,888.247130,-9346.365076,-962.267725
4012.522344,296.082377,-9269.755526,-1184.329507
4012.522668,0.000000,-9039.926876,-592.164754
4012.522993,0.000000,-8810.098227,-666.185348
4012.523317,0.000000,-8810.098227,-296.082377
4012.523641,518.144159,-8810.098227,-740.205942
4012.523965,370.102971,-8503.660028,0.000000
4012.524290,814.226536,-9193.145976,-370.102971
4012.524614,518.144159,-8656.879127,-148.041188
4012.524938,666.185348,-8503.660028,-296.082377
4012.525262,666.185348,-8733.488677,-148.041188
4012.525587,370.102971,-8963.317327,0.000000
4012.525911,-592.164754,-8810.098227,222.061783
4012.526235,-666.185348,-8273.831378,222.061783
4012.526559,-666.185348,-8656.879127,222.061783
4012.526884,-814.226536,-8427.050478,370.102971
4012.527208,-740.205942,-8503.660028,518.144159
4012.527532,-444.123565,-8044.002729,222.061783
4012.527856,-666.185348,-7737.564530,0.000000
4012.528181,-370.102971,-7890.783629,518.144159
4012.528505,0.000000,-7507.735880,148.041188
4012.528829,-148.041188,-7814.174080,148.041188
4012.529154,0.000000,-7814.174080,370.102971
4012.529478,74.020594,-8273.831378,370.102971
4012.529802,148.041188,-8120.612279,296.082377
4012.530127,444.123565,-7967.393179,518.144159
4012.530451,148.041188,-8427.050478,222.061783
4012.530776,370.102971,-8350.440928,370.102971
4012.531100,444.123565,-7660.954980,518.144159
4012.531425,518.144159,-7814.174080,370.102971
4012.531749,-592.164754,-8197.221829,296.082377
4012.532074,0.000000,-8120.612279,148.041188
4012.532398,-370.102971,-7814.174080,74.020594
4012.532723,148.041188,-8350.440928,0.000000
4012.533047,74.020594,-8044.002729,0.000000
4012.533372,370.102971,-8580.269578,222.061783
4012.533696,222.061783,-8273.831378,-148.041188
4012.534021,444.123565,-8503.660028,-370.102971
4012.534345,518.144159,-8580.269578,-370.102971
4012.534669,370.102971,-8427.050478,-444.123565
4012.534994,592.164754,-9116.536426,-444.123565
4012.535318,148.041188,-8810.098227,-444.123565
4012.535643,370.102971,-8656.879127,-814.226536
4012.535967,370.102971,-8963.317327,-1036.288319
4012.536292,0.000000,-9269.755526,-518.144159
4012.536616,0.000000,-8733.488677,-888.247130
4012.536941,74.020594,-8656.879127,-1258.350101
4012.537265,0.000000,-8963.317327,-1110.308913
4012.537590,296.082377,-9269.755526,-740.205942
4012.537914,666.185348,-9193.145976,-962.267725
4012.538239,888.247130,-8963.317327,-1332.370696
4012.538563,1480.411884,-8963.317327,-962.267725
4012.538888,1480.411884,-8963.317327,-1258.350101
4012.539212,1702.473667,-9346.365076,-962.267725
4012.539537,1406.391290,-9116.536426,-1258.350101
4012.539861,1850.514855,-9346.365076,-666.185348
4012.540185,1036.288319,-9039.926876,-1406.391290
4012.540510,740.205942,-9116.536426,-814.226536
4012.540834,666.185348,-8656.879127,-1110.308913
4012.541159,666.185348,-8810.098227,-1110.308913
4012.541483,1036.288319,-8656.879127,-962.267725
4012.541808,740.205942,-8656.879127,-1036.288319
4012.542132,1036.288319,-8656.879127,-1110.308913
4012.542457,888.247130,-8427.050478,-1258.350101
4012.542781,1110.308913,-8656.879127,-962.267725
4012.543106,1110.308913,-8427.050478,-1036.288319
4012.543430,1332.370696,-8810.098227,-1110.308913
4012.543755,1036.288319,-8810.098227,-814.226536
4012.544079,888.247130,-8503.660028,0.000000
4012.544404,740.205942,-8503.660028,-444.123565
4012.544728,370.102971,-8656.879127,0.000000
4012.545053,296.082377,-8273.831378,-444.123565
4012.545377,148.041188,-8273.831378,0.000000
4012.545701,-444.123565,-7737.564530,-592.164754
4012.546026,296.082377,-8580.269578,444.123565
4012.546350,-148.041188,-7737.564530,-296.082377
4012.546675,296.082377,-8656.879127,74.020594
4012.546999,740.205942,-8044.002729,-296.082377
4012.547324,1184.329507,-8810.098227,666.185348
4012.547648,740.205942,-8120.612279,0.000000
4012.547973,1184.329507,-8810.098227,592.164754
4012.548297,1258.350101,-8427.050478,296.082377
4012.548622,814.226536,-8656.879127,740.205942
4012.548946,296.082377,-8503.660028,592.164754
4012.549271,0.000000,-8810.098227,444.123565
4012.549595,0.000000,-8273.831378,592.164754
4012.549920,-148.041188,-8503.660028,518.144159
4012.550244,74.020594,-8580.269578,370.102971
4012.550568,-444.123565,-8580.269578,666.185348
4012.550893,0.000000,-8273.831378,592.164754
4012.551217,74.020594,-7737.564530,370.102971
4012.551542,222.061783,-8580.269578,296.082377
4012.551866,740.205942,-8503.660028,296.082377
4012.552191,370.102971,-8273.831378,74.020594
4012.552515,222.061783,-9346.365076,666.185348
4012.552840,-148.041188,-7967.393179,370.102971
4012.553164,-148.041188,-8810.098227,222.061783
4012.553489,-296.082377,-8503.660028,0.000000
4012.553813,0.000000,-8733.488677,0.000000
4012.554138,-370.102971,-8580.269578,0.000000
4012.554462,-296.082377,-8503.660028,0.000000
4012.554787,0.000000,-7967.393179,-592.164754
4012.555111,0.000000,-8350.440928,-222.061783
4012.555436,518.144159,-8120.612279,-444.123565
4012.555760,296.082377,-8044.002729,-1036.288319
4012.556084,666.185348,-8273.831378,-592.164754
4012.556409,1258.350101,-8350.440928,-740.205942
4012.556733,1554.432478,-8733.488677,-592.164754
4012.557058,814.226536,-8733.488677,-740.205942
4012.557382,1110.308913,-9039.926876,-370.102971
4012.557707,592.164754,-8810.098227,-962.267725
4012.558031,370.102971,-8810.098227,-740.205942
4012.558356,592.164754,-8886.707777,-740.205942
4012.558680,0.000000,-8733.488677,-740.205942
4012.559005,444.123565,-8503.660028,-962.267725
4012.559329,296.082377,-8197.221829,-518.144159
4012.559654,592.164754,-9116.536426,-814.226536
4012.559978,888.247130,-8350.440928,-814.226536
4012.560303,1258.350101,-8886.707777,-1332.370696
4012.560627,888.247130,-8580.269578,-888.247130
4012.560952,1110.308913,-8963.317327,-1332.370696
4012.561276,814.226536,-8886.707777,-592.164754
4012.561600,1110.308913,-8886.707777,-888.247130
4012.561925,592.164754,-9116.536426,-1258.350101
4012.562249,814.226536,-9193.145976,-962.267725
4012.562574,370.102971,-9576.193725,-592.164754
4012.562898,0.000000,-9269.755526,-814.226536
4012.563223,-296.082377,-8656.879127,-740.205942
4012.563547,0.000000,-8656.879127,-814.226536
4012.563872,222.061783,-8656.879127,-518.144159
4012.564196,222.061783,-8580.269578,-370.102971
4012.564521,814.226536,-8810.098227,-740.205942
4012.564845,740.205942,-8580.269578,-370.102971
4012.565170,1184.329507,-8733.488677,-518.144159
4012.565494,962.267725,-8656.879127,-222.061783
4012.565819,1406.391290,-8503.660028,0.000000
4012.566143,962.267725,-8656.879127,0.000000
4012.566467,1036.288319,-8810.098227,-222.061783
4012.566792,592.164754,-8503.660028,74.020594
4012.567116,370.102971,-8580.269578,0.000000
4012.567441,222.061783,-8580.269578,-222.061783
4012.567765,296.082377,-8350.440928,0.000000
4012.568090,666.185348,-8580.269578,0.000000
4012.568414,518.144159,-7967.393179,0.000000
4012.568739,814.226536,-8120.612279,-444.123565
4012.569063,1184.329507,-8580.269578,74.020594
4012.569388,1184.329507,-7967.393179,74.020594
4012.569712,1184.329507,-8427.050478,74.020594
4012.570037,740.205942,-8273.831378,0.000000
4012.570361,296.082377,-8427.050478,74.020594
4012.570686,0.000000,-8044.002729,0.000000
4012.571010,0.000000,-7967.393179,518.144159
4012.571335,-296.082377,-8350.440928,296.082377
4012.571659,-370.102971,-8120.612279,444.123565
4012.571983,-148.041188,-8273.831378,296.082377
4012.572308,-296.082377,-7507.735880,444.123565
4012.572632,740.205942,-7737.564530,296.082377
4012.572957,888.247130,-7967.393179,74.020594
4012.573281,1036.288319,-8273.831378,222.061783
4012.573606,814.226536,-8503.660028,0.000000
4012.573930,1110.308913,-8503.660028,-148.041188
4012.574255,74.020594,-8733.488677,0.000000
4012.574579,296.082377,-8963.317327,0.000000
4012.574904,0.000000,-8733.488677,-148.041188
4012.575228,0.000000,-9269.755526,222.061783
4012.575553,0.000000,-8580.269578,0.000000
4012.575877,444.123565,-8580.269578,0.000000
4012.576202,962.267725,-8503.660028,-148.041188
4012.576526,1184.329507,-9193.145976,0.000000
4012.576850,1628.453072,-8810.098227,-148.041188
4012.577175,962.267725,-8886.707777,-444.123565
4012.577499,592.164754,-8963.317327,-296.082377
4012.577824,0.000000,-8963.317327,-740.205942
4012.578148,-370.102971,-9193.145976,-740.205942
4012.578473,-740.205942,-9116.536426,-296.082377
4012.578797,-1036.288319,-9652.803275,370.102971
4012.579122,-666.185348,-8580.269578,-592.164754
4012.579446,-370.102971,-8886.707777,-370.102971
4012.579771,666.185348,-8197.221829,-592.164754
4012.580095,1036.288319,-8580.269578,-444.123565
4012.580420,1332.370696,-8733.488677,-1184.329507
4012.580744,1036.288319,-8810.098227,-592.164754
4012.581069,962.267725,-8810.098227,-1110.308913
4012.581393,518.144159,-9039.926876,-962.267725
4012.581718,148.041188,-8810.098227,-740.205942
4012.582042,-296.082377,-8580.269578,-740.205942
4012.582366,0.000000,-8503.660028,-666.185348
4012.582691,222.061783,-8580.269578,-962.267725
4012.583015,962.267725,-8044.002729,-962.267725
4012.583340,1628.453072,-8044.002729,-592.164754
4012.583664,1554.432478,-8120.612279,-1258.350101
4012.583989,1924.535449,-8580.269578,-888.247130
4012.584313,1628.453072,-8197.221829,-1184.329507
4012.584638,1480.411884,-8810.098227,-740.205942
4012.584962,370.102971,-8427.050478,-444.123565
4012.585287,592.164754,-9346.365076,0.000000
4012.585611,-222.061783,-8580.269578,-518.144159
4012.585936,-222.061783,-8733.488677,0.000000
4012.586260,-370.102971,-8273.831378,-444.123565
4012.586585,74.020594,-8733.488677,0.000000
4012.586909,-296.082377,-8120.612279,-444.123565
4012.587234,74.020594,-8350.440928,-222.061783
4012.587558,444.123565,-8197.221829,-814.226536
4012.587882,0.000000,-8963.317327,0.000000
4012.588207,518.144159,-8580.269578,-148.041188
4012.588531,518.144159,-8580.269578,-370.102971
4012.588856,814.226536,-8810.098227,0.000000
4012.589180,518.144159,-8810.098227,-296.082377
4012.589505,0.000000,-8963.317327,-370.102971
4012.589829,-370.102971,-9116.536426,0.000000
4012.590154,-592.164754,-8503.660028,-296.082377
4012.590478,-1110.308913,-8580.269578,-222.061783
4012.590803,-222.061783,-8656.879127,-370.102971
4012.591127,-666.185348,-8503.660028,0.000000
4012.591452,-592.164754,-8120.612279,-222.061783
4012.591776,518.144159,-8350.440928,-370.102971
4012.592101,888.247130,-8963.317327,148.041188
4012.592425,1332.370696,-8886.707777,-222.061783
4012.592749,1110.308913,-8733.488677,-148.041188
4012.593074,1258.350101,-9116.536426,296.082377
4012.593398,1036.288319,-8733.488677,-74.020594
4012.593723,592.164754,-8503.660028,-222.061783
4012.594047,444.123565,-8733.488677,-222.061783
4012.594372,0.000000,-8580.269578,-518.144159
4012.594696,74.020594,-8656.879127,-370.102971
4012.595021,222.061783,-8886.707777,0.000000
4012.595345,0.000000,-8350.440928,0.000000
4012.595670,296.082377,-8197.221829,0.000000
4012.595994,962.267725,-8120.612279,-444.123565
4012.596319,1184.329507,-8427.050478,-592.164754
4012.596643,1406.391290,-8350.440928,-592.164754
4012.596968,1258.350101,-8503.660028,-518.144159
4012.597292,1110.308913,-8656.879127,-518.144159
4012.597617,370.102971,-8733.488677,-518.144159
4012.597941,0.000000,-9116.536426,-370.102971
4012.598265,-148.041188,-8886.707777,-222.061783
4012.598590,-740.205942,-8580.269578,-592.164754
4012.598914,-444.123565,-8656.879127,-148.041188
4012.599239,222.061783,-8427.050478,-222.061783
4012.599563,222.061783,-8503.660028,-296.082377
4012.599888,888.247130,-7967.393179,-592.164754
4012.600212,1480.411884,-8733.488677,-518.144159
4012.600537,1850.514855,-8273.831378,-592.164754
4012.600861,1702.473667,-8810.098227,-518.144159
4012.601186,1258.350101,-9116.536426,-592.164754
4012.601510,1554.432478,-8886.707777,-740.205942
4012.601835,1184.329507,-9346.365076,-666.185348
4012.602159,814.226536,-9499.584175,-592.164754
4012.602484,518.144159,-9116.536426,-148.041188
4012.602808,518.144159,-8733.488677,-592.164754
4012.603133,444.123565,-9039.926876,-592.164754
4012.603457,814.226536,-8810.098227,-518.144159
4012.603781,222.061783,-8886.707777,-370.102971
4012.604106,296.082377,-8656.879127,-296.082377
4012.604430,222.061783,-8733.488677,-518.144159
4012.604755,148.041188,-8963.317327,-370.102971
4012.605079,222.061783,-8044.002729,-592.164754
4012.605404,296.082377,-8963.317327,-370.102971
4012.605728,296.082377,-8886.707777,0.000000
4012.606053,518.144159,-8963.317327,-592.164754
4012.606377,444.123565,-8733.488677,-592.164754
4012.606702,74.020594,-8733.488677,-148.041188
4012.607026,0.000000,-8810.098227,-370.102971
4012.607351,-222.061783,-8656.879127,-296.082377
4012.607675,-444.123565,-7507.735880,222.061783
4012.608000,-296.082377,-8197.221829,-666.185348
4012.608324,-592.164754,-8120.612279,-370.102971
4012.608648,0.000000,-8044.002729,-370.102971
4012.608973,296.082377,-8197.221829,-518.144159
4012.609297,592.164754,-8044.002729,-296.082377
4012.609622,888.247130,-8350.440928,-148.041188
4012.609946,1406.391290,-8273.831378,-296.082377
4012.610271,962.267725,-8580.269578,-592.164754
4012.610595,1258.350101,-9193.145976,0.000000
4012.610920,444.123565,-8350.440928,-370.102971
4012.611244,444.123565,-8656.879127,-296.082377
4012.611569,0.000000,-8197.221829,0.000000
4012.611893,148.041188,-8427.050478,0.000000
4012.612218,-444.123565,-8503.660028,-296.082377
4012.612542,-518.144159,-8273.831378,0.000000
4012.612867,-222.061783,-7890.783629,-444.123565
4012.613191,0.000000,-8273.831378,0.000000
4012.613516,444.123565,-8273.831378,-296.082377
4012.613840,518.144159,-8656.879127,-518.144159
4012.614164,518.144159,-8503.660028,-518.144159
4012.614489,740.205942,-8733.488677,-370.102971
4012.614813,444.123565,-8886.707777,74.020594
4012.615138,0.000000,-8810.098227,-296.082377
4012.615462,0.000000,-8963.317327,-518.144159
4012.615787,0.000000,-9039.926876,-296.082377
4012.616111,-666.185348,-8656.879127,-444.123565
4012.616436,-444.123565,-8733.488677,-296.082377
4012.616760,-444.123565,-8350.440928,-592.164754
4012.617085,-296.082377,-8350.440928,-592.164754
4012.617409,0.000000,-8580.269578,-592.164754
4012.617734,0.000000,-8427.050478,0.000000
4012.618058,444.123565,-8350.440928,-296.082377
4012.618383,888.247130,-8580.269578,-222.061783
4012.618707,1332.370696,-8656.879127,-444.123565
4012.619032,1406.391290,-8503.660028,-962.267725
4012.619356,1480.411884,-8886.707777,-370.102971
4012.619680,1184.329507,-9346.365076,0.000000
4012.620005,666.185348,-8886.707777,-592.164754
4012.620329,740.205942,-8963.317327,-296.082377
4012.620654,518.144159,-8427.050478,-666.185348
4012.620978,592.164754,-9039.926876,-370.102971
4012.621303,888.247130,-8197.221829,-592.164754
4012.621627,888.247130,-8580.269578,-296.082377
4012.621952,740.205942,-8580.269578,-592.164754
4012.622276,1406.391290,-8733.488677,-518.144159
4012.622601,1480.411884,-8350.440928,-888.247130
4012.622925,1480.411884,-8886.707777,-518.144159
4012.623250,962.267725,-8120.612279,-444.123565
4012.623574,814.226536,-8963.317327,-222.061783
4012.623899,518.144159,-8503.660028,-592.164754
4012.624223,666.185348,-8350.440928,-296.082377
4012.624547,740.205942,-8656.879127,-666.185348
4012.624872,74.020594,-8197.221829,-518.144159
4012.625196,222.061783,-8733.488677,0.000000
4012.625521,74.020594,-8273.831378,-592.164754
4012.625845,148.041188,-8273.831378,-592.164754
4012.626170,814.226536,-8044.002729,0.000000
4012.626494,370.102971,-8350.440928,-222.061783
4012.626819,888.247130,-8656.879127,-222.061783
4012.627143,888.247130,-8350.440928,-222.061783
4012.627468,1258.350101,-9346.365076,-592.164754
4012.627792,962.267725,-8733.488677,-592.164754
4012.628117,1258.350101,-9116.536426,0.000000
4012.628441,740.205942,-8733.488677,-148.041188
4012.628766,518.144159,-9269.755526,0.000000
4012.629090,444.123565,-8733.488677,0.000000
4012.629415,444.123565,-8580.269578,0.000000
4012.629739,0.000000,-8503.660028,-148.041188
4012.630064,444.123565,-8656.879127,0.000000
4012.630388,148.041188,-9269.755526,592.164754
4012.630712,222.061783,-8886.707777,0.000000
4012.631037,74.020594,-8503.660028,0.000000
4012.631361,222.061783,-8580.269578,74.020594
4012.631686,222.061783,-9039.926876,0.000000
4012.632010,148.041188,-8427.050478,0.000000
4012.632335,0.000000,-9039.926876,0.000000
4012.632659,-222.061783,-9346.365076,0.000000
4012.632984,0.000000,-8810.098227,-148.041188
4012.633308,-444.123565,-8810.098227,-370.102971
4012.633633,-592.164754,-9039.926876,0.000000
4012.633957,-518.144159,-8656.879127,-148.041188
4012.634282,-666.185348,-8580.269578,0.000000
4012.634606,-296.082377,-7890.783629,-740.205942
4012.634931,0.000000,-8273.831378,-148.041188
4012.635255,370.102971,-8197.221829,-444.123565
4012.635580,370.102971,-8350.440928,-666.185348
4012.635904,740.205942,-8044.002729,-592.164754
4012.636229,1036.288319,-8273.831378,-518.144159
4012.636553,888.247130,-8273.831378,-370.102971
4012.636878,666.185348,-8273.831378,-444.123565
4012.637202,740.205942,-8810.098227,-296.082377
4012.637527,1036.288319,-8580.269578,0.000000
4012.637851,444.123565,-8120.612279,-666.185348
4012.638176,518.144159,-8580.269578,-222.061783
4012.638500,370.102971,-8427.050478,-444.123565
4012.638825,666.185348,-8886.707777,148.041188
4012.639149,148.041188,-7967.393179,-222.061783
4012.639474,814.226536,-8273.831378,-222.061783
4012.639798,222.061783,-7814.174080,-888.247130
4012.640123,814.226536,-8503.660028,-518.144159
4012.640447,518.144159,-8350.440928,-814.226536
4012.640772,444.123565,-8810.098227,-444.123565
4012.641096,518.144159,-8503.660028,-518.144159
4012.641421,444.123565,-8580.269578,-518.144159
4012.641745,370.102971,-8503.660028,-370.102971
4012.642070,666.185348,-8427.050478,-592.164754
4012.642394,518.144159,-8733.488677,-444.123565
4012.642719,0.000000,-8810.098227,-888.247130
4012.643043,296.082377,-8810.098227,-666.185348
4012.643368,74.020594,-8503.660028,-740.205942
4012.643692,518.144159,-8963.317327,-444.123565
4012.644017,222.061783,-8733.488677,-666.185348
4012.644341,592.164754,-8886.707777,-296.082377
4012.644666,518.144159,-8503.660028,-518.144159
4012.644990,1184.329507,-8580.269578,-296.082377
4012.645315,888.247130,-8580.269578,-296.082377
4012.645639,1406.391290,-9039.926876,0.000000
4012.645964,1110.308913,-8503.660028,0.000000
4012.646288,1184.329507,-8963.317327,0.000000
4012.646613,962.267725,-9269.755526,-592.164754
4012.646937,1036.288319,-8810.098227,0.000000
4012.647262,1332.370696,-9346.365076,-444.123565
4012.647586,592.164754,-8733.488677,-222.061783
4012.647910,592.164754,-8733.488677,-222.061783
4012.648235,518.144159,-8350.440928,-444.123565
4012.648559,444.123565,-8503.660028,-296.082377
4012.648884,962.267725,-8810.098227,-296.082377
4012.649208,814.226536,-8273.831378,-444.123565
4012.649533,814.226536,-8733.488677,-296.082377
4012.649857,962.267725,-8427.050478,-518.144159
4012.650182,1332.370696,-9652.803275,-296.082377
4012.650506,962.267725,-8733.488677,-444.123565
4012.650831,296.082377,-8733.488677,-444.123565
4012.651155,0.000000,-8733.488677,0.000000
4012.651480,-518.144159,-8273.831378,0.000000
4012.651804,-592.164754,-8273.831378,0.000000
4012.652129,-444.123565,-8427.050478,0.000000
4012.652453,0.000000,-8656.879127,74.020594
4012.652778,0.000000,-8044.002729,-518.144159
4012.653102,518.144159,-8427.050478,148.041188
4012.653427,518.144159,-7890.783629,-592.164754
4012.653751,888.247130,-8580.269578,148.041188
4012.654076,740.205942,-8350.440928,0.000000
4012.654400,740.205942,-9806.022374,0.000000
4012.654725,666.185348,-8580.269578,-370.102971
4012.655049,666.185348,-9269.755526,296.082377
4012.655374,0.000000,-8350.440928,-370.102971
4012.655698,74.020594,-9346.365076,0.000000
4012.656023,74.020594,-8580.269578,-296.082377
4012.656347,74.020594,-8733.488677,296.082377
4012.656672,370.102971,-8656.879127,-592.164754
4012.656996,222.061783,-8733.488677,0.000000
4012.657321,740.205942,-9039.926876,0.000000
4012.657645,666.185348,-8810.098227,0.000000
4012.657970,296.082377,-8963.317327,-148.041188
4012.658294,222.061783,-8886.707777,0.000000
4012.658619,74.020594,-8886.707777,74.020594
4012.658943,-370.102971,-8580.269578,-592.164754
4012.659268,-222.061783,-9499.584175,74.020594
4012.659592,-222.061783,-8503.660028,-296.082377
4012.659917,-370.102971,-8733.488677,-370.102971
4012.660241,-592.164754,-8503.660028,-666.185348
4012.660566,0.000000,-8503.660028,-296.082377
4012.660890,0.000000,-8120.612279,-740.205942
4012.661215,0.000000,-8503.660028,-370.102971
4012.661539,0.000000,-7890.783629,-444.123565
4012.661864,518.144159,-8503.660028,-814.226536
4012.662188,222.061783,-8427.050478,-1036.288319
4012.662513,740.205942,-8580.269578,-370.102971
4012.662837,1036.288319,-8886.707777,-888.247130
4012.663162,1110.308913,-8427.050478,-370.102971
4012.663486,1406.391290,-8350.440928,-592.164754
4012.663811,1258.350101,-8273.831378,-592.164754
4012.664135,1628.453072,-8503.660028,-592.164754
4012.664460,814.226536,-8886.707777,-518.144159
4012.664784,1110.308913,-8656.879127,0.000000
4012.665109,518.144159,-8197.221829,-444.123565
4012.665433,592.164754,-8733.488677,-370.102971
4012.665757,-222.061783,-8197.221829,0.000000
4012.666082,592.164754,-8886.707777,0.000000
4012.666406,222.061783,-7660.954980,-1184.329507
4012.666731,518.144159,-8810.098227,0.000000
4012.667055,0.000000,-8044.002729,-814.226536
4012.667380,296.082377,-8810.098227,-444.123565
4012.667704,444.123565,-8427.050478,-1036.288319
4012.668029,518.144159,-8963.317327,-370.102971
4012.668353,370.102971,-8656.879127,-592.164754
4012.668678,74.020594,-8886.707777,-222.061783
4012.669002,518.144159,-8656.879127,-592.164754
4012.669327,370.102971,-9039.926876,-592.164754
4012.669651,148.041188,-9116.536426,-888.247130
4012.669976,592.164754,-8733.488677,-148.041188
4012.670300,0.000000,-8350.440928,-592.164754
4012.670625,0.000000,-9116.536426,-592.164754
4012.670949,0.000000,-8580.269578,-148.041188
4012.671274,296.082377,-8733.488677,-296.082377
4012.671598,444.123565,-8503.660028,-296.082377
4012.671923,444.123565,-8886.707777,74.020594
4012.672247,888.247130,-8656.879127,-296.082377
4012.672572,740.205942,-8733.488677,0.000000
4012.672896,1184.329507,-9116.536426,-296.082377
4012.673221,1110.308913,-9116.536426,0.000000
4012.673545,740.205942,-8656.879127,0.000000
4012.673870,370.102971,-8656.879127,0.000000
4012.674194,444.123565,-9269.755526,0.000000
4012.674519,296.082377,-8427.050478,-222.061783
4012.674843,370.102971,-8733.488677,-296.082377
4012.675168,148.041188,-8120.612279,-222.061783
4012.675492,592.164754,-8580.269578,74.020594
4012.675817,444.123565,-7890.783629,-222.061783
4012.676141,1036.288319,-8733.488677,0.000000
4012.676466,592.164754,-8427.050478,-370.102971
4012.676790,888.247130,-8810.098227,74.020594
4012.677115,1332.370696,-8350.440928,-148.041188
4012.677439,518.144159,-8810.098227,0.000000
4012.677764,0.000000,-8197.221829,-370.102971
4012.678088,0.000000,-8733.488677,0.000000
4012.678413,-444.123565,-8197.221829,-444.123565
4012.678737,-888.247130,-8427.050478,-148.041188
4012.679062,-444.123565,-8273.831378,0.000000
4012.679386,-666.185348,-8044.002729,74.020594
4012.679711,222.061783,-8273.831378,-518.144159
4012.680035,592.164754,-7890.783629,0.000000
4012.680360,1406.391290,-8350.440928,74.020594
4012.680684,1332.370696,-8427.050478,-444.123565
4012.681009,1406.391290,-8810.098227,-222.061783
4012.681333,1554.432478,-8810.098227,148.041188
4012.681658,1332.370696,-8580.269578,-592.164754
4012.681982,1184.329507,-9346.365076,-370.102971
4012.682307,444.123565,-8503.660028,-222.061783
4012.682631,148.041188,-9269.755526,0.000000
4012.682956,74.020594,-8656.879127,-370.102971
4012.683280,592.164754,-9193.145976,-296.082377
4012.683604,74.020594,-8656.879127,-518.144159
4012.683929,666.185348,-8656.879127,-222.061783
4012.684253,666.185348,-8273.831378,-592.164754
4012.684578,1036.288319,-8580.269578,-370.102971
4012.684902,666.185348,-8886.707777,-444.123565
4012.685227,740.205942,-9269.755526,-296.082377
4012.685551,592.164754,-9193.145976,-666.185348
4012.685876,-148.041188,-8963.317327,-296.082377
4012.686200,0.000000,-8963.317327,-444.123565
4012.686525,-222.061783,-8886.707777,-592.164754
4012.686849,-222.061783,-9116.536426,-740.205942
4012.687174,-222.061783,-8580.269578,-444.123565
4012.687498,-222.061783,-8580.269578,-222.061783
4012.687823,0.000000,-7967.393179,-666.185348
4012.688147,222.061783,-8273.831378,-962.267725
4012.688472,888.247130,-8580.269578,-888.247130
4012.688796,1036.288319,-8656.879127,-814.226536
4012.689121,666.185348,-8427.050478,-962.267725
4012.689445,1258.350101,-8733.488677,-296.082377
4012.689770,1332.370696,-8273.831378,-1110.308913
4012.690094,1628.453072,-8656.879127,-518.144159
4012.690419,888.247130,-8656.879127,-740.205942
4012.690743,1110.308913,-8503.660028,0.000000
4012.691068,444.123565,-8044.002729,-814.226536
4012.691392,444.123565,-8810.098227,-370.102971
4012.691717,222.061783,-8350.440928,-296.082377
4012.692041,222.061783,-8656.879127,-296.082377
4012.692366,296.082377,-8120.612279,-814.226536
4012.692690,222.061783,-8350.440928,0.000000
4012.693015,518.144159,-8273.831378,-962.267725
4012.693339,74.020594,-8273.831378,-296.082377
4012.693664,296.082377,-8733.488677,-740.205942
4012.693988,296.082377,-9806.022374,-222.061783
4012.694313,222.061783,-8733.488677,-296.082377
4012.694637,-370.102971,-8656.879127,-296.082377
4012.694962,0.000000,-8886.707777,-518.144159
4012.695286,-666.185348,-8656.879127,-296.082377
4012.695611,-370.102971,-9193.145976,0.000000
4012.695935,-370.102971,-8580.269578,-222.061783
4012.696260,-444.123565,-8886.707777,0.000000
4012.696584,-222.061783,-8580.269578,-518.144159
4012.696909,-370.102971,-7890.783629,-222.061783
4012.697233,-148.041188,-8580.269578,-592.164754
4012.697558,222.061783,-8810.098227,148.041188
4012.697882,0.000000,-8427.050478,74.020594
4012.698207,0.000000,-9116.536426,-518.144159
4012.698531,518.144159,-8656.879127,-222.061783
4012.698856,666.185348,-9116.536426,0.000000
4012.699180,888.247130,-8963.317327,-222.061783
4012.699505,1036.288319,-8656.879127,0.000000
4012.699829,962.267725,-8580.269578,148.041188
4012.700154,1110.308913,-8886.707777,74.020594
4012.700478,1110.308913,-8503.660028,-444.123565
4012.700802,962.267725,-8810.098227,-296.082377
4012.701127,1036.288319,-8427.050478,-148.041188
4012.701451,518.144159,-8503.660028,0.000000
4012.701776,592.164754,-8273.831378,-370.102971
4012.702100,666.185348,-8580.269578,-370.102971
4012.702425,666.185348,-8886.707777,-518.144159
4012.702749,1332.370696,-8810.098227,-296.082377
4012.703074,814.226536,-8273.831378,-296.082377
4012.703398,1332.370696,-8427.050478,-222.061783
4012.703723,1184.329507,-7890.783629,-444.123565
4012.704047,1332.370696,-8810.098227,0.000000
4012.704372,740.205942,-8197.221829,-296.082377
4012.704696,518.144159,-8350.440928,0.000000
4012.705021,296.082377,-8427.050478,-370.102971
4012.705345,-592.164754,-8656.879127,0.000000
4012.705670,-222.061783,-8810.098227,74.020594
4012.705994,-148.041188,-7890.783629,-444.123565
4012.706319,222.061783,-8503.660028,-296.082377
4012.706643,740.205942,-8273.831378,-592.164754
4012.706968,814.226536,-8427.050478,0.000000
4012.707292,1258.350101,-8197.221829,-740.205942
4012.707617,1406.391290,-8656.879127,0.000000
4012.707941,1776.494261,-8580.269578,-814.226536
4012.708266,1776.494261,-8733.488677,-518.144159
4012.708590,1110.308913,-8886.707777,-370.102971
4012.708915,888.247130,-9269.755526,-296.082377
4012.709239,666.185348,-8656.879127,-666.185348
4012.709564,962.267725,-9039.926876,0.000000
4012.709888,740.205942,-9116.536426,-296.082377
4012.710213,296.082377,-8503.660028,-518.144159
4012.710537,518.144159,-8963.317327,-222.061783
4012.710862,518.144159,-8733.488677,-444.123565
4012.711186,740.205942,-8503.660028,-444.123565
4012.711511,740.205942,-8886.707777,-592.164754
4012.711835,148.041188,-8810.098227,0.000000
4012.712160,148.041188,-9193.145976,-222.061783
4012.712484,-296.082377,-7967.393179,-962.267725
4012.712809,296.082377,-9269.755526,-444.123565
4012.713133,-296.082377,-8656.879127,-296.082377
4012.713458,-592.164754,-8963.317327,-370.102971
4012.713782,-666.185348,-7890.783629,-296.082377
4012.714107,-592.164754,-8503.660028,0.000000
4012.714431,-740.205942,-8044.002729,-814.226536
4012.714756,-74.020594,-8503.660028,-740.205942
4012.715080,-148.041188,-8350.440928,-518.144159
4012.715405,0.000000,-8044.002729,-444.123565
4012.715729,444.123565,-8427.050478,-666.185348
4012.716054,518.144159,-8273.831378,-296.082377
4012.716378,962.267725,-8197.221829,-370.102971
4012.716703,1184.329507,-8733.488677,-592.164754
4012.717027,814.226536,-8810.098227,-444.123565
4012.717352,888.247130,-8580.269578,0.000000
4012.717676,518.144159,-8656.879127,-222.061783
4012.718001,518.144159,-8273.831378,-666.185348
4012.718325,592.164754,-8656.879127,74.020594
4012.718649,0.000000,-7890.783629,-370.102971
4012.718974,222.061783,-8810.098227,0.000000
4012.719298,148.041188,-7967.393179,-222.061783
4012.719623,518.144159,-9346.365076,148.041188
4012.719947,-148.041188,-7814.174080,-740.205942
4012.720272,592.164754,-8733.488677,0.000000
4012.720596,74.020594,-8197.221829,-296.082377
4012.720921,962.267725,-8810.098227,148.041188
4012.721245,0.000000,-8350.440928,-444.123565
4012.721570,444.123565,-9039.926876,0.000000
4012.721894,0.000000,-8273.831378,-592.164754
4012.722219,222.061783,-8427.050478,296.082377
4012.722543,74.020594,-8503.660028,-148.041188
4012.722868,0.000000,-8580.269578,-296.082377
4012.723192,0.000000,-8503.660028,-666.185348
4012.723517,0.000000,-8580.269578,-370.102971
4012.723841,0.000000,-8273.831378,-814.226536
4012.724166,0.000000,-8810.098227,-74.020594
4012.724490,296.082377,-8810.098227,-444.123565
4012.724815,74.020594,-8810.098227,-148.041188
4012.725139,888.247130,-8580.269578,-296.082377
4012.725464,1184.329507,-8503.660028,74.020594
4012.725788,1258.350101,-8963.317327,-370.102971
4012.726113,1258.350101,-8810.098227,-296.082377
4012.726437,1776.494261,-9269.755526,0.000000
4012.726762,1480.411884,-8810.098227,-296.082377
4012.727086,1184.329507,-8810.098227,0.000000
4012.727411,888.247130,-8656.879127,0.000000
4012.727735,814.226536,-8656.879127,-148.041188
4012.728060,1110.308913,-8886.707777,-444.123565
4012.728384,814.226536,-8503.660028,-666.185348
4012.728709,740.205942,-8273.831378,-518.144159
4012.729033,740.205942,-8273.831378,-444.123565
4012.729358,1406.391290,-9729.412825,-296.082377
4012.729682,1036.288319,-8427.050478,-518.144159
4012.730007,1036.288319,-8580.269578,-518.144159
4012.730331,740.205942,-8580.269578,-370.102971
4012.730656,1036.288319,-8656.879127,-370.102971
4012.730980,666.185348,-8503.660028,-592.164754
4012.731305,222.061783,-8503.660028,-370.102971
4012.731629,0.000000,-8580.269578,-518.144159
4012.731954,-296.082377,-8580.269578,-222.061783
4012.732278,0.000000,-8197.221829,-444.123565
4012.732603,0.000000,-8197.221829,0.000000
4012.732927,-148.041188,-8427.050478,-444.123565
4012.733252,222.061783,-8427.050478,-148.041188
4012.733577,888.247130,-8427.050478,-666.185348
4012.733901,1406.391290,-8427.050478,-592.164754
4012.734226,1184.329507,-8120.612279,-592.164754
4012.734550,1332.370696,-9193.145976,0.000000
4012.734875,1258.350101,-8886.707777,-370.102971
4012.735199,888.247130,-9422.974625,-370.102971
4012.735524,370.102971,-9039.926876,-518.144159
4012.735848,518.144159,-8886.707777,-296.082377
4012.736173,0.000000,-8656.879127,-444.123565
4012.736497,0.000000,-9576.193725,444.123565
4012.736822,-222.061783,-8273.831378,-296.082377
4012.737146,-296.082377,-8810.098227,-296.082377
4012.737471,370.102971,-8580.269578,-296.082377
4012.737795,222.061783,-8427.050478,0.000000
4012.738120,148.041188,-8886.707777,0.000000
4012.738444,518.144159,-8733.488677,-370.102971
4012.738769,148.041188,-8886.707777,-592.164754
4012.739094,370.102971,-9193.145976,-296.082377
4012.739418,148.041188,-8427.050478,0.000000
4012.739743,74.020594,-9193.145976,0.000000
4012.740067,-444.123565,-8810.098227,-518.144159
4012.740392,-592.164754,-8503.660028,-222.061783
4012.740716,-518.144159,-8580.269578,-592.164754
4012.741041,-222.061783,-8197.221829,-296.082377
4012.741365,0.000000,-8427.050478,-296.082377
4012.741690,222.061783,-8273.831378,-222.061783
4012.742014,444.123565,-8503.660028,-518.144159
4012.742339,592.164754,-8197.221829,-592.164754
4012.742663,888.247130,-8427.050478,0.000000
4012.742988,888.247130,-7967.393179,-296.082377
4012.743312,1184.329507,-8656.879127,-296.082377
4012.743637,888.247130,-8580.269578,-740.205942
4012.743962,888.247130,-8273.831378,0.000000
4012.744286,296.082377,-8503.660028,-666.185348
4012.744611,222.061783,-8427.050478,-296.082377
4012.744935,148.041188,-8733.488677,444.123565
4012.745260,-74.020594,-8120.612279,-444.123565
4012.745584,296.082377,-8733.488677,-222.061783
4012.745909,0.000000,-7814.174080,-444.123565
4012.746233,1036.288319,-8656.879127,0.000000
4012.746558,222.061783,-7584.345430,-666.185348
4012.746882,888.247130,-8886.707777,-296.082377
4012.747207,592.164754,-7967.393179,-370.102971
4012.747531,888.247130,-9116.536426,-370.102971
4012.747856,592.164754,-8273.831378,-592.164754
4012.748180,814.226536,-9269.755526,-148.041188
4012.748505,74.020594,-8503.660028,-666.185348
4012.748830,222.061783,-9346.365076,-148.041188
4012.749154,370.102971,-8273.831378,-518.144159
4012.749479,222.061783,-8810.098227,-370.102971
4012.749803,0.000000,-8733.488677,-740.205942
4012.750128,0.000000,-8810.098227,-370.102971
4012.750452,0.000000,-8656.879127,-740.205942
4012.750777,296.082377,-8810.098227,-592.164754
4012.751101,0.000000,-8580.269578,-518.144159
4012.751426,148.041188,-8963.317327,-296.082377
4012.751750,592.164754,-8886.707777,-444.123565
4012.752075,1184.329507,-9576.193725,74.020594
4012.752399,962.267725,-8810.098227,-592.164754
4012.752724,814.226536,-8963.317327,-444.123565
4012.753048,888.247130,-9116.536426,-370.102971
4012.753373,888.247130,-8656.879127,370.102971
4012.753697,592.164754,-8963.317327,-370.102971
4012.754022,296.082377,-8656.879127,0.000000
4012.754347,444.123565,-8427.050478,-296.082377
4012.754671,444.123565,-8503.660028,-444.123565
4012.754996,814.226536,-8886.707777,-296.082377
4012.755320,518.144159,-8197.221829,-370.102971
4012.755645,814.226536,-8656.879127,-296.082377
4012.755969,666.185348,-8503.660028,-814.226536
4012.756294,1036.288319,-8886.707777,-222.061783
4012.756618,666.185348,-8273.831378,-444.123565
4012.756943,666.185348,-8580.269578,-296.082377
4012.757267,444.123565,-8273.831378,-148.041188
4012.757592,740.205942,-8197.221829,0.000000
4012.757916,296.082377,-8503.660028,-444.123565
4012.758241,0.000000,-8273.831378,0.000000
4012.758565,148.041188,-8120.612279,0.000000
4012.758890,0.000000,-8350.440928,-444.123565
4012.759215,0.000000,-8197.221829,0.000000
4012.759539,-148.041188,-8197.221829,0.000000
4012.759864,74.020594,-8810.098227,-296.082377
4012.760188,370.102971,-7890.783629,0.000000
4012.760513,592.164754,-7890.783629,370.102971
4012.760837,666.185348,-8273.831378,-296.082377
4012.761162,962.267725,-8733.488677,-148.041188
4012.761486,1406.391290,-8656.879127,-222.061783
4012.761811,1036.288319,-8656.879127,-222.061783
4012.762135,518.144159,-8580.269578,-222.061783
4012.762460,444.123565,-8886.707777,74.020594
4012.762784,148.041188,-8656.879127,0.000000
4012.763109,444.123565,-8810.098227,-296.082377
4012.763433,592.164754,-8733.488677,0.000000
4012.763758,296.082377,-8656.879127,-148.041188
4012.764083,370.102971,-8810.098227,0.000000
4012.764407,444.123565,-8810.098227,0.000000
4012.764732,592.164754,-10035.851024,0.000000
4012.765056,592.164754,-8427.050478,-370.102971
4012.765381,592.164754,-8963.317327,0.000000
4012.765705,444.123565,-8810.098227,-222.061783
4012.766030,296.082377,-9116.536426,0.000000
4012.766354,0.000000,-8503.660028,-592.164754
4012.766679,0.000000,-8886.707777,-296.082377
4012.767003,-222.061783,-8503.660028,-592.164754
4012.767328,-370.102971,-8733.488677,0.000000
4012.767652,-814.226536,-9116.536426,0.000000
4012.767977,-370.102971,-8273.831378,-370.102971
4012.768301,74.020594,-8273.831378,-888.247130
4012.768626,518.144159,-8733.488677,-666.185348
4012.768950,814.226536,-8580.269578,-296.082377
4012.769275,666.185348,-8350.440928,-518.144159
4012.769600,1184.329507,-8350.440928,-592.164754
4012.769924,1110.308913,-8580.269578,-592.164754
4012.770249,1258.350101,-8656.879127,-962.267725
4012.770573,888.247130,-8503.660028,-592.164754
4012.770898,814.226536,-8810.098227,0.000000
4012.771222,74.020594,-8503.660028,-666.185348
4012.771547,518.144159,-8656.879127,-370.102971
4012.771871,0.000000,-7967.393179,-888.247130
4012.772196,74.020594,-8963.317327,-222.061783
4012.772520,0.000000,-8273.831378,-444.123565
4012.772845,370.102971,-8656.879127,148.041188
4012.773169,0.000000,-8350.440928,-666.185348
4012.773494,296.082377,-8503.660028,-370.102971
4012.773818,296.082377,-8580.269578,-740.205942
4012.774143,222.061783,-8427.050478,0.000000
4012.774468,370.102971,-8886.707777,-296.082377
4012.774792,148.041188,-9116.536426,-444.123565
4012.775117,370.102971,-8503.660028,-370.102971
4012.775441,148.041188,-8810.098227,-740.205942
4012.775766,444.123565,-8580.269578,-444.123565
4012.776090,-370.102971,-9193.145976,148.041188
4012.776415,0.000000,-8963.317327,-222.061783
4012.776739,-222.061783,-8580.269578,-370.102971
4012.777064,0.000000,-8886.707777,-370.102971
4012.777388,0.000000,-8810.098227,-518.144159
4012.777713,0.000000,-8656.879127,148.041188
4012.778037,74.020594,-8503.660028,0.000000
4012.778362,518.144159,-8427.050478,-370.102971
4012.778686,814.226536,-8810.098227,-222.061783
4012.779011,666.185348,-8273.831378,-370.102971
4012.779336,1258.350101,-8963.317327,296.082377
4012.779660,740.205942,-8656.879127,0.000000
4012.779985,1036.288319,-9039.926876,0.000000
4012.780309,592.164754,-8886.707777,-518.144159
4012.780634,592.164754,-9039.926876,-148.041188
4012.780958,814.226536,-8197.221829,-370.102971
4012.781283,962.267725,-8427.050478,-74.020594
4012.781607,740.205942,-8503.660028,-296.082377
4012.781932,222.061783,-8427.050478,-370.102971
4012.782256,888.247130,-8427.050478,-370.102971
4012.782581,592.164754,-8044.002729,-370.102971
4012.782905,1036.288319,-8580.269578,-148.041188
4012.783230,962.267725,-8120.612279,-296.082377
4012.783554,814.226536,-9116.536426,0.000000
4012.783879,740.205942,-8044.002729,-666.185348
4012.784203,814.226536,-8810.098227,0.000000
4012.784528,592.164754,-7814.174080,-370.102971
4012.784853,222.061783,-8733.488677,0.000000
4012.785177,0.000000,-8273.831378,-370.102971
4012.785502,-148.041188,-8120.612279,-222.061783
4012.785826,0.000000,-8120.612279,-518.144159
4012.786151,-296.082377,-8580.269578,0.000000
4012.786475,370.102971,-8273.831378,-370.102971
4012.786800,592.164754,-8656.879127,-444.123565
4012.787124,962.267725,-8120.612279,-444.123565
4012.787449,1406.391290,-8120.612279,-518.144159
4012.787773,1480.411884,-8810.098227,-370.102971
4012.788098,1258.350101,-8733.488677,-444.123565
4012.788422,1258.350101,-9193.145976,-518.144159
4012.788747,888.247130,-8963.317327,-148.041188
4012.789071,592.164754,-8810.098227,-370.102971
4012.789396,370.102971,-8963.317327,-370.102971
4012.789721,444.123565,-9039.926876,-148.041188
4012.790045,592.164754,-9039.926876,-444.123565
4012.790370,592.164754,-8580.269578,-296.082377
4012.790694,518.144159,-8656.879127,-296.082377
4012.791019,296.082377,-8886.707777,-518.144159
4012.791343,740.205942,-8886.707777,-518.144159
4012.791668,962.267725,-8886.707777,-444.123565
4012.791992,518.144159,-9193.145976,-444.123565
4012.792317,0.000000,-8656.879127,-592.164754
4012.792641,296.082377,-9269.755526,-296.082377
4012.792966,-148.041188,-8733.488677,-740.205942
4012.793290,148.041188,-9346.365076,0.000000
4012.793615,-370.102971,-8350.440928,-666.185348
4012.793939,-148.041188,-8963.317327,0.000000
4012.794264,-370.102971,-7967.393179,-666.185348
4012.794589,74.020594,-8810.098227,-518.144159
4012.794913,0.000000,-8120.612279,-666.185348
4012.795238,74.020594,-8427.050478,-222.061783
4012.795562,74.020594,-8273.831378,-962.267725
4012.795887,666.185348,-7890.783629,0.000000
4012.796211,666.185348,-8350.440928,-296.082377
4012.796536,740.205942,-8197.221829,0.000000
4012.796860,1406.391290,-8580.269578,-370.102971
4012.797185,1258.350101,-8656.879127,-370.102971
4012.797509,1480.411884,-8503.660028,-444.123565
4012.797834,592.164754,-8503.660028,-444.123565
4012.798158,814.226536,-8503.660028,-74.020594
4012.798483,0.000000,-7814.174080,0.000000
4012.798807,740.205942,-9193.145976,-148.041188
4012.799132,0.000000,-8044.002729,-444.123565
4012.799456,-148.041188,-8503.660028,296.082377
4012.799781,0.000000,-8120.612279,-814.226536
4012.800106,222.061783,-8810.098227,370.102971
4012.800430,148.041188,-8580.269578,-222.061783
4012.800755,444.123565,-8580.269578,-296.082377
4012.801079,518.144159,-8503.660028,-444.123565
4012.801404,296.082377,-8810.098227,0.000000
4012.801728,888.247130,-8503.660028,-296.082377
4012.802053,222.061783,-8273.831378,-444.123565
4012.802377,444.123565,-9346.365076,-296.082377
4012.802702,0.000000,-8503.660028,-666.185348
4012.803026,148.041188,-9346.365076,0.000000
4012.803351,-444.123565,-8197.221829,-444.123565
4012.803675,0.000000,-8733.488677,0.000000
4012.804000,-222.061783,-8427.050478,-592.164754
4012.804324,370.102971,-8580.269578,0.000000
4012.804649,0.000000,-8656.879127,-666.185348
4012.804974,222.061783,-8656.879127,-148.041188
4012.805298,888.247130,-8503.660028,-296.082377
4012.805623,888.247130,-8656.879127,-296.082377
4012.805947,1184.329507,-8886.707777,-444.123565
4012.806272,814.226536,-9039.926876,0.000000
4012.806596,666.185348,-8810.098227,-222.061783
4012.806921,740.205942,-9039.926876,-222.061783
4012.807245,592.164754,-8810.098227,-370.102971
4012.807570,444.123565,-8503.660028,-296.082377
4012.807894,444.123565,-8503.660028,-444.123565
4012.808219,518.144159,-8733.488677,-444.123565
4012.808543,518.144159,-8044.002729,-666.185348
4012.808868,1036.288319,-8427.050478,-148.041188
4012.809192,666.185348,-8580.269578,-296.082377
4012.809517,1110.308913,-8580.269578,-814.226536
4012.809842,888.247130,-8503.660028,-592.164754
4012.810166,962.267725,-8580.269578,-518.144159
4012.810491,814.226536,-8733.488677,-592.164754
4012.810815,666.185348,-8886.707777,-222.061783
4012.811140,222.061783,-8656.879127,-222.061783
4012.811464,0.000000,-8197.221829,-814.226536
4012.811789,0.000000,-8733.488677,-222.061783
4012.812113,-370.102971,-8350.440928,-296.082377
4012.812438,-148.041188,-7967.393179,0.000000
4012.812762,370.102971,-8427.050478,0.000000
4012.813087,148.041188,-8427.050478,-518.144159
4012.813411,888.247130,-8120.612279,-296.082377
4012.813736,814.226536,-8350.440928,-518.144159
4012.814060,1406.391290,-8580.269578,-444.123565
4012.814385,1332.370696,-8810.098227,-296.082377
4012.814709,1036.288319,-9116.536426,0.000000
4012.815034,666.185348,-8733.488677,-370.102971
4012.815359,296.082377,-9116.536426,-148.041188
4012.815683,740.205942,-9193.145976,0.000000
4012.816008,666.185348,-8733.488677,0.000000
4012.816332,74.020594,-8886.707777,-444.123565
4012.816657,592.164754,-8350.440928,0.000000
4012.816981,592.164754,-8580.269578,-370.102971
4012.817306,296.082377,-8886.707777,0.000000
4012.817630,740.205942,-8427.050478,-370.102971
4012.817955,444.123565,-8733.488677,74.020594
4012.818279,444.123565,-8656.879127,-518.144159
4012.818604,148.041188,-8886.707777,0.000000
4012.818928,0.000000,-9116.536426,-370.102971
4012.819253,0.000000,-8427.050478,-148.041188
4012.819577,0.000000,-8810.098227,0.000000
4012.819902,0.000000,-8656.879127,0.000000
4012.820227,0.000000,-8273.831378,-444.123565
4012.820551,0.000000,-8580.269578,-296.082377
4012.820876,0.000000,-8427.050478,-148.041188
4012.821200,74.020594,-8273.831378,-370.102971
4012.821525,296.082377,-8350.440928,-518.144159
4012.821849,148.041188,-8427.050478,-296.082377
4012.822174,222.061783,-8273.831378,-518.144159
4012.822498,148.041188,-8503.660028,-518.144159
4012.822823,962.267725,-8503.660028,0.000000
4012.823147,592.164754,-8197.221829,-370.102971
4012.823472,666.185348,-8350.440928,-296.082377
4012.823796,888.247130,-8197.221829,-592.164754
4012.824121,1258.350101,-9269.755526,0.000000
4012.824445,296.082377,-8350.440928,-740.205942
4012.824770,592.164754,-8733.488677,0.000000
4012.825095,74.020594,-8120.612279,-444.123565
4012.825419,222.061783,-8656.879127,-148.041188
4012.825744,74.020594,-8427.050478,-444.123565
4012.826068,148.041188,-8656.879127,222.061783
4012.826393,0.000000,-7967.393179,-666.185348
4012.826717,74.020594,-8503.660028,-148.041188
4012.827042,0.000000,-8810.098227,0.000000
4012.827366,444.123565,-8427.050478,-370.102971
4012.827691,222.061783,-8503.660028,-444.123565
4012.828015,0.000000,-8733.488677,-222.061783
4012.828340,444.123565,-9116.536426,-370.102971
4012.828664,222.061783,-8503.660028,-592.164754
4012.828989,518.144159,-8733.488677,-296.082377
4012.829313,148.041188,-8656.879127,-518.144159
4012.829638,148.041188,-8886.707777,-444.123565
4012.829962,0.000000,-8733.488677,-666.185348
4012.830287,-370.102971,-9116.536426,-370.102971
4012.830612,0.000000,-8810.098227,-592.164754
4012.830936,0.000000,-8810.098227,-222.061783
4012.831260,296.082377,-8886.707777,-518.144159
4012.831585,0.000000,-9116.536426,-370.102971
4012.831909,666.185348,-8733.488677,-148.041188
4012.832233,814.226536,-8580.269578,-296.082377
4012.832558,1406.391290,-8963.317327,-370.102971
4012.832882,1332.370696,-8580.269578,-518.144159
4012.833207,1406.391290,-9652.803275,0.000000
4012.833531,962.267725,-8580.269578,-296.082377
4012.833855,740.205942,-9116.536426,0.000000
4012.834180,1258.350101,-8503.660028,-518.144159
4012.834504,518.144159,-8580.269578,-296.082377
4012.834829,370.102971,-8810.098227,-222.061783
4012.835153,74.020594,-8273.831378,-222.061783
4012.835477,518.144159,-8963.317327,148.041188
4012.835802,592.164754,-8427.050478,-296.082377
4012.836126,962.267725,-8810.098227,-296.082377
4012.836451,1110.308913,-8120.612279,-444.123565
4012.836775,1332.370696,-8503.660028,0.000000
4012.837099,666.185348,-8350.440928,-444.123565
4012.837424,888.247130,-8580.269578,0.000000
4012.837748,888.247130,-8427.050478,-518.144159
4012.838072,148.041188,-8886.707777,-222.061783
4012.838397,-222.061783,-8427.050478,148.041188
4012.838721,-444.123565,-8427.050478,0.000000
4012.839046,-370.102971,-7967.393179,-592.164754
4012.839370,74.020594,-8656.879127,74.020594
4012.839694,74.020594,-8120.612279,-296.082377
4012.840019,518.144159,-8273.831378,148.041188
4012.840343,888.247130,-8044.002729,-370.102971
4012.840668,1480.411884,-8963.317327,-222.061783
4012.840992,1406.391290,-8197.221829,-592.164754
4012.841316,1332.370696,-9039.926876,0.000000
4012.841641,1406.391290,-8810.098227,-222.061783
4012.841965,888.247130,-9193.145976,-592.164754
4012.842289,518.144159,-9269.755526,-370.102971
4012.842614,444.123565,-9116.536426,-296.082377
4012.842938,-296.082377,-8886.707777,-222.061783
4012.843263,0.000000,-8810.098227,0.000000
4012.843587,148.041188,-8273.831378,-148.041188
4012.843911,370.102971,-8733.488677,-518.144159
4012.844236,148.041188,-8273.831378,-296.082377
4012.844560,592.164754,-8656.879127,-370.102971
4012.844885,444.123565,-8810.098227,-370.102971
4012.845209,296.082377,-8810.098227,-148.041188
4012.845533,518.144159,-8886.707777,-222.061783
4012.845858,0.000000,-8886.707777,-222.061783
4012.846182,0.000000,-8963.317327,-296.082377
4012.846507,0.000000,-9116.536426,-370.102971
4012.846831,0.000000,-8810.098227,-296.082377
4012.847155,-370.102971,-8503.660028,-296.082377
4012.847480,-666.185348,-8273.831378,-296.082377
4012.847804,-222.061783,-8427.050478,-444.123565
4012.848128,0.000000,-8273.831378,-592.164754
4012.848453,370.102971,-8044.002729,-592.164754
4012.848777,444.123565,-8427.050478,-740.205942
4012.849102,962.267725,-8350.440928,-370.102971
4012.849426,1110.308913,-8350.440928,-444.123565
4012.849750,1258.350101,-8197.221829,-814.226536
4012.850075,1554.432478,-9039.926876,-518.144159
4012.850399,1332.370696,-8656.879127,-592.164754
4012.850724,1110.308913,-8503.660028,-148.041188
4012.851048,518.144159,-8273.831378,-296.082377
4012.851372,370.102971,-8656.879127,-74.020594
4012.851697,296.082377,-8350.440928,-370.102971
4012.852021,-296.082377,-8350.440928,0.000000
4012.852346,148.041188,-8350.440928,-222.061783
4012.852670,-222.061783,-7737.564530,-148.041188
4012.852994,148.041188,-8656.879127,-518.144159
4012.853319,0.000000,-8350.440928,-296.082377
4012.853643,222.061783,-9039.926876,-370.102971
4012.853967,148.041188,-8273.831378,-740.205942
4012.854292,148.041188,-8733.488677,-296.082377
4012.854616,-222.061783,-8733.488677,-666.185348
4012.854941,296.082377,-8886.707777,-370.102971
4012.855265,0.000000,-8810.098227,-666.185348
4012.855589,74.020594,-8963.317327,-370.102971
4012.855914,222.061783,-8580.269578,-370.102971
4012.856238,0.000000,-8886.707777,-370.102971
4012.856563,0.000000,-8350.440928,-666.185348
4012.856887,0.000000,-8580.269578,-148.041188
4012.857211,0.000000,-8656.879127,-592.164754
4012.857536,296.082377,-8273.831378,-370.102971
4012.857860,74.020594,-8580.269578,-296.082377
4012.858184,592.164754,-9039.926876,-740.205942
4012.858509,444.123565,-8656.879127,0.000000
4012.858833,1110.308913,-9422.974625,222.061783
4012.859158,962.267725,-8656.879127,-518.144159
4012.859482,1036.288319,-8733.488677,0.000000
4012.859806,1332.370696,-8810.098227,-148.041188
4012.860131,1110.308913,-8963.317327,0.000000
4012.860455,740.205942,-8427.050478,-518.144159
4012.860780,1036.288319,-8733.488677,0.000000
4012.861104,444.123565,-8197.221829,-444.123565
4012.861428,370.102971,-8810.098227,-222.061783
4012.861753,518.144159,-8350.440928,-222.061783
4012.862077,592.164754,-8427.050478,-222.061783
4012.862402,1184.329507,-9346.365076,-222.061783
4012.862726,666.185348,-8350.440928,-296.082377
4012.863050,1036.288319,-8503.660028,-296.082377
4012.863375,740.205942,-8120.612279,-296.082377
4012.863699,740.205942,-8427.050478,-444.123565
4012.864023,666.185348,-8580.269578,-222.061783
4012.864348,814.226536,-8044.002729,0.000000
4012.864672,222.061783,-8273.831378,-444.123565
4012.864997,222.061783,-8273.831378,-296.082377
4012.865321,222.061783,-8273.831378,-518.144159
4012.865645,74.020594,-8120.612279,-592.164754
4012.865970,74.020594,-8427.050478,0.000000
4012.866294,0.000000,-8197.221829,-148.041188
4012.866619,444.123565,-8963.317327,-666.185348
4012.866943,444.123565,-8197.221829,-444.123565
4012.867267,1258.350101,-8886.707777,-148.041188
4012.867592,1258.350101,-7890.783629,-296.082377
4012.867916,1332.370696,-8810.098227,0.000000
4012.868240,1332.370696,-8810.098227,-592.164754
4012.868565,1110.308913,-8963.317327,-592.164754
4012.868889,592.164754,-8810.098227,-666.185348
4012.869214,1110.308913,-8810.098227,74.020594
4012.869538,0.000000,-9116.536426,0.000000
4012.869862,296.082377,-9116.536426,-296.082377
4012.870187,666.185348,-8580.269578,-444.123565
4012.870511,0.000000,-8656.879127,-296.082377
4012.870836,296.082377,-9499.584175,-444.123565
4012.871160,74.020594,-8810.098227,0.000000
4012.871484,370.102971,-8733.488677,-444.123565
4012.871809,148.041188,-8886.707777,-518.144159
4012.872133,296.082377,-9039.926876,-370.102971
4012.872458,0.000000,-8503.660028,-148.041188
4012.872782,0.000000,-9039.926876,-296.082377
4012.873106,-296.082377,-8810.098227,-370.102971
4012.873431,0.000000,-9116.536426,-444.123565
4012.873755,-1036.288319,-8273.831378,-518.144159
4012.874079,-296.082377,-8733.488677,-222.061783
4012.874404,-518.144159,-8810.098227,-592.164754
4012.874728,-222.061783,-8273.831378,-222.061783
4012.875053,-148.041188,-8273.831378,-370.102971
4012.875377,148.041188,-8503.660028,-444.123565
4012.875701,518.144159,-8427.050478,-592.164754
4012.876026,1258.350101,-8503.660028,-370.102971
4012.876350,1184.329507,-8273.831378,-444.123565
4012.876675,1628.453072,-8580.269578,-370.102971
4012.876999,1406.391290,-8580.269578,-592.164754
4012.877323,666.185348,-8656.879127,-444.123565
4012.877648,518.144159,-8656.879127,-444.123565
4012.877972,222.061783,-9116.536426,0.000000
4012.878296,222.061783,-8656.879127,0.000000
4012.878621,-518.144159,-8044.002729,-296.082377
4012.878945,-370.102971,-8810.098227,0.000000
4012.879270,-296.082377,-8197.221829,-370.102971
4012.879594,148.041188,-9116.536426,-518.144159
4012.879918,-666.185348,-7890.783629,-518.144159
4012.880243,74.020594,-8580.269578,222.061783
4012.880567,666.185348,-8120.612279,-222.061783
4012.880892,444.123565,-8427.050478,-148.041188
4012.881216,74.020594,-8733.488677,-444.123565
4012.881540,222.061783,-8963.317327,0.000000
4012.881865,74.020594,-8273.831378,-888.247130
4012.882189,0.000000,-9269.755526,444.123565
4012.882514,222.061783,-8580.269578,-296.082377
4012.882838,74.020594,-8427.050478,-296.082377
4012.883162,0.000000,-8963.317327,-370.102971
4012.883487,-222.061783,-8427.050478,0.000000
4012.883811,0.000000,-8656.879127,-962.267725
4012.884135,0.000000,-8350.440928,0.000000
4012.884460,74.020594,-8733.488677,0.000000
4012.884784,222.061783,-9116.536426,-370.102971
4012.885109,1406.391290,-8350.440928,-444.123565
4012.885433,888.247130,-9116.536426,0.000000
4012.885757,1406.391290,-8963.317327,0.000000
4012.886082,518.144159,-8886.707777,0.000000
4012.886406,1702.473667,-9499.584175,-370.102971
4012.886731,1110.308913,-8963.317327,74.020594
4012.887055,0.000000,-8580.269578,74.020594
4012.887379,592.164754,-8580.269578,0.000000
4012.887704,1776.494261,-8350.440928,-296.082377
4012.888028,444.123565,-8503.660028,-740.205942
4012.888352,74.020594,-8350.440928,-518.144159
4012.888677,592.164754,-8197.221829,0.000000
4012.889001,740.205942,-8503.660028,-444.123565
4012.889326,1406.391290,-8963.317327,-444.123565
4012.889650,1184.329507,-8427.050478,-370.102971
4012.889974,814.226536,-8427.050478,-666.185348
4012.890299,962.267725,-8810.098227,-370.102971
4012.890623,444.123565,-8656.879127,-444.123565
4012.890948,518.144159,-8427.050478,-592.164754
4012.891272,296.082377,-8350.440928,-370.102971
4012.891596,0.000000,-8120.612279,-518.144159
4012.891921,0.000000,-8350.440928,-296.082377
4012.892245,222.061783,-8044.002729,0.000000
4012.892570,148.041188,-8350.440928,-74.020594
4012.892894,296.082377,-8120.612279,-666.185348
4012.893218,814.226536,-8273.831378,-296.082377
4012.893543,1332.370696,-8656.879127,-222.061783
4012.893867,1036.288319,-8580.269578,-592.164754
4012.894191,1332.370696,-8580.269578,-148.041188
4012.894516,1036.288319,-8810.098227,-296.082377
4012.894840,814.226536,-8886.707777,-518.144159
4012.895165,666.185348,-9039.926876,-592.164754
4012.895489,222.061783,-8886.707777,-222.061783
4012.895813,666.185348,-8503.660028,-222.061783
4012.896138,370.102971,-8886.707777,-222.061783
4012.896462,370.102971,-8733.488677,-222.061783
4012.896787,370.102971,-8810.098227,-148.041188
4012.897111,74.020594,-8580.269578,-296.082377
4012.897435,666.185348,-8733.488677,0.000000
4012.897760,370.102971,-9193.145976,0.000000
4012.898084,148.041188,-9193.145976,-222.061783
4012.898409,-74.020594,-8656.879127,-370.102971
4012.898733,222.061783,-9422.974625,148.041188
4012.899057,-296.082377,-8656.879127,-222.061783
4012.899382,74.020594,-8963.317327,0.000000
4012.899706,-444.123565,-8886.707777,0.000000
4012.900030,-148.041188,-9039.926876,0.000000
4012.900355,-370.102971,-8427.050478,-814.226536
4012.900679,74.020594,-9039.926876,-222.061783
4012.901004,0.000000,-8120.612279,-740.205942
4012.901328,296.082377,-8656.879127,-148.041188
4012.901652,0.000000,-8197.221829,-518.144159
4012.901977,666.185348,-8810.098227,0.000000
4012.902301,222.061783,-8273.831378,-814.226536
4012.902626,296.082377,-8350.440928,0.000000
4012.902950,814.226536,-8197.221829,-296.082377
4012.903274,962.267725,-8273.831378,-222.061783
4012.903599,1480.411884,-8733.488677,-592.164754
4012.903923,1184.329507,-7967.393179,-444.123565
4012.904247,1406.391290,-8656.879127,-296.082377
4012.904572,814.226536,-8350.440928,-370.102971
4012.904896,1406.391290,-9039.926876,370.102971
4012.905221,74.020594,-7814.174080,-518.144159
4012.905545,296.082377,-8656.879127,-148.041188
4012.905869,222.061783,-8120.612279,-296.082377
4012.906194,222.061783,-8580.269578,0.000000
4012.906518,148.041188,-8044.002729,-962.267725
4012.906843,0.000000,-8963.317327,0.000000
4012.907167,148.041188,-8273.831378,-592.164754
4012.907491,222.061783,-8120.612279,-370.102971
4012.907816,888.247130,-8503.660028,-444.123565
4012.908140,148.041188,-8886.707777,-296.082377
4012.908465,518.144159,-8656.879127,-444.123565
4012.908789,222.061783,-8427.050478,-518.144159
4012.909113,518.144159,-9116.536426,-518.144159
4012.909438,370.102971,-8503.660028,-814.226536
4012.909762,518.144159,-9039.926876,-370.102971
4012.910086,0.000000,-8427.050478,-518.144159
4012.910411,0.000000,-8656.879127,-518.144159
4012.910735,0.000000,-8503.660028,-740.205942
4012.911060,0.000000,-8963.317327,0.000000
4012.911384,74.020594,-8656.879127,-296.082377
4012.911708,518.144159,-8963.317327,-444.123565
4012.912033,888.247130,-8580.269578,-370.102971
4012.912357,1110.308913,-9116.536426,-296.082377
4012.912682,1258.350101,-8503.660028,-592.164754
4012.913006,1258.350101,-8886.707777,74.020594
4012.913330,1110.308913,-8197.221829,-518.144159
4012.913655,1036.288319,-9269.755526,-222.061783
4012.913979,296.082377,-8733.488677,-518.144159
4012.914303,592.164754,-8963.317327,0.000000
4012.914628,444.123565,-8580.269578,-666.185348
4012.914952,222.061783,-8656.879127,-148.041188
4012.915277,444.123565,-7967.393179,-592.164754
4012.915601,296.082377,-8810.098227,-518.144159
4012.915925,444.123565,-8120.612279,-666.185348
4012.916250,1184.329507,-8503.660028,-222.061783
4012.916574,1036.288319,-7890.783629,-740.205942
4012.916899,962.267725,-8503.660028,-592.164754
4012.917223,1110.308913,-8197.221829,-814.226536
4012.917547,1258.350101,-8427.050478,74.020594
4012.917872,296.082377,-7967.393179,-666.185348
4012.918196,222.061783,-8810.098227,-148.041188
4012.918521,-296.082377,-8273.831378,-444.123565
4012.918845,-444.123565,-8350.440928,0.000000
4012.919169,-296.082377,-8120.612279,-148.041188
4012.919494,-296.082377,-8350.440928,0.000000
4012.919818,444.123565,-8503.660028,-148.041188
4012.920142,666.185348,-8120.612279,-148.041188
4012.920467,888.247130,-7890.783629,0.000000
4012.920791,1184.329507,-8197.221829,-370.102971
4012.921116,1480.411884,-8733.488677,-296.082377
4012.921440,1184.329507,-8963.317327,0.000000
4012.921764,1184.329507,-8810.098227,-592.164754
4012.922089,814.226536,-9193.145976,-296.082377
4012.922413,518.144159,-8886.707777,-148.041188
4012.922738,148.041188,-9039.926876,-148.041188
4012.923062,74.020594,-8886.707777,-222.061783
4012.923386,592.164754,-8963.317327,74.020594
4012.923711,-74.020594,-8120.612279,-222.061783
4012.924035,370.102971,-9039.926876,0.000000
4012.924359,370.102971,-8427.050478,-296.082377
4012.924684,962.267725,-8886.707777,-444.123565
4012.925008,592.164754,-8427.050478,-74.020594
4012.925333,296.082377,-8580.269578,0.000000
4012.925657,148.041188,-9116.536426,0.000000
4012.925981,148.041188,-8810.098227,-444.123565
4012.926306,222.061783,-9269.755526,-222.061783
4012.926630,-148.041188,-8810.098227,-222.061783
4012.926955,74.020594,-8810.098227,-518.144159
4012.927279,-296.082377,-8656.879127,-518.144159
4012.927603,0.000000,-8427.050478,-74.020594
4012.927928,-222.061783,-8197.221829,-444.123565
4012.928252,222.061783,-8350.440928,-592.164754
4012.928577,222.061783,-8427.050478,-296.082377
4012.928901,148.041188,-8044.002729,-444.123565
4012.929225,814.226536,-8273.831378,-592.164754
4012.929550,888.247130,-8120.612279,-370.102971
4012.929874,1036.288319,-8733.488677,0.000000
4012.930198,1258.350101,-8580.269578,-666.185348
4012.930523,1184.329507,-8886.707777,-518.144159
4012.930847,1036.288319,-8810.098227,-296.082377
4012.931172,518.144159,-8273.831378,-740.205942
4012.931496,740.205942,-8656.879127,-148.041188
4012.931820,296.082377,-8120.612279,-444.123565
4012.932145,148.041188,-8810.098227,-148.041188
4012.932469,-296.082377,-7967.393179,-370.102971
4012.932794,0.000000,-8427.050478,-148.041188
4012.933118,0.000000,-8197.221829,-814.226536
4012.933442,296.082377,-8963.317327,0.000000
4012.933767,370.102971,-8197.221829,-518.144159
4012.934091,296.082377,-8580.269578,0.000000
4012.934416,0.000000,-8580.269578,-666.185348
4012.934740,0.000000,-8810.098227,-148.041188
4012.935064,74.020594,-8580.269578,-444.123565
4012.935389,-222.061783,-8810.098227,-666.185348
4012.935713,148.041188,-8886.707777,-370.102971
4012.936038,148.041188,-8733.488677,0.000000
4012.936362,-148.041188,-9269.755526,-296.082377
4012.936686,74.020594,-8427.050478,-518.144159
4012.937011,296.082377,-8656.879127,-444.123565
4012.937335,222.061783,-8197.221829,-370.102971
4012.937660,74.020594,-8656.879127,370.102971
4012.937984,222.061783,-8350.440928,-370.102971
4012.938308,518.144159,-8810.098227,-296.082377
4012.938633,740.205942,-8810.098227,-148.041188
4012.938957,592.164754,-8886.707777,0.000000
4012.939282,1036.288319,-8886.707777,-222.061783
4012.939606,888.247130,-9193.145976,222.061783
4012.939930,444.123565,-8656.879127,-148.041188
4012.940255,814.226536,-8580.269578,-296.082377
4012.940579,888.247130,-8656.879127,0.000000
4012.940904,666.185348,-8350.440928,74.020594
4012.941228,666.185348,-8656.879127,-444.123565
4012.941552,370.102971,-8350.440928,0.000000
4012.941877,1036.288319,-8120.612279,-592.164754
4012.942201,814.226536,-8733.488677,-148.041188
4012.942525,814.226536,-8427.050478,-370.102971
4012.942850,1036.288319,-8656.879127,-74.020594
4012.943174,666.185348,-8427.050478,-222.061783
4012.943499,1036.288319,-8733.488677,-296.082377
4012.943823,814.226536,-8273.831378,-888.247130
4012.944147,962.267725,-8044.002729,-296.082377
4012.944472,1036.288319,-8197.221829,-222.061783
4012.944796,296.082377,-8580.269578,-370.102971
4012.945121,222.061783,-8197.221829,-592.164754
4012.945445,-370.102971,-8427.050478,-518.144159
4012.945769,-370.102971,-8197.221829,0.000000
4012.946094,-148.041188,-8273.831378,0.000000
4012.946418,74.020594,-8427.050478,-296.082377
4012.946743,444.123565,-8580.269578,-370.102971
4012.947067,666.185348,-8503.660028,-222.061783
4012.947391,1184.329507,-8733.488677,-370.102971
4012.947716,1406.391290,-8197.221829,0.000000
4012.948040,1406.391290,-9039.926876,-296.082377
4012.948365,1036.288319,-8810.098227,-592.164754
4012.948689,814.226536,-8733.488677,-518.144159
4012.949013,296.082377,-8810.098227,-592.164754
4012.949338,74.020594,-9039.926876,-222.061783
4012.949662,0.000000,-8886.707777,-444.123565
4012.949987,518.144159,-8963.317327,-296.082377
4012.950311,148.041188,-8810.098227,-444.123565
4012.950635,148.041188,-8963.317327,-370.102971
4012.950960,370.102971,-8733.488677,0.000000
4012.951284,74.020594,-8656.879127,-592.164754
4012.951609,444.123565,-9039.926876,-666.185348
4012.951933,0.000000,-8963.317327,0.000000
4012.952257,0.000000,-8810.098227,-370.102971
4012.952582,0.000000,-8886.707777,-296.082377
4012.952906,0.000000,-9269.755526,-444.123565
4012.953231,-148.041188,-9039.926876,-222.061783
4012.953555,-148.041188,-8810.098227,-740.205942
4012.953879,-148.041188,-8656.879127,0.000000
4012.954204,0.000000,-8886.707777,-518.144159
4012.954528,0.000000,-8427.050478,-518.144159
4012.954853,0.000000,-8580.269578,-518.144159
4012.955177,0.000000,-8427.050478,-444.123565
4012.955501,444.123565,-8273.831378,-148.041188
4012.955826,-148.041188,-7660.954980,0.000000
4012.956150,1628.453072,-8810.098227,-370.102971
4012.956475,666.185348,-7507.735880,-740.205942
4012.956799,1628.453072,-9039.926876,222.061783
4012.957123,1480.411884,-7737.564530,-666.185348
4012.957448,1554.432478,-9039.926876,-296.082377
4012.957772,666.185348,-8273.831378,-444.123565
4012.958097,592.164754,-8427.050478,148.041188
4012.958421,0.000000,-8350.440928,-296.082377
4012.958745,-222.061783,-8733.488677,0.000000
4012.959070,-296.082377,-8197.221829,-444.123565
4012.959394,-222.061783,-8503.660028,-296.082377
4012.959719,-148.041188,-8120.612279,-370.102971
4012.960043,0.000000,-8350.440928,-370.102971
4012.960367,0.000000,-8273.831378,-370.102971
4012.960692,148.041188,-8350.440928,-148.041188
4012.961016,592.164754,-8427.050478,-518.144159
4012.961340,370.102971,-8733.488677,-370.102971
4012.961665,518.144159,-9039.926876,-296.082377
4012.961989,0.000000,-8810.098227,-444.123565
4012.962314,222.061783,-8963.317327,-370.102971
4012.962638,148.041188,-8656.879127,-518.144159
4012.962962,0.000000,-9269.755526,-444.123565
4012.963287,0.000000,-8733.488677,-296.082377
4012.963611,-222.061783,-8350.440928,-296.082377
4012.963936,148.041188,-8810.098227,-518.144159
4012.964260,0.000000,-8810.098227,296.082377
4012.964584,888.247130,-8810.098227,-222.061783
4012.964909,444.123565,-8350.440928,-296.082377
4012.965233,1776.494261,-8963.317327,0.000000
4012.965558,1480.411884,-9193.145976,-222.061783
4012.965882,1184.329507,-9039.926876,0.000000
4012.966206,1036.288319,-8886.707777,-518.144159
4012.966531,1184.329507,-9346.365076,74.020594
4012.966855,1036.288319,-9116.536426,-296.082377
4012.967180,370.102971,-8733.488677,-222.061783
4012.967504,444.123565,-8733.488677,0.000000
4012.967828,296.082377,-8810.098227,0.000000
4012.968153,0.000000,-8810.098227,-592.164754
4012.968477,444.123565,-8350.440928,-296.082377
4012.968802,222.061783,-8197.221829,-370.102971
4012.969126,370.102971,-8427.050478,-518.144159
4012.969450,962.267725,-8427.050478,-370.102971
4012.969775,888.247130,-8656.879127,-444.123565
4012.970099,1184.329507,-8427.050478,-370.102971
4012.970424,814.226536,-8427.050478,-370.102971
4012.970748,888.247130,-8733.488677,-222.061783
4012.971072,518.144159,-7890.783629,-518.144159
4012.971397,592.164754,-9039.926876,-444.123565
4012.971721,0.000000,-8503.660028,-518.144159
4012.972046,-296.082377,-8044.002729,-296.082377
4012.972370,-370.102971,-8044.002729,-518.144159
4012.972694,74.020594,-8273.831378,0.000000
4012.973019,74.020594,-8350.440928,-592.164754
4012.973343,592.164754,-8197.221829,-444.123565
4012.973668,1110.308913,-8197.221829,-518.144159
4012.973992,1184.329507,-8503.660028,-444.123565
4012.974316,1258.350101,-8503.660028,0.000000
4012.974641,1036.288319,-8733.488677,-148.041188
4012.974965,1184.329507,-9039.926876,-666.185348
4012.975290,1258.350101,-9039.926876,-296.082377
4012.975614,888.247130,-8733.488677,0.000000
4012.975938,444.123565,-9193.145976,0.000000
4012.976263,-222.061783,-8810.098227,-148.041188
4012.976587,148.041188,-8810.098227,0.000000
4012.976912,518.144159,-8810.098227,-592.164754
4012.977236,0.000000,-8963.317327,-148.041188
4012.977560,148.041188,-8656.879127,0.000000
4012.977885,74.020594,-8810.098227,0.000000
4012.978209,74.020594,-8810.098227,-592.164754
4012.978533,148.041188,-9193.145976,0.000000
4012.978858,0.000000,-9039.926876,0.000000
4012.979182,-222.061783,-8656.879127,-370.102971
4012.979507,148.041188,-8963.317327,-370.102971
4012.979831,148.041188,-8886.707777,0.000000
4012.980155,-222.061783,-8503.660028,-592.164754
4012.980480,-444.123565,-8580.269578,-370.102971
4012.980804,74.020594,-8503.660028,0.000000
4012.981129,74.020594,-7431.126331,-518.144159
4012.981453,-148.041188,-8350.440928,-666.185348
4012.981777,0.000000,-8273.831378,-370.102971
4012.982102,444.123565,-8427.050478,-518.144159
4012.982426,444.123565,-7967.393179,-962.267725
4012.982751,1036.288319,-8427.050478,-296.082377
4012.983075,962.267725,-8197.221829,-296.082377
4012.983399,1628.453072,-8886.707777,-74.020594
4012.983724,1406.391290,-8350.440928,-962.267725
4012.984048,1702.473667,-8733.488677,296.082377
4012.984373,1110.308913,-8120.612279,-592.164754
4012.984697,370.102971,-8733.488677,-222.061783
4012.985021,74.020594,-8503.660028,74.020594
4012.985346,0.000000,-7967.393179,-444.123565
4012.985670,592.164754,-8580.269578,-444.123565
4012.985995,-148.041188,-7584.345430,0.000000
4012.986319,296.082377,-8810.098227,0.000000
4012.986643,-370.102971,-7814.174080,-592.164754
4012.986968,370.102971,-8656.879127,-444.123565
4012.987292,370.102971,-8427.050478,-740.205942
4012.987617,148.041188,-8733.488677,-444.123565
4012.987941,0.000000,-8733.488677,-592.164754
4012.988265,74.020594,-8350.440928,0.000000
4012.988590,0.000000,-8580.269578,-518.144159
4012.988914,0.000000,-9039.926876,-148.041188
4012.989239,444.123565,-8886.707777,-444.123565
4012.989563,-296.082377,-8656.879127,-444.123565
4012.989887,74.020594,-8656.879127,-666.185348
4012.990212,0.000000,-8503.660028,-444.123565
4012.990536,296.082377,-8963.317327,-444.123565
4012.990861,74.020594,-8810.098227,-592.164754
4012.991185,740.205942,-8656.879127,0.000000
4012.991509,592.164754,-8810.098227,0.000000
4012.991834,740.205942,-8733.488677,-296.082377
4012.992158,1184.329507,-8656.879127,-370.102971
4012.992483,1332.370696,-8810.098227,-592.164754
4012.992807,1332.370696,-8810.098227,0.000000
4012.993131,1036.288319,-8963.317327,0.000000
4012.993456,740.205942,-9039.926876,-444.123565
4012.993780,518.144159,-8503.660028,-296.082377
4012.994105,444.123565,-8810.098227,-370.102971
4012.994429,0.000000,-8580.269578,-444.123565
4012.994753,74.020594,-8656.879127,-444.123565
4012.995078,74.020594,-8733.488677,-444.123565
4012.995402,148.041188,-8810.098227,148.041188
4012.995727,666.185348,-8350.440928,-444.123565
4012.996051,1110.308913,-8427.050478,-518.144159
4012.996375,1110.308913,-7967.393179,-370.102971
4012.996700,888.247130,-8963.317327,-444.123565
4012.997024,740.205942,-8580.269578,-444.123565
4012.997348,740.205942,-8350.440928,-592.164754
4012.997673,370.102971,-8427.050478,-592.164754
4012.997997,0.000000,-8427.050478,-444.123565
4012.998322,-148.041188,-8503.660028,-148.041188
4012.998646,-518.144159,-8197.221829,-296.082377
4012.998970,-222.061783,-8427.050478,-148.041188
4012.999295,148.041188,-8120.612279,-370.102971
4012.999619,444.123565,-8810.098227,296.082377
4012.999944,962.267725,-7967.393179,-296.082377
4013.000268,1332.370696,-8580.269578,0.000000
4013.000592,1480.411884,-8044.002729,-666.185348
4013.000917,1480.411884,-9039.926876,0.000000
4013.001241,1332.370696,-8427.050478,-296.082377
4013.001566,1184.329507,-9269.755526,0.000000
4013.001890,740.205942,-8810.098227,-592.164754
4013.002214,444.123565,-9269.755526,148.041188
4013.002539,0.000000,-8733.488677,0.000000
4013.002863,222.061783,-9193.145976,-296.082377
4013.003188,518.144159,-8810.098227,-296.082377
4013.003512,666.185348,-8733.488677,0.000000
4013.003836,74.020594,-8503.660028,0.000000
4013.004161,444.123565,-8810.098227,0.000000
4013.004485,444.123565,-8656.879127,-592.164754
4013.004810,222.061783,-8733.488677,-370.102971
4013.005134,0.000000,-8963.317327,0.000000
4013.005458,74.020594,-8963.317327,-148.041188
4013.005783,-296.082377,-8886.707777,-444.123565
4013.006107,0.000000,-9269.755526,-74.020594
4013.006432,-148.041188,-8733.488677,-518.144159
4013.006756,148.041188,-8963.317327,-370.102971
4013.007080,-518.144159,-8503.660028,-592.164754
4013.007405,0.000000,-8656.879127,-370.102971
4013.007729,0.000000,-8044.002729,-592.164754
4013.008054,370.102971,-8656.879127,-592.164754
4013.008378,74.020594,-8197.221829,-518.144159
4013.008702,296.082377,-8580.269578,0.000000
4013.009027,518.144159,-8273.831378,-740.205942
4013.009351,444.123565,-8273.831378,-444.123565
4013.009676,814.226536,-8580.269578,-296.082377
4013.010000,1184.329507,-8886.707777,-444.123565
4013.010324,1332.370696,-8580.269578,-444.123565
4013.010649,1258.350101,-8503.660028,-296.082377
4013.010973,444.123565,-7890.783629,0.000000
4013.011298,740.205942,-8044.002729,-666.185348
4013.011622,740.205942,-8427.050478,0.000000
4013.011946,148.041188,-7967.393179,-370.102971
4013.012271,74.020594,-8427.050478,296.082377
4013.012595,-222.061783,-8197.221829,0.000000
4013.012920,296.082377,-8580.269578,-296.082377
4013.013244,-148.041188,-8580.269578,-814.226536
4013.013568,148.041188,-8810.098227,0.000000
4013.013893,0.000000,-7890.783629,-370.102971
4013.014217,0.000000,-8810.098227,-370.102971
4013.014541,74.020594,-8580.269578,-518.144159
4013.014866,74.020594,-8810.098227,0.000000
4013.015190,-148.041188,-8350.440928,-444.123565
4013.015515,296.082377,-8810.098227,-222.061783
4013.015839,148.041188,-8733.488677,-296.082377
4013.016163,148.041188,-9039.926876,-370.102971
4013.016488,0.000000,-8580.269578,-148.041188
4013.016812,0.000000,-8810.098227,0.000000
4013.017137,148.041188,-8427.050478,-740.205942
4013.017461,0.000000,-8886.707777,0.000000
4013.017785,0.000000,-8273.831378,-370.102971
4013.018110,444.123565,-8810.098227,-222.061783
4013.018434,518.144159,-8580.269578,-518.144159
4013.018759,962.267725,-9116.536426,0.000000
4013.019083,1332.370696,-8656.879127,-444.123565
4013.019407,1850.514855,-9039.926876,-222.061783
4013.019732,1776.494261,-8810.098227,0.000000
4013.020056,1332.370696,-8810.098227,0.000000
4013.020381,1184.329507,-8886.707777,-148.041188
4013.020705,740.205942,-8963.317327,0.000000
4013.021029,592.164754,-8810.098227,-74.020594
4013.021354,148.041188,-8427.050478,-740.205942
4013.021678,296.082377,-8503.660028,0.000000
4013.022003,370.102971,-8350.440928,-296.082377
4013.022327,814.226536,-8733.488677,-148.041188
4013.022651,740.205942,-8733.488677,-592.164754
4013.022976,592.164754,-8120.612279,-444.123565
4013.023300,1110.308913,-8427.050478,-296.082377
4013.023625,1406.391290,-8580.269578,-666.185348
4013.023949,1406.391290,-8733.488677,-296.082377
4013.024273,888.247130,-8044.002729,-666.185348
4013.024598,222.061783,-8810.098227,-148.041188
4013.024922,0.000000,-7814.174080,-296.082377
4013.025247,74.020594,-8350.440928,-370.102971
4013.025571,-296.082377,-8120.612279,-814.226536
4013.025895,-148.041188,-8656.879127,0.000000
4013.026220,-296.082377,-8350.440928,-296.082377
4013.026544,222.061783,-7967.393179,74.020594
4013.026869,740.205942,-8044.002729,-296.082377
4013.027193,1110.308913,-8733.488677,-592.164754
4013.027517,1332.370696,-8503.660028,-444.123565
4013.027842,1702.473667,-8810.098227,74.020594
4013.028166,1406.391290,-9116.536426,-444.123565
4013.028491,1184.329507,-9116.536426,-518.144159
4013.028815,518.144159,-8886.707777,-370.102971
4013.029139,518.144159,-8810.098227,0.000000
4013.029464,148.041188,-8656.879127,-222.061783
4013.029788,-148.041188,-9193.145976,-296.082377
4013.030113,148.041188,-8810.098227,0.000000
4013.030437,-370.102971,-8580.269578,-370.102971
4013.030761,222.061783,-9499.584175,-888.247130
4013.031086,296.082377,-8503.660028,74.020594
4013.031410,0.000000,-8503.660028,-370.102971
4013.031734,148.041188,-8580.269578,-370.102971
4013.032059,370.102971,-8886.707777,-222.061783
4013.032383,0.000000,-9116.536426,-222.061783
4013.032708,0.000000,-8886.707777,-296.082377
4013.033032,0.000000,-9039.926876,0.000000
4013.033357,-148.041188,-9116.536426,0.000000
4013.033681,-666.185348,-8810.098227,-518.144159
4013.034005,-666.185348,-9499.584175,-370.102971
4013.034330,-592.164754,-8580.269578,-222.061783
4013.034654,-370.102971,-8503.660028,-518.144159
4013.034979,296.082377,-9039.926876,-370.102971
4013.035303,444.123565,-7890.783629,-370.102971
4013.035627,888.247130,-8197.221829,-592.164754
4013.035952,1036.288319,-8197.221829,-518.144159
4013.036276,1406.391290,-8197.221829,0.000000
4013.036601,1110.308913,-8427.050478,-296.082377
4013.036925,1480.411884,-8503.660028,-370.102971
4013.037249,962.267725,-8656.879127,-518.144159
4013.037574,814.226536,-8963.317327,-148.041188
4013.037898,0.000000,-8044.002729,-370.102971
4013.038223,222.061783,-8580.269578,0.000000
4013.038547,0.000000,-8044.002729,-444.123565
4013.038871,0.000000,-8273.831378,-222.061783
4013.039196,0.000000,-8120.612279,-1036.288319
4013.039520,148.041188,-7967.393179,0.000000
4013.039845,222.061783,-7967.393179,-518.144159
4013.040169,222.061783,-8350.440928,-222.061783
4013.040494,518.144159,-8656.879127,-370.102971
4013.040818,518.144159,-8120.612279,-666.185348
4013.041142,518.144159,-8810.098227,-296.082377
4013.041467,0.000000,-8427.050478,0.000000
4013.041791,444.123565,-9269.755526,-296.082377
4013.042116,222.061783,-9039.926876,-814.226536
4013.042440,518.144159,-8810.098227,-222.061783
4013.042764,148.041188,-8580.269578,-666.185348
4013.043089,0.000000,-9346.365076,-370.102971
4013.043413,0.000000,-8273.831378,-592.164754
4013.043738,74.020594,-8733.488677,-296.082377
4013.044062,0.000000,-8503.660028,-962.267725
4013.044386,222.061783,-8810.098227,-296.082377
4013.044711,518.144159,-8733.488677,-518.144159
4013.045035,740.205942,-9039.926876,0.000000
4013.045360,1184.329507,-8733.488677,-222.061783
4013.045684,1184.329507,-9039.926876,0.000000
4013.046008,1480.411884,-8810.098227,-518.144159
4013.046333,1258.350101,-9576.193725,0.000000
4013.046657,1036.288319,-8810.098227,-296.082377
4013.046982,666.185348,-8886.707777,-444.123565
4013.047306,592.164754,-8580.269578,-296.082377
4013.047631,148.041188,-9422.974625,-74.020594
4013.047955,222.061783,-8963.317327,-370.102971
4013.048279,444.123565,-8350.440928,-740.205942
4013.048604,518.144159,-8427.050478,-296.082377
4013.048928,814.226536,-8580.269578,-370.102971
4013.049253,888.247130,-8580.269578,-518.144159
4013.049577,1332.370696,-8427.050478,-518.144159
4013.049901,1110.308913,-8656.879127,-592.164754
4013.050226,888.247130,-8503.660028,-518.144159
4013.050550,222.061783,-9039.926876,0.000000
4013.050875,444.123565,-8350.440928,-222.061783
4013.051199,222.061783,-8580.269578,-444.123565
4013.051523,0.000000,-8580.269578,-444.123565
4013.051848,0.000000,-8427.050478,-296.082377
4013.052172,-666.185348,-7890.783629,-518.144159
4013.052497,-296.082377,-8580.269578,-222.061783
4013.052821,0.000000,-7890.783629,0.000000
4013.053145,592.164754,-8350.440928,-296.082377
4013.053470,1036.288319,-8503.660028,-370.102971
4013.053794,1184.329507,-8427.050478,-296.082377
4013.054119,1628.453072,-8503.660028,-444.123565
4013.054443,1258.350101,-8503.660028,-296.082377
4013.054768,1628.453072,-9422.974625,222.061783
4013.055092,1036.288319,-8580.269578,-666.185348
4013.055416,666.185348,-9116.536426,0.000000
4013.055741,0.000000,-8503.660028,-518.144159
4013.056065,740.205942,-9193.145976,0.000000
4013.056390,296.082377,-8810.098227,-370.102971
4013.056714,740.205942,-9269.755526,0.000000
4013.057038,148.041188,-8580.269578,-370.102971
4013.057363,370.102971,-8886.707777,0.000000
4013.057687,0.000000,-8350.440928,0.000000
4013.058012,296.082377,-8733.488677,74.020594
4013.058336,0.000000,-8733.488677,-592.164754
4013.058660,148.041188,-9193.145976,370.102971
4013.058985,-296.082377,-8963.317327,-222.061783
4013.059309,0.000000,-9116.536426,74.020594
4013.059634,-296.082377,-8427.050478,-592.164754
4013.059958,0.000000,-9039.926876,0.000000
4013.060282,0.000000,-8503.660028,-888.247130
4013.060607,-370.102971,-8656.879127,-296.082377
4013.060931,-148.041188,-8503.660028,-370.102971
4013.061256,-296.082377,-8273.831378,0.000000
4013.061580,0.000000,-8350.440928,-814.226536
4013.061905,296.082377,-8350.440928,-444.123565
4013.062229,592.164754,-8044.002729,-444.123565
4013.062553,444.123565,-8273.831378,-222.061783
4013.062878,962.267725,-8503.660028,-296.082377
4013.063202,1554.432478,-8120.612279,-296.082377
4013.063527,1628.453072,-8656.879127,-740.205942
4013.063851,1258.350101,-8350.440928,-518.144159
4013.064175,1036.288319,-8733.488677,0.000000
4013.064500,370.102971,-8197.221829,-740.205942
4013.064824,222.061783,-8580.269578,0.000000
4013.065149,-74.020594,-8427.050478,-296.082377
4013.065473,0.000000,-8503.660028,-222.061783
4013.065797,-370.102971,-7890.783629,-222.061783
4013.066122,-666.185348,-8197.221829,370.102971
4013.066446,0.000000,-7890.783629,-666.185348
4013.066771,370.102971,-8427.050478,-296.082377
4013.067095,518.144159,-8427.050478,-370.102971
4013.067419,666.185348,-8733.488677,0.000000
4013.067744,370.102971,-8656.879127,-518.144159
4013.068068,0.000000,-8733.488677,0.000000
4013.068393,0.000000,-8580.269578,-444.123565
4013.068717,-296.082377,-8886.707777,-370.102971
4013.069042,370.102971,-8733.488677,-444.123565
4013.069366,0.000000,-8656.879127,-296.082377
4013.069690,0.000000,-8963.317327,-666.185348
4013.070015,0.000000,-8273.831378,-222.061783
4013.070339,0.000000,-8120.612279,-296.082377
4013.070664,296.082377,-8427.050478,-814.226536
4013.070988,444.123565,-8580.269578,-148.041188
4013.071312,518.144159,-8580.269578,-296.082377
4013.071637,666.185348,-8963.317327,-370.102971
4013.071961,1036.288319,-8427.050478,-444.123565
4013.072286,1184.329507,-8963.317327,-296.082377
4013.072610,1258.350101,-8580.269578,-370.102971
4013.072934,1036.288319,-8886.707777,0.000000
4013.073259,1184.329507,-9039.926876,-148.041188
4013.073583,888.247130,-9039.926876,-444.123565
4013.073908,296.082377,-8886.707777,-370.102971
4013.074232,148.041188,-8656.879127,-148.041188
4013.074556,518.144159,-8120.612279,-74.020594
4013.074881,370.102971,-8580.269578,-444.123565
4013.075205,666.185348,-8427.050478,-222.061783
4013.075530,444.123565,-8044.002729,-592.164754
4013.075854,962.267725,-8810.098227,-296.082377
4013.076179,888.247130,-8120.612279,-592.164754
4013.076503,814.226536,-8656.879127,-222.061783
4013.076827,592.164754,-8273.831378,-740.205942
4013.077152,740.205942,-8427.050478,-370.102971
4013.077476,1184.329507,-8810.098227,-296.082377
4013.077801,518.144159,-8503.660028,-296.082377
4013.078125,0.000000,-8503.660028,-444.123565
4013.078449,-222.061783,-8503.660028,0.000000
4013.078774,148.041188,-8427.050478,-666.185348
4013.079098,0.000000,-8427.050478,-222.061783
4013.079423,296.082377,-8273.831378,0.000000
4013.079747,0.000000,-7967.393179,-222.061783
4013.080071,888.247130,-8427.050478,-592.164754
4013.080396,1036.288319,-8733.488677,74.020594
4013.080720,1332.370696,-8503.660028,-518.144159
4013.081045,1332.370696,-8810.098227,0.000000
4013.081369,1258.350101,-8503.660028,-148.041188
4013.081693,1406.391290,-9499.584175,74.020594
4013.082018,592.164754,-8580.269578,-370.102971
4013.082342,518.144159,-9193.145976,0.000000
4013.082667,444.123565,-8273.831378,-370.102971
4013.082991,518.144159,-9422.974625,0.000000
4013.083316,222.061783,-8580.269578,0.000000
4013.083640,518.144159,-8733.488677,0.000000
4013.083964,0.000000,-8273.831378,-370.102971
4013.084289,370.102971,-8656.879127,-444.123565
4013.084613,592.164754,-8503.660028,-296.082377
4013.084938,74.020594,-8656.879127,-444.123565
4013.085262,148.041188,-8503.660028,0.000000
4013.085586,0.000000,-8810.098227,-296.082377
4013.085911,0.000000,-9652.803275,-666.185348
4013.086235,-296.082377,-9116.536426,0.000000
4013.086560,-296.082377,-8963.317327,-222.061783
4013.086884,0.000000,-8733.488677,-148.041188
4013.087208,-296.082377,-8810.098227,-444.123565
4013.087533,-592.164754,-8580.269578,-370.102971
4013.087857,-148.041188,-8273.831378,-518.144159
4013.088182,0.000000,-8197.221829,-222.061783
4013.088506,148.041188,-8503.660028,-518.144159
4013.088830,0.000000,-8427.050478,-370.102971
4013.089155,888.247130,-8733.488677,-296.082377
4013.089479,1036.288319,-8427.050478,-666.185348
4013.089804,1480.411884,-8580.269578,-370.102971
4013.090128,1184.329507,-8886.707777,0.000000
4013.090453,1036.288319,-8273.831378,-518.144159
4013.090777,1110.308913,-8810.098227,-370.102971
4013.091101,592.164754,-8197.221829,-592.164754
4013.091426,444.123565,-8963.317327,148.041188
4013.091750,-148.041188,-8120.612279,-444.123565
4013.092075,0.000000,-9039.926876,0.000000
4013.092399,-370.102971,-7967.393179,-370.102971
4013.092723,0.000000,-8656.879127,74.020594
4013.093048,0.000000,-8273.831378,-666.185348
4013.093372,666.185348,-8656.879127,148.041188
4013.093697,1036.288319,-8197.221829,-740.205942
4013.094021,148.041188,-8886.707777,-592.164754
4013.094345,518.144159,-8656.879127,0.000000
4013.094670,370.102971,-8580.269578,-148.041188
4013.094994,888.247130,-8963.317327,-518.144159
4013.095319,-148.041188,-8733.488677,-444.123565
4013.095643,148.041188,-8963.317327,-222.061783
4013.095967,296.082377,-8427.050478,-518.144159
4013.096292,-222.061783,-9039.926876,-666.185348
4013.096616,74.020594,-8810.098227,-592.164754
4013.096941,74.020594,-8503.660028,-518.144159
4013.097265,370.102971,-8656.879127,-592.164754
4013.097590,370.102971,-8580.269578,-148.041188
4013.097914,370.102971,-8273.831378,-222.061783
4013.098238,888.247130,-8810.098227,-518.144159
4013.098563,740.205942,-8656.879127,-518.144159
4013.098887,666.185348,-8810.098227,0.000000
4013.099212,592.164754,-8656.879127,-74.020594
4013.099536,740.205942,-8656.879127,0.000000
4013.099860,666.185348,-8963.317327,-74.020594
4013.100185,888.247130,-9269.755526,-518.144159
4013.100509,666.185348,-8503.660028,-148.041188
4013.100834,370.102971,-8656.879127,148.041188
4013.101158,518.144159,-8580.269578,-222.061783
4013.101482,666.185348,-8656.879127,-370.102971
4013.101807,962.267725,-8503.660028,-296.082377
4013.102131,888.247130,-8503.660028,-444.123565
4013.102456,1036.288319,-8503.660028,-518.144159
4013.102780,814.226536,-8580.269578,-444.123565
4013.103104,370.102971,-8427.050478,-518.144159
4013.103429,444.123565,-8656.879127,-296.082377
4013.103753,370.102971,-8350.440928,-444.123565
4013.104078,444.123565,-8427.050478,74.020594
4013.104402,518.144159,-8273.831378,-296.082377
4013.104727,74.020594,-8580.269578,-370.102971
4013.105051,222.061783,-7967.393179,-148.041188
4013.105375,0.000000,-8350.440928,-370.102971
4013.105700,-296.082377,-8810.098227,0.000000
4013.106024,0.000000,-8427.050478,74.020594
4013.106349,0.000000,-7890.783629,0.000000
4013.106673,888.247130,-8810.098227,-518.144159
4013.106997,74.020594,-8350.440928,-296.082377
4013.107322,814.226536,-8273.831378,0.000000
4013.107646,740.205942,-7967.393179,-518.144159
4013.107971,740.205942,-8886.707777,0.000000
4013.108295,1258.350101,-8580.269578,0.000000
4013.108619,888.247130,-8810.098227,-518.144159
4013.108944,814.226536,-9269.755526,-222.061783
4013.109268,518.144159,-8503.660028,-592.164754
4013.109593,370.102971,-9039.926876,-444.123565
4013.109917,444.123565,-9269.755526,-222.061783
4013.110241,222.061783,-8963.317327,0.000000
4013.110566,148.041188,-9116.536426,-370.102971
4013.110890,666.185348,-8427.050478,-222.061783
4013.111215,444.123565,-8503.660028,-444.123565
4013.111539,296.082377,-8963.317327,74.020594
4013.111864,74.020594,-8427.050478,-518.144159
4013.112188,148.041188,-9116.536426,-444.123565
4013.112512,0.000000,-8580.269578,-370.102971
4013.112837,666.185348,-8886.707777,74.020594
4013.113161,0.000000,-8580.269578,-666.185348
4013.113486,74.020594,-8656.879127,-370.102971
4013.113810,0.000000,-8810.098227,-740.205942
4013.114134,0.000000,-8810.098227,222.061783
4013.114459,148.041188,-8197.221829,-444.123565
4013.114783,444.123565,-8733.488677,-666.185348
4013.115108,74.020594,-8503.660028,-518.144159
4013.115432,518.144159,-8733.488677,-370.102971
4013.115756,740.205942,-8120.612279,-592.164754
4013.116081,1110.308913,-8503.660028,-148.041188
4013.116405,962.267725,-8273.831378,-296.082377
4013.116730,1258.350101,-8580.269578,-296.082377
4013.117054,592.164754,-7814.174080,-296.082377
4013.117378,1480.411884,-8963.317327,74.020594
4013.117703,666.185348,-8120.612279,-888.247130
4013.118027,814.226536,-8427.050478,0.000000
4013.118352,518.144159,-8656.879127,148.041188
4013.118676,0.000000,-8350.440928,-148.041188
4013.119001,0.000000,-8427.050478,-814.226536
4013.119325,-222.061783,-7967.393179,0.000000
4013.119649,370.102971,-8656.879127,-444.123565
4013.119974,74.020594,-8656.879127,-444.123565
4013.120298,74.020594,-8810.098227,0.000000
4013.120623,0.000000,-7890.783629,0.000000
4013.120947,592.164754,-8886.707777,-518.144159
4013.121271,814.226536,-9116.536426,-518.144159
4013.121596,666.185348,-8886.707777,0.000000
4013.121920,-74.020594,-8350.440928,-518.144159
4013.122245,740.205942,-8886.707777,-222.061783
4013.122569,370.102971,-8656.879127,-296.082377
4013.122893,222.061783,-9039.926876,-74.020594
4013.123218,0.000000,-8656.879127,-370.102971
4013.123542,0.000000,-8810.098227,0.000000
4013.123867,148.041188,-8733.488677,-444.123565
4013.124191,296.082377,-8733.488677,-444.123565
4013.124515,0.000000,-8503.660028,0.000000
4013.124840,370.102971,-8656.879127,74.020594
4013.125164,592.164754,-8656.879127,-444.123565
4013.125489,592.164754,-8427.050478,222.061783
4013.125813,1036.288319,-8503.660028,-370.102971
4013.126138,814.226536,-8810.098227,-296.082377
4013.126462,888.247130,-9039.926876,-148.041188
4013.126786,740.205942,-8733.488677,0.000000
4013.127111,666.185348,-8503.660028,-296.082377
4013.127435,296.082377,-8656.879127,0.000000
4013.127760,0.000000,-8503.660028,-148.041188
4013.128084,296.082377,-8503.660028,-370.102971
4013.128408,518.144159,-7967.393179,-592.164754
4013.128733,444.123565,-8273.831378,-370.102971
4013.129057,592.164754,-8273.831378,-296.082377
4013.129382,666.185348,-8197.221829,-962.267725
4013.129706,1406.391290,-8810.098227,-518.144159
4013.130030,592.164754,-8580.269578,-222.061783
4013.130355,592.164754,-8810.098227,-444.123565
4013.130679,666.185348,-8427.050478,-444.123565
4013.131004,592.164754,-8350.440928,-444.123565
4013.131328,444.123565,-8580.269578,-592.164754
4013.131652,444.123565,-8044.002729,-370.102971
4013.131977,148.041188,-8350.440928,-148.041188
4013.132301,-370.102971,-8273.831378,-888.247130
4013.132626,518.144159,-8886.707777,-296.082377
4013.132950,74.020594,-8197.221829,-370.102971
4013.133275,740.205942,-8580.269578,-444.123565
4013.133599,592.164754,-8273.831378,-518.144159
4013.133923,1036.288319,-9422.974625,0.000000
4013.134248,1184.329507,-8580.269578,-740.205942
4013.134572,888.247130,-8810.098227,-296.082377
4013.134897,1332.370696,-9116.536426,-296.082377
4013.135221,1036.288319,-8733.488677,-370.102971
4013.135545,740.205942,-8886.707777,-666.185348
4013.135870,518.144159,-8963.317327,-222.061783
4013.136194,74.020594,-8733.488677,-370.102971
4013.136519,148.041188,-8963.317327,-592.164754
4013.136843,740.205942,-9116.536426,0.000000
4013.137167,74.020594,-8503.660028,-148.041188
4013.137492,222.061783,-8580.269578,-592.164754
4013.137816,444.123565,-8427.050478,-148.041188
4013.138141,518.144159,-9116.536426,-148.041188
4013.138465,1036.288319,-9039.926876,-518.144159
4013.138790,888.247130,-8580.269578,-370.102971
4013.139114,518.144159,-9039.926876,0.000000
4013.139438,222.061783,-8733.488677,-296.082377
4013.139763,0.000000,-8503.660028,-222.061783
4013.140087,0.000000,-8733.488677,-518.144159
4013.140412,-222.061783,-8810.098227,-148.041188
4013.140736,-74.020594,-8656.879127,-444.123565
4013.141060,148.041188,-8580.269578,-740.205942
4013.141385,0.000000,-8733.488677,-222.061783
4013.141709,222.061783,-8350.440928,-370.102971
4013.142034,666.185348,-8120.612279,-592.164754
4013.142358,962.267725,-8427.050478,-444.123565
4013.142682,962.267725,-8427.050478,0.000000
4013.143007,888.247130,-8044.002729,-592.164754
4013.143331,1184.329507,-8503.660028,-296.082377
4013.143656,962.267725,-8273.831378,-296.082377
4013.143980,666.185348,-8810.098227,-518.144159
4013.144305,296.082377,-8733.488677,-222.061783
4013.144629,0.000000,-8197.221829,-444.123565
4013.144953,0.000000,-8273.831378,-370.102971
4013.145278,-296.082377,-8503.660028,-296.082377
4013.145602,0.000000,-8350.440928,74.020594
4013.145927,-370.102971,-7660.954980,-444.123565
4013.146251,0.000000,-8810.098227,0.000000
4013.146575,74.020594,-7814.174080,-592.164754
4013.146900,296.082377,-8810.098227,74.020594
4013.147224,148.041188,-8350.440928,-666.185348
4013.147549,74.020594,-9039.926876,0.000000
4013.147873,-222.061783,-8656.879127,-518.144159
4013.148198,0.000000,-9193.145976,296.082377
4013.148522,0.000000,-8733.488677,-518.144159
4013.148846,0.000000,-9039.926876,-74.020594
4013.149171,444.123565,-8503.660028,-370.102971
4013.149495,222.061783,-9039.926876,0.000000
4013.149820,74.020594,-8810.098227,-444.123565
4013.150144,222.061783,-8273.831378,-370.102971
4013.150468,444.123565,-8656.879127,-518.144159
4013.150793,296.082377,-8580.269578,-296.082377
4013.151117,148.041188,-8886.707777,-296.082377
4013.151442,222.061783,-8810.098227,-296.082377
4013.151766,296.082377,-8656.879127,-222.061783
4013.152090,370.102971,-8886.707777,0.000000
4013.152415,592.164754,-8963.317327,148.041188
4013.152739,740.205942,-8656.879127,0.000000
4013.153064,888.247130,-9116.536426,-222.061783
4013.153388,666.185348,-8350.440928,-444.123565
4013.153713,740.205942,-8656.879127,-444.123565
4013.154037,222.061783,-8656.879127,-296.082377
4013.154361,222.061783,-8580.269578,0.000000
4013.154686,444.123565,-8427.050478,-370.102971
4013.155010,444.123565,-8580.269578,-222.061783
4013.155335,370.102971,-8044.002729,-518.144159
4013.155659,814.226536,-8810.098227,-444.123565
4013.155983,1036.288319,-7967.393179,-518.144159
4013.156308,1184.329507,-8273.831378,-370.102971
4013.156632,666.185348,-8503.660028,-370.102971
4013.156957,1184.329507,-8427.050478,-592.164754
4013.157281,1036.288319,-8656.879127,-444.123565
4013.157606,666.185348,-8503.660028,-444.123565
4013.157930,740.205942,-8350.440928,-296.082377
4013.158254,222.061783,-8580.269578,-518.144159
4013.158579,-148.041188,-8580.269578,-296.082377
4013.158903,-148.041188,-8427.050478,-592.164754
4013.159228,-74.020594,-8350.440928,-296.082377
4013.159552,592.164754,-8120.612279,148.041188
4013.159876,222.061783,-8350.440928,0.000000
4013.160201,888.247130,-8350.440928,-296.082377
4013.160525,1036.288319,-8197.221829,-370.102971
4013.160850,1110.308913,-8810.098227,-296.082377
4013.161174,962.267725,-8656.879127,-518.144159
4013.161498,1258.350101,-8886.707777,0.000000
4013.161823,888.247130,-8733.488677,-370.102971
4013.162147,666.185348,-9269.755526,-74.020594
4013.162472,592.164754,-8810.098227,-814.226536
4013.162796,518.144159,-8656.879127,-296.082377
4013.163121,518.144159,-8350.440928,-296.082377
4013.163445,370.102971,-8886.707777,-222.061783
4013.163769,296.082377,-8273.831378,0.000000
4013.164094,222.061783,-8656.879127,-296.082377
4013.164418,222.061783,-8733.488677,-592.164754
4013.164743,0.000000,-8503.660028,-148.041188
4013.165067,222.061783,-9116.536426,296.082377
4013.165391,148.041188,-8733.488677,-370.102971
4013.165716,74.020594,-8733.488677,-222.061783
4013.166040,0.000000,-9116.536426,-370.102971
4013.166365,0.000000,-8580.269578,-296.082377
4013.166689,-148.041188,-8656.879127,0.000000
4013.167013,-148.041188,-8810.098227,-148.041188
4013.167338,0.000000,-8656.879127,-592.164754
4013.167662,0.000000,-9039.926876,0.000000
4013.167987,592.164754,-8656.879127,-518.144159
4013.168311,148.041188,-8580.269578,-370.102971
4013.168636,148.041188,-8273.831378,-444.123565
4013.168960,296.082377,-8656.879127,0.000000
4013.169284,666.185348,-8120.612279,-888.247130
4013.169609,1036.288319,-8580.269578,-222.061783
4013.169933,1332.370696,-8044.002729,-148.041188
4013.170258,1110.308913,-8656.879127,0.000000
4013.170582,1036.288319,-8503.660028,-888.247130
4013.170906,1406.391290,-8656.879127,74.020594
4013.171231,518.144159,-8273.831378,-666.185348
4013.171555,296.082377,-8733.488677,0.000000
4013.171880,-370.102971,-8120.612279,-148.041188
4013.172204,222.061783,-9039.926876,0.000000
4013.172529,-444.123565,-8197.221829,-518.144159
4013.172853,0.000000,-8580.269578,0.000000
4013.173177,74.020594,-8197.221829,-444.123565
4013.173502,74.020594,-8427.050478,-148.041188
4013.173826,74.020594,-8427.050478,-222.061783
4013.174151,518.144159,-8350.440928,-296.082377
4013.174475,518.144159,-8580.269578,-666.185348
4013.174799,0.000000,-9116.536426,-444.123565
4013.175124,222.061783,-8810.098227,-370.102971
4013.175448,0.000000,-8656.879127,-370.102971
4013.175773,370.102971,-8963.317327,-370.102971
4013.176097,0.000000,-8580.269578,-592.164754
4013.176421,74.020594,-8886.707777,-370.102971
4013.176746,148.041188,-8427.050478,-444.123565
4013.177070,74.020594,-8580.269578,-370.102971
4013.177395,0.000000,-8427.050478,-740.205942
4013.177719,296.082377,-8580.269578,0.000000
4013.178044,666.185348,-8656.879127,-592.164754
4013.178368,666.185348,-8656.879127,-444.123565
4013.178692,888.247130,-8810.098227,-370.102971
4013.179017,888.247130,-9116.536426,-222.061783
4013.179341,962.267725,-9346.365076,-222.061783
4013.179666,740.205942,-9116.536426,-222.061783
4013.179990,666.185348,-9116.536426,-444.123565
4013.180314,740.205942,-8963.317327,-296.082377
4013.180639,814.226536,-9039.926876,-222.061783
4013.180963,296.082377,-8656.879127,0.000000
4013.181288,444.123565,-8580.269578,-518.144159
4013.181612,666.185348,-8503.660028,-370.102971
4013.181936,740.205942,-8427.050478,-148.041188
4013.182261,444.123565,-8427.050478,-222.061783
4013.182585,888.247130,-8350.440928,-370.102971
4013.182910,1036.288319,-8350.440928,-444.123565
4013.183234,814.226536,-8733.488677,-592.164754
4013.183559,888.247130,-8273.831378,-296.082377
4013.183883,1110.308913,-8503.660028,-296.082377
4013.184207,666.185348,-8350.440928,-296.082377
4013.184532,666.185348,-8273.831378,-370.102971
4013.184856,370.102971,-8044.002729,-296.082377
4013.185181,222.061783,-8503.660028,-444.123565
4013.185505,74.020594,-8044.002729,-296.082377
4013.185829,0.000000,-8044.002729,-222.061783
4013.186154,444.123565,-8120.612279,0.000000
4013.186478,444.123565,-8427.050478,-148.041188
4013.186803,740.205942,-8427.050478,-296.082377
4013.187127,1184.329507,-8580.269578,-296.082377
4013.187452,1332.370696,-8427.050478,-370.102971
4013.187776,1110.308913,-9116.536426,0.000000
4013.188100,1110.308913,-8503.660028,-296.082377
4013.188425,1110.308913,-8810.098227,-592.164754
4013.188749,296.082377,-8886.707777,-370.102971
4013.189074,518.144159,-8886.707777,-148.041188
4013.189398,370.102971,-8350.440928,0.000000
4013.189722,888.247130,-8656.879127,-296.082377
4013.190047,444.123565,-8733.488677,-222.061783
4013.190371,370.102971,-8886.707777,-518.144159
4013.190696,222.061783,-8580.269578,0.000000
4013.191020,296.082377,-8580.269578,-592.164754
4013.191344,370.102971,-9193.145976,-296.082377
4013.191669,0.000000,-8580.269578,-592.164754
4013.191993,0.000000,-8886.707777,-592.164754
4013.192318,0.000000,-8580.269578,-296.082377
4013.192642,0.000000,-9116.536426,-296.082377
4013.192967,0.000000,-8580.269578,-444.123565
4013.193291,0.000000,-8963.317327,-148.041188
4013.193615,0.000000,-8886.707777,-740.205942
4013.193940,0.000000,-8886.707777,-222.061783
4013.194264,74.020594,-8503.660028,-444.123565
4013.194589,0.000000,-8580.269578,-518.144159
4013.194913,0.000000,-8733.488677,-592.164754
4013.195237,444.123565,-8427.050478,-444.123565
4013.195562,296.082377,-8350.440928,-814.226536
4013.195886,518.144159,-8350.440928,-518.144159
4013.196211,370.102971,-8656.879127,0.000000
4013.196535,1258.350101,-8273.831378,-222.061783
4013.196859,1258.350101,-8350.440928,-444.123565
4013.197184,962.267725,-8350.440928,-592.164754
4013.197508,1406.391290,-8810.098227,-222.061783
4013.197833,74.020594,-8044.002729,-666.185348
4013.198157,518.144159,-8886.707777,-148.041188
4013.198482,0.000000,-7967.393179,-296.082377
4013.198806,0.000000,-8963.317327,-444.123565
4013.199130,-518.144159,-7890.783629,0.000000
4013.199455,-370.102971,-8656.879127,222.061783
4013.199779,-222.061783,-8197.221829,-370.102971
4013.200104,0.000000,-8580.269578,0.000000
4013.200428,444.123565,-8273.831378,-444.123565
4013.200752,444.123565,-8503.660028,-296.082377
4013.201077,888.247130,-8656.879127,-666.185348
4013.201401,444.123565,-8580.269578,0.000000
4013.201726,370.102971,-8810.098227,-296.082377
4013.202050,444.123565,-8656.879127,-666.185348
4013.202375,592.164754,-9039.926876,-518.144159
4013.202699,148.041188,-8963.317327,-296.082377
4013.203023,222.061783,-8886.707777,-592.164754
4013.203348,222.061783,-8656.879127,-666.185348
4013.203672,296.082377,-8580.269578,-222.061783
4013.203997,0.000000,-8350.440928,-592.164754
4013.204321,222.061783,-8810.098227,0.000000
4013.204645,592.164754,-8503.660028,-222.061783
4013.204970,444.123565,-8886.707777,-148.041188
4013.205294,666.185348,-8580.269578,-444.123565
4013.205619,1184.329507,-8886.707777,0.000000
4013.205943,888.247130,-8810.098227,-518.144159
4013.206267,962.267725,-9346.365076,0.000000
4013.206592,666.185348,-8963.317327,0.000000
4013.206916,814.226536,-8656.879127,0.000000
4013.207241,444.123565,-8656.879127,-296.082377
4013.207565,740.205942,-9116.536426,370.102971
4013.207890,814.226536,-8580.269578,-370.102971
4013.208214,592.164754,-8503.660028,-370.102971
4013.208538,444.123565,-8580.269578,-296.082377
4013.208863,666.185348,-8503.660028,-222.061783
4013.209187,888.247130,-8120.612279,-592.164754
4013.209512,1110.308913,-8273.831378,-444.123565
4013.209836,740.205942,-8273.831378,-296.082377
4013.210160,666.185348,-8580.269578,-296.082377
4013.210485,666.185348,-8503.660028,148.041188
4013.210809,444.123565,-8120.612279,-222.061783
4013.211134,962.267725,-8427.050478,-518.144159
4013.211458,370.102971,-8503.660028,-370.102971
4013.211782,148.041188,-8273.831378,0.000000
4013.212107,-296.082377,-8273.831378,-296.082377
4013.212431,0.000000,-8580.269578,-370.102971
4013.212756,148.041188,-8273.831378,-148.041188
4013.213080,222.061783,-8427.050478,-444.123565
4013.213405,592.164754,-7890.783629,-444.123565
4013.213729,666.185348,-8656.879127,0.000000
4013.214053,1036.288319,-8656.879127,-666.185348
4013.214378,1110.308913,-8580.269578,-222.061783
4013.214702,1184.329507,-8810.098227,-444.123565
4013.215027,1036.288319,-8733.488677,0.000000
4013.215351,666.185348,-8810.098227,-592.164754
4013.215675,518.144159,-9193.145976,-592.164754
4013.216000,370.102971,-8427.050478,-518.144159
4013.216324,222.061783,-9193.145976,-296.082377
4013.216649,74.020594,-8733.488677,-444.123565
4013.216973,296.082377,-8810.098227,-222.061783
4013.217298,0.000000,-8733.488677,-296.082377
4013.217622,-148.041188,-8963.317327,0.000000
4013.217946,-370.102971,-8810.098227,-296.082377
4013.218271,74.020594,-9039.926876,-444.123565
4013.218595,0.000000,-8733.488677,0.000000
4013.218920,148.041188,-9116.536426,-222.061783
4013.219244,74.020594,-9039.926876,-370.102971
4013.219568,148.041188,-8656.879127,-444.123565
4013.219893,74.020594,-8963.317327,-444.123565
4013.220217,222.061783,-8656.879127,-518.144159
4013.220542,0.000000,-8733.488677,-222.061783
4013.220866,0.000000,-8580.269578,-148.041188
4013.221190,0.000000,-8273.831378,-592.164754
4013.221515,0.000000,-8886.707777,-444.123565
4013.221839,222.061783,-8427.050478,-370.102971
4013.222164,148.041188,-8580.269578,-296.082377
4013.222488,740.205942,-8197.221829,-814.226536
4013.222813,1258.350101,-8350.440928,0.000000
4013.223137,1628.453072,-8427.050478,-370.102971
4013.223461,1406.391290,-8503.660028,-370.102971
4013.223786,1258.350101,-8810.098227,-518.144159
4013.224110,1554.432478,-8886.707777,-148.041188
4013.224435,0.000000,-7431.126331,-666.185348
4013.224759,222.061783,-8350.440928,148.041188
4013.225083,0.000000,-7967.393179,0.000000
4013.225408,-148.041188,-8656.879127,-296.082377
4013.225732,-370.102971,-8197.221829,-222.061783
4013.226057,-518.144159,-8273.831378,74.020594
4013.226381,296.082377,-8350.440928,-518.144159
4013.226706,-296.082377,-8197.221829,0.000000
4013.227030,222.061783,-8733.488677,-296.082377
4013.227354,518.144159,-7814.174080,0.000000
4013.227679,740.205942,-9039.926876,-444.123565
4013.228003,740.205942,-8656.879127,-296.082377
4013.228328,740.205942,-9039.926876,-296.082377
4013.228652,444.123565,-8810.098227,-888.247130
4013.228976,1036.288319,-8503.660028,0.000000
4013.229301,518.144159,-8580.269578,-148.041188
4013.229625,148.041188,-9116.536426,-518.144159
4013.229950,148.041188,-8580.269578,-740.205942
4013.230274,0.000000,-8503.660028,-370.102971
4013.230598,-148.041188,-8580.269578,-740.205942
4013.230923,296.082377,-9346.365076,-296.082377
4013.231247,0.000000,-8503.660028,-222.061783
4013.231572,444.123565,-8273.831378,0.000000
4013.231896,814.226536,-8656.879127,-740.205942
4013.232221,1332.370696,-9346.365076,0.000000
4013.232545,1258.350101,-8656.879127,-518.144159
4013.232869,1110.308913,-9039.926876,0.000000
4013.233194,1184.329507,-8886.707777,-222.061783
4013.233518,666.185348,-8656.879127,-148.041188
4013.233843,370.102971,-9039.926876,-592.164754
