#time,accel_x,accel_y,accel_z
4480.145507,592.164754,-8580.269578,-370.102971
4480.145832,222.061783,-8580.269578,-222.061783
4480.146156,444.123565,-8503.660028,-148.041188
4480.146481,518.144159,-8733.488677,-296.082377
4480.146805,148.041188,-8656.879127,0.000000
4480.147130,370.102971,-8810.098227,-222.061783
4480.147454,444.123565,-8963.317327,222.061783
4480.147779,296.082377,-8427.050478,444.123565
4480.148103,370.102971,-8427.050478,296.082377
4480.148428,592.164754,-8810.098227,740.205942
4480.148752,962.267725,-8120.612279,1036.288319
4480.149077,518.144159,-8733.488677,518.144159
4480.149401,296.082377,-8503.660028,592.164754
4480.149726,370.102971,-8503.660028,666.185348
4480.150050,148.041188,-8503.660028,1332.370696
4480.150375,74.020594,-8580.269578,740.205942
4480.150699,296.082377,-8503.660028,888.247130
4480.151024,444.123565,-8350.440928,740.205942
4480.151348,518.144159,-8503.660028,666.185348
4480.151673,814.226536,-8810.098227,740.205942
4480.151997,444.123565,-8273.831378,962.267725
4480.152322,518.144159,-8810.098227,814.226536
4480.152646,296.082377,-8656.879127,518.144159
4480.152971,444.123565,-8427.050478,1110.308913
4480.153295,370.102971,-8733.488677,370.102971
4480.153620,370.102971,-8733.488677,222.061783
4480.153944,370.102971,-8503.660028,444.123565
4480.154269,222.061783,-8810.098227,444.123565
4480.154593,222.061783,-8120.612279,296.082377
4480.154918,148.041188,-8427.050478,74.020594
4480.155242,444.123565,-8963.317327,0.000000
4480.155567,592.164754,-8503.660028,74.020594
4480.155892,518.144159,-8197.221829,0.000000
4480.156215,444.123565,-8580.269578,148.041188
4480.156539,370.102971,-8503.660028,148.041188
4480.156864,370.102971,-8963.317327,74.020594
4480.157188,370.102971,-9116.536426,74.020594
4480.157513,518.144159,-8733.488677,518.144159
4480.157837,74.020594,-8580.269578,296.082377
4480.158162,370.102971,-8733.488677,0.000000
4480.158486,296.082377,-8656.879127,-296.082377
4480.158810,444.123565,-8656.879127,0.000000
4480.159135,518.144159,-8120.612279,74.020594
4480.159459,592.164754,-8580.269578,0.000000
4480.159784,666.185348,-8427.050478,-592.164754
4480.160108,888.247130,-8886.707777,0.000000
4480.160433,518.144159,-8810.098227,-740.205942
4480.160757,296.082377,-8503.660028,-370.102971
4480.161082,296.082377,-8427.050478,-296.082377
4480.161406,518.144159,-8886.707777,-1184.329507
4480.161730,444.123565,-8273.831378,-888.247130
4480.162055,444.123565,-8733.488677,-888.247130
4480.162379,518.144159,-8044.002729,-1036.288319
4480.162704,518.144159,-8273.831378,-888.247130
4480.163028,444.123565,-8503.660028,-1110.308913
4480.163353,444.123565,-8273.831378,-592.164754
4480.163677,666.185348,-8580.269578,-1036.288319
4480.164002,666.185348,-8580.269578,-740.205942
4480.164326,444.123565,-8733.488677,-592.164754
4480.164650,370.102971,-8733.488677,-666.185348
4480.164975,222.061783,-8580.269578,-962.267725
4480.165299,370.102971,-8886.707777,-1184.329507
4480.165624,592.164754,-9806.022374,-1258.350101
4480.165948,296.082377,-8427.050478,-518.144159
4480.166273,370.102971,-8810.098227,-962.267725
4480.166597,666.185348,-8733.488677,-1110.308913
4480.166922,666.185348,-8427.050478,-1258.350101
4480.167246,444.123565,-8580.269578,-1110.308913
4480.167570,518.144159,-8810.098227,-962.267725
4480.167895,296.082377,-8810.098227,-740.205942
4480.168219,296.082377,-8886.707777,-1036.288319
4480.168544,148.041188,-9422.974625,-814.226536
4480.168868,148.041188,-8963.317327,-1036.288319
4480.169193,222.061783,-8886.707777,-888.247130
4480.169517,74.020594,-8503.660028,-814.226536
4480.169842,444.123565,-8886.707777,-1110.308913
4480.170166,148.041188,-8350.440928,-1184.329507
4480.170490,518.144159,-8656.879127,-1036.288319
4480.170815,222.061783,-8656.879127,-1036.288319
4480.171139,370.102971,-8886.707777,-888.247130
4480.171464,444.123565,-8733.488677,-1184.329507
4480.171788,148.041188,-8810.098227,-888.247130
4480.172113,0.000000,-8580.269578,-888.247130
4480.172437,0.000000,-8963.317327,-962.267725
4480.172762,296.082377,-9116.536426,-1036.288319
4480.173086,370.102971,-8733.488677,-888.247130
4480.173410,518.144159,-8810.098227,-962.267725
4480.173735,444.123565,-8427.050478,-592.164754
4480.174059,518.144159,-8810.098227,-740.205942
4480.174384,592.164754,-8503.660028,-962.267725
4480.174708,740.205942,-8886.707777,-518.144159
4480.175033,888.247130,-8580.269578,-592.164754
4480.175357,888.247130,-8886.707777,-518.144159
4480.175682,814.226536,-8733.488677,-666.185348
4480.176006,592.164754,-8963.317327,0.000000
4480.176330,222.061783,-8656.879127,-518.144159
4480.176655,296.082377,-8656.879127,-296.082377
4480.176979,814.226536,-8503.660028,-148.041188
4480.177304,444.123565,-8733.488677,0.000000
4480.177628,666.185348,-8503.660028,-370.102971
4480.177953,592.164754,-8656.879127,148.041188
4480.178277,740.205942,-8503.660028,74.020594
4480.178602,888.247130,-8810.098227,0.000000
4480.178926,592.164754,-8350.440928,148.041188
4480.179250,1036.288319,-9039.926876,148.041188
4480.179575,888.247130,-8427.050478,222.061783
4480.179899,814.226536,-9039.926876,370.102971
4480.180224,592.164754,-8656.879127,370.102971
4480.180548,444.123565,-8810.098227,666.185348
4480.180873,518.144159,-8503.660028,222.061783
4480.181197,592.164754,-8656.879127,814.226536
4480.181522,444.123565,-8580.269578,888.247130
4480.181846,666.185348,-8656.879127,814.226536
4480.182170,666.185348,-8580.269578,740.205942
4480.182495,666.185348,-8503.660028,1036.288319
4480.182819,370.102971,-8963.317327,740.205942
4480.183144,370.102971,-8580.269578,962.267725
4480.183468,444.123565,-8120.612279,1036.288319
4480.183793,518.144159,-8580.269578,1036.288319
4480.184117,592.164754,-7814.174080,1110.308913
4480.184442,444.123565,-8656.879127,1036.288319
4480.184766,518.144159,-8273.831378,740.205942
4480.185090,518.144159,-8350.440928,1406.391290
4480.185415,444.123565,-8350.440928,962.267725
4480.185739,518.144159,-8503.660028,1184.329507
4480.186064,370.102971,-8427.050478,888.247130
4480.186388,444.123565,-8963.317327,1332.370696
4480.186713,222.061783,-8120.612279,888.247130
4480.187037,444.123565,-8810.098227,1406.391290
4480.187362,148.041188,-8273.831378,666.185348
4480.187686,222.061783,-8580.269578,962.267725
4480.188010,444.123565,-8350.440928,518.144159
4480.188335,518.144159,-8733.488677,962.267725
4480.188659,222.061783,-8427.050478,888.247130
4480.188984,74.020594,-8350.440928,888.247130
4480.189308,74.020594,-8197.221829,1036.288319
4480.189633,222.061783,-8427.050478,666.185348
4480.189957,444.123565,-8503.660028,592.164754
4480.190282,370.102971,-8120.612279,814.226536
4480.190606,222.061783,-8503.660028,592.164754
4480.190930,518.144159,-8427.050478,814.226536
4480.191255,740.205942,-8350.440928,666.185348
4480.191579,222.061783,-8427.050478,666.185348
4480.191904,296.082377,-8810.098227,222.061783
4480.192228,0.000000,-8963.317327,518.144159
4480.192553,148.041188,-8197.221829,666.185348
4480.192877,74.020594,-8273.831378,148.041188
4480.193201,370.102971,-8656.879127,0.000000
4480.193526,370.102971,-8810.098227,148.041188
4480.193850,0.000000,-8810.098227,74.020594
4480.194175,0.000000,-8810.098227,0.000000
4480.194499,296.082377,-8810.098227,0.000000
4480.194824,222.061783,-8810.098227,-296.082377
4480.195148,148.041188,-8656.879127,-296.082377
4480.195473,666.185348,-8503.660028,-296.082377
4480.195797,296.082377,-8733.488677,-296.082377
4480.196121,296.082377,-8963.317327,-296.082377
4480.196446,444.123565,-8427.050478,-370.102971
4480.196770,740.205942,-8580.269578,-888.247130
4480.197095,740.205942,-8273.831378,-444.123565
4480.197419,518.144159,-8503.660028,-666.185348
4480.197744,296.082377,-8810.098227,-888.247130
4480.198068,222.061783,-8427.050478,-740.205942
4480.198393,518.144159,-8580.269578,-888.247130
4480.198717,148.041188,-8503.660028,-740.205942
4480.199041,222.061783,-8733.488677,-814.226536
4480.199366,370.102971,-8810.098227,-740.205942
4480.199690,740.205942,-9039.926876,-1184.329507
4480.200015,518.144159,-8810.098227,-888.247130
4480.200339,444.123565,-8580.269578,-814.226536
4480.200664,740.205942,-8350.440928,-666.185348
4480.200988,740.205942,-7967.393179,-740.205942
4480.201313,666.185348,-8580.269578,-666.185348
4480.201637,444.123565,-8273.831378,-814.226536
4480.201961,444.123565,-8580.269578,-592.164754
4480.202286,296.082377,-8427.050478,-518.144159
4480.202610,0.000000,-8120.612279,74.020594
4480.202935,296.082377,-8273.831378,-296.082377
4480.203259,740.205942,-8273.831378,-666.185348
4480.203584,592.164754,-9039.926876,-518.144159
4480.203908,518.144159,-9039.926876,-370.102971
4480.204233,518.144159,-8427.050478,-148.041188
4480.204557,222.061783,-8503.660028,-148.041188
4480.204881,370.102971,-8580.269578,-296.082377
4480.205206,370.102971,-8886.707777,-370.102971
4480.205530,222.061783,-8733.488677,-518.144159
4480.205855,148.041188,-8427.050478,-296.082377
4480.206179,222.061783,-8656.879127,-296.082377
4480.206504,148.041188,-8810.098227,-444.123565
4480.206828,74.020594,-9039.926876,-444.123565
4480.207153,148.041188,-8656.879127,-444.123565
4480.207477,222.061783,-8503.660028,-296.082377
4480.207801,148.041188,-8580.269578,-296.082377
4480.208126,666.185348,-9422.974625,-370.102971
4480.208450,518.144159,-8656.879127,-666.185348
4480.208775,370.102971,-8733.488677,-444.123565
4480.209099,296.082377,-8886.707777,-296.082377
4480.209424,74.020594,-8503.660028,-370.102971
4480.209748,222.061783,-8580.269578,-370.102971
4480.210073,222.061783,-8580.269578,-666.185348
4480.210397,148.041188,-8580.269578,-592.164754
4480.210721,222.061783,-8503.660028,-370.102971
4480.211046,148.041188,-8044.002729,-370.102971
4480.211370,222.061783,-8427.050478,-370.102971
4480.211695,222.061783,-8427.050478,-370.102971
4480.212019,592.164754,-8580.269578,-814.226536
4480.212344,518.144159,-8273.831378,-962.267725
4480.212668,518.144159,-8427.050478,-666.185348
4480.212993,518.144159,-8503.660028,-814.226536
4480.213317,444.123565,-8427.050478,-444.123565
4480.213641,296.082377,-8273.831378,-666.185348
4480.213966,222.061783,-8656.879127,-888.247130
4480.214290,518.144159,-8503.660028,-666.185348
4480.214615,296.082377,-8580.269578,-740.205942
4480.214939,370.102971,-9039.926876,-444.123565
4480.215264,592.164754,-8197.221829,-370.102971
4480.215588,518.144159,-8350.440928,-740.205942
4480.215913,592.164754,-8427.050478,-740.205942
4480.216237,518.144159,-8656.879127,-592.164754
4480.216561,444.123565,-9269.755526,-888.247130
4480.216886,296.082377,-8810.098227,-444.123565
4480.217210,222.061783,-8656.879127,-814.226536
4480.217535,370.102971,-8886.707777,-518.144159
4480.217859,296.082377,-8427.050478,-296.082377
4480.218184,0.000000,-8427.050478,-222.061783
4480.218508,0.000000,-8580.269578,-518.144159
4480.218833,222.061783,-8427.050478,-370.102971
4480.219157,222.061783,-8656.879127,-666.185348
4480.219481,518.144159,-8963.317327,-148.041188
4480.219806,444.123565,-8656.879127,-296.082377
4480.220130,444.123565,-8580.269578,-296.082377
4480.220455,592.164754,-8273.831378,-148.041188
4480.220779,518.144159,-8886.707777,-370.102971
4480.221104,740.205942,-8503.660028,-222.061783
4480.221428,444.123565,-8044.002729,0.000000
4480.221753,296.082377,-8427.050478,0.000000
4480.222077,148.041188,-8273.831378,-148.041188
4480.222401,444.123565,-8273.831378,-592.164754
4480.222726,296.082377,-8427.050478,-370.102971
4480.223050,74.020594,-8580.269578,0.000000
4480.223375,74.020594,-8656.879127,-518.144159
4480.223699,0.000000,-8656.879127,74.020594
4480.224024,0.000000,-8273.831378,0.000000
4480.224348,370.102971,-8810.098227,-148.041188
4480.224673,296.082377,-8197.221829,-148.041188
4480.224997,518.144159,-8580.269578,0.000000
4480.225321,370.102971,-8503.660028,-370.102971
4480.225646,222.061783,-8503.660028,-370.102971
4480.225970,592.164754,-8120.612279,-74.020594
4480.226295,370.102971,-8503.660028,-148.041188
4480.226619,814.226536,-8580.269578,0.000000
4480.226944,370.102971,-8427.050478,148.041188
4480.227268,222.061783,-8733.488677,0.000000
4480.227593,518.144159,-8810.098227,-222.061783
4480.227917,888.247130,-8886.707777,222.061783
4480.228241,814.226536,-8273.831378,0.000000
4480.228566,592.164754,-8733.488677,-148.041188
4480.228890,740.205942,-8656.879127,-296.082377
4480.229215,592.164754,-8503.660028,-370.102971
4480.229539,962.267725,-9039.926876,-518.144159
4480.229864,444.123565,-8656.879127,-296.082377
4480.230188,666.185348,-8963.317327,-370.102971
4480.230513,222.061783,-8733.488677,-592.164754
4480.230837,888.247130,-9193.145976,-444.123565
4480.231161,518.144159,-8963.317327,-666.185348
4480.231486,962.267725,-9116.536426,-592.164754
4480.231810,962.267725,-8580.269578,-740.205942
4480.232135,1110.308913,-7890.783629,-444.123565
4480.232459,740.205942,-8886.707777,-962.267725
4480.232784,1036.288319,-8733.488677,-962.267725
4480.233108,814.226536,-8656.879127,-1258.350101
4480.233433,740.205942,-8886.707777,-1036.288319
4480.233757,740.205942,-8503.660028,-1036.288319
4480.234081,592.164754,-8963.317327,-1184.329507
4480.234406,740.205942,-8963.317327,-1480.411884
4480.234730,740.205942,-9039.926876,-1554.432478
4480.235055,444.123565,-8503.660028,-888.247130
4480.235379,296.082377,-8733.488677,-1258.350101
4480.235704,444.123565,-9193.145976,-1332.370696
4480.236028,444.123565,-8886.707777,-1554.432478
4480.236353,444.123565,-8733.488677,-1480.411884
4480.236677,370.102971,-9039.926876,-1184.329507
4480.237001,296.082377,-8810.098227,-1406.391290
4480.237326,370.102971,-8886.707777,-1406.391290
4480.237650,296.082377,-8886.707777,-1332.370696
4480.237975,74.020594,-8503.660028,-1332.370696
4480.238299,222.061783,-8963.317327,-1258.350101
4480.238624,518.144159,-8580.269578,-1184.329507
4480.238948,296.082377,-8427.050478,-1110.308913
4480.239273,666.185348,-9729.412825,-1258.350101
4480.239597,592.164754,-8656.879127,-1480.411884
4480.239921,592.164754,-8963.317327,-1332.370696
4480.240246,370.102971,-8656.879127,-1258.350101
4480.240570,296.082377,-8656.879127,-1406.391290
4480.240895,222.061783,-8503.660028,-1258.350101
4480.241219,148.041188,-8580.269578,-1480.411884
4480.241544,370.102971,-8580.269578,-1406.391290
4480.241868,518.144159,-8733.488677,-1258.350101
4480.242193,74.020594,-8044.002729,-1036.288319
4480.242517,296.082377,-8580.269578,-1406.391290
4480.242841,296.082377,-8580.269578,-1036.288319
4480.243166,444.123565,-8273.831378,-1258.350101
4480.243490,666.185348,-8733.488677,-1184.329507
4480.243815,296.082377,-8656.879127,-740.205942
4480.244139,296.082377,-8503.660028,-962.267725
4480.244464,148.041188,-8580.269578,-666.185348
4480.244788,296.082377,-8120.612279,-814.226536
4480.245113,444.123565,-8350.440928,-814.226536
4480.245437,592.164754,-8503.660028,-518.144159
4480.245761,444.123565,-7967.393179,-740.205942
4480.246086,370.102971,-8503.660028,-592.164754
4480.246410,296.082377,-7890.783629,-888.247130
4480.246735,592.164754,-8120.612279,-592.164754
4480.247059,370.102971,-8427.050478,-444.123565
4480.247384,444.123565,-8656.879127,-296.082377
4480.247708,222.061783,-8197.221829,-592.164754
4480.248033,296.082377,-8120.612279,-666.185348
4480.248357,444.123565,-8427.050478,-740.205942
4480.248681,518.144159,-8427.050478,-740.205942
4480.249006,666.185348,-8273.831378,-518.144159
4480.249330,518.144159,-8273.831378,-518.144159
4480.249655,444.123565,-8580.269578,-814.226536
4480.249979,296.082377,-8273.831378,-370.102971
4480.250304,444.123565,-8733.488677,-444.123565
4480.250628,814.226536,-9116.536426,-370.102971
4480.250953,370.102971,-8580.269578,-296.082377
4480.251277,296.082377,-8810.098227,0.000000
4480.251601,370.102971,-8580.269578,0.000000
4480.251926,296.082377,-8963.317327,0.000000
4480.252250,740.205942,-8886.707777,-74.020594
4480.252575,666.185348,-8427.050478,0.000000
4480.252899,296.082377,-8580.269578,0.000000
4480.253224,370.102971,-8810.098227,0.000000
4480.253548,222.061783,-8963.317327,0.000000
4480.253873,444.123565,-8810.098227,0.000000
4480.254197,444.123565,-8733.488677,222.061783
4480.254521,370.102971,-8656.879127,74.020594
4480.254846,592.164754,-8963.317327,74.020594
4480.255170,444.123565,-8810.098227,0.000000
4480.255495,444.123565,-9116.536426,0.000000
4480.255819,518.144159,-8580.269578,-148.041188
4480.256144,296.082377,-8733.488677,0.000000
4480.256468,666.185348,-8733.488677,0.000000
4480.256792,592.164754,-8580.269578,-370.102971
4480.257117,592.164754,-8656.879127,0.000000
4480.257441,444.123565,-8580.269578,-148.041188
4480.257765,814.226536,-8810.098227,296.082377
4480.258090,296.082377,-8503.660028,0.000000
4480.258414,296.082377,-8350.440928,74.020594
4480.258738,74.020594,-8350.440928,0.000000
4480.259062,518.144159,-9193.145976,296.082377
4480.259387,370.102971,-8273.831378,0.000000
4480.259711,444.123565,-8350.440928,0.000000
4480.260035,74.020594,-8733.488677,0.000000
4480.260360,370.102971,-8350.440928,0.000000
4480.260684,370.102971,-8580.269578,-148.041188
4480.261008,222.061783,-8733.488677,148.041188
4480.261332,296.082377,-8503.660028,222.061783
4480.261657,222.061783,-8656.879127,296.082377
4480.261981,888.247130,-8197.221829,0.000000
4480.262305,222.061783,-8503.660028,0.000000
4480.262630,518.144159,-8886.707777,0.000000
4480.262954,370.102971,-8273.831378,0.000000
4480.263278,592.164754,-9116.536426,-222.061783
4480.263602,444.123565,-8656.879127,-222.061783
4480.263927,444.123565,-8427.050478,0.000000
4480.264251,444.123565,-8580.269578,-296.082377
4480.264575,592.164754,-8427.050478,-148.041188
4480.264900,444.123565,-8656.879127,-444.123565
4480.265224,518.144159,-8810.098227,-592.164754
4480.265548,814.226536,-8197.221829,-592.164754
4480.265873,518.144159,-8810.098227,-370.102971
4480.266197,740.205942,-8810.098227,-518.144159
4480.266521,518.144159,-8427.050478,-666.185348
4480.266845,222.061783,-8503.660028,-740.205942
4480.267170,148.041188,-8580.269578,-592.164754
4480.267494,444.123565,-8963.317327,-962.267725
4480.267818,370.102971,-8963.317327,-740.205942
4480.268143,518.144159,-8427.050478,-740.205942
4480.268467,222.061783,-8580.269578,-592.164754
4480.268791,222.061783,-8580.269578,-740.205942
4480.269115,666.185348,-8963.317327,-1036.288319
4480.269440,444.123565,-8810.098227,-666.185348
4480.269764,444.123565,-8273.831378,-518.144159
4480.270088,518.144159,-8503.660028,-296.082377
4480.270413,74.020594,-9193.145976,74.020594
4480.270737,444.123565,-8350.440928,-592.164754
4480.271061,370.102971,-8656.879127,-740.205942
4480.271385,444.123565,-8810.098227,-740.205942
4480.271710,444.123565,-8886.707777,-370.102971
4480.272034,222.061783,-8427.050478,-74.020594
4480.272358,222.061783,-8503.660028,-592.164754
4480.272683,444.123565,-8273.831378,-592.164754
4480.273007,962.267725,-8810.098227,-592.164754
4480.273331,814.226536,-8580.269578,-370.102971
4480.273655,592.164754,-8580.269578,-444.123565
4480.273980,444.123565,-8503.660028,-592.164754
4480.274304,666.185348,-8503.660028,-518.144159
4480.274628,296.082377,-8503.660028,-888.247130
4480.274953,444.123565,-8503.660028,-222.061783
4480.275277,148.041188,-8350.440928,-296.082377
4480.275601,222.061783,-8656.879127,-296.082377
4480.275925,444.123565,-8273.831378,-296.082377
4480.276250,518.144159,-8427.050478,-444.123565
4480.276574,666.185348,-8427.050478,0.000000
4480.276898,518.144159,-8044.002729,0.000000
4480.277223,592.164754,-8810.098227,-148.041188
4480.277547,814.226536,-8503.660028,-370.102971
4480.277871,370.102971,-8273.831378,0.000000
4480.278196,148.041188,-8427.050478,0.000000
4480.278520,370.102971,-8656.879127,74.020594
4480.278844,74.020594,-8503.660028,296.082377
4480.279168,370.102971,-8503.660028,148.041188
4480.279493,222.061783,-8656.879127,296.082377
4480.279817,592.164754,-8733.488677,222.061783
4480.280141,592.164754,-8273.831378,222.061783
4480.280466,444.123565,-8503.660028,222.061783
4480.280790,296.082377,-8886.707777,0.000000
4480.281114,370.102971,-8273.831378,74.020594
4480.281438,370.102971,-8733.488677,0.000000
4480.281763,740.205942,-8350.440928,0.000000
4480.282087,666.185348,-8733.488677,0.000000
4480.282411,518.144159,-8810.098227,74.020594
4480.282736,296.082377,-8580.269578,0.000000
4480.283060,592.164754,-8656.879127,296.082377
4480.283384,444.123565,-8580.269578,-444.123565
4480.283708,592.164754,-8273.831378,-222.061783
4480.284033,370.102971,-8733.488677,-444.123565
4480.284357,148.041188,-8656.879127,-296.082377
4480.284681,666.185348,-8580.269578,-518.144159
4480.285006,444.123565,-8656.879127,-296.082377
4480.285330,148.041188,-8810.098227,0.000000
4480.285654,370.102971,-8427.050478,-148.041188
4480.285978,962.267725,-9269.755526,74.020594
4480.286303,370.102971,-8503.660028,-444.123565
4480.286627,444.123565,-9039.926876,0.000000
4480.286951,444.123565,-8273.831378,-148.041188
4480.287276,888.247130,-8810.098227,222.061783
4480.287600,666.185348,-8580.269578,0.000000
4480.287924,370.102971,-8656.879127,0.000000
4480.288248,370.102971,-8580.269578,0.000000
4480.288573,592.164754,-8733.488677,0.000000
4480.288897,814.226536,-8427.050478,74.020594
4480.289221,740.205942,-8580.269578,0.000000
4480.289546,518.144159,-8656.879127,0.000000
4480.289870,666.185348,-8733.488677,74.020594
4480.290194,444.123565,-8503.660028,74.020594
4480.290519,740.205942,-8427.050478,-148.041188
4480.290843,444.123565,-8503.660028,0.000000
4480.291167,296.082377,-8810.098227,-370.102971
4480.291491,518.144159,-8886.707777,-592.164754
4480.291816,222.061783,-9039.926876,74.020594
4480.292140,444.123565,-8656.879127,-148.041188
4480.292464,296.082377,-8580.269578,0.000000
4480.292789,370.102971,-8580.269578,0.000000
4480.293113,296.082377,-8427.050478,0.000000
4480.293437,222.061783,-8503.660028,-592.164754
4480.293761,444.123565,-8810.098227,0.000000
4480.294086,518.144159,-8197.221829,0.000000
4480.294410,592.164754,-9039.926876,0.000000
4480.294734,370.102971,-8733.488677,148.041188
4480.295059,296.082377,-8656.879127,296.082377
4480.295383,296.082377,-8733.488677,74.020594
4480.295707,296.082377,-8656.879127,0.000000
4480.296031,148.041188,-8580.269578,222.061783
4480.296356,148.041188,-8733.488677,74.020594
4480.296680,74.020594,-8656.879127,0.000000
4480.297004,222.061783,-8656.879127,0.000000
4480.297329,740.205942,-8580.269578,296.082377
4480.297653,222.061783,-8273.831378,296.082377
4480.297977,370.102971,-8656.879127,222.061783
4480.298301,296.082377,-8273.831378,0.000000
4480.298626,740.205942,-8197.221829,222.061783
4480.298950,370.102971,-8656.879127,0.000000
4480.299274,222.061783,-8580.269578,222.061783
4480.299599,0.000000,-8350.440928,0.000000
4480.299923,74.020594,-8427.050478,0.000000
4480.300247,222.061783,-8197.221829,0.000000
4480.300572,74.020594,-8503.660028,0.000000
4480.300896,518.144159,-8273.831378,-74.020594
4480.301220,148.041188,-8273.831378,-148.041188
4480.301544,74.020594,-8273.831378,0.000000
4480.301869,148.041188,-8656.879127,0.000000
4480.302193,666.185348,-8580.269578,0.000000
4480.302517,444.123565,-8733.488677,0.000000
4480.302842,370.102971,-8197.221829,0.000000
4480.303166,592.164754,-8810.098227,0.000000
4480.303490,444.123565,-8733.488677,0.000000
4480.303814,222.061783,-8503.660028,-222.061783
4480.304139,370.102971,-8886.707777,74.020594
4480.304463,296.082377,-8503.660028,0.000000
4480.304787,148.041188,-8886.707777,0.000000
4480.305112,148.041188,-8886.707777,0.000000
4480.305436,296.082377,-9116.536426,148.041188
4480.305760,740.205942,-9346.365076,-148.041188
4480.306084,592.164754,-8886.707777,0.000000
4480.306409,518.144159,-8656.879127,-148.041188
4480.306733,592.164754,-8886.707777,-370.102971
4480.307057,222.061783,-8810.098227,-370.102971
4480.307382,296.082377,-8963.317327,-444.123565
4480.307706,518.144159,-8886.707777,-740.205942
4480.308030,222.061783,-8503.660028,-518.144159
4480.308354,296.082377,-8733.488677,-740.205942
4480.308679,-222.061783,-8503.660028,-296.082377
4480.309003,296.082377,-8503.660028,-666.185348
4480.309327,296.082377,-8580.269578,-814.226536
4480.309652,444.123565,-8810.098227,-814.226536
4480.309976,296.082377,-9039.926876,-962.267725
4480.310300,296.082377,-8580.269578,-814.226536
4480.310624,222.061783,-8273.831378,-592.164754
4480.310949,0.000000,-8810.098227,-740.205942
4480.311273,74.020594,-8503.660028,-592.164754
4480.311597,148.041188,-8273.831378,-740.205942
4480.311922,222.061783,-8580.269578,-592.164754
4480.312246,222.061783,-8350.440928,-740.205942
4480.312570,222.061783,-8733.488677,-666.185348
4480.312895,592.164754,-8197.221829,-814.226536
4480.313219,296.082377,-8733.488677,-296.082377
4480.313543,148.041188,-8427.050478,-296.082377
4480.313867,370.102971,-8580.269578,-444.123565
4480.314192,444.123565,-8350.440928,-1036.288319
4480.314516,296.082377,-8580.269578,-518.144159
4480.314840,592.164754,-8503.660028,-740.205942
4480.315165,148.041188,-8503.660028,-592.164754
4480.315489,370.102971,-8656.879127,-444.123565
4480.315813,296.082377,-8503.660028,-222.061783
4480.316137,222.061783,-8656.879127,-518.144159
4480.316462,296.082377,-8656.879127,-222.061783
4480.316786,148.041188,-8503.660028,-296.082377
4480.317110,0.000000,-8810.098227,0.000000
4480.317435,222.061783,-8733.488677,-296.082377
4480.317759,444.123565,-8733.488677,-592.164754
4480.318083,444.123565,-8503.660028,-592.164754
4480.318407,518.144159,-8350.440928,0.000000
4480.318732,296.082377,-8580.269578,0.000000
4480.319056,370.102971,-8427.050478,-370.102971
4480.319380,296.082377,-8580.269578,0.000000
4480.319705,370.102971,-8350.440928,-222.061783
4480.320029,370.102971,-8427.050478,0.000000
4480.320353,74.020594,-8503.660028,0.000000
4480.320677,444.123565,-8733.488677,-148.041188
4480.321002,444.123565,-8427.050478,-592.164754
4480.321326,740.205942,-8733.488677,-370.102971
4480.321650,666.185348,-8733.488677,-370.102971
4480.321975,222.061783,-8810.098227,-148.041188
4480.322299,222.061783,-8733.488677,-296.082377
4480.322623,296.082377,-9116.536426,-148.041188
4480.322947,444.123565,-8656.879127,-222.061783
4480.323272,444.123565,-8963.317327,-222.061783
4480.323596,518.144159,-8350.440928,-666.185348
4480.323920,370.102971,-8503.660028,-518.144159
4480.324245,370.102971,-8810.098227,-296.082377
4480.324569,592.164754,-8733.488677,-370.102971
4480.324893,518.144159,-8733.488677,-148.041188
4480.325218,296.082377,-8350.440928,74.020594
4480.325542,0.000000,-8886.707777,296.082377
4480.325866,148.041188,-8810.098227,-296.082377
4480.326190,518.144159,-8580.269578,-444.123565
4480.326515,444.123565,-8656.879127,-592.164754
4480.326839,370.102971,-8733.488677,-296.082377
4480.327163,740.205942,-8503.660028,-370.102971
4480.327488,740.205942,-8656.879127,-296.082377
4480.327812,814.226536,-8427.050478,-444.123565
4480.328136,666.185348,-8810.098227,-518.144159
4480.328460,814.226536,-9039.926876,-222.061783
4480.328785,592.164754,-8427.050478,0.000000
4480.329109,370.102971,-8733.488677,0.000000
4480.329433,518.144159,-8580.269578,-444.123565
4480.329758,1110.308913,-8810.098227,-222.061783
4480.330082,666.185348,-8733.488677,-444.123565
4480.330406,666.185348,-8733.488677,-370.102971
4480.330730,518.144159,-8656.879127,-296.082377
4480.331055,740.205942,-8656.879127,-222.061783
4480.331379,518.144159,-8427.050478,-296.082377
4480.331703,518.144159,-8810.098227,-370.102971
4480.332028,666.185348,-8427.050478,-296.082377
4480.332352,370.102971,-8427.050478,-296.082377
4480.332676,296.082377,-8733.488677,-518.144159
4480.333000,444.123565,-8503.660028,-370.102971
4480.333325,444.123565,-8733.488677,-740.205942
4480.333649,444.123565,-8656.879127,-518.144159
4480.333973,370.102971,-7890.783629,0.000000
4480.334298,222.061783,-8197.221829,-592.164754
4480.334622,444.123565,-8273.831378,-296.082377
4480.334946,444.123565,-8197.221829,-518.144159
4480.335271,518.144159,-8580.269578,-370.102971
4480.335595,370.102971,-7890.783629,-444.123565
4480.335919,370.102971,-8197.221829,-666.185348
4480.336243,148.041188,-8580.269578,-888.247130
4480.336568,296.082377,-8350.440928,-444.123565
4480.336892,592.164754,-8120.612279,-296.082377
4480.337216,518.144159,-8580.269578,-592.164754
4480.337541,74.020594,-8503.660028,-296.082377
4480.337865,370.102971,-8810.098227,-370.102971
4480.338189,518.144159,-8580.269578,-74.020594
4480.338513,814.226536,-8580.269578,-370.102971
4480.338838,592.164754,-8580.269578,-592.164754
4480.339162,666.185348,-8350.440928,-444.123565
4480.339486,592.164754,-8427.050478,-666.185348
4480.339811,518.144159,-8427.050478,-740.205942
4480.340135,814.226536,-8197.221829,-592.164754
4480.340459,666.185348,-8733.488677,-666.185348
4480.340783,222.061783,-8503.660028,-518.144159
4480.341108,444.123565,-8503.660028,-814.226536
4480.341432,518.144159,-8733.488677,-592.164754
4480.341756,518.144159,-8656.879127,-814.226536
4480.342081,444.123565,-8427.050478,-814.226536
4480.342405,740.205942,-7967.393179,-592.164754
4480.342729,592.164754,-8273.831378,-740.205942
4480.343053,518.144159,-8580.269578,-814.226536
4480.343378,592.164754,-8503.660028,-592.164754
4480.343702,444.123565,-8273.831378,-814.226536
4480.344026,592.164754,-8733.488677,-1110.308913
4480.344351,296.082377,-8503.660028,-666.185348
4480.344675,444.123565,-8886.707777,-370.102971
4480.344999,370.102971,-8580.269578,-962.267725
4480.345323,666.185348,-8886.707777,-814.226536
4480.345648,518.144159,-8886.707777,-1036.288319
4480.345972,592.164754,-8656.879127,-370.102971
4480.346296,296.082377,-8810.098227,-888.247130
4480.346621,296.082377,-8886.707777,-740.205942
4480.346945,814.226536,-8810.098227,-888.247130
4480.347269,444.123565,-8810.098227,-888.247130
4480.347594,222.061783,-8810.098227,-740.205942
4480.347918,518.144159,-8350.440928,-592.164754
4480.348242,148.041188,-8580.269578,-666.185348
4480.348566,296.082377,-8503.660028,-962.267725
4480.348891,518.144159,-8580.269578,-740.205942
4480.349215,444.123565,-8427.050478,-814.226536
4480.349539,888.247130,-8120.612279,-666.185348
4480.349864,296.082377,-8580.269578,-740.205942
4480.350188,444.123565,-8810.098227,-740.205942
4480.350512,740.205942,-8427.050478,-740.205942
4480.350836,444.123565,-8733.488677,-740.205942
4480.351161,592.164754,-8580.269578,-666.185348
4480.351485,296.082377,-8350.440928,-518.144159
4480.351809,666.185348,-8810.098227,-666.185348
4480.352134,518.144159,-8197.221829,-370.102971
4480.352458,1258.350101,-9039.926876,-666.185348
4480.352782,666.185348,-8656.879127,-518.144159
4480.353106,518.144159,-8656.879127,-370.102971
4480.353431,444.123565,-8963.317327,-296.082377
4480.353755,518.144159,-9269.755526,-888.247130
4480.354079,370.102971,-8503.660028,-444.123565
4480.354404,370.102971,-8886.707777,-518.144159
4480.354728,740.205942,-8350.440928,-296.082377
4480.355052,814.226536,-8810.098227,-370.102971
4480.355376,814.226536,-8503.660028,-370.102971
4480.355701,592.164754,-8427.050478,-370.102971
4480.356025,444.123565,-8580.269578,-592.164754
4480.356349,814.226536,-8197.221829,-444.123565
4480.356674,518.144159,-8886.707777,0.000000
4480.356998,148.041188,-8427.050478,-444.123565
4480.357322,370.102971,-8273.831378,-592.164754
4480.357646,296.082377,-8350.440928,-444.123565
4480.357971,740.205942,-9193.145976,-518.144159
4480.358295,0.000000,-8427.050478,-148.041188
4480.358619,518.144159,-8427.050478,-518.144159
4480.358943,296.082377,-8273.831378,-296.082377
4480.359268,444.123565,-8503.660028,-148.041188
4480.359592,296.082377,-8810.098227,-296.082377
4480.359916,0.000000,-8044.002729,74.020594
4480.360240,296.082377,-8350.440928,-296.082377
4480.360565,444.123565,-8503.660028,-592.164754
4480.360889,74.020594,-8273.831378,-370.102971
4480.361213,370.102971,-8427.050478,-592.164754
4480.361537,444.123565,-8350.440928,-222.061783
4480.361861,148.041188,-8503.660028,-296.082377
4480.362186,222.061783,-8733.488677,-444.123565
4480.362510,0.000000,-8503.660028,-296.082377
4480.362834,444.123565,-8580.269578,-222.061783
4480.363158,518.144159,-8503.660028,-444.123565
4480.363483,592.164754,-8810.098227,-296.082377
4480.363807,740.205942,-8503.660028,-666.185348
4480.364131,444.123565,-8580.269578,-592.164754
4480.364455,444.123565,-8656.879127,-370.102971
4480.364780,444.123565,-8733.488677,-518.144159
4480.365104,592.164754,-9039.926876,-666.185348
4480.365428,592.164754,-8810.098227,-518.144159
4480.365752,370.102971,-8886.707777,-296.082377
4480.366077,518.144159,-8733.488677,-444.123565
4480.366401,296.082377,-8580.269578,-370.102971
4480.366725,592.164754,-8580.269578,-592.164754
4480.367049,296.082377,-8580.269578,-296.082377
4480.367373,296.082377,-8656.879127,-518.144159
4480.367698,370.102971,-8503.660028,-592.164754
4480.368022,1258.350101,-8810.098227,-592.164754
4480.368346,592.164754,-8733.488677,-222.061783
4480.368670,296.082377,-8733.488677,-296.082377
4480.368995,296.082377,-8656.879127,-518.144159
4480.369319,370.102971,-8580.269578,-296.082377
4480.369643,222.061783,-8656.879127,-444.123565
4480.369967,370.102971,-8733.488677,-444.123565
4480.370292,592.164754,-8273.831378,-296.082377
4480.370616,444.123565,-8656.879127,-592.164754
4480.370940,296.082377,-8810.098227,-518.144159
4480.371264,444.123565,-8580.269578,-296.082377
4480.371589,222.061783,-8503.660028,-148.041188
4480.371913,370.102971,-8656.879127,-592.164754
4480.372237,296.082377,-8120.612279,-296.082377
4480.372561,592.164754,-8580.269578,-666.185348
4480.372885,444.123565,-8503.660028,-592.164754
4480.373210,666.185348,-8503.660028,-814.226536
4480.373534,296.082377,-8503.660028,0.000000
4480.373858,370.102971,-8733.488677,-370.102971
4480.374182,222.061783,-8733.488677,-296.082377
4480.374507,592.164754,-8733.488677,-222.061783
4480.374831,518.144159,-8656.879127,-370.102971
4480.375155,814.226536,-8810.098227,-296.082377
4480.375479,666.185348,-8733.488677,-444.123565
4480.375804,666.185348,-8427.050478,-592.164754
4480.376128,666.185348,-8580.269578,-222.061783
4480.376452,1110.308913,-8963.317327,-666.185348
4480.376776,518.144159,-8810.098227,-444.123565
4480.377101,370.102971,-8656.879127,-222.061783
4480.377425,740.205942,-8503.660028,-222.061783
4480.377749,444.123565,-8810.098227,0.000000
4480.378073,518.144159,-8733.488677,74.020594
4480.378397,666.185348,-8733.488677,-370.102971
4480.378722,592.164754,-8810.098227,-370.102971
4480.379046,370.102971,-9039.926876,-148.041188
4480.379370,666.185348,-8273.831378,0.000000
4480.379694,296.082377,-8427.050478,-222.061783
4480.380019,518.144159,-8503.660028,-370.102971
4480.380343,740.205942,-8733.488677,0.000000
4480.380667,518.144159,-7584.345430,296.082377
4480.380991,444.123565,-8733.488677,-296.082377
4480.381316,518.144159,-8580.269578,-444.123565
4480.381640,444.123565,-8427.050478,-444.123565
4480.381964,444.123565,-8580.269578,-666.185348
4480.382288,444.123565,-8503.660028,-296.082377
4480.382613,296.082377,-8503.660028,-592.164754
4480.382937,370.102971,-9039.926876,-592.164754
4480.383261,444.123565,-8503.660028,-592.164754
4480.383585,592.164754,-9116.536426,-296.082377
4480.383909,518.144159,-8580.269578,-518.144159
4480.384234,444.123565,-8350.440928,-222.061783
4480.384558,444.123565,-8427.050478,-444.123565
4480.384882,296.082377,-9039.926876,0.000000
4480.385206,518.144159,-8580.269578,-666.185348
4480.385531,444.123565,-8810.098227,-370.102971
4480.385855,222.061783,-8503.660028,-370.102971
4480.386179,370.102971,-8350.440928,0.000000
4480.386503,296.082377,-8350.440928,0.000000
4480.386828,370.102971,-8656.879127,0.000000
4480.387152,518.144159,-8733.488677,-370.102971
4480.387476,518.144159,-8810.098227,0.000000
4480.387800,518.144159,-8733.488677,0.000000
4480.388125,518.144159,-9039.926876,0.000000
4480.388449,518.144159,-8656.879127,-444.123565
4480.388773,444.123565,-8580.269578,-222.061783
4480.389097,740.205942,-8656.879127,-370.102971
4480.389421,296.082377,-8580.269578,0.000000
4480.389746,148.041188,-8427.050478,-370.102971
4480.390070,222.061783,-8733.488677,0.000000
4480.390394,444.123565,-8427.050478,-222.061783
4480.390718,222.061783,-8963.317327,0.000000
4480.391043,518.144159,-8044.002729,-148.041188
4480.391367,518.144159,-8427.050478,-148.041188
4480.391691,444.123565,-8503.660028,-444.123565
4480.392015,740.205942,-8427.050478,0.000000
4480.392340,518.144159,-8656.879127,-592.164754
4480.392664,444.123565,-8580.269578,0.000000
4480.392988,222.061783,-8427.050478,0.000000
4480.393312,296.082377,-7737.564530,0.000000
4480.393637,296.082377,-8120.612279,-148.041188
4480.393961,444.123565,-8963.317327,-296.082377
4480.394285,518.144159,-8656.879127,-148.041188
4480.394609,222.061783,-7967.393179,0.000000
4480.394934,74.020594,-9039.926876,0.000000
4480.395258,370.102971,-8580.269578,-222.061783
4480.395582,370.102971,-8580.269578,0.000000
4480.395906,444.123565,-8656.879127,-222.061783
4480.396230,888.247130,-9422.974625,296.082377
4480.396555,518.144159,-8580.269578,-148.041188
4480.396879,518.144159,-8580.269578,0.000000
4480.397203,296.082377,-8503.660028,0.000000
4480.397527,74.020594,-8886.707777,74.020594
4480.397852,296.082377,-8810.098227,0.000000
4480.398176,370.102971,-8656.879127,0.000000
4480.398500,148.041188,-8503.660028,0.000000
4480.398824,222.061783,-8580.269578,0.000000
4480.399149,74.020594,-8810.098227,0.000000
4480.399473,148.041188,-8427.050478,74.020594
4480.399797,74.020594,-8656.879127,0.000000
4480.400121,222.061783,-8427.050478,-148.041188
4480.400446,666.185348,-8350.440928,74.020594
4480.400770,518.144159,-8503.660028,-222.061783
4480.401094,296.082377,-8733.488677,-222.061783
4480.401418,296.082377,-8427.050478,-148.041188
4480.401742,444.123565,-8963.317327,0.000000
4480.402067,444.123565,-8427.050478,0.000000
4480.402391,444.123565,-8656.879127,0.000000
4480.402715,222.061783,-8503.660028,-296.082377
4480.403039,148.041188,-8656.879127,0.000000
4480.403364,370.102971,-8733.488677,0.000000
4480.403688,444.123565,-8733.488677,-222.061783
4480.404012,296.082377,-8580.269578,0.000000
4480.404336,370.102971,-8656.879127,-296.082377
4480.404661,444.123565,-8580.269578,-740.205942
4480.404985,592.164754,-8427.050478,0.000000
4480.405309,518.144159,-8350.440928,-222.061783
4480.405633,518.144159,-8580.269578,0.000000
4480.405958,444.123565,-8427.050478,-222.061783
4480.406282,444.123565,-8810.098227,148.041188
4480.406606,370.102971,-8503.660028,0.000000
4480.406930,518.144159,-8580.269578,-148.041188
4480.407254,370.102971,-8656.879127,0.000000
4480.407579,370.102971,-9116.536426,-222.061783
4480.407903,370.102971,-8810.098227,-222.061783
4480.408227,518.144159,-8427.050478,0.000000
4480.408551,518.144159,-8350.440928,-148.041188
4480.408876,518.144159,-9652.803275,0.000000
4480.409200,666.185348,-8273.831378,-592.164754
4480.409524,592.164754,-8580.269578,0.000000
4480.409848,444.123565,-8427.050478,-370.102971
4480.410173,296.082377,-8810.098227,-222.061783
4480.410497,518.144159,-8427.050478,-444.123565
4480.410821,444.123565,-8810.098227,0.000000
4480.411145,444.123565,-8273.831378,-222.061783
4480.411470,518.144159,-8810.098227,0.000000
4480.411794,518.144159,-8886.707777,0.000000
4480.412118,222.061783,-8580.269578,74.020594
4480.412442,148.041188,-8503.660028,0.000000
4480.412766,592.164754,-8656.879127,0.000000
4480.413091,444.123565,-8580.269578,-444.123565
4480.413415,222.061783,-8733.488677,0.000000
4480.413739,296.082377,-8810.098227,0.000000
4480.414063,74.020594,-8656.879127,0.000000
4480.414388,370.102971,-8580.269578,-222.061783
4480.414712,74.020594,-8656.879127,0.000000
4480.415036,518.144159,-8580.269578,0.000000
4480.415360,370.102971,-8350.440928,-148.041188
4480.415685,296.082377,-8656.879127,0.000000
4480.416009,592.164754,-8273.831378,-148.041188
4480.416333,444.123565,-8427.050478,-148.041188
4480.416657,148.041188,-8580.269578,-296.082377
4480.416982,222.061783,-8427.050478,0.000000
4480.417306,296.082377,-8580.269578,-296.082377
4480.417630,296.082377,-8810.098227,-296.082377
4480.417954,444.123565,-8656.879127,-370.102971
4480.418278,296.082377,-8503.660028,-222.061783
4480.418603,444.123565,-8580.269578,-74.020594
4480.418927,296.082377,-8810.098227,0.000000
4480.419251,222.061783,-8810.098227,-370.102971
4480.419575,296.082377,-8810.098227,-148.041188
4480.419900,296.082377,-8810.098227,-296.082377
4480.420224,0.000000,-9269.755526,222.061783
4480.420548,444.123565,-8810.098227,-222.061783
4480.420872,444.123565,-8580.269578,-148.041188
4480.421197,370.102971,-9193.145976,0.000000
4480.421521,370.102971,-8503.660028,-444.123565
4480.421845,518.144159,-8810.098227,0.000000
4480.422169,518.144159,-8503.660028,0.000000
4480.422494,592.164754,-8503.660028,-370.102971
4480.422818,370.102971,-8580.269578,-518.144159
4480.423142,148.041188,-7890.783629,0.000000
4480.423466,296.082377,-8503.660028,-370.102971
4480.423791,592.164754,-8580.269578,0.000000
4480.424115,444.123565,-8656.879127,0.000000
4480.424439,666.185348,-9039.926876,0.000000
4480.424763,148.041188,-8427.050478,-148.041188
4480.425087,518.144159,-8427.050478,-518.144159
4480.425412,370.102971,-8503.660028,-222.061783
4480.425736,444.123565,-8427.050478,-222.061783
4480.426060,592.164754,-8503.660028,-740.205942
4480.426384,296.082377,-8197.221829,-444.123565
4480.426709,666.185348,-8656.879127,0.000000
4480.427033,296.082377,-8580.269578,-222.061783
4480.427357,888.247130,-8810.098227,0.000000
4480.427681,296.082377,-8427.050478,-222.061783
4480.428006,370.102971,-8580.269578,-370.102971
4480.428330,222.061783,-8427.050478,-370.102971
4480.428654,666.185348,-8886.707777,-296.082377
4480.428978,518.144159,-8733.488677,-296.082377
4480.429303,666.185348,-8733.488677,-296.082377
4480.429627,370.102971,-8427.050478,-222.061783
4480.429951,592.164754,-8427.050478,-296.082377
4480.430275,740.205942,-8580.269578,0.000000
4480.430599,370.102971,-8656.879127,-222.061783
4480.430924,296.082377,-8580.269578,-444.123565
4480.431248,148.041188,-8580.269578,-222.061783
4480.431572,518.144159,-8656.879127,-222.061783
4480.431896,444.123565,-8580.269578,-148.041188
4480.432221,518.144159,-8580.269578,-370.102971
4480.432545,444.123565,-8503.660028,-296.082377
4480.432869,444.123565,-8273.831378,-148.041188
4480.433193,370.102971,-8886.707777,-296.082377
4480.433518,370.102971,-8503.660028,-296.082377
4480.433842,518.144159,-8810.098227,-296.082377
4480.434166,740.205942,-8733.488677,-444.123565
4480.434490,666.185348,-8273.831378,-222.061783
4480.434815,296.082377,-8656.879127,-518.144159
4480.435139,370.102971,-8580.269578,-444.123565
4480.435463,666.185348,-8503.660028,-740.205942
4480.435787,740.205942,-9039.926876,0.000000
4480.436111,888.247130,-8350.440928,-666.185348
4480.436436,444.123565,-8886.707777,-518.144159
4480.436760,740.205942,-8350.440928,-518.144159
4480.437084,518.144159,-8733.488677,-592.164754
4480.437408,518.144159,-9116.536426,-592.164754
4480.437733,592.164754,-8886.707777,-666.185348
4480.438057,518.144159,-8580.269578,-592.164754
4480.438381,444.123565,-8810.098227,-592.164754
4480.438705,296.082377,-8273.831378,-370.102971
4480.439030,592.164754,-8810.098227,-666.185348
4480.439354,666.185348,-8350.440928,-444.123565
4480.439678,444.123565,-8273.831378,-444.123565
4480.440002,444.123565,-8503.660028,-518.144159
4480.440327,444.123565,-8810.098227,-444.123565
4480.440651,814.226536,-8733.488677,-962.267725
4480.440975,444.123565,-8886.707777,-444.123565
4480.441299,444.123565,-8733.488677,-444.123565
4480.441623,592.164754,-8963.317327,-296.082377
4480.441948,444.123565,-8733.488677,-444.123565
4480.442272,592.164754,-8427.050478,-666.185348
4480.442596,592.164754,-8886.707777,-740.205942
4480.442920,222.061783,-7737.564530,0.000000
4480.443245,370.102971,-8120.612279,-518.144159
4480.443569,370.102971,-9116.536426,-592.164754
4480.443893,222.061783,-8350.440928,-518.144159
4480.444217,222.061783,-8810.098227,74.020594
4480.444542,296.082377,-8656.879127,-444.123565
4480.444866,370.102971,-8580.269578,-296.082377
4480.445190,518.144159,-8656.879127,-370.102971
4480.445514,370.102971,-8427.050478,-444.123565
4480.445839,222.061783,-8120.612279,-518.144159
4480.446163,592.164754,-8656.879127,-370.102971
4480.446487,370.102971,-8503.660028,-296.082377
4480.446811,296.082377,-8810.098227,-518.144159
4480.447135,444.123565,-7967.393179,-296.082377
4480.447460,222.061783,-8580.269578,-296.082377
4480.447784,592.164754,-8656.879127,-592.164754
4480.448108,370.102971,-8273.831378,-370.102971
4480.448432,592.164754,-8886.707777,-296.082377
4480.448757,592.164754,-8427.050478,-518.144159
4480.449081,740.205942,-8580.269578,-444.123565
4480.449405,592.164754,-8580.269578,-592.164754
4480.449729,740.205942,-8580.269578,-444.123565
4480.450054,740.205942,-8503.660028,-592.164754
4480.450378,518.144159,-8580.269578,-666.185348
4480.450702,518.144159,-8656.879127,-592.164754
4480.451026,296.082377,-8963.317327,-444.123565
4480.451351,666.185348,-8427.050478,-148.041188
4480.451675,296.082377,-8656.879127,-148.041188
4480.451999,518.144159,-8503.660028,-518.144159
4480.452323,444.123565,-8886.707777,-444.123565
4480.452648,370.102971,-8350.440928,-666.185348
4480.452972,148.041188,-8503.660028,-592.164754
4480.453296,444.123565,-8273.831378,-592.164754
4480.453620,296.082377,-8427.050478,-740.205942
4480.453944,444.123565,-8656.879127,-666.185348
4480.454269,518.144159,-8273.831378,-1110.308913
4480.454593,296.082377,-8580.269578,-666.185348
4480.454917,222.061783,-8580.269578,-740.205942
4480.455241,222.061783,-8427.050478,-518.144159
4480.455566,370.102971,-7967.393179,-370.102971
4480.455890,296.082377,-8656.879127,-592.164754
4480.456214,444.123565,-8503.660028,-666.185348
4480.456538,518.144159,-8273.831378,-740.205942
4480.456863,370.102971,-8810.098227,-666.185348
4480.457187,370.102971,-8044.002729,-518.144159
4480.457511,444.123565,-8810.098227,-666.185348
4480.457835,370.102971,-8427.050478,-814.226536
4480.458160,370.102971,-8733.488677,-740.205942
4480.458484,370.102971,-8273.831378,-296.082377
4480.458808,444.123565,-8733.488677,-666.185348
4480.459132,296.082377,-8503.660028,-740.205942
4480.459457,518.144159,-8503.660028,-740.205942
4480.459781,666.185348,-8963.317327,-814.226536
4480.460105,518.144159,-8656.879127,-518.144159
4480.460429,444.123565,-8580.269578,-592.164754
4480.460754,296.082377,-8580.269578,-518.144159
4480.461078,222.061783,-8656.879127,-444.123565
4480.461402,592.164754,-8503.660028,-518.144159
4480.461726,222.061783,-8810.098227,-518.144159
4480.462051,148.041188,-8427.050478,-444.123565
4480.462375,666.185348,-8656.879127,-296.082377
4480.462699,370.102971,-9422.974625,-370.102971
4480.463024,666.185348,-8503.660028,-592.164754
4480.463348,370.102971,-8350.440928,-740.205942
4480.463672,740.205942,-8427.050478,-222.061783
4480.463996,148.041188,-8503.660028,-518.144159
4480.464321,222.061783,-8810.098227,-296.082377
4480.464645,444.123565,-8273.831378,-592.164754
4480.464969,222.061783,-8656.879127,-222.061783
4480.465293,222.061783,-8350.440928,-222.061783
4480.465618,0.000000,-8810.098227,74.020594
4480.465942,370.102971,-8273.831378,-370.102971
4480.466266,370.102971,-8350.440928,-148.041188
4480.466590,370.102971,-8580.269578,-370.102971
4480.466915,666.185348,-8503.660028,148.041188
4480.467239,666.185348,-8197.221829,0.000000
4480.467563,518.144159,-8503.660028,0.000000
4480.467888,222.061783,-8427.050478,-148.041188
4480.468212,296.082377,-8503.660028,0.000000
4480.468536,296.082377,-8656.879127,-370.102971
4480.468860,370.102971,-8580.269578,-74.020594
4480.469185,296.082377,-8427.050478,0.000000
4480.469509,296.082377,-8427.050478,-74.020594
4480.469833,666.185348,-8197.221829,-444.123565
4480.470157,814.226536,-8273.831378,-592.164754
4480.470482,888.247130,-8427.050478,0.000000
4480.470806,518.144159,-8427.050478,-370.102971
4480.471130,518.144159,-9193.145976,-148.041188
4480.471454,518.144159,-8503.660028,-592.164754
4480.471779,592.164754,-8427.050478,-518.144159
4480.472103,518.144159,-8580.269578,-592.164754
4480.472427,444.123565,-8580.269578,-296.082377
4480.472752,296.082377,-8810.098227,-444.123565
4480.473076,444.123565,-8503.660028,-666.185348
4480.473400,296.082377,-8810.098227,-518.144159
4480.473724,370.102971,-8733.488677,-518.144159
4480.474049,296.082377,-8350.440928,-370.102971
4480.474373,222.061783,-8580.269578,-518.144159
4480.474697,0.000000,-8580.269578,-666.185348
4480.475021,370.102971,-8656.879127,-592.164754
4480.475346,444.123565,-8886.707777,-962.267725
4480.475670,592.164754,-8656.879127,-740.205942
4480.475994,370.102971,-8427.050478,-592.164754
4480.476318,296.082377,-8733.488677,-444.123565
4480.476643,148.041188,-8580.269578,-296.082377
4480.476967,666.185348,-8656.879127,-666.185348
4480.477291,370.102971,-8580.269578,-666.185348
4480.477615,518.144159,-8580.269578,-444.123565
4480.477940,518.144159,-8273.831378,-666.185348
4480.478264,444.123565,-9193.145976,-666.185348
4480.478588,592.164754,-8350.440928,-740.205942
4480.478913,370.102971,-8810.098227,-592.164754
4480.479237,370.102971,-8427.050478,-518.144159
4480.479561,222.061783,-8503.660028,-222.061783
4480.479885,222.061783,-8580.269578,-592.164754
4480.480210,222.061783,-8503.660028,-592.164754
4480.480534,148.041188,-8503.660028,-740.205942
4480.480858,444.123565,-8733.488677,-370.102971
4480.481182,370.102971,-8427.050478,-370.102971
4480.481507,296.082377,-8580.269578,-518.144159
4480.481831,370.102971,-8350.440928,-296.082377
4480.482155,740.205942,-8580.269578,-370.102971
4480.482479,222.061783,-8427.050478,148.041188
4480.482804,518.144159,-8350.440928,-222.061783
4480.483128,222.061783,-8503.660028,-370.102971
4480.483452,370.102971,-8273.831378,-296.082377
4480.483777,222.061783,-8120.612279,-444.123565
4480.484101,518.144159,-8580.269578,-666.185348
4480.484425,444.123565,-8197.221829,0.000000
4480.484749,148.041188,-8273.831378,0.000000
4480.485074,370.102971,-8197.221829,0.000000
4480.485398,1110.308913,-8580.269578,-222.061783
4480.485722,444.123565,-8580.269578,-148.041188
4480.486046,444.123565,-8886.707777,0.000000
4480.486371,518.144159,-8427.050478,148.041188
4480.486695,222.061783,-8963.317327,74.020594
4480.487019,296.082377,-8350.440928,0.000000
4480.487343,222.061783,-8427.050478,0.000000
4480.487668,444.123565,-8810.098227,-222.061783
4480.487992,592.164754,-8350.440928,0.000000
4480.488316,296.082377,-8810.098227,-222.061783
4480.488641,370.102971,-8656.879127,-148.041188
4480.488965,74.020594,-8503.660028,-296.082377
4480.489289,370.102971,-8580.269578,-148.041188
4480.489613,-148.041188,-8427.050478,222.061783
4480.489938,222.061783,-8733.488677,-296.082377
4480.490262,370.102971,-8810.098227,-370.102971
4480.490586,518.144159,-8810.098227,-296.082377
4480.490910,814.226536,-9193.145976,-222.061783
4480.491235,666.185348,-8656.879127,-370.102971
4480.491559,444.123565,-8427.050478,-74.020594
4480.491883,444.123565,-8580.269578,-518.144159
4480.492207,222.061783,-8733.488677,-518.144159
4480.492532,518.144159,-8656.879127,-370.102971
4480.492856,222.061783,-8886.707777,-296.082377
4480.493180,222.061783,-9039.926876,0.000000
4480.493504,370.102971,-8503.660028,-370.102971
4480.493829,740.205942,-9116.536426,-296.082377
4480.494153,296.082377,-8886.707777,-222.061783
4480.494477,370.102971,-9193.145976,0.000000
4480.494802,444.123565,-8503.660028,0.000000
4480.495126,444.123565,-8580.269578,-148.041188
4480.495450,518.144159,-8886.707777,-296.082377
4480.495774,296.082377,-8427.050478,0.000000
4480.496099,370.102971,-8580.269578,-296.082377
4480.496423,444.123565,-8656.879127,0.000000
4480.496747,592.164754,-8580.269578,-148.041188
4480.497071,444.123565,-8886.707777,-148.041188
4480.497396,296.082377,-8503.660028,0.000000
4480.497720,518.144159,-8656.879127,-148.041188
4480.498044,518.144159,-8886.707777,74.020594
4480.498368,370.102971,-8273.831378,-148.041188
4480.498693,370.102971,-8427.050478,0.000000
4480.499017,518.144159,-8656.879127,-222.061783
4480.499341,444.123565,-8503.660028,-518.144159
4480.499666,592.164754,-8733.488677,-296.082377
4480.499990,444.123565,-8580.269578,0.000000
4480.500314,296.082377,-8427.050478,-222.061783
4480.500638,296.082377,-8580.269578,0.000000
4480.500963,370.102971,-8580.269578,74.020594
4480.501287,518.144159,-8656.879127,0.000000
4480.501611,592.164754,-8503.660028,-222.061783
4480.501935,518.144159,-8580.269578,0.000000
4480.502260,0.000000,-8120.612279,74.020594
4480.502584,444.123565,-8503.660028,0.000000
4480.502908,370.102971,-8580.269578,-296.082377
4480.503232,592.164754,-8503.660028,-148.041188
4480.503557,518.144159,-8273.831378,74.020594
4480.503881,740.205942,-8273.831378,-444.123565
4480.504205,444.123565,-8656.879127,-148.041188
4480.504530,148.041188,-8503.660028,-222.061783
4480.504854,444.123565,-8656.879127,-444.123565
4480.505178,592.164754,-8350.440928,0.000000
4480.505502,148.041188,-8273.831378,0.000000
4480.505827,296.082377,-8656.879127,-444.123565
4480.506151,444.123565,-8656.879127,-370.102971
4480.506475,592.164754,-8044.002729,-296.082377
4480.506799,370.102971,-8580.269578,-148.041188
4480.507124,518.144159,-8427.050478,-148.041188
4480.507448,296.082377,-9039.926876,0.000000
4480.507772,444.123565,-8733.488677,-296.082377
4480.508096,0.000000,-8503.660028,-296.082377
4480.508421,296.082377,-8810.098227,-370.102971
4480.508745,370.102971,-8273.831378,-518.144159
4480.509069,296.082377,-8580.269578,-444.123565
4480.509393,222.061783,-8273.831378,-592.164754
4480.509718,222.061783,-8503.660028,-148.041188
4480.510042,592.164754,-8503.660028,-370.102971
4480.510366,370.102971,-8733.488677,-222.061783
4480.510691,518.144159,-8503.660028,0.000000
4480.511015,370.102971,-9039.926876,-222.061783
4480.511339,666.185348,-8886.707777,-296.082377
4480.511663,740.205942,-8810.098227,-370.102971
4480.511988,592.164754,-8886.707777,-444.123565
4480.512312,148.041188,-8427.050478,0.000000
4480.512636,518.144159,-8886.707777,-222.061783
4480.512960,296.082377,-8656.879127,-444.123565
4480.513285,666.185348,-8580.269578,-370.102971
4480.513609,740.205942,-9346.365076,0.000000
4480.513933,444.123565,-8580.269578,0.000000
4480.514257,592.164754,-8886.707777,-148.041188
4480.514582,370.102971,-8580.269578,-148.041188
4480.514906,370.102971,-8656.879127,-370.102971
4480.515230,592.164754,-8580.269578,-518.144159
4480.515555,592.164754,-8503.660028,-444.123565
4480.515879,814.226536,-8273.831378,0.000000
4480.516203,370.102971,-8580.269578,0.000000
4480.516527,518.144159,-8580.269578,-296.082377
4480.516852,592.164754,-8733.488677,-148.041188
4480.517176,370.102971,-8580.269578,0.000000
4480.517500,370.102971,-8580.269578,0.000000
4480.517824,370.102971,-9193.145976,74.020594
4480.518149,296.082377,-8733.488677,0.000000
4480.518473,740.205942,-8580.269578,-148.041188
4480.518797,444.123565,-8733.488677,0.000000
4480.519121,444.123565,-8503.660028,0.000000
4480.519446,222.061783,-8503.660028,0.000000
4480.519770,296.082377,-8886.707777,0.000000
4480.520094,518.144159,-8197.221829,-222.061783
4480.520419,444.123565,-8580.269578,0.000000
4480.520743,296.082377,-8427.050478,370.102971
4480.521067,518.144159,-8580.269578,0.000000
4480.521391,296.082377,-8350.440928,0.000000
4480.521716,444.123565,-8273.831378,148.041188
4480.522040,-148.041188,-8733.488677,148.041188
4480.522364,518.144159,-8656.879127,0.000000
4480.522688,222.061783,-8044.002729,74.020594
4480.523013,296.082377,-8503.660028,0.000000
4480.523337,148.041188,-8656.879127,-222.061783
4480.523661,444.123565,-8273.831378,0.000000
4480.523985,444.123565,-8580.269578,-592.164754
4480.524310,518.144159,-8810.098227,0.000000
4480.524634,296.082377,-8580.269578,0.000000
4480.524958,740.205942,-8580.269578,-518.144159
4480.525283,592.164754,-8580.269578,-444.123565
4480.525607,518.144159,-8886.707777,-74.020594
4480.525931,296.082377,-8503.660028,-296.082377
4480.526255,148.041188,-8656.879127,0.000000
4480.526580,74.020594,-8886.707777,-444.123565
4480.526904,518.144159,-8503.660028,-296.082377
4480.527228,444.123565,-8656.879127,-518.144159
4480.527552,444.123565,-8733.488677,-296.082377
4480.527877,444.123565,-8350.440928,0.000000
4480.528201,518.144159,-8656.879127,-518.144159
4480.528525,222.061783,-8733.488677,-592.164754
4480.528849,518.144159,-8656.879127,-592.164754
4480.529174,740.205942,-8886.707777,-666.185348
4480.529498,592.164754,-8503.660028,-296.082377
4480.529822,0.000000,-8580.269578,-518.144159
4480.530146,74.020594,-8810.098227,-370.102971
4480.530471,444.123565,-8810.098227,-222.061783
4480.530795,370.102971,-8886.707777,-518.144159
4480.531119,518.144159,-8427.050478,-518.144159
4480.531444,444.123565,-8503.660028,-296.082377
4480.531768,444.123565,-9039.926876,-592.164754
4480.532092,888.247130,-8427.050478,-592.164754
4480.532416,518.144159,-8656.879127,-444.123565
4480.532741,518.144159,-8886.707777,-740.205942
4480.533065,444.123565,-8427.050478,-370.102971
4480.533389,814.226536,-9193.145976,-370.102971
4480.533713,444.123565,-8273.831378,-296.082377
4480.534038,592.164754,-8580.269578,-518.144159
4480.534362,370.102971,-8503.660028,-370.102971
4480.534686,518.144159,-8886.707777,0.000000
4480.535010,296.082377,-8427.050478,0.000000
4480.535335,740.205942,-8427.050478,-74.020594
4480.535659,518.144159,-8503.660028,-296.082377
4480.535983,444.123565,-8580.269578,-296.082377
4480.536308,222.061783,-8197.221829,74.020594
4480.536632,370.102971,-8350.440928,0.000000
4480.536956,296.082377,-8810.098227,0.000000
4480.537280,370.102971,-8350.440928,0.000000
4480.537605,666.185348,-8273.831378,0.000000
4480.537929,370.102971,-8733.488677,0.000000
4480.538253,222.061783,-8503.660028,0.000000
4480.538577,148.041188,-8350.440928,0.000000
4480.538902,296.082377,-8503.660028,-296.082377
4480.539226,518.144159,-8197.221829,0.000000
4480.539550,666.185348,-8656.879127,-444.123565
4480.539874,444.123565,-8273.831378,0.000000
4480.540199,370.102971,-8427.050478,0.000000
4480.540523,888.247130,-8656.879127,0.000000
4480.540847,370.102971,-8656.879127,-222.061783
4480.541172,296.082377,-8503.660028,-296.082377
4480.541496,370.102971,-8580.269578,-296.082377
4480.541820,592.164754,-8580.269578,-148.041188
4480.542144,148.041188,-8427.050478,-444.123565
4480.542469,222.061783,-8427.050478,-444.123565
4480.542793,296.082377,-8656.879127,-592.164754
4480.543117,296.082377,-8580.269578,-592.164754
4480.543441,444.123565,-8580.269578,0.000000
4480.543766,444.123565,-8656.879127,-296.082377
4480.544090,592.164754,-8580.269578,-592.164754
4480.544414,518.144159,-8427.050478,-740.205942
4480.544738,518.144159,-8350.440928,-888.247130
4480.545063,370.102971,-8580.269578,-592.164754
4480.545387,296.082377,-8427.050478,-296.082377
4480.545711,296.082377,-8656.879127,-740.205942
4480.546035,74.020594,-8197.221829,-518.144159
4480.546360,296.082377,-8886.707777,-666.185348
4480.546684,370.102971,-8503.660028,-592.164754
4480.547008,444.123565,-8656.879127,-666.185348
4480.547333,296.082377,-8963.317327,-740.205942
4480.547657,444.123565,-8350.440928,-666.185348
4480.547981,592.164754,-8810.098227,-740.205942
4480.548305,444.123565,-8656.879127,-740.205942
4480.548630,296.082377,-8810.098227,-592.164754
4480.548954,666.185348,-9652.803275,-814.226536
4480.549278,370.102971,-8886.707777,-666.185348
4480.549602,518.144159,-8810.098227,-740.205942
4480.549927,444.123565,-9039.926876,-592.164754
4480.550251,444.123565,-8733.488677,-370.102971
4480.550575,370.102971,-8733.488677,-592.164754
4480.550899,518.144159,-9039.926876,-592.164754
4480.551224,518.144159,-8656.879127,-518.144159
4480.551548,518.144159,-8810.098227,-740.205942
4480.551872,296.082377,-8580.269578,-370.102971
4480.552197,518.144159,-8656.879127,-592.164754
4480.552521,592.164754,-8503.660028,-740.205942
4480.552845,518.144159,-8350.440928,-518.144159
4480.553169,444.123565,-8810.098227,-962.267725
4480.553494,592.164754,-8503.660028,-444.123565
4480.553818,296.082377,-8273.831378,-370.102971
4480.554142,222.061783,-8580.269578,-444.123565
4480.554466,592.164754,-8503.660028,-592.164754
4480.554791,592.164754,-8580.269578,-518.144159
4480.555115,592.164754,-8810.098227,-592.164754
4480.555439,370.102971,-8350.440928,-222.061783
4480.555763,444.123565,-8580.269578,-148.041188
4480.556088,518.144159,-8044.002729,-592.164754
4480.556412,444.123565,-8733.488677,-222.061783
4480.556736,296.082377,-8503.660028,-296.082377
4480.557061,666.185348,-8427.050478,-296.082377
4480.557385,74.020594,-8120.612279,-592.164754
4480.557709,296.082377,-8810.098227,-370.102971
4480.558033,74.020594,-8350.440928,-296.082377
4480.558358,296.082377,-8810.098227,0.000000
4480.558682,296.082377,-8503.660028,-740.205942
4480.559006,296.082377,-8656.879127,-222.061783
4480.559330,296.082377,-8580.269578,0.000000
4480.559655,296.082377,-8427.050478,-444.123565
4480.559979,518.144159,-8427.050478,-592.164754
4480.560303,222.061783,-8656.879127,-148.041188
4480.560627,740.205942,-8427.050478,-444.123565
4480.560952,370.102971,-8350.440928,-518.144159
4480.561276,592.164754,-8656.879127,-592.164754
4480.561600,518.144159,-8197.221829,-296.082377
4480.561924,666.185348,-8733.488677,-666.185348
4480.562249,444.123565,-8580.269578,-518.144159
4480.562573,444.123565,-8733.488677,-518.144159
4480.562897,370.102971,-8273.831378,-444.123565
4480.563221,518.144159,-8427.050478,-592.164754
4480.563546,222.061783,-8503.660028,-518.144159
4480.563870,592.164754,-8580.269578,-518.144159
4480.564194,296.082377,-8580.269578,-444.123565
4480.564519,592.164754,-8580.269578,-814.226536
4480.564843,370.102971,-8733.488677,-370.102971
4480.565167,296.082377,-8656.879127,-518.144159
4480.565491,592.164754,-8656.879127,-740.205942
4480.565816,444.123565,-9116.536426,-296.082377
4480.566140,592.164754,-8886.707777,-222.061783
4480.566464,370.102971,-8963.317327,-592.164754
4480.566788,296.082377,-8503.660028,-518.144159
4480.567113,444.123565,-8810.098227,-518.144159
4480.567437,444.123565,-9116.536426,-148.041188
4480.567761,370.102971,-8580.269578,-444.123565
4480.568085,222.061783,-8273.831378,-444.123565
4480.568410,592.164754,-8733.488677,-222.061783
4480.568734,296.082377,-8886.707777,0.000000
4480.569058,592.164754,-8733.488677,-370.102971
4480.569382,444.123565,-8503.660028,-370.102971
4480.569707,444.123565,-8580.269578,-444.123565
4480.570031,296.082377,-8503.660028,-666.185348
4480.570355,518.144159,-8350.440928,-592.164754
4480.570680,518.144159,-8810.098227,-814.226536
4480.571004,370.102971,-8350.440928,-444.123565
4480.571328,296.082377,-8580.269578,-592.164754
4480.571652,666.185348,-8963.317327,-592.164754
4480.571977,296.082377,-8580.269578,-666.185348
4480.572301,592.164754,-8733.488677,-666.185348
4480.572625,444.123565,-8273.831378,-814.226536
4480.572949,1110.308913,-8810.098227,-740.205942
4480.573274,444.123565,-8656.879127,-740.205942
4480.573598,592.164754,-8656.879127,-444.123565
4480.573922,592.164754,-8350.440928,-814.226536
4480.574246,592.164754,-8810.098227,-370.102971
4480.574571,444.123565,-8503.660028,-74.020594
4480.574895,592.164754,-8197.221829,-370.102971
4480.575219,518.144159,-8580.269578,-444.123565
4480.575543,592.164754,-8350.440928,-370.102971
4480.575868,518.144159,-9039.926876,-444.123565
4480.576192,518.144159,-8733.488677,-296.082377
4480.576516,666.185348,-8503.660028,-518.144159
4480.576841,518.144159,-8656.879127,-296.082377
4480.577165,444.123565,-8427.050478,0.000000
4480.577489,296.082377,-8810.098227,0.000000
4480.577813,740.205942,-8503.660028,-296.082377
4480.578138,74.020594,-8427.050478,-296.082377
4480.578462,370.102971,-8810.098227,-148.041188
4480.578786,0.000000,-8197.221829,-296.082377
4480.579110,444.123565,-8656.879127,-370.102971
4480.579435,296.082377,-8503.660028,-518.144159
4480.579759,222.061783,-8733.488677,-444.123565
4480.580083,148.041188,-8350.440928,-296.082377
4480.580407,592.164754,-8580.269578,-222.061783
4480.580732,592.164754,-8427.050478,-518.144159
4480.581056,518.144159,-8810.098227,-740.205942
4480.581380,592.164754,-8580.269578,-148.041188
4480.581704,518.144159,-8427.050478,-444.123565
4480.582029,666.185348,-8580.269578,-666.185348
4480.582353,444.123565,-8503.660028,-666.185348
4480.582677,444.123565,-8656.879127,-740.205942
4480.583001,666.185348,-8580.269578,-444.123565
4480.583326,222.061783,-8810.098227,-222.061783
4480.583650,518.144159,-8733.488677,-592.164754
4480.583974,296.082377,-8810.098227,-370.102971
4480.584299,740.205942,-8580.269578,-1110.308913
4480.584623,370.102971,-8656.879127,-666.185348
4480.584947,592.164754,-8656.879127,-370.102971
4480.585271,444.123565,-8503.660028,-592.164754
4480.585596,370.102971,-8044.002729,-296.082377
4480.585920,370.102971,-8427.050478,-370.102971
4480.586244,370.102971,-8580.269578,-444.123565
4480.586568,518.144159,-8656.879127,-444.123565
4480.586893,296.082377,-8503.660028,-592.164754
4480.587217,518.144159,-8427.050478,-592.164754
4480.587541,148.041188,-8427.050478,-444.123565
4480.587865,296.082377,-9039.926876,-740.205942
4480.588190,592.164754,-8427.050478,-666.185348
4480.588514,592.164754,-8503.660028,0.000000
4480.588838,740.205942,-8427.050478,-592.164754
4480.589162,740.205942,-8503.660028,-518.144159
4480.589487,740.205942,-8656.879127,-518.144159
4480.589811,518.144159,-8427.050478,-666.185348
4480.590135,518.144159,-8733.488677,-148.041188
4480.590460,222.061783,-8656.879127,-296.082377
4480.590784,222.061783,-8810.098227,-222.061783
4480.591108,0.000000,-8656.879127,-592.164754
4480.591432,518.144159,-8580.269578,-518.144159
4480.591757,592.164754,-8503.660028,-518.144159
4480.592081,370.102971,-8656.879127,-296.082377
4480.592405,444.123565,-8580.269578,-296.082377
4480.592729,666.185348,-9652.803275,0.000000
4480.593054,518.144159,-8733.488677,-444.123565
4480.593378,592.164754,-8580.269578,-148.041188
4480.593702,370.102971,-8350.440928,0.000000
4480.594026,592.164754,-8503.660028,-222.061783
4480.594351,222.061783,-8427.050478,-592.164754
4480.594675,222.061783,-8580.269578,-370.102971
4480.594999,370.102971,-8580.269578,-592.164754
4480.595323,222.061783,-8580.269578,0.000000
4480.595648,-222.061783,-8963.317327,0.000000
4480.595972,74.020594,-8656.879127,0.000000
4480.596296,222.061783,-8810.098227,-296.082377
4480.596620,444.123565,-8580.269578,-296.082377
4480.596945,222.061783,-8810.098227,0.000000
4480.597269,518.144159,-8656.879127,0.000000
4480.597593,222.061783,-8350.440928,-296.082377
4480.597918,370.102971,-8580.269578,-148.041188
4480.598242,296.082377,-8427.050478,-370.102971
4480.598566,222.061783,-8810.098227,222.061783
4480.598890,296.082377,-8427.050478,-370.102971
4480.599215,296.082377,-8733.488677,-222.061783
4480.599539,222.061783,-8503.660028,-296.082377
4480.599863,666.185348,-8197.221829,0.000000
4480.600187,592.164754,-8810.098227,-518.144159
4480.600512,666.185348,-8656.879127,-296.082377
4480.600836,518.144159,-8580.269578,-444.123565
4480.601160,666.185348,-8580.269578,0.000000
4480.601484,296.082377,-8580.269578,-444.123565
4480.601809,666.185348,-8810.098227,-370.102971
4480.602133,666.185348,-8810.098227,-148.041188
4480.602457,296.082377,-8963.317327,-444.123565
4480.602781,370.102971,-8733.488677,-222.061783
4480.603106,370.102971,-8503.660028,0.000000
4480.603430,296.082377,-8503.660028,-222.061783
4480.603754,222.061783,-8580.269578,-370.102971
4480.604079,444.123565,-8197.221829,-296.082377
4480.604403,370.102971,-8503.660028,0.000000
4480.604727,444.123565,-8580.269578,-444.123565
4480.605051,592.164754,-8886.707777,0.000000
4480.605376,444.123565,-8503.660028,0.000000
4480.605700,888.247130,-8810.098227,-444.123565
4480.606024,444.123565,-8197.221829,-370.102971
4480.606348,148.041188,-8656.879127,0.000000
4480.606673,592.164754,-8273.831378,-296.082377
4480.606997,592.164754,-8886.707777,-370.102971
4480.607321,444.123565,-8580.269578,-296.082377
4480.607645,444.123565,-8503.660028,0.000000
4480.607970,666.185348,-8503.660028,-222.061783
4480.608294,444.123565,-8810.098227,-518.144159
4480.608618,518.144159,-8656.879127,-222.061783
4480.608942,518.144159,-8733.488677,-222.061783
4480.609267,296.082377,-8350.440928,0.000000
4480.609591,148.041188,-8886.707777,0.000000
4480.609915,296.082377,-8503.660028,-444.123565
4480.610239,592.164754,-8427.050478,-148.041188
4480.610564,518.144159,-8810.098227,-444.123565
4480.610888,444.123565,-8580.269578,0.000000
4480.611212,444.123565,-8886.707777,0.000000
4480.611537,444.123565,-8503.660028,-222.061783
4480.611861,296.082377,-8350.440928,-74.020594
4480.612185,296.082377,-8733.488677,-222.061783
4480.612509,222.061783,-9116.536426,-444.123565
4480.612834,370.102971,-8503.660028,-444.123565
4480.613158,296.082377,-8810.098227,-222.061783
4480.613482,296.082377,-8503.660028,-296.082377
4480.613806,740.205942,-8733.488677,-518.144159
4480.614131,296.082377,-8656.879127,-148.041188
4480.614455,666.185348,-8350.440928,-370.102971
4480.614779,148.041188,-8580.269578,-370.102971
4480.615103,222.061783,-8733.488677,-370.102971
4480.615428,0.000000,-8197.221829,0.000000
4480.615752,222.061783,-8810.098227,-518.144159
4480.616076,296.082377,-8273.831378,0.000000
4480.616400,370.102971,-8656.879127,-370.102971
4480.616725,518.144159,-8656.879127,-222.061783
4480.617049,444.123565,-8580.269578,-296.082377
4480.617373,444.123565,-8427.050478,-222.061783
4480.617698,592.164754,-8580.269578,0.000000
4480.618022,296.082377,-8580.269578,-74.020594
4480.618346,592.164754,-8733.488677,-222.061783
4480.618670,370.102971,-8656.879127,-370.102971
4480.618995,296.082377,-8656.879127,-444.123565
4480.619319,518.144159,-8733.488677,-296.082377
4480.619643,592.164754,-8273.831378,-222.061783
4480.619967,592.164754,-8656.879127,-370.102971
4480.620292,370.102971,-8273.831378,0.000000
4480.620616,888.247130,-8580.269578,-444.123565
4480.620940,518.144159,-8963.317327,-74.020594
4480.621264,740.205942,-8733.488677,-148.041188
4480.621589,444.123565,-8503.660028,-148.041188
4480.621913,444.123565,-8656.879127,-222.061783
4480.622237,370.102971,-8503.660028,-222.061783
4480.622561,370.102971,-8656.879127,-444.123565
4480.622886,740.205942,-8427.050478,0.000000
4480.623210,592.164754,-8350.440928,-222.061783
4480.623534,296.082377,-8503.660028,-222.061783
4480.623859,296.082377,-9039.926876,-148.041188
4480.624183,444.123565,-8656.879127,-444.123565
4480.624507,444.123565,-8580.269578,0.000000
4480.624831,296.082377,-8656.879127,-296.082377
4480.625156,370.102971,-8656.879127,-370.102971
4480.625480,370.102971,-8503.660028,-444.123565
4480.625804,222.061783,-8886.707777,-296.082377
4480.626128,444.123565,-8810.098227,-740.205942
4480.626453,444.123565,-8580.269578,-74.020594
4480.626777,296.082377,-8503.660028,148.041188
4480.627101,444.123565,-8580.269578,-592.164754
4480.627425,444.123565,-8427.050478,-370.102971
4480.627750,518.144159,-8580.269578,-444.123565
4480.628074,0.000000,-8733.488677,0.000000
4480.628398,296.082377,-8580.269578,-296.082377
4480.628722,0.000000,-8503.660028,-222.061783
4480.629047,74.020594,-8733.488677,-296.082377
4480.629371,518.144159,-8886.707777,-518.144159
4480.629695,222.061783,-8580.269578,0.000000
4480.630019,518.144159,-8503.660028,148.041188
4480.630344,222.061783,-8580.269578,0.000000
4480.630668,296.082377,-8963.317327,0.000000
4480.630992,592.164754,-8273.831378,0.000000
4480.631317,518.144159,-8733.488677,0.000000
4480.631641,296.082377,-8733.488677,0.000000
4480.631965,444.123565,-8580.269578,-222.061783
4480.632289,518.144159,-9116.536426,-148.041188
4480.632614,370.102971,-8273.831378,-370.102971
4480.632938,370.102971,-8656.879127,-148.041188
4480.633262,666.185348,-8427.050478,-222.061783
4480.633586,740.205942,-8197.221829,-296.082377
4480.633911,370.102971,-8580.269578,74.020594
4480.634235,592.164754,-8503.660028,-148.041188
4480.634559,592.164754,-8427.050478,-444.123565
4480.634883,444.123565,-8733.488677,-370.102971
4480.635208,592.164754,-8963.317327,0.000000
4480.635532,444.123565,-8580.269578,-148.041188
4480.635856,74.020594,-8580.269578,-296.082377
4480.636180,148.041188,-8656.879127,-222.061783
4480.636505,370.102971,-9346.365076,0.000000
4480.636829,370.102971,-8350.440928,0.000000
4480.637153,222.061783,-8810.098227,0.000000
4480.637478,296.082377,-8580.269578,-370.102971
4480.637802,370.102971,-8580.269578,-296.082377
4480.638126,666.185348,-8503.660028,-592.164754
4480.638450,222.061783,-8810.098227,-296.082377
4480.638775,370.102971,-8503.660028,-296.082377
4480.639099,518.144159,-8656.879127,-222.061783
4480.639423,666.185348,-8503.660028,-222.061783
4480.639747,370.102971,-8733.488677,-222.061783
4480.640072,296.082377,-8810.098227,-222.061783
4480.640396,148.041188,-8580.269578,0.000000
4480.640720,370.102971,-8580.269578,-518.144159
4480.641044,592.164754,-8733.488677,-370.102971
4480.641369,370.102971,-8580.269578,-518.144159
4480.641693,370.102971,-8810.098227,-444.123565
4480.642017,592.164754,-8580.269578,-370.102971
4480.642341,814.226536,-8810.098227,-370.102971
4480.642666,592.164754,-8810.098227,-296.082377
4480.642990,296.082377,-8427.050478,-222.061783
4480.643314,444.123565,-8963.317327,-444.123565
4480.643638,740.205942,-8963.317327,-222.061783
4480.643963,518.144159,-8810.098227,-444.123565
4480.644287,296.082377,-8580.269578,-666.185348
4480.644611,370.102971,-8810.098227,-370.102971
4480.644936,296.082377,-8427.050478,-666.185348
4480.645260,444.123565,-8963.317327,-370.102971
4480.645584,222.061783,-8656.879127,-518.144159
4480.645908,592.164754,-8580.269578,-370.102971
4480.646233,518.144159,-8427.050478,-444.123565
4480.646557,222.061783,-8427.050478,148.041188
4480.646881,888.247130,-8580.269578,-962.267725
4480.647205,814.226536,-8427.050478,-518.144159
4480.647530,592.164754,-8427.050478,-518.144159
4480.647854,444.123565,-8886.707777,-222.061783
4480.648178,740.205942,-8273.831378,-518.144159
4480.648502,592.164754,-8350.440928,-518.144159
4480.648827,370.102971,-9039.926876,-370.102971
4480.649151,222.061783,-8656.879127,-222.061783
4480.649475,518.144159,-8733.488677,-296.082377
4480.649799,518.144159,-8733.488677,-296.082377
4480.650124,444.123565,-8580.269578,-666.185348
4480.650448,592.164754,-8503.660028,-222.061783
4480.650772,814.226536,-7890.783629,-222.061783
4480.651097,666.185348,-8580.269578,-592.164754
4480.651421,296.082377,-8273.831378,-518.144159
4480.651745,370.102971,-8580.269578,-592.164754
4480.652069,296.082377,-8580.269578,-740.205942
4480.652394,0.000000,-8656.879127,0.000000
4480.652718,0.000000,-8886.707777,-518.144159
4480.653042,0.000000,-8503.660028,-296.082377
4480.653366,222.061783,-8427.050478,-592.164754
4480.653691,592.164754,-9039.926876,-518.144159
4480.654015,666.185348,-8350.440928,-666.185348
4480.654339,518.144159,-8503.660028,-222.061783
4480.654663,518.144159,-8733.488677,-666.185348
4480.654988,814.226536,-8580.269578,-518.144159
4480.655312,740.205942,-8580.269578,-518.144159
4480.655636,518.144159,-8580.269578,-370.102971
4480.655960,518.144159,-8656.879127,-444.123565
4480.656285,148.041188,-8886.707777,-518.144159
4480.656609,148.041188,-8733.488677,0.000000
4480.656933,222.061783,-8656.879127,-296.082377
4480.657257,74.020594,-8656.879127,-444.123565
4480.657582,444.123565,-8350.440928,-148.041188
4480.657906,666.185348,-8120.612279,74.020594
4480.658230,592.164754,-8733.488677,-296.082377
4480.658555,814.226536,-8886.707777,-222.061783
4480.658879,518.144159,-8350.440928,-370.102971
4480.659203,296.082377,-8350.440928,0.000000
4480.659528,296.082377,-8273.831378,-370.102971
4480.659852,370.102971,-8963.317327,-296.082377
4480.660176,370.102971,-8580.269578,-444.123565
4480.660501,148.041188,-8886.707777,-74.020594
4480.660825,444.123565,-8427.050478,-444.123565
4480.661149,666.185348,-8427.050478,0.000000
4480.661474,814.226536,-8273.831378,-666.185348
4480.661798,370.102971,-8886.707777,-444.123565
4480.662122,888.247130,-8350.440928,-296.082377
4480.662447,296.082377,-8656.879127,-592.164754
4480.662771,518.144159,-8656.879127,-814.226536
4480.663095,296.082377,-8503.660028,-518.144159
4480.663420,740.205942,-8886.707777,-740.205942
4480.663744,592.164754,-8810.098227,-444.123565
4480.664069,518.144159,-8656.879127,-814.226536
4480.664393,592.164754,-8810.098227,-518.144159
4480.664717,222.061783,-8197.221829,-740.205942
4480.665042,518.144159,-8886.707777,-518.144159
4480.665366,444.123565,-8350.440928,-740.205942
4480.665690,370.102971,-8656.879127,-518.144159
4480.666015,148.041188,-8427.050478,-740.205942
4480.666339,740.205942,-8963.317327,-296.082377
4480.666663,444.123565,-8886.707777,-740.205942
4480.666988,444.123565,-8810.098227,-444.123565
4480.667312,518.144159,-8580.269578,-370.102971
4480.667636,592.164754,-9193.145976,0.000000
4480.667961,444.123565,-8197.221829,-518.144159
4480.668285,592.164754,-8427.050478,-518.144159
4480.668610,444.123565,-8656.879127,-518.144159
4480.668934,444.123565,-8580.269578,-370.102971
4480.669258,296.082377,-8350.440928,-518.144159
4480.669583,222.061783,-8810.098227,-296.082377
4480.669907,74.020594,-8810.098227,-148.041188
4480.670231,0.000000,-8733.488677,-148.041188
4480.670556,222.061783,-8886.707777,-296.082377
4480.670880,148.041188,-8503.660028,-222.061783
4480.671204,592.164754,-8503.660028,-592.164754
4480.671529,592.164754,-8197.221829,-444.123565
4480.671853,518.144159,-8886.707777,-370.102971
4480.672177,666.185348,-8580.269578,-518.144159
4480.672502,740.205942,-8350.440928,-518.144159
4480.672826,592.164754,-8656.879127,-666.185348
4480.673150,222.061783,-8503.660028,-444.123565
4480.673475,814.226536,-9346.365076,-370.102971
4480.673799,592.164754,-8580.269578,-296.082377
4480.674124,444.123565,-8503.660028,-444.123565
4480.674448,296.082377,-8656.879127,-592.164754
4480.674772,814.226536,-9576.193725,-740.205942
4480.675097,814.226536,-8503.660028,-518.144159
4480.675421,666.185348,-8656.879127,-592.164754
4480.675745,444.123565,-8656.879127,-444.123565
4480.676070,592.164754,-8427.050478,-592.164754
4480.676394,370.102971,-8580.269578,-296.082377
4480.676718,370.102971,-8427.050478,0.000000
4480.677043,296.082377,-8503.660028,0.000000
4480.677367,370.102971,-8733.488677,-296.082377
4480.677691,74.020594,-8733.488677,74.020594
4480.678016,148.041188,-8580.269578,-444.123565
4480.678340,666.185348,-8580.269578,-296.082377
4480.678664,518.144159,-8350.440928,-222.061783
4480.678989,592.164754,-9422.974625,-296.082377
4480.679313,592.164754,-8503.660028,-518.144159
4480.679638,888.247130,-8580.269578,-370.102971
4480.679962,518.144159,-8427.050478,-370.102971
4480.680286,592.164754,-8580.269578,-370.102971
4480.680611,370.102971,-8656.879127,-222.061783
4480.680935,518.144159,-8503.660028,-518.144159
4480.681259,592.164754,-8427.050478,-666.185348
4480.681584,370.102971,-8656.879127,-888.247130
4480.681908,148.041188,-8044.002729,-814.226536
4480.682232,370.102971,-8733.488677,-592.164754
4480.682557,370.102971,-8580.269578,-592.164754
4480.682881,518.144159,-8503.660028,-518.144159
4480.683205,518.144159,-9422.974625,-1258.350101
4480.683530,444.123565,-8503.660028,-518.144159
4480.683854,444.123565,-8810.098227,-518.144159
4480.684178,370.102971,-8580.269578,-518.144159
4480.684503,518.144159,-8580.269578,-296.082377
4480.684827,444.123565,-8656.879127,-296.082377
4480.685152,296.082377,-8963.317327,-296.082377
4480.685476,370.102971,-8503.660028,0.000000
4480.685800,222.061783,-8810.098227,-148.041188
4480.686125,444.123565,-8580.269578,-518.144159
4480.686449,296.082377,-8580.269578,-222.061783
4480.686773,370.102971,-8503.660028,0.000000
4480.687098,296.082377,-8886.707777,0.000000
4480.687422,296.082377,-8810.098227,0.000000
4480.687746,814.226536,-8580.269578,-296.082377
4480.688071,370.102971,-8273.831378,-296.082377
4480.688395,518.144159,-8656.879127,-370.102971
4480.688719,592.164754,-8197.221829,-148.041188
4480.689044,222.061783,-7890.783629,0.000000
4480.689368,370.102971,-8580.269578,-222.061783
4480.689692,444.123565,-8503.660028,-148.041188
4480.690017,444.123565,-8197.221829,-370.102971
4480.690341,370.102971,-8733.488677,-592.164754
4480.690666,296.082377,-8733.488677,0.000000
4480.690990,444.123565,-8503.660028,0.000000
4480.691314,370.102971,-8350.440928,-148.041188
4480.691639,222.061783,-8503.660028,-222.061783
4480.691963,518.144159,-8503.660028,-296.082377
4480.692287,444.123565,-8120.612279,-148.041188
4480.692612,296.082377,-8273.831378,-592.164754
4480.692936,296.082377,-8733.488677,-518.144159
4480.693260,296.082377,-8733.488677,0.000000
4480.693585,296.082377,-8427.050478,-444.123565
4480.693909,666.185348,-8580.269578,-370.102971
4480.694233,296.082377,-8580.269578,-370.102971
4480.694558,74.020594,-8656.879127,0.000000
4480.694882,444.123565,-8273.831378,-296.082377
4480.695207,518.144159,-8656.879127,-444.123565
4480.695531,518.144159,-8427.050478,-370.102971
4480.695855,444.123565,-8350.440928,-74.020594
4480.696180,444.123565,-8503.660028,-518.144159
4480.696504,518.144159,-8733.488677,-370.102971
4480.696828,518.144159,-8656.879127,-296.082377
4480.697153,814.226536,-8656.879127,-518.144159
4480.697477,1184.329507,-8350.440928,-592.164754
4480.697801,296.082377,-8810.098227,-370.102971
4480.698126,370.102971,-8656.879127,-592.164754
4480.698450,296.082377,-8733.488677,-370.102971
4480.698774,296.082377,-9039.926876,-740.205942
4480.699099,666.185348,-8656.879127,-666.185348
4480.699423,444.123565,-8427.050478,-444.123565
4480.699747,592.164754,-8886.707777,-1036.288319
4480.700072,814.226536,-8503.660028,-962.267725
4480.700396,518.144159,-8886.707777,-740.205942
4480.700721,518.144159,-8886.707777,-740.205942
4480.701045,296.082377,-8810.098227,-444.123565
4480.701369,222.061783,-8427.050478,-518.144159
4480.701694,444.123565,-8120.612279,-370.102971
4480.702018,296.082377,-8580.269578,-666.185348
4480.702342,296.082377,-8580.269578,-888.247130
4480.702667,222.061783,-8503.660028,-370.102971
4480.702991,296.082377,-8810.098227,0.000000
4480.703315,222.061783,-8733.488677,-592.164754
4480.703640,518.144159,-8733.488677,-370.102971
4480.703964,296.082377,-8810.098227,-148.041188
4480.704288,518.144159,-8886.707777,-444.123565
4480.704613,444.123565,-8427.050478,-296.082377
4480.704937,296.082377,-8580.269578,-222.061783
4480.705261,518.144159,-8580.269578,-518.144159
4480.705586,296.082377,-8886.707777,-444.123565
4480.705910,888.247130,-8044.002729,0.000000
4480.706235,518.144159,-8350.440928,-222.061783
4480.706559,444.123565,-8810.098227,0.000000
4480.706883,592.164754,-8427.050478,0.000000
4480.707208,592.164754,-8503.660028,0.000000
4480.707532,666.185348,-8427.050478,-370.102971
4480.707856,518.144159,-8656.879127,0.000000
4480.708181,444.123565,-8580.269578,0.000000
4480.708505,592.164754,-8580.269578,-222.061783
4480.708829,666.185348,-8273.831378,-666.185348
4480.709154,518.144159,-8733.488677,-592.164754
4480.709478,592.164754,-8503.660028,-148.041188
4480.709802,592.164754,-8656.879127,0.000000
4480.710127,814.226536,-8886.707777,-296.082377
4480.710451,592.164754,-8580.269578,-148.041188
4480.710775,592.164754,-8580.269578,-148.041188
4480.711100,296.082377,-8733.488677,0.000000
4480.711424,222.061783,-8273.831378,0.000000
4480.711749,592.164754,-8656.879127,0.000000
4480.712073,740.205942,-8810.098227,0.000000
4480.712397,666.185348,-8580.269578,0.000000
4480.712722,444.123565,-9039.926876,74.020594
4480.713046,888.247130,-8810.098227,74.020594
4480.713370,74.020594,-8580.269578,74.020594
4480.713695,296.082377,-8733.488677,148.041188
4480.714019,296.082377,-8656.879127,0.000000
4480.714343,296.082377,-7814.174080,74.020594
4480.714668,444.123565,-8503.660028,-222.061783
4480.714992,296.082377,-8350.440928,0.000000
4480.715316,296.082377,-8886.707777,-222.061783
4480.715641,296.082377,-8273.831378,-148.041188
4480.715965,444.123565,-8733.488677,-222.061783
4480.716289,370.102971,-8580.269578,-370.102971
4480.716614,444.123565,-8580.269578,-296.082377
4480.716938,370.102971,-8656.879127,-296.082377
4480.717263,444.123565,-8810.098227,-74.020594
4480.717587,296.082377,-8580.269578,-518.144159
4480.717911,444.123565,-8580.269578,-592.164754
4480.718236,444.123565,-8503.660028,-592.164754
4480.718560,592.164754,-8656.879127,-518.144159
4480.718884,296.082377,-8733.488677,-222.061783
4480.719209,222.061783,-8427.050478,0.000000
4480.719533,296.082377,-8656.879127,-296.082377
4480.719857,444.123565,-8656.879127,0.000000
4480.720182,518.144159,-8733.488677,0.000000
4480.720506,296.082377,-8810.098227,-370.102971
4480.720830,444.123565,-8503.660028,-296.082377
4480.721155,592.164754,-8503.660028,-444.123565
4480.721479,518.144159,-8963.317327,0.000000
4480.721804,296.082377,-8810.098227,0.000000
4480.722128,444.123565,-8656.879127,-370.102971
4480.722452,222.061783,-8503.660028,0.000000
4480.722777,74.020594,-8427.050478,-222.061783
4480.723101,592.164754,-8656.879127,0.000000
4480.723425,592.164754,-8273.831378,-148.041188
4480.723750,444.123565,-8580.269578,0.000000
4480.724074,296.082377,-8427.050478,-370.102971
4480.724398,444.123565,-8273.831378,-444.123565
4480.724723,518.144159,-8810.098227,-370.102971
4480.725047,444.123565,-8427.050478,-222.061783
4480.725371,518.144159,-8427.050478,74.020594
4480.725696,296.082377,-9193.145976,-444.123565
4480.726020,296.082377,-8427.050478,-370.102971
4480.726344,518.144159,-8350.440928,-444.123565
4480.726669,370.102971,-8656.879127,-370.102971
4480.726993,296.082377,-8273.831378,-222.061783
4480.727318,518.144159,-8503.660028,-370.102971
4480.727642,222.061783,-8656.879127,-444.123565
4480.727966,518.144159,-8580.269578,0.000000
4480.728291,444.123565,-8273.831378,-370.102971
4480.728615,148.041188,-9039.926876,222.061783
4480.728939,444.123565,-8427.050478,0.000000
4480.729264,444.123565,-8810.098227,0.000000
4480.729588,370.102971,-8427.050478,-296.082377
4480.729912,444.123565,-9422.974625,0.000000
4480.730237,296.082377,-8580.269578,-222.061783
4480.730561,296.082377,-8427.050478,74.020594
4480.730885,296.082377,-8733.488677,-370.102971
4480.731210,444.123565,-8580.269578,-74.020594
4480.731534,296.082377,-8810.098227,-296.082377
4480.731858,592.164754,-8733.488677,0.000000
4480.732183,370.102971,-8886.707777,0.000000
4480.732507,296.082377,-8733.488677,0.000000
4480.732832,222.061783,-8427.050478,0.000000
4480.733156,296.082377,-8656.879127,-444.123565
4480.733480,592.164754,-8886.707777,-592.164754
4480.733805,518.144159,-8886.707777,0.000000
4480.734129,296.082377,-8963.317327,-888.247130
4480.734453,296.082377,-8810.098227,-666.185348
4480.734778,370.102971,-8427.050478,-518.144159
4480.735102,296.082377,-8580.269578,-222.061783
4480.735426,222.061783,-8580.269578,-592.164754
4480.735751,592.164754,-8733.488677,-814.226536
4480.736075,296.082377,-8810.098227,-592.164754
4480.736399,444.123565,-8427.050478,-592.164754
4480.736724,370.102971,-8963.317327,-888.247130
4480.737048,740.205942,-9116.536426,-888.247130
4480.737372,666.185348,-8197.221829,-444.123565
4480.737697,296.082377,-8580.269578,-592.164754
4480.738021,222.061783,-8810.098227,-444.123565
4480.738346,370.102971,-8503.660028,-148.041188
4480.738670,370.102971,-8733.488677,-666.185348
4480.738994,296.082377,-8503.660028,-518.144159
4480.739319,444.123565,-8656.879127,-370.102971
4480.739643,296.082377,-8580.269578,-370.102971
4480.739967,370.102971,-9039.926876,-666.185348
4480.740292,444.123565,-8503.660028,-444.123565
4480.740616,518.144159,-8503.660028,-222.061783
4480.740940,444.123565,-8197.221829,-444.123565
4480.741265,0.000000,-8963.317327,148.041188
4480.741589,518.144159,-8503.660028,-74.020594
4480.741913,444.123565,-8427.050478,0.000000
4480.742238,518.144159,-8733.488677,-592.164754
4480.742562,222.061783,-8580.269578,-370.102971
4480.742886,296.082377,-8656.879127,-296.082377
4480.743211,222.061783,-8656.879127,0.000000
4480.743535,148.041188,-8197.221829,-370.102971
4480.743860,518.144159,-8503.660028,-222.061783
4480.744184,444.123565,-8503.660028,74.020594
4480.744508,444.123565,-8427.050478,-370.102971
4480.744833,296.082377,-8503.660028,-518.144159
4480.745157,370.102971,-8503.660028,-222.061783
4480.745481,74.020594,-8886.707777,-222.061783
4480.745806,518.144159,-8503.660028,-518.144159
4480.746130,296.082377,-8427.050478,0.000000
4480.746454,518.144159,-8656.879127,-296.082377
4480.746779,444.123565,-8427.050478,-444.123565
4480.747103,370.102971,-8580.269578,-296.082377
4480.747427,444.123565,-8733.488677,-370.102971
4480.747752,370.102971,-8427.050478,148.041188
4480.748076,0.000000,-8197.221829,-296.082377
4480.748401,1110.308913,-8810.098227,-370.102971
4480.748725,666.185348,-8580.269578,-518.144159
4480.749049,148.041188,-8656.879127,-370.102971
4480.749374,370.102971,-8656.879127,-296.082377
4480.749698,296.082377,-8886.707777,0.000000
4480.750022,370.102971,-8810.098227,-148.041188
4480.750347,296.082377,-8197.221829,-296.082377
4480.750671,518.144159,-8580.269578,-592.164754
4480.750995,296.082377,-8580.269578,-370.102971
4480.751320,296.082377,-8197.221829,-148.041188
4480.751644,0.000000,-8810.098227,-666.185348
4480.751968,296.082377,-8580.269578,-592.164754
4480.752293,518.144159,-8427.050478,-740.205942
4480.752617,296.082377,-8120.612279,0.000000
4480.752941,518.144159,-8656.879127,-592.164754
4480.753266,518.144159,-8810.098227,-222.061783
4480.753590,592.164754,-8580.269578,-296.082377
4480.753915,370.102971,-8810.098227,-518.144159
4480.754239,444.123565,-8886.707777,-222.061783
4480.754563,592.164754,-8427.050478,-666.185348
4480.754888,370.102971,-8656.879127,-370.102971
4480.755212,444.123565,-8886.707777,-814.226536
4480.755536,592.164754,-8580.269578,-518.144159
4480.755861,222.061783,-8733.488677,-592.164754
4480.756185,296.082377,-8580.269578,-370.102971
4480.756509,444.123565,-8580.269578,-148.041188
4480.756834,518.144159,-8886.707777,74.020594
4480.757158,592.164754,-8503.660028,-296.082377
4480.757482,518.144159,-8427.050478,-370.102971
4480.757807,444.123565,-9039.926876,-370.102971
4480.758131,666.185348,-8503.660028,-370.102971
4480.758455,444.123565,-8656.879127,-296.082377
4480.758780,148.041188,-8963.317327,0.000000
4480.759104,518.144159,-8733.488677,-518.144159
4480.759428,148.041188,-8733.488677,-296.082377
4480.759753,0.000000,-8350.440928,74.020594
4480.760077,296.082377,-8886.707777,74.020594
4480.760401,444.123565,-8580.269578,-148.041188
4480.760726,592.164754,-8427.050478,-222.061783
4480.761050,1110.308913,-8427.050478,-370.102971
4480.761374,666.185348,-8810.098227,-296.082377
4480.761699,444.123565,-8120.612279,0.000000
4480.762023,518.144159,-8580.269578,0.000000
4480.762347,0.000000,-8580.269578,-148.041188
4480.762672,444.123565,-8350.440928,74.020594
4480.762996,370.102971,-8580.269578,-444.123565
4480.763320,444.123565,-8733.488677,0.000000
4480.763645,370.102971,-8503.660028,0.000000
4480.763969,0.000000,-8044.002729,-148.041188
4480.764293,370.102971,-8350.440928,-370.102971
4480.764618,444.123565,-8580.269578,-370.102971
4480.764942,370.102971,-8580.269578,0.000000
4480.765266,518.144159,-7967.393179,74.020594
4480.765591,444.123565,-9039.926876,-296.082377
4480.765915,370.102971,-8580.269578,-444.123565
4480.766239,518.144159,-8656.879127,-222.061783
4480.766563,444.123565,-8503.660028,-518.144159
4480.766888,518.144159,-8350.440928,-444.123565
4480.767212,666.185348,-8503.660028,-666.185348
4480.767536,444.123565,-8580.269578,-518.144159
4480.767861,518.144159,-8350.440928,-518.144159
4480.768185,370.102971,-8427.050478,-296.082377
4480.768509,296.082377,-8120.612279,-592.164754
4480.768834,148.041188,-8656.879127,-518.144159
4480.769158,444.123565,-8580.269578,-666.185348
4480.769482,1110.308913,-8733.488677,-1036.288319
4480.769807,370.102971,-8810.098227,-888.247130
4480.770131,370.102971,-8656.879127,-740.205942
4480.770455,444.123565,-8733.488677,-592.164754
4480.770780,370.102971,-8886.707777,-888.247130
4480.771104,222.061783,-8350.440928,-814.226536
4480.771428,222.061783,-8656.879127,-592.164754
4480.771753,222.061783,-8733.488677,-888.247130
4480.772077,444.123565,-8580.269578,-666.185348
4480.772401,296.082377,-8580.269578,-888.247130
4480.772725,370.102971,-8580.269578,-592.164754
4480.773050,592.164754,-8427.050478,-888.247130
4480.773374,814.226536,-8886.707777,-740.205942
4480.773698,666.185348,-8120.612279,-592.164754
4480.774023,592.164754,-8733.488677,-444.123565
4480.774347,592.164754,-8580.269578,-592.164754
4480.774671,222.061783,-8656.879127,-370.102971
4480.774996,296.082377,-8427.050478,-888.247130
4480.775320,296.082377,-8427.050478,-666.185348
4480.775644,74.020594,-8503.660028,-370.102971
4480.775969,148.041188,-9116.536426,-592.164754
4480.776293,296.082377,-8503.660028,-518.144159
4480.776617,222.061783,-8273.831378,-148.041188
4480.776942,370.102971,-8580.269578,-518.144159
4480.777266,296.082377,-8580.269578,-592.164754
4480.777590,148.041188,-8503.660028,-370.102971
4480.777915,518.144159,-8580.269578,-222.061783
4480.778239,222.061783,-8503.660028,-222.061783
4480.778563,444.123565,-8656.879127,0.000000
4480.778888,444.123565,-8350.440928,-222.061783
4480.779212,444.123565,-8427.050478,74.020594
4480.779536,222.061783,-8580.269578,-370.102971
4480.779860,518.144159,-8656.879127,-222.061783
4480.780185,370.102971,-8503.660028,-296.082377
4480.780509,518.144159,-8427.050478,0.000000
4480.780833,518.144159,-9269.755526,222.061783
4480.781158,296.082377,-8810.098227,0.000000
4480.781482,222.061783,-8503.660028,0.000000
4480.781806,296.082377,-8733.488677,0.000000
4480.782131,370.102971,-8503.660028,0.000000
4480.782455,370.102971,-8273.831378,0.000000
4480.782779,444.123565,-8503.660028,0.000000
4480.783104,296.082377,-8810.098227,148.041188
4480.783428,296.082377,-8656.879127,-296.082377
4480.783752,148.041188,-9116.536426,222.061783
4480.784077,222.061783,-8273.831378,0.000000
4480.784401,148.041188,-8503.660028,74.020594
4480.784725,518.144159,-8273.831378,-296.082377
4480.785050,592.164754,-8810.098227,-148.041188
4480.785374,518.144159,-8503.660028,-592.164754
4480.785698,740.205942,-8503.660028,-518.144159
4480.786022,592.164754,-8350.440928,-296.082377
4480.786347,518.144159,-8656.879127,-222.061783
4480.786671,518.144159,-8580.269578,-592.164754
4480.786995,740.205942,-8503.660028,-592.164754
4480.787320,740.205942,-8503.660028,-444.123565
4480.787644,222.061783,-8427.050478,-518.144159
4480.787968,222.061783,-8120.612279,-740.205942
4480.788293,370.102971,-8733.488677,-666.185348
4480.788617,518.144159,-8580.269578,-518.144159
4480.788941,222.061783,-8733.488677,-518.144159
4480.789266,592.164754,-8580.269578,-444.123565
4480.789590,222.061783,-8886.707777,-592.164754
4480.789914,518.144159,-8886.707777,-814.226536
4480.790239,592.164754,-8580.269578,-592.164754
4480.790563,296.082377,-8580.269578,-592.164754
4480.790887,740.205942,-8886.707777,-518.144159
4480.791212,222.061783,-8810.098227,-518.144159
4480.791536,296.082377,-8733.488677,-592.164754
4480.791860,296.082377,-8427.050478,-666.185348
4480.792185,592.164754,-9422.974625,-740.205942
4480.792509,518.144159,-8886.707777,-740.205942
4480.792833,518.144159,-8273.831378,-518.144159
4480.793157,370.102971,-8580.269578,-592.164754
4480.793482,222.061783,-8656.879127,-592.164754
4480.793806,444.123565,-8733.488677,-518.144159
4480.794130,518.144159,-8503.660028,-666.185348
4480.794455,444.123565,-8733.488677,-592.164754
4480.794779,74.020594,-8350.440928,-370.102971
4480.795103,0.000000,-8886.707777,-222.061783
4480.795428,518.144159,-8350.440928,-296.082377
4480.795752,666.185348,-8503.660028,-518.144159
4480.796076,592.164754,-8580.269578,-222.061783
4480.796401,592.164754,-8503.660028,-148.041188
4480.796725,592.164754,-8886.707777,-296.082377
4480.797049,444.123565,-8503.660028,-296.082377
4480.797374,444.123565,-8580.269578,-370.102971
4480.797698,370.102971,-8733.488677,-666.185348
4480.798022,0.000000,-8656.879127,-296.082377
4480.798347,444.123565,-8427.050478,-222.061783
4480.798671,518.144159,-8580.269578,0.000000
4480.798995,518.144159,-8044.002729,-296.082377
4480.799319,370.102971,-8810.098227,74.020594
4480.799644,518.144159,-8273.831378,0.000000
4480.799968,518.144159,-8273.831378,-370.102971
4480.800292,222.061783,-8656.879127,-222.061783
4480.800617,222.061783,-8886.707777,148.041188
4480.800941,222.061783,-8810.098227,-370.102971
4480.801265,222.061783,-8427.050478,-444.123565
4480.801590,296.082377,-8427.050478,0.000000
4480.801914,444.123565,-8656.879127,0.000000
4480.802238,592.164754,-8580.269578,148.041188
4480.802563,444.123565,-8120.612279,-222.061783
4480.802887,518.144159,-8580.269578,-148.041188
4480.803211,444.123565,-8580.269578,0.000000
4480.803536,666.185348,-8886.707777,-444.123565
4480.803860,444.123565,-8656.879127,-370.102971
4480.804184,444.123565,-8733.488677,-518.144159
4480.804509,518.144159,-8580.269578,-296.082377
4480.804833,74.020594,-9269.755526,0.000000
4480.805157,222.061783,-8350.440928,-296.082377
4480.805482,592.164754,-8656.879127,-296.082377
4480.805806,444.123565,-8503.660028,-370.102971
4480.806130,370.102971,-8580.269578,-148.041188
4480.806454,592.164754,-8810.098227,0.000000
4480.806779,666.185348,-8580.269578,-370.102971
4480.807103,666.185348,-8733.488677,-592.164754
4480.807427,444.123565,-8886.707777,-222.061783
4480.807752,296.082377,-8886.707777,0.000000
4480.808076,592.164754,-8656.879127,-666.185348
4480.808400,222.061783,-8886.707777,-148.041188
4480.808725,370.102971,-8733.488677,-74.020594
4480.809049,370.102971,-8963.317327,-222.061783
4480.809373,296.082377,-8503.660028,-222.061783
4480.809698,370.102971,-8503.660028,-370.102971
4480.810022,444.123565,-8656.879127,0.000000
4480.810346,370.102971,-8427.050478,-444.123565
4480.810671,222.061783,-8886.707777,-222.061783
4480.810995,444.123565,-8810.098227,-370.102971
4480.811319,592.164754,-8580.269578,-370.102971
4480.811644,296.082377,-8810.098227,-370.102971
4480.811968,296.082377,-8656.879127,370.102971
4480.812292,370.102971,-8580.269578,-148.041188
4480.812616,518.144159,-8656.879127,-444.123565
4480.812941,296.082377,-8427.050478,-444.123565
4480.813265,148.041188,-8886.707777,-370.102971
4480.813589,370.102971,-8273.831378,-370.102971
4480.813914,148.041188,-8656.879127,-296.082377
4480.814238,222.061783,-8580.269578,-222.061783
4480.814562,518.144159,-8503.660028,-370.102971
4480.814887,444.123565,-8044.002729,0.000000
4480.815211,518.144159,-8197.221829,-370.102971
4480.815535,444.123565,-8350.440928,0.000000
4480.815860,518.144159,-8503.660028,0.000000
4480.816184,592.164754,-7814.174080,-296.082377
4480.816508,444.123565,-8503.660028,-222.061783
4480.816833,296.082377,-8656.879127,-370.102971
4480.817157,296.082377,-8120.612279,0.000000
4480.817481,148.041188,-8350.440928,-148.041188
4480.817806,222.061783,-8580.269578,0.000000
4480.818130,370.102971,-8503.660028,-148.041188
4480.818454,74.020594,-8580.269578,-222.061783
4480.818779,296.082377,-8580.269578,0.000000
4480.819103,0.000000,-7814.174080,0.000000
4480.819427,444.123565,-8656.879127,-370.102971
4480.819751,444.123565,-8350.440928,-444.123565
4480.820076,444.123565,-8810.098227,-370.102971
4480.820400,666.185348,-8580.269578,0.000000
4480.820724,296.082377,-8120.612279,-222.061783
4480.821049,222.061783,-8810.098227,-222.061783
4480.821373,296.082377,-8350.440928,-296.082377
4480.821697,444.123565,-8810.098227,-370.102971
4480.822022,444.123565,-8503.660028,-444.123565
4480.822346,222.061783,-8427.050478,-370.102971
4480.822670,370.102971,-8580.269578,-518.144159
4480.822995,444.123565,-8733.488677,-592.164754
4480.823319,592.164754,-8197.221829,-296.082377
4480.823643,518.144159,-8733.488677,-592.164754
4480.823968,370.102971,-8273.831378,-444.123565
4480.824292,222.061783,-8427.050478,-222.061783
4480.824616,222.061783,-8656.879127,-518.144159
4480.824941,222.061783,-8580.269578,-592.164754
4480.825265,296.082377,-8810.098227,-518.144159
4480.825589,222.061783,-8810.098227,-518.144159
4480.825913,296.082377,-8733.488677,-370.102971
4480.826238,296.082377,-8503.660028,-518.144159
4480.826562,370.102971,-8656.879127,-296.082377
4480.826886,444.123565,-8963.317327,-222.061783
4480.827211,666.185348,-8580.269578,-444.123565
4480.827535,592.164754,-7967.393179,0.000000
4480.827859,444.123565,-8810.098227,-296.082377
4480.828184,370.102971,-8963.317327,-592.164754
4480.828508,444.123565,-8427.050478,-592.164754
4480.828832,148.041188,-9193.145976,-296.082377
4480.829157,370.102971,-8580.269578,-370.102971
4480.829481,518.144159,-8810.098227,-222.061783
4480.829805,518.144159,-8503.660028,-370.102971
4480.830130,444.123565,-8733.488677,-296.082377
4480.830454,370.102971,-8810.098227,-666.185348
4480.830778,666.185348,-8427.050478,-296.082377
4480.831103,518.144159,-8427.050478,-296.082377
4480.831427,518.144159,-8733.488677,-592.164754
4480.831751,888.247130,-9039.926876,-666.185348
4480.832076,592.164754,-8580.269578,-296.082377
4480.832400,370.102971,-8503.660028,-370.102971
4480.832724,0.000000,-8810.098227,0.000000
4480.833048,518.144159,-8427.050478,-370.102971
4480.833373,592.164754,-8503.660028,-370.102971
4480.833697,518.144159,-8503.660028,0.000000
4480.834021,296.082377,-8350.440928,-296.082377
4480.834346,740.205942,-8273.831378,0.000000
4480.834670,740.205942,-8273.831378,-148.041188
4480.834994,222.061783,-8427.050478,-148.041188
4480.835319,296.082377,-8273.831378,-296.082377
4480.835643,296.082377,-8656.879127,-296.082377
4480.835967,444.123565,-8810.098227,-518.144159
4480.836292,444.123565,-8197.221829,-296.082377
4480.836616,148.041188,-8350.440928,0.000000
4480.836940,222.061783,-8350.440928,0.000000
4480.837265,370.102971,-8503.660028,-296.082377
4480.837589,148.041188,-8580.269578,0.000000
4480.837913,592.164754,-8427.050478,74.020594
4480.838238,148.041188,-8580.269578,0.000000
4480.838562,296.082377,-8810.098227,-296.082377
4480.838886,518.144159,-8886.707777,-370.102971
4480.839210,370.102971,-8810.098227,-222.061783
4480.839535,444.123565,-8733.488677,0.000000
4480.839859,296.082377,-8350.440928,0.000000
4480.840183,444.123565,-9499.584175,-148.041188
4480.840508,370.102971,-8197.221829,-518.144159
4480.840832,370.102971,-8810.098227,-370.102971
4480.841156,518.144159,-8503.660028,-444.123565
4480.841481,148.041188,-8427.050478,-296.082377
4480.841805,296.082377,-8963.317327,0.000000
4480.842129,296.082377,-8273.831378,-296.082377
4480.842454,444.123565,-8580.269578,-222.061783
4480.842778,296.082377,-8656.879127,-444.123565
4480.843102,0.000000,-9193.145976,0.000000
4480.843427,148.041188,-8733.488677,-370.102971
4480.843751,222.061783,-8656.879127,-592.164754
4480.844075,444.123565,-8503.660028,-666.185348
4480.844400,518.144159,-8810.098227,-666.185348
4480.844724,518.144159,-8656.879127,-148.041188
4480.845048,296.082377,-8503.660028,-444.123565
4480.845373,518.144159,-8810.098227,-592.164754
4480.845697,444.123565,-8580.269578,-296.082377
4480.846021,444.123565,-8273.831378,-370.102971
4480.846345,444.123565,-8656.879127,-370.102971
4480.846670,518.144159,-8810.098227,-296.082377
4480.846994,592.164754,-8503.660028,-370.102971
4480.847318,592.164754,-8427.050478,-740.205942
4480.847643,962.267725,-8963.317327,-666.185348
4480.847967,740.205942,-8886.707777,-592.164754
4480.848291,740.205942,-8580.269578,-148.041188
4480.848616,444.123565,-8656.879127,-74.020594
4480.848940,222.061783,-8963.317327,-296.082377
4480.849264,518.144159,-8580.269578,-592.164754
4480.849589,518.144159,-8656.879127,-518.144159
4480.849913,370.102971,-8886.707777,-518.144159
4480.850237,222.061783,-8810.098227,0.000000
4480.850562,444.123565,-8273.831378,-370.102971
4480.850886,444.123565,-8580.269578,-296.082377
4480.851210,592.164754,-8963.317327,-444.123565
4480.851535,370.102971,-8503.660028,0.000000
4480.851859,592.164754,-8427.050478,0.000000
4480.852183,370.102971,-8427.050478,-518.144159
4480.852507,444.123565,-8580.269578,-296.082377
4480.852832,592.164754,-8427.050478,-518.144159
4480.853156,296.082377,-8427.050478,-296.082377
4480.853480,370.102971,-8427.050478,0.000000
4480.853805,296.082377,-8350.440928,-296.082377
4480.854129,296.082377,-8580.269578,0.000000
4480.854453,518.144159,-7890.783629,0.000000
4480.854778,222.061783,-8580.269578,-148.041188
4480.855102,370.102971,-8350.440928,-74.020594
4480.855426,222.061783,-8350.440928,0.000000
4480.855751,148.041188,-8580.269578,-222.061783
4480.856075,370.102971,-8580.269578,-296.082377
4480.856399,370.102971,-8733.488677,-370.102971
4480.856724,222.061783,-8580.269578,-296.082377
4480.857048,0.000000,-8886.707777,0.000000
4480.857372,296.082377,-8656.879127,0.000000
4480.857697,148.041188,-8656.879127,0.000000
4480.858021,222.061783,-8580.269578,-296.082377
4480.858345,370.102971,-8656.879127,-296.082377
4480.858670,296.082377,-8427.050478,148.041188
4480.858994,148.041188,-8580.269578,0.000000
4480.859318,370.102971,-8810.098227,-444.123565
4480.859642,370.102971,-8350.440928,-370.102971
4480.859967,444.123565,-8656.879127,0.000000
4480.860291,222.061783,-8580.269578,-296.082377
4480.860615,518.144159,-8656.879127,-296.082377
4480.860940,444.123565,-8810.098227,-222.061783
4480.861264,296.082377,-8503.660028,-444.123565
4480.861588,518.144159,-8273.831378,-518.144159
4480.861913,444.123565,-8580.269578,-444.123565
4480.862237,518.144159,-8503.660028,-444.123565
4480.862561,518.144159,-8886.707777,-592.164754
4480.862886,962.267725,-8656.879127,-666.185348
4480.863210,592.164754,-8503.660028,-370.102971
4480.863534,666.185348,-8656.879127,-518.144159
4480.863859,962.267725,-8350.440928,-518.144159
4480.864183,814.226536,-8810.098227,-370.102971
4480.864507,962.267725,-8427.050478,-666.185348
4480.864832,814.226536,-8427.050478,-666.185348
4480.865156,814.226536,-8733.488677,-666.185348
4480.865480,518.144159,-8656.879127,-518.144159
4480.865804,1184.329507,-8656.879127,-666.185348
4480.866129,444.123565,-8886.707777,-740.205942
4480.866453,592.164754,-8580.269578,-592.164754
4480.866777,666.185348,-8350.440928,-814.226536
4480.867102,888.247130,-8656.879127,-148.041188
4480.867426,444.123565,-8656.879127,-148.041188
4480.867750,296.082377,-8733.488677,-444.123565
4480.868075,370.102971,-8810.098227,-518.144159
4480.868399,296.082377,-8350.440928,-444.123565
4480.868723,592.164754,-9039.926876,-592.164754
4480.869048,370.102971,-8503.660028,-444.123565
4480.869372,296.082377,-8810.098227,-296.082377
4480.869696,296.082377,-8810.098227,-296.082377
4480.870021,518.144159,-8733.488677,0.000000
4480.870345,296.082377,-8963.317327,-518.144159
4480.870669,296.082377,-8810.098227,-222.061783
4480.870993,74.020594,-8656.879127,-296.082377
4480.871318,518.144159,-8810.098227,0.000000
4480.871642,296.082377,-8503.660028,-370.102971
4480.871966,666.185348,-8810.098227,-666.185348
4480.872291,444.123565,-8427.050478,-518.144159
4480.872615,444.123565,-8580.269578,-370.102971
4480.872939,74.020594,-8503.660028,0.000000
4480.873264,370.102971,-8580.269578,-222.061783
4480.873588,222.061783,-8656.879127,-370.102971
4480.873912,148.041188,-8810.098227,-518.144159
4480.874237,296.082377,-8656.879127,0.000000
4480.874561,74.020594,-8733.488677,0.000000
4480.874885,74.020594,-8503.660028,0.000000
4480.875210,222.061783,-8427.050478,-222.061783
4480.875534,518.144159,-8427.050478,-518.144159
4480.875858,444.123565,-8656.879127,0.000000
4480.876183,518.144159,-8503.660028,0.000000
4480.876507,518.144159,-8503.660028,-148.041188
4480.876831,148.041188,-8427.050478,-296.082377
4480.877155,222.061783,-8656.879127,74.020594
4480.877480,296.082377,-8503.660028,-296.082377
4480.877804,444.123565,-8503.660028,-370.102971
4480.878128,370.102971,-8503.660028,-518.144159
4480.878453,148.041188,-8197.221829,74.020594
4480.878777,148.041188,-8197.221829,-296.082377
4480.879101,666.185348,-8503.660028,0.000000
4480.879426,740.205942,-8120.612279,0.000000
4480.879750,666.185348,-8733.488677,0.000000
4480.880074,592.164754,-8580.269578,-296.082377
4480.880399,592.164754,-8580.269578,-222.061783
4480.880723,592.164754,-8656.879127,-518.144159
4480.881047,444.123565,-8733.488677,-444.123565
4480.881372,370.102971,-8810.098227,0.000000
4480.881696,370.102971,-8886.707777,-444.123565
4480.882020,296.082377,-8656.879127,-296.082377
4480.882345,518.144159,-8963.317327,-370.102971
4480.882669,666.185348,-8427.050478,-222.061783
4480.882993,666.185348,-8427.050478,-370.102971
4480.883317,222.061783,-8350.440928,-518.144159
4480.883642,370.102971,-8656.879127,-370.102971
4480.883966,444.123565,-8656.879127,-592.164754
4480.884290,370.102971,-9039.926876,-370.102971
4480.884615,518.144159,-8810.098227,-666.185348
4480.884939,222.061783,-8810.098227,-296.082377
4480.885263,444.123565,-8886.707777,-518.144159
4480.885588,370.102971,-8273.831378,-666.185348
4480.885912,444.123565,-8656.879127,-518.144159
4480.886236,592.164754,-8580.269578,-444.123565
4480.886561,370.102971,-8503.660028,-740.205942
4480.886885,222.061783,-8733.488677,-518.144159
4480.887209,370.102971,-8273.831378,-666.185348
4480.887534,370.102971,-8580.269578,-592.164754
4480.887858,666.185348,-8810.098227,-814.226536
4480.888182,296.082377,-8810.098227,-444.123565
4480.888506,666.185348,-8427.050478,-592.164754
4480.888831,370.102971,-8810.098227,-444.123565
4480.889155,370.102971,-8733.488677,-666.185348
4480.889479,370.102971,-8963.317327,-444.123565
4480.889804,592.164754,-8503.660028,-592.164754
4480.890128,296.082377,-8733.488677,-592.164754
4480.890452,296.082377,-8656.879127,-518.144159
4480.890777,296.082377,-8656.879127,-592.164754
4480.891101,518.144159,-9346.365076,-148.041188
4480.891425,370.102971,-8273.831378,-518.144159
4480.891750,592.164754,-8503.660028,-444.123565
4480.892074,296.082377,-8427.050478,-296.082377
4480.892398,296.082377,-8503.660028,-296.082377
4480.892723,666.185348,-8503.660028,-592.164754
4480.893047,666.185348,-8273.831378,-222.061783
4480.893371,666.185348,-8273.831378,-518.144159
4480.893696,518.144159,-8656.879127,-222.061783
4480.894020,0.000000,-8197.221829,0.000000
4480.894344,518.144159,-8350.440928,0.000000
4480.894668,444.123565,-8810.098227,0.000000
4480.894993,148.041188,-8197.221829,0.000000
4480.895317,222.061783,-8656.879127,0.000000
4480.895641,370.102971,-8197.221829,-222.061783
4480.895966,148.041188,-8273.831378,0.000000
4480.896290,296.082377,-8580.269578,-222.061783
4480.896614,740.205942,-8350.440928,0.000000
4480.896939,518.144159,-8273.831378,0.000000
4480.897263,518.144159,-8273.831378,-296.082377
4480.897587,222.061783,-8120.612279,0.000000
4480.897912,518.144159,-8733.488677,-370.102971
4480.898236,518.144159,-8580.269578,-592.164754
4480.898560,370.102971,-8503.660028,-370.102971
4480.898885,296.082377,-8656.879127,-222.061783
4480.899209,222.061783,-8580.269578,-296.082377
4480.899533,148.041188,-8656.879127,-370.102971
4480.899857,518.144159,-8656.879127,-518.144159
4480.900182,666.185348,-8580.269578,-148.041188
4480.900506,370.102971,-8427.050478,-296.082377
4480.900830,370.102971,-8733.488677,-518.144159
4480.901155,814.226536,-8733.488677,-222.061783
4480.901479,518.144159,-8580.269578,-740.205942
4480.901803,148.041188,-8733.488677,-296.082377
4480.902128,222.061783,-8810.098227,-370.102971
4480.902452,370.102971,-8886.707777,-370.102971
4480.902776,296.082377,-8886.707777,-518.144159
4480.903101,370.102971,-8733.488677,-518.144159
4480.903425,518.144159,-8810.098227,-666.185348
4480.903749,518.144159,-8733.488677,0.000000
4480.904074,592.164754,-8656.879127,-370.102971
4480.904398,592.164754,-8656.879127,-444.123565
4480.904722,814.226536,-8580.269578,-592.164754
4480.905047,444.123565,-8886.707777,-518.144159
4480.905371,592.164754,-8733.488677,-740.205942
4480.905695,222.061783,-8810.098227,-444.123565
4480.906019,444.123565,-8810.098227,-444.123565
4480.906344,444.123565,-8886.707777,-518.144159
4480.906668,592.164754,-8963.317327,-666.185348
4480.906992,666.185348,-8656.879127,-518.144159
4480.907317,296.082377,-8503.660028,-370.102971
4480.907641,148.041188,-8733.488677,-444.123565
4480.907965,444.123565,-8810.098227,-592.164754
4480.908290,592.164754,-8656.879127,-592.164754
4480.908614,444.123565,-8656.879127,-518.144159
4480.908938,444.123565,-8656.879127,-296.082377
4480.909263,370.102971,-8886.707777,-148.041188
4480.909587,814.226536,-8886.707777,-518.144159
4480.909911,296.082377,-8656.879127,-518.144159
4480.910236,296.082377,-8580.269578,-370.102971
4480.910560,592.164754,-8273.831378,-370.102971
4480.910884,222.061783,-8273.831378,-296.082377
4480.911208,296.082377,-8656.879127,-518.144159
4480.911533,518.144159,-8427.050478,-296.082377
4480.911857,444.123565,-8580.269578,-370.102971
4480.912181,296.082377,-8580.269578,-370.102971
4480.912506,444.123565,-8886.707777,0.000000
4480.912830,370.102971,-8656.879127,0.000000
4480.913154,740.205942,-8350.440928,-296.082377
4480.913479,518.144159,-8427.050478,-296.082377
4480.913803,666.185348,-8044.002729,0.000000
4480.914127,666.185348,-8350.440928,-370.102971
4480.914452,222.061783,-8656.879127,-296.082377
4480.914776,370.102971,-8580.269578,-370.102971
4480.915100,666.185348,-8120.612279,-222.061783
4480.915425,518.144159,-8656.879127,-148.041188
4480.915749,222.061783,-8503.660028,-222.061783
4480.916073,370.102971,-8427.050478,0.000000
4480.916398,296.082377,-8733.488677,0.000000
4480.916722,592.164754,-8120.612279,-444.123565
4480.917046,296.082377,-8733.488677,-222.061783
4480.917370,518.144159,-8580.269578,0.000000
4480.917695,518.144159,-8427.050478,-222.061783
4480.918019,1110.308913,-8580.269578,-148.041188
4480.918343,518.144159,-8503.660028,0.000000
4480.918668,296.082377,-8503.660028,-296.082377
4480.918992,222.061783,-8580.269578,-148.041188
4480.919316,370.102971,-8886.707777,0.000000
4480.919641,370.102971,-8886.707777,0.000000
4480.919965,222.061783,-8580.269578,-296.082377
4480.920289,222.061783,-8580.269578,-370.102971
4480.920614,222.061783,-8656.879127,-444.123565
4480.920938,962.267725,-8733.488677,-370.102971
4480.921262,518.144159,-8503.660028,-444.123565
4480.921587,518.144159,-8656.879127,-666.185348
4480.921911,444.123565,-8733.488677,-518.144159
4480.922235,666.185348,-8503.660028,-444.123565
4480.922559,296.082377,-8886.707777,-444.123565
4480.922884,222.061783,-8580.269578,-518.144159
4480.923208,148.041188,-8810.098227,-444.123565
4480.923532,148.041188,-8656.879127,-592.164754
4480.923857,74.020594,-8656.879127,-518.144159
4480.924181,370.102971,-8810.098227,-518.144159
4480.924505,740.205942,-8656.879127,-592.164754
4480.924830,444.123565,-8580.269578,-592.164754
4480.925154,222.061783,-8273.831378,-296.082377
4480.925478,518.144159,-8733.488677,-518.144159
4480.925803,444.123565,-8503.660028,-666.185348
4480.926127,444.123565,-8733.488677,-296.082377
4480.926451,296.082377,-8580.269578,-222.061783
4480.926776,444.123565,-8427.050478,-370.102971
4480.927100,222.061783,-8656.879127,-518.144159
4480.927424,518.144159,-8503.660028,-444.123565
4480.927749,592.164754,-8503.660028,-444.123565
4480.928073,222.061783,-8273.831378,-74.020594
4480.928397,518.144159,-8656.879127,-148.041188
4480.928721,370.102971,-8656.879127,0.000000
4480.929046,444.123565,-8733.488677,0.000000
4480.929370,518.144159,-8733.488677,-222.061783
4480.929694,370.102971,-8810.098227,0.000000
4480.930019,296.082377,-8580.269578,0.000000
4480.930343,592.164754,-8656.879127,-222.061783
4480.930667,370.102971,-8503.660028,-74.020594
4480.930992,592.164754,-8580.269578,0.000000
4480.931316,518.144159,-8350.440928,-148.041188
4480.931640,370.102971,-8503.660028,0.000000
4480.931965,74.020594,-8810.098227,0.000000
4480.932289,296.082377,-8427.050478,-444.123565
4480.932613,296.082377,-8656.879127,-222.061783
4480.932938,518.144159,-8733.488677,-518.144159
4480.933262,444.123565,-8810.098227,0.000000
4480.933586,370.102971,-8197.221829,222.061783
4480.933911,814.226536,-8580.269578,0.000000
4480.934235,444.123565,-8197.221829,-518.144159
4480.934559,518.144159,-8656.879127,-222.061783
4480.934883,592.164754,-8044.002729,-592.164754
4480.935208,518.144159,-8503.660028,0.000000
4480.935532,222.061783,-8580.269578,-444.123565
4480.935856,296.082377,-8503.660028,-222.061783
4480.936181,74.020594,-8350.440928,-518.144159
4480.936505,444.123565,-8503.660028,0.000000
4480.936829,296.082377,-8580.269578,-222.061783
4480.937154,518.144159,-8350.440928,-148.041188
4480.937478,444.123565,-8350.440928,0.000000
4480.937802,518.144159,-7967.393179,-148.041188
4480.938127,888.247130,-8427.050478,-370.102971
4480.938451,740.205942,-8044.002729,-444.123565
4480.938775,148.041188,-8886.707777,-444.123565
4480.939100,148.041188,-8427.050478,-296.082377
4480.939424,148.041188,-8580.269578,-370.102971
4480.939748,222.061783,-8503.660028,-518.144159
4480.940072,370.102971,-8810.098227,-222.061783
4480.940397,222.061783,-8503.660028,-592.164754
4480.940721,296.082377,-8350.440928,-518.144159
4480.941045,518.144159,-8273.831378,-444.123565
4480.941370,592.164754,-8810.098227,-666.185348
4480.941694,518.144159,-8350.440928,-814.226536
4480.942018,296.082377,-8197.221829,-370.102971
4480.942343,0.000000,-8503.660028,-518.144159
4480.942667,296.082377,-8656.879127,-592.164754
4480.942991,518.144159,-8656.879127,-740.205942
4480.943316,444.123565,-8733.488677,-370.102971
4480.943640,370.102971,-8427.050478,-518.144159
4480.943964,444.123565,-8580.269578,-370.102971
4480.944289,296.082377,-8580.269578,-370.102971
4480.944613,370.102971,-8427.050478,-296.082377
4480.944937,666.185348,-8656.879127,-740.205942
4480.945262,518.144159,-8503.660028,-296.082377
4480.945586,592.164754,-8580.269578,-518.144159
4480.945910,296.082377,-8886.707777,-222.061783
4480.946234,370.102971,-8656.879127,-296.082377
4480.946559,666.185348,-8656.879127,-296.082377
4480.946883,370.102971,-8733.488677,0.000000
4480.947207,370.102971,-8350.440928,-222.061783
4480.947532,222.061783,-8580.269578,0.000000
4480.947856,0.000000,-8273.831378,0.000000
4480.948180,370.102971,-8580.269578,-222.061783
4480.948505,444.123565,-8580.269578,0.000000
4480.948829,444.123565,-8427.050478,0.000000
4480.949153,666.185348,-8886.707777,0.000000
4480.949478,444.123565,-8733.488677,0.000000
4480.949802,518.144159,-8886.707777,0.000000
4480.950126,444.123565,-8503.660028,222.061783
4480.950451,296.082377,-8656.879127,296.082377
4480.950775,518.144159,-8427.050478,-148.041188
4480.951099,518.144159,-9039.926876,-148.041188
4480.951423,296.082377,-8427.050478,-370.102971
4480.951748,444.123565,-8580.269578,-370.102971
4480.952072,370.102971,-8427.050478,-296.082377
4480.952396,518.144159,-9039.926876,0.000000
4480.952721,444.123565,-8810.098227,0.000000
4480.953045,444.123565,-8427.050478,0.000000
4480.953369,740.205942,-9346.365076,0.000000
4480.953694,444.123565,-8656.879127,-148.041188
4480.954018,444.123565,-8580.269578,-296.082377
4480.954342,518.144159,-8580.269578,-444.123565
4480.954667,592.164754,-8427.050478,-444.123565
4480.954991,222.061783,-8350.440928,-592.164754
4480.955315,370.102971,-8580.269578,-370.102971
4480.955640,296.082377,-8197.221829,-370.102971
4480.955964,518.144159,-8503.660028,-444.123565
4480.956288,222.061783,-8886.707777,-370.102971
4480.956613,518.144159,-8580.269578,-444.123565
4480.956937,222.061783,-8273.831378,-888.247130
4480.957261,148.041188,-9116.536426,-518.144159
4480.957585,296.082377,-8810.098227,-740.205942
4480.957910,370.102971,-8503.660028,-592.164754
4480.958234,296.082377,-8503.660028,-740.205942
4480.958558,592.164754,-8273.831378,-740.205942
4480.958883,592.164754,-8503.660028,-888.247130
4480.959207,592.164754,-8427.050478,-666.185348
4480.959531,370.102971,-8656.879127,-814.226536
4480.959856,296.082377,-8503.660028,-518.144159
4480.960180,444.123565,-8733.488677,-444.123565
4480.960504,370.102971,-9346.365076,-666.185348
4480.960829,370.102971,-8810.098227,-444.123565
4480.961153,74.020594,-8733.488677,-666.185348
4480.961477,222.061783,-8810.098227,-296.082377
4480.961802,296.082377,-9422.974625,-444.123565
4480.962126,666.185348,-9116.536426,-592.164754
4480.962450,814.226536,-8503.660028,-592.164754
4480.962774,740.205942,-8503.660028,-296.082377
4480.963099,518.144159,-8503.660028,-518.144159
4480.963423,888.247130,-8963.317327,-740.205942
4480.963748,444.123565,-8656.879127,-814.226536
4480.964072,222.061783,-8810.098227,-666.185348
4480.964396,370.102971,-8656.879127,-444.123565
4480.964721,370.102971,-9193.145976,-666.185348
4480.965045,666.185348,-8427.050478,-444.123565
4480.965369,444.123565,-8503.660028,-370.102971
4480.965694,518.144159,-8810.098227,-370.102971
4480.966018,740.205942,-8503.660028,-222.061783
4480.966343,444.123565,-8197.221829,-222.061783
4480.966667,444.123565,-8580.269578,-296.082377
