#time,accel_x,accel_y,accel_z
4093.147558,-1110.308913,-9806.022374,-1332.370696
4093.147882,-1554.432478,-9806.022374,-1036.288319
4093.148206,-1406.391290,-9652.803275,-592.164754
4093.148531,-1628.453072,-9806.022374,-1110.308913
4093.148855,-1702.473667,-9576.193725,-814.226536
4093.149179,-1184.329507,-9039.926876,-1184.329507
4093.149504,-1406.391290,-8580.269578,-1258.350101
4093.149828,-1110.308913,-8963.317327,-1258.350101
4093.150153,-1110.308913,-8886.707777,-1036.288319
4093.150477,-814.226536,-9193.145976,-1110.308913
4093.150801,0.000000,-8656.879127,-1258.350101
4093.151126,-666.185348,-9576.193725,-1480.411884
4093.151450,-1184.329507,-8810.098227,-1332.370696
4093.151774,-2072.576638,-9806.022374,-666.185348
4093.152099,-2738.761985,-9729.412825,-1184.329507
4093.152423,-2812.782580,-9422.974625,-1036.288319
4093.152748,-3256.906145,-9116.536426,-740.205942
4093.153072,-3182.885551,-8810.098227,-888.247130
4093.153396,-2442.679609,-8580.269578,-1184.329507
4093.153721,-1776.494261,-9193.145976,-370.102971
4093.154045,-1924.535449,-8120.612279,-740.205942
4093.154369,-1850.514855,-8273.831378,-518.144159
4093.154694,-2072.576638,-8656.879127,-444.123565
4093.155018,-2294.638420,-7814.174080,148.041188
4093.155343,-2812.782580,-8810.098227,296.082377
4093.155667,-3478.967927,-8656.879127,0.000000
4093.155991,-3108.864956,-8810.098227,740.205942
4093.156316,-3256.906145,-8656.879127,518.144159
4093.156640,-3256.906145,-8886.707777,444.123565
4093.156964,-3034.844362,-8273.831378,370.102971
4093.157289,-2442.679609,-8197.221829,370.102971
4093.157613,-2664.741391,-7660.954980,0.000000
4093.157938,-2442.679609,-8044.002729,222.061783
4093.158262,-2738.761985,-7890.783629,370.102971
4093.158586,-3256.906145,-7967.393179,370.102971
4093.158911,-3256.906145,-8427.050478,666.185348
4093.159235,-3552.988522,-7814.174080,814.226536
4093.159559,-3701.029710,-8197.221829,222.061783
4093.159884,-3256.906145,-8273.831378,592.164754
4093.160208,-2812.782580,-8197.221829,962.267725
4093.160532,-2368.659014,-7967.393179,222.061783
4093.160857,-1406.391290,-8120.612279,222.061783
4093.161181,-1258.350101,-7584.345430,222.061783
4093.161505,-1110.308913,-7890.783629,74.020594
4093.161830,-592.164754,-7660.954980,0.000000
4093.162154,-814.226536,-8886.707777,74.020594
4093.162478,-1850.514855,-8350.440928,74.020594
4093.162803,-1776.494261,-8580.269578,0.000000
4093.163127,-1628.453072,-8810.098227,0.000000
4093.163451,-2072.576638,-8733.488677,-222.061783
4093.163776,-1554.432478,-8963.317327,-518.144159
4093.164100,-1702.473667,-8810.098227,-666.185348
4093.164424,-740.205942,-8810.098227,-666.185348
4093.164749,-296.082377,-8580.269578,-1110.308913
4093.165073,74.020594,-8886.707777,-592.164754
4093.165397,222.061783,-8350.440928,-888.247130
4093.165722,0.000000,-8733.488677,-814.226536
4093.166046,0.000000,-8580.269578,-1036.288319
4093.166370,0.000000,-8963.317327,-1480.411884
4093.166695,0.000000,-8886.707777,-1480.411884
4093.167019,0.000000,-9499.584175,-814.226536
4093.167343,-370.102971,-8886.707777,-1628.453072
4093.167668,0.000000,-9422.974625,-1184.329507
4093.167992,-518.144159,-8963.317327,-1554.432478
4093.168316,-148.041188,-9346.365076,-1776.494261
4093.168641,0.000000,-8963.317327,-1628.453072
4093.168965,-740.205942,-8810.098227,-1628.453072
4093.169289,-666.185348,-8810.098227,-1628.453072
4093.169614,-1702.473667,-8580.269578,-1480.411884
4093.169938,-1776.494261,-9193.145976,-1406.391290
4093.170262,-2146.597232,-8656.879127,-1554.432478
4093.170587,-1184.329507,-9116.536426,-1258.350101
4093.170911,-1628.453072,-8580.269578,-1554.432478
4093.171235,-888.247130,-9269.755526,-962.267725
4093.171560,-740.205942,-8886.707777,-1332.370696
4093.171884,-814.226536,-9422.974625,-666.185348
4093.172208,-592.164754,-8427.050478,-1184.329507
4093.172533,-888.247130,-9116.536426,-444.123565
4093.172857,-1998.556043,-8580.269578,-518.144159
4093.173181,-1184.329507,-9346.365076,0.000000
4093.173506,-1184.329507,-8273.831378,-370.102971
4093.173830,444.123565,-8810.098227,888.247130
4093.174154,-2072.576638,-8350.440928,-740.205942
4093.174479,962.267725,-9193.145976,518.144159
4093.174803,-740.205942,-8044.002729,0.000000
4093.175127,-370.102971,-9039.926876,74.020594
4093.175452,-1554.432478,-8810.098227,0.000000
4093.175776,-2368.659014,-8733.488677,74.020594
4093.176100,-3330.926739,-9346.365076,518.144159
4093.176425,-4293.194464,-8810.098227,-740.205942
4093.176749,-5625.565159,-9346.365076,1406.391290
4093.177073,-6143.709319,-7814.174080,74.020594
4093.177398,-5699.585753,-8197.221829,518.144159
4093.177722,-5033.400406,-7890.783629,1258.350101
4093.178046,-3108.864956,-7277.907231,1036.288319
4093.178371,-2072.576638,-7584.345430,814.226536
4093.178695,0.000000,-7431.126331,962.267725
4093.179019,1480.411884,-7737.564530,1258.350101
4093.179344,2294.638420,-7890.783629,666.185348
4093.179668,2072.576638,-8427.050478,962.267725
4093.179992,1258.350101,-8733.488677,814.226536
4093.180317,1036.288319,-8733.488677,814.226536
4093.180641,0.000000,-8733.488677,592.164754
4093.180965,-1480.411884,-8963.317327,370.102971
4093.181290,-1702.473667,-8810.098227,0.000000
4093.181614,-1850.514855,-8120.612279,-222.061783
4093.181938,-1776.494261,-7660.954980,0.000000
4093.182263,-888.247130,-7584.345430,-222.061783
4093.182587,592.164754,-7354.516781,-370.102971
4093.182911,1776.494261,-7584.345430,-148.041188
4093.183236,2590.720797,-7814.174080,296.082377
4093.183560,3182.885551,-8197.221829,-148.041188
4093.183884,3330.926739,-8656.879127,-148.041188
4093.184209,3849.070898,-9116.536426,-444.123565
4093.184533,2664.741391,-9346.365076,0.000000
4093.184857,1924.535449,-9193.145976,-148.041188
4093.185182,1110.308913,-8503.660028,-814.226536
4093.185506,1406.391290,-9193.145976,-592.164754
4093.185830,1924.535449,-8120.612279,-1184.329507
4093.186155,2664.741391,-8044.002729,-740.205942
4093.186479,2590.720797,-7507.735880,-2146.597232
4093.186803,3182.885551,-8273.831378,-1998.556043
4093.187128,3182.885551,-8503.660028,-1702.473667
4093.187452,2368.659014,-8886.707777,-2072.576638
4093.187776,1332.370696,-9422.974625,-1998.556043
4093.188101,74.020594,-9269.755526,-1628.453072
4093.188425,-592.164754,-9806.022374,-1628.453072
4093.188749,-814.226536,-9269.755526,-1924.535449
4093.189074,0.000000,-8733.488677,-1110.308913
4093.189398,296.082377,-8197.221829,-1554.432478
4093.189722,1776.494261,-8733.488677,-1110.308913
4093.190047,2516.700203,-7737.564530,-1258.350101
4093.190371,3923.091493,-8656.879127,-1036.288319
4093.190695,5181.441594,-7737.564530,-1480.411884
4093.191020,5403.503377,-8503.660028,-1258.350101
4093.191344,4737.318029,-8886.707777,-962.267725
4093.191668,3849.070898,-9422.974625,-888.247130
4093.191993,2220.617826,-9959.241474,-962.267725
4093.192317,518.144159,-10035.851024,-814.226536
4093.192641,-1110.308913,-10418.898773,-1110.308913
4093.192966,-2590.720797,-10035.851024,-1406.391290
4093.193290,-3627.009116,-10189.070123,-592.164754
4093.193614,-4293.194464,-9193.145976,-1184.329507
4093.193939,-3849.070898,-8656.879127,-444.123565
4093.194263,-2960.823768,-7967.393179,-518.144159
4093.194587,-1776.494261,-8886.707777,296.082377
4093.194912,-518.144159,-8197.221829,444.123565
4093.195236,222.061783,-7967.393179,962.267725
4093.195560,370.102971,-8350.440928,1036.288319
4093.195885,370.102971,-7890.783629,1406.391290
4093.196209,814.226536,-8273.831378,1406.391290
4093.196533,296.082377,-8580.269578,962.267725
4093.196858,0.000000,-8733.488677,1110.308913
4093.197182,-444.123565,-8427.050478,740.205942
4093.197506,74.020594,-7431.126331,1184.329507
4093.197831,-666.185348,-7584.345430,740.205942
4093.198155,-444.123565,-7967.393179,888.247130
4093.198479,-666.185348,-7967.393179,148.041188
4093.198804,-1110.308913,-8273.831378,222.061783
4093.199128,-2220.617826,-7967.393179,-370.102971
4093.199452,-2664.741391,-8656.879127,296.082377
4093.199777,-3997.112087,-8350.440928,148.041188
4093.200101,-4293.194464,-8503.660028,962.267725
4093.200425,-3404.947333,-8273.831378,888.247130
4093.200750,-2072.576638,-7890.783629,814.226536
4093.201074,-740.205942,-7660.954980,1110.308913
4093.201398,740.205942,-7048.078582,814.226536
4093.201723,2886.803174,-7354.516781,2294.638420
4093.202047,3997.112087,-6435.202183,1110.308913
4093.202371,5107.421000,-7431.126331,1036.288319
4093.202696,4885.359217,-7431.126331,518.144159
4093.203020,4441.235652,-8503.660028,296.082377
4093.203344,4219.173869,-9039.926876,370.102971
4093.203669,1998.556043,-9346.365076,0.000000
4093.203993,-370.102971,-9959.241474,-370.102971
4093.204317,-2294.638420,-9499.584175,-370.102971
4093.204642,-3478.967927,-9652.803275,-740.205942
4093.204966,-3182.885551,-9499.584175,-1554.432478
4093.205290,-3182.885551,-8810.098227,-1406.391290
4093.205615,-2368.659014,-8427.050478,-1628.453072
4093.205939,-296.082377,-7890.783629,-962.267725
4093.206263,1776.494261,-8044.002729,-518.144159
4093.206588,3256.906145,-8273.831378,-814.226536
4093.206912,5107.421000,-7967.393179,-518.144159
4093.207236,4737.318029,-8350.440928,-518.144159
4093.207561,4367.215058,-8427.050478,-592.164754
4093.207885,4145.153275,-8656.879127,-1110.308913
4093.208209,3701.029710,-9499.584175,-740.205942
4093.208534,2368.659014,-8963.317327,-1406.391290
4093.208858,2664.741391,-8963.317327,-1184.329507
4093.209182,2072.576638,-8733.488677,-1702.473667
4093.209507,2220.617826,-8963.317327,-2294.638420
4093.209831,2368.659014,-8810.098227,-2368.659014
4093.210155,1184.329507,-9422.974625,-2220.617826
4093.210480,740.205942,-9269.755526,-2146.597232
4093.210804,-296.082377,-8963.317327,-2738.761985
4093.211128,-1480.411884,-9806.022374,-2072.576638
4093.211453,-2146.597232,-8886.707777,-2516.700203
4093.211777,-2442.679609,-9729.412825,-2072.576638
4093.212101,-2294.638420,-9422.974625,-1554.432478
4093.212426,-1628.453072,-9116.536426,-592.164754
4093.212750,-370.102971,-8580.269578,-444.123565
4093.213074,1184.329507,-9039.926876,0.000000
4093.213399,2812.782580,-8120.612279,-444.123565
4093.213723,3923.091493,-8197.221829,-222.061783
4093.214047,4811.338623,-8350.440928,0.000000
4093.214372,4441.235652,-8350.440928,148.041188
4093.214696,3478.967927,-8656.879127,222.061783
4093.215020,2664.741391,-8580.269578,-296.082377
4093.215345,518.144159,-9499.584175,-222.061783
4093.215669,-2664.741391,-8963.317327,-518.144159
4093.215993,-3923.091493,-10035.851024,0.000000
4093.216318,-4515.256246,-8963.317327,-518.144159
4093.216642,-4737.318029,-9422.974625,0.000000
4093.216966,-3330.926739,-8810.098227,-148.041188
4093.217291,-3108.864956,-8427.050478,74.020594
4093.217615,-1480.411884,-8273.831378,592.164754
4093.217939,-518.144159,-7431.126331,444.123565
4093.218264,666.185348,-7354.516781,1036.288319
4093.218588,1184.329507,-7201.297681,1110.308913
4093.218912,2072.576638,-7354.516781,1924.535449
4093.219237,1850.514855,-7354.516781,1332.370696
4093.219561,1332.370696,-8044.002729,1924.535449
4093.219885,592.164754,-8120.612279,1036.288319
4093.220210,888.247130,-8886.707777,1184.329507
4093.220534,666.185348,-8427.050478,1332.370696
4093.220858,370.102971,-8120.612279,1110.308913
4093.221183,74.020594,-8120.612279,1184.329507
4093.221507,296.082377,-9269.755526,740.205942
4093.221831,-222.061783,-8350.440928,0.000000
4093.222156,-1406.391290,-8580.269578,-296.082377
4093.222480,-2146.597232,-8963.317327,148.041188
4093.222804,-3034.844362,-8273.831378,-148.041188
4093.223128,-2590.720797,-8427.050478,0.000000
4093.223453,-1776.494261,-7814.174080,0.000000
4093.223777,-1480.411884,-7890.783629,0.000000
4093.224101,74.020594,-8197.221829,0.000000
4093.224426,2146.597232,-7507.735880,148.041188
4093.224750,3034.844362,-7967.393179,740.205942
4093.225074,4367.215058,-7814.174080,222.061783
4093.225399,5773.606348,-8273.831378,-370.102971
4093.225723,5625.565159,-8886.707777,-666.185348
4093.226047,5255.462188,-8810.098227,-1036.288319
4093.226372,4293.194464,-8886.707777,-740.205942
4093.226696,2368.659014,-9269.755526,-1258.350101
4093.227020,74.020594,-9652.803275,-1554.432478
4093.227345,-1480.411884,-9806.022374,-1850.514855
4093.227669,-2738.761985,-9806.022374,-1850.514855
4093.227993,-2886.803174,-9499.584175,-2072.576638
4093.228318,-2738.761985,-9882.631924,-2220.617826
4093.228642,-2368.659014,-9959.241474,-1702.473667
4093.228966,0.000000,-9346.365076,-1628.453072
4093.229291,888.247130,-9346.365076,-1554.432478
4093.229615,2812.782580,-8886.707777,-1554.432478
4093.229939,3478.967927,-8810.098227,-1554.432478
4093.230264,3775.050304,-8656.879127,-814.226536
4093.230588,3404.947333,-8273.831378,-1480.411884
4093.230912,3256.906145,-9193.145976,-1110.308913
4093.231237,3034.844362,-8733.488677,-666.185348
4093.231561,1924.535449,-8810.098227,-666.185348
4093.231885,1998.556043,-8963.317327,-1554.432478
4093.232210,1702.473667,-8886.707777,-962.267725
4093.232534,1332.370696,-9346.365076,-1554.432478
4093.232858,814.226536,-8886.707777,-1480.411884
4093.233183,74.020594,-9269.755526,-1406.391290
4093.233507,-1332.370696,-9499.584175,-1628.453072
4093.233831,-2368.659014,-9116.536426,-1554.432478
4093.234156,-3256.906145,-9116.536426,-1406.391290
4093.234480,-2812.782580,-9193.145976,-1036.288319
4093.234804,-2960.823768,-8273.831378,-740.205942
4093.235129,-2442.679609,-8120.612279,-444.123565
4093.235453,-1258.350101,-7814.174080,-222.061783
4093.235777,666.185348,-8044.002729,222.061783
4093.236102,2146.597232,-7431.126331,444.123565
4093.236426,3034.844362,-7737.564530,1110.308913
4093.236750,4145.153275,-7431.126331,962.267725
4093.237075,5329.482782,-9039.926876,1554.432478
4093.237399,3775.050304,-7814.174080,74.020594
4093.237723,2738.761985,-8886.707777,1036.288319
4093.238048,518.144159,-7890.783629,296.082377
4093.238372,-1110.308913,-9269.755526,666.185348
4093.238696,-2886.803174,-9499.584175,518.144159
4093.239021,-3775.050304,-8427.050478,-370.102971
4093.239345,-4663.297435,-8503.660028,296.082377
4093.239669,-4515.256246,-8120.612279,148.041188
4093.239994,-2146.597232,-7354.516781,518.144159
4093.240318,-1406.391290,-8120.612279,222.061783
4093.240642,74.020594,-8197.221829,1110.308913
4093.240967,666.185348,-7431.126331,1110.308913
4093.241291,1850.514855,-8503.660028,1258.350101
4093.241615,1998.556043,-7660.954980,1332.370696
4093.241940,1628.453072,-8503.660028,1628.453072
4093.242264,740.205942,-8044.002729,592.164754
4093.242588,740.205942,-7967.393179,888.247130
4093.242913,592.164754,-8427.050478,1110.308913
4093.243237,296.082377,-7890.783629,148.041188
4093.243561,1036.288319,-8427.050478,518.144159
4093.243886,1332.370696,-8197.221829,0.000000
4093.244210,1480.411884,-8886.707777,-296.082377
4093.244534,888.247130,-8350.440928,-1406.391290
4093.244859,370.102971,-9346.365076,-592.164754
4093.245183,-1110.308913,-8273.831378,-1110.308913
4093.245507,-1258.350101,-9729.412825,-666.185348
4093.245832,-2072.576638,-9039.926876,-1406.391290
4093.246156,-1776.494261,-9269.755526,-814.226536
4093.246480,-1332.370696,-8580.269578,-1406.391290
4093.246805,-666.185348,-8656.879127,-814.226536
4093.247129,666.185348,-7814.174080,-888.247130
4093.247453,2294.638420,-7967.393179,-740.205942
4093.247778,3256.906145,-7890.783629,-1258.350101
4093.248102,4515.256246,-8810.098227,-740.205942
4093.248426,4737.318029,-8810.098227,-740.205942
4093.248751,4367.215058,-9652.803275,-1258.350101
4093.249075,4145.153275,-9499.584175,-1776.494261
4093.249399,2368.659014,-9729.412825,-1628.453072
4093.249724,518.144159,-10035.851024,-2072.576638
4093.250048,-1110.308913,-10342.289223,-1554.432478
4093.250372,-2590.720797,-9882.631924,-1776.494261
4093.250697,-3034.844362,-9806.022374,-1480.411884
4093.251021,-2886.803174,-9193.145976,-1702.473667
4093.251345,-1406.391290,-8886.707777,-1554.432478
4093.251670,-74.020594,-8656.879127,-1332.370696
4093.251994,1332.370696,-8273.831378,-1184.329507
4093.252318,1924.535449,-8350.440928,-592.164754
4093.252643,3182.885551,-8580.269578,-1184.329507
4093.252967,2368.659014,-8503.660028,-296.082377
4093.253291,2294.638420,-8733.488677,0.000000
4093.253616,1628.453072,-8810.098227,-148.041188
4093.253940,962.267725,-8733.488677,74.020594
4093.254264,0.000000,-8656.879127,0.000000
4093.254589,592.164754,-8656.879127,0.000000
4093.254913,1258.350101,-8197.221829,-592.164754
4093.255237,962.267725,-8503.660028,-222.061783
4093.255562,1332.370696,-7737.564530,-888.247130
4093.255886,814.226536,-8503.660028,-740.205942
4093.256210,74.020594,-8503.660028,-814.226536
4093.256535,-1036.288319,-8273.831378,-666.185348
4093.256859,-1480.411884,-8197.221829,-296.082377
4093.257183,-3182.885551,-8503.660028,0.000000
4093.257508,-3256.906145,-8580.269578,370.102971
4093.257832,-3034.844362,-8120.612279,296.082377
4093.258156,-1924.535449,-7814.174080,814.226536
4093.258481,-296.082377,-7660.954980,370.102971
4093.258805,1258.350101,-7584.345430,962.267725
4093.259129,2368.659014,-7048.078582,962.267725
4093.259454,3849.070898,-7431.126331,1110.308913
4093.259778,4737.318029,-7737.564530,592.164754
4093.260102,3849.070898,-7890.783629,518.144159
4093.260427,2886.803174,-8503.660028,592.164754
4093.260751,1406.391290,-8503.660028,518.144159
4093.261075,0.000000,-9269.755526,444.123565
4093.261400,-1850.514855,-9039.926876,444.123565
4093.261724,-3404.947333,-8963.317327,0.000000
4093.262048,-3256.906145,-9422.974625,-222.061783
4093.262373,-3701.029710,-8810.098227,0.000000
4093.262697,-2590.720797,-8503.660028,0.000000
4093.263021,-1554.432478,-8350.440928,0.000000
4093.263345,444.123565,-8044.002729,74.020594
4093.263670,444.123565,-7660.954980,0.000000
4093.263994,2072.576638,-8120.612279,0.000000
4093.264318,1628.453072,-7737.564530,0.000000
4093.264642,2368.659014,-8963.317327,74.020594
4093.264966,1998.556043,-8427.050478,-518.144159
4093.265290,1406.391290,-9193.145976,74.020594
4093.265614,518.144159,-8733.488677,-296.082377
4093.265939,1332.370696,-8503.660028,0.000000
4093.266263,1480.411884,-8810.098227,-1036.288319
4093.266587,1628.453072,-8886.707777,-1110.308913
4093.266911,1998.556043,-9039.926876,-1332.370696
4093.267235,1110.308913,-9039.926876,-1406.391290
4093.267559,518.144159,-9116.536426,-1554.432478
4093.267883,-962.267725,-9193.145976,-1776.494261
4093.268208,-1184.329507,-9806.022374,-1184.329507
4093.268532,-3330.926739,-8963.317327,-1628.453072
4093.268856,-1924.535449,-9806.022374,-1184.329507
4093.269180,-2664.741391,-8044.002729,-1998.556043
4093.269504,-1776.494261,-9882.631924,444.123565
4093.269828,148.041188,-7814.174080,-1776.494261
4093.270152,1554.432478,-9193.145976,222.061783
4093.270477,3108.864956,-7584.345430,-962.267725
4093.270801,4367.215058,-8733.488677,-296.082377
4093.271125,4441.235652,-8427.050478,-222.061783
4093.271449,4589.276840,-9116.536426,-740.205942
4093.271773,4441.235652,-8963.317327,-740.205942
4093.272097,2738.761985,-8886.707777,-1036.288319
4093.272421,740.205942,-10112.460574,-814.226536
4093.272746,-666.185348,-9269.755526,-888.247130
4093.273070,-2738.761985,-9729.412825,-888.247130
4093.273394,-3256.906145,-9576.193725,-1184.329507
4093.273718,-3108.864956,-9039.926876,-1258.350101
4093.274042,-3330.926739,-8963.317327,-888.247130
4093.274366,-2442.679609,-8810.098227,-296.082377
4093.274690,-888.247130,-8427.050478,0.000000
4093.275015,1036.288319,-8503.660028,0.000000
4093.275339,1258.350101,-7354.516781,-148.041188
4093.275663,2516.700203,-7814.174080,148.041188
4093.275987,2368.659014,-7660.954980,592.164754
4093.276311,2146.597232,-7814.174080,1036.288319
4093.276635,2072.576638,-8120.612279,222.061783
4093.276959,1480.411884,-8427.050478,740.205942
4093.277283,1184.329507,-7584.345430,296.082377
4093.277608,740.205942,-8120.612279,296.082377
4093.277932,444.123565,-8044.002729,518.144159
4093.278256,740.205942,-8733.488677,74.020594
4093.278580,148.041188,-8656.879127,-148.041188
4093.278904,-148.041188,-8197.221829,-370.102971
4093.279228,-1184.329507,-8580.269578,-592.164754
4093.279552,-2146.597232,-8503.660028,0.000000
4093.279877,-1924.535449,-8427.050478,0.000000
4093.280201,-2738.761985,-8580.269578,-296.082377
4093.280525,-2590.720797,-8273.831378,296.082377
4093.280849,-1924.535449,-7890.783629,148.041188
4093.281173,-814.226536,-8120.612279,444.123565
4093.281497,444.123565,-7354.516781,592.164754
4093.281821,1776.494261,-7967.393179,666.185348
4093.282146,2960.823768,-7737.564530,592.164754
4093.282470,3701.029710,-7660.954980,296.082377
4093.282794,4293.194464,-8503.660028,0.000000
4093.283118,4293.194464,-8197.221829,0.000000
4093.283442,3701.029710,-9039.926876,-148.041188
4093.283766,2368.659014,-9269.755526,-666.185348
4093.284090,222.061783,-8963.317327,-518.144159
4093.284415,-1850.514855,-9806.022374,-444.123565
4093.284739,-3330.926739,-9499.584175,-740.205942
4093.285063,-3627.009116,-9039.926876,-888.247130
4093.285387,-4293.194464,-9193.145976,-1554.432478
4093.285711,-3775.050304,-9193.145976,-1036.288319
4093.286035,-2146.597232,-9346.365076,-814.226536
4093.286359,-592.164754,-8120.612279,-444.123565
4093.286684,2220.617826,-8197.221829,-222.061783
4093.287008,2368.659014,-8810.098227,0.000000
4093.287332,3849.070898,-8120.612279,-370.102971
4093.287656,4367.215058,-8427.050478,0.000000
4093.287980,2590.720797,-9039.926876,222.061783
4093.288304,2368.659014,-9116.536426,222.061783
4093.288628,1628.453072,-8886.707777,-296.082377
4093.288953,1184.329507,-9346.365076,-666.185348
4093.289277,1110.308913,-8733.488677,-740.205942
4093.289601,1036.288319,-8963.317327,-1110.308913
4093.289925,814.226536,-9269.755526,-1036.288319
4093.290249,518.144159,-8580.269578,-1036.288319
4093.290573,0.000000,-9193.145976,-1332.370696
4093.290897,-888.247130,-8503.660028,-1554.432478
4093.291222,-1776.494261,-9039.926876,-814.226536
4093.291546,-2146.597232,-8963.317327,-1702.473667
4093.291870,-1850.514855,-9499.584175,-1110.308913
4093.292194,-1776.494261,-8503.660028,-740.205942
4093.292518,-1110.308913,-8120.612279,-592.164754
4093.292842,-740.205942,-8044.002729,222.061783
4093.293166,2146.597232,-8197.221829,222.061783
4093.293491,3552.988522,-7354.516781,222.061783
4093.293815,4737.318029,-7967.393179,222.061783
4093.294139,4441.235652,-7890.783629,0.000000
4093.294463,4589.276840,-8273.831378,74.020594
4093.294787,3997.112087,-8427.050478,-222.061783
4093.295111,3701.029710,-9422.974625,-148.041188
4093.295435,1110.308913,-9039.926876,-222.061783
4093.295759,-370.102971,-9422.974625,-370.102971
4093.296084,-2590.720797,-9422.974625,-888.247130
4093.296408,-3478.967927,-9269.755526,-222.061783
4093.296732,-3775.050304,-9422.974625,-148.041188
4093.297056,-1628.453072,-8273.831378,-444.123565
4093.297380,-2442.679609,-8963.317327,0.000000
4093.297704,0.000000,-8044.002729,0.000000
4093.298028,-296.082377,-7814.174080,592.164754
4093.298353,1702.473667,-8350.440928,0.000000
4093.298677,2072.576638,-8197.221829,592.164754
4093.299001,2442.679609,-7967.393179,592.164754
4093.299325,2220.617826,-7814.174080,1554.432478
4093.299649,1406.391290,-7660.954980,888.247130
4093.299973,962.267725,-9039.926876,1258.350101
4093.300297,1924.535449,-7814.174080,0.000000
4093.300622,2368.659014,-8503.660028,1184.329507
4093.300946,444.123565,-8350.440928,-740.205942
4093.301270,148.041188,-8273.831378,-296.082377
4093.301594,518.144159,-9422.974625,-444.123565
4093.301918,-962.267725,-8503.660028,-592.164754
4093.302242,-518.144159,-7967.393179,-814.226536
4093.302566,-2220.617826,-9422.974625,-740.205942
4093.302891,-3552.988522,-8733.488677,-740.205942
4093.303215,-2664.741391,-8503.660028,-370.102971
4093.303539,-3256.906145,-8580.269578,-296.082377
4093.303863,-2146.597232,-8656.879127,0.000000
4093.304187,-962.267725,-7507.735880,148.041188
4093.304511,518.144159,-8350.440928,-148.041188
4093.304835,2368.659014,-8197.221829,-74.020594
4093.305160,3552.988522,-7814.174080,0.000000
4093.305484,4441.235652,-8503.660028,148.041188
4093.305808,4959.379811,-8273.831378,0.000000
4093.306132,4737.318029,-9039.926876,0.000000
4093.306456,3552.988522,-9499.584175,-74.020594
4093.306780,1998.556043,-9193.145976,-814.226536
4093.307104,0.000000,-10035.851024,-814.226536
4093.307429,-1924.535449,-9652.803275,-888.247130
4093.307753,-3256.906145,-8503.660028,-814.226536
4093.308077,-3775.050304,-8886.707777,-1258.350101
4093.308401,-3552.988522,-8810.098227,-666.185348
4093.308725,-2442.679609,-8580.269578,-1184.329507
4093.309049,-370.102971,-9193.145976,-518.144159
4093.309373,74.020594,-7967.393179,-1110.308913
4093.309698,1776.494261,-8733.488677,-296.082377
4093.310022,1850.514855,-7890.783629,-518.144159
4093.310346,3034.844362,-9116.536426,0.000000
4093.310670,3182.885551,-8503.660028,-444.123565
4093.310994,2368.659014,-8810.098227,740.205942
4093.311318,1480.411884,-8427.050478,-370.102971
4093.311642,1332.370696,-8503.660028,0.000000
4093.311967,1406.391290,-8427.050478,-296.082377
4093.312291,1554.432478,-8427.050478,-518.144159
4093.312615,1480.411884,-8656.879127,-740.205942
4093.312939,740.205942,-8273.831378,-962.267725
4093.313263,222.061783,-8810.098227,-1110.308913
4093.313587,-296.082377,-8427.050478,-1332.370696
4093.313911,-1332.370696,-9193.145976,-962.267725
4093.314235,-1850.514855,-8963.317327,-740.205942
4093.314560,-2220.617826,-8886.707777,-740.205942
4093.314884,-2220.617826,-8886.707777,-518.144159
4093.315208,-1850.514855,-8427.050478,-592.164754
4093.315532,-740.205942,-8197.221829,0.000000
4093.315856,592.164754,-8044.002729,0.000000
4093.316180,1850.514855,-7354.516781,148.041188
4093.316504,2590.720797,-7814.174080,0.000000
4093.316829,3627.009116,-7967.393179,296.082377
4093.317153,3552.988522,-8197.221829,0.000000
4093.317477,4441.235652,-8427.050478,74.020594
4093.317801,3775.050304,-8273.831378,0.000000
4093.318125,2072.576638,-9193.145976,-444.123565
4093.318449,1554.432478,-9499.584175,-444.123565
4093.318773,-1184.329507,-9269.755526,-740.205942
4093.319098,-1924.535449,-9576.193725,0.000000
4093.319422,-3182.885551,-8273.831378,-518.144159
4093.319746,-3256.906145,-9039.926876,-222.061783
4093.320070,-3182.885551,-8273.831378,-666.185348
4093.320394,-2220.617826,-8197.221829,0.000000
4093.320718,-740.205942,-8580.269578,0.000000
4093.321042,592.164754,-8197.221829,-148.041188
4093.321367,1036.288319,-8350.440928,370.102971
4093.321691,1924.535449,-8580.269578,296.082377
4093.322015,1850.514855,-7967.393179,222.061783
4093.322339,1554.432478,-8350.440928,740.205942
4093.322663,1554.432478,-8427.050478,370.102971
4093.322987,1036.288319,-8273.831378,0.000000
4093.323311,1702.473667,-8886.707777,74.020594
4093.323636,888.247130,-7967.393179,0.000000
4093.323960,1110.308913,-8503.660028,-148.041188
4093.324284,666.185348,-8427.050478,-962.267725
4093.324608,518.144159,-8656.879127,-518.144159
4093.324932,-666.185348,-8273.831378,-962.267725
4093.325256,-962.267725,-9116.536426,-518.144159
4093.325580,-2072.576638,-8656.879127,-888.247130
4093.325905,-2368.659014,-8963.317327,-666.185348
4093.326229,-2368.659014,-8886.707777,-592.164754
4093.326553,-2294.638420,-8656.879127,-740.205942
4093.326877,-1110.308913,-8733.488677,-370.102971
4093.327201,0.000000,-8044.002729,-370.102971
4093.327525,1480.411884,-8120.612279,-296.082377
4093.327849,2590.720797,-7660.954980,-296.082377
4093.328174,4367.215058,-8197.221829,-222.061783
4093.328498,4219.173869,-8580.269578,0.000000
4093.328822,4589.276840,-8810.098227,-296.082377
4093.329146,3182.885551,-8580.269578,-444.123565
4093.329470,2590.720797,-9193.145976,-592.164754
4093.329794,1036.288319,-9269.755526,-740.205942
4093.330118,-814.226536,-9576.193725,-666.185348
4093.330443,-2072.576638,-8810.098227,-1332.370696
4093.330767,-2960.823768,-9193.145976,-518.144159
4093.331091,-2886.803174,-8810.098227,-1036.288319
4093.331415,-2368.659014,-8503.660028,-444.123565
4093.331739,-1036.288319,-8580.269578,-888.247130
4093.332063,148.041188,-8350.440928,-814.226536
4093.332387,888.247130,-8197.221829,-814.226536
4093.332711,1702.473667,-8273.831378,-592.164754
4093.333036,2220.617826,-8120.612279,-222.061783
4093.333360,1998.556043,-8886.707777,0.000000
4093.333684,2072.576638,-8427.050478,296.082377
4093.334008,1554.432478,-8886.707777,-592.164754
4093.334332,962.267725,-8886.707777,-518.144159
4093.334656,1036.288319,-8886.707777,-148.041188
4093.334980,666.185348,-7890.783629,-222.061783
4093.335305,2146.597232,-8580.269578,-740.205942
4093.335629,740.205942,-9193.145976,-666.185348
4093.335953,740.205942,-8503.660028,-1036.288319
4093.336277,222.061783,-8580.269578,-888.247130
4093.336601,-1258.350101,-8963.317327,-1036.288319
4093.336925,-1776.494261,-9039.926876,-666.185348
4093.337249,-2146.597232,-8580.269578,-370.102971
4093.337574,-2664.741391,-8886.707777,-518.144159
4093.337898,-2220.617826,-8044.002729,-222.061783
4093.338222,-1776.494261,-8044.002729,74.020594
4093.338546,-666.185348,-7890.783629,-148.041188
4093.338870,1406.391290,-7737.564530,-296.082377
4093.339194,2516.700203,-7967.393179,-222.061783
4093.339518,3034.844362,-7967.393179,-148.041188
4093.339843,3849.070898,-8197.221829,0.000000
4093.340167,3701.029710,-8044.002729,-222.061783
4093.340491,3404.947333,-8733.488677,74.020594
4093.340815,2368.659014,-8733.488677,-370.102971
4093.341139,888.247130,-9652.803275,-296.082377
4093.341463,-518.144159,-9193.145976,-592.164754
4093.341787,-1924.535449,-9729.412825,-592.164754
4093.342112,-3627.009116,-8733.488677,-444.123565
4093.342436,-4145.153275,-8273.831378,-444.123565
4093.342760,-3034.844362,-8886.707777,0.000000
4093.343084,-2442.679609,-8810.098227,148.041188
4093.343408,-888.247130,-8197.221829,-222.061783
4093.343732,296.082377,-7660.954980,-148.041188
4093.344056,1924.535449,-7967.393179,0.000000
4093.344381,2220.617826,-7967.393179,74.020594
4093.344705,2516.700203,-8733.488677,222.061783
4093.345029,2368.659014,-8963.317327,666.185348
4093.345353,1924.535449,-8580.269578,592.164754
4093.345677,1480.411884,-8886.707777,222.061783
4093.346001,1406.391290,-7890.783629,0.000000
4093.346325,1332.370696,-8427.050478,-222.061783
4093.346650,1036.288319,-8427.050478,-222.061783
4093.346974,888.247130,-8503.660028,-740.205942
4093.347298,-148.041188,-9193.145976,-444.123565
4093.347622,74.020594,-8656.879127,-1110.308913
4093.347946,-1036.288319,-8350.440928,-1480.411884
4093.348270,-1406.391290,-8810.098227,-962.267725
4093.348594,-1924.535449,-8886.707777,-1184.329507
4093.348919,-1702.473667,-8886.707777,-444.123565
4093.349243,-2146.597232,-8580.269578,-888.247130
4093.349567,-1554.432478,-8656.879127,-592.164754
4093.349891,-296.082377,-8273.831378,-444.123565
4093.350215,962.267725,-7890.783629,0.000000
4093.350539,2664.741391,-8044.002729,0.000000
4093.350863,3552.988522,-7737.564530,-444.123565
4093.351187,4219.173869,-8580.269578,-148.041188
4093.351512,3775.050304,-7814.174080,-592.164754
4093.351836,3997.112087,-8810.098227,-444.123565
4093.352160,2664.741391,-8810.098227,-666.185348
4093.352484,2072.576638,-9499.584175,-814.226536
4093.352808,-592.164754,-9346.365076,-962.267725
4093.353132,-1110.308913,-9499.584175,-1036.288319
4093.353456,-2368.659014,-9269.755526,-1184.329507
4093.353781,-2664.741391,-9269.755526,-666.185348
4093.354105,-3182.885551,-8427.050478,-740.205942
4093.354429,-1628.453072,-8810.098227,-370.102971
4093.354753,-370.102971,-8427.050478,-148.041188
4093.355077,1184.329507,-7890.783629,-518.144159
4093.355401,2590.720797,-8810.098227,148.041188
4093.355725,3256.906145,-8197.221829,-296.082377
4093.356050,2812.782580,-8580.269578,740.205942
4093.356374,2368.659014,-8197.221829,0.000000
4093.356698,1554.432478,-8886.707777,740.205942
4093.357022,1184.329507,-8350.440928,0.000000
4093.357346,740.205942,-8733.488677,74.020594
4093.357670,666.185348,-8656.879127,-740.205942
4093.357994,518.144159,-9039.926876,-370.102971
4093.358319,0.000000,-8197.221829,-888.247130
4093.358643,0.000000,-9193.145976,0.000000
4093.358967,0.000000,-8580.269578,-1036.288319
4093.359291,-444.123565,-8580.269578,-370.102971
4093.359615,-1036.288319,-8886.707777,-666.185348
4093.359939,-2294.638420,-9039.926876,-814.226536
4093.360263,-2220.617826,-8810.098227,0.000000
4093.360588,-2072.576638,-8273.831378,-740.205942
4093.360912,-1924.535449,-8580.269578,-296.082377
4093.361236,-592.164754,-7890.783629,74.020594
4093.361560,296.082377,-8273.831378,740.205942
4093.361884,2220.617826,-8350.440928,148.041188
4093.362208,3108.864956,-7890.783629,370.102971
4093.362532,4219.173869,-7967.393179,296.082377
4093.362857,4293.194464,-8044.002729,-148.041188
4093.363181,4441.235652,-8733.488677,-148.041188
4093.363505,3182.885551,-8733.488677,-444.123565
4093.363829,1702.473667,-9193.145976,-888.247130
4093.364153,-592.164754,-9422.974625,-666.185348
4093.364478,-2442.679609,-9116.536426,-518.144159
4093.364802,-3478.967927,-9806.022374,-518.144159
4093.365126,-4219.173869,-9039.926876,-888.247130
4093.365451,-4293.194464,-8886.707777,0.000000
4093.365775,-2442.679609,-8733.488677,-518.144159
4093.366099,0.000000,-8656.879127,-148.041188
4093.366423,1036.288319,-7660.954980,-444.123565
4093.366748,3034.844362,-8963.317327,0.000000
4093.367072,2812.782580,-7660.954980,-518.144159
4093.367396,3108.864956,-8963.317327,148.041188
4093.367721,2664.741391,-8427.050478,222.061783
4093.368045,1924.535449,-8427.050478,370.102971
4093.368369,1332.370696,-8503.660028,222.061783
4093.368693,1110.308913,-8810.098227,-296.082377
4093.369018,518.144159,-8656.879127,-444.123565
4093.369342,370.102971,-8427.050478,-444.123565
4093.369666,888.247130,-9269.755526,-518.144159
4093.369991,1332.370696,-8963.317327,-1036.288319
4093.370315,222.061783,-9039.926876,-962.267725
4093.370639,0.000000,-8427.050478,-1258.350101
4093.370963,-370.102971,-9193.145976,-888.247130
4093.371288,-1850.514855,-8810.098227,-1480.411884
4093.371612,-2072.576638,-9193.145976,-1184.329507
4093.371936,-1998.556043,-8810.098227,-814.226536
4093.372261,-1702.473667,-8580.269578,-518.144159
4093.372585,-370.102971,-8273.831378,0.000000
4093.372909,1480.411884,-7814.174080,0.000000
4093.373233,1998.556043,-7584.345430,222.061783
4093.373558,2886.803174,-7737.564530,296.082377
4093.373882,4663.297435,-8350.440928,-296.082377
4093.374206,4811.338623,-8427.050478,-444.123565
4093.374531,4293.194464,-8886.707777,-592.164754
4093.374855,2664.741391,-9039.926876,-444.123565
4093.375179,1480.411884,-9193.145976,-444.123565
4093.375504,-592.164754,-9652.803275,-518.144159
4093.375828,-1998.556043,-9806.022374,-1110.308913
4093.376152,-3552.988522,-9729.412825,-888.247130
4093.376476,-3849.070898,-8963.317327,-814.226536
4093.376801,-3775.050304,-8656.879127,-740.205942
4093.377125,-1998.556043,-8503.660028,-814.226536
4093.377449,-962.267725,-8427.050478,-444.123565
4093.377774,814.226536,-7890.783629,0.000000
4093.378098,1776.494261,-8197.221829,0.000000
4093.378422,2886.803174,-8120.612279,518.144159
4093.378746,2960.823768,-8273.831378,666.185348
4093.379071,2738.761985,-8580.269578,296.082377
4093.379395,1554.432478,-8427.050478,222.061783
4093.379719,1628.453072,-8963.317327,444.123565
4093.380044,370.102971,-8350.440928,0.000000
4093.380368,444.123565,-8656.879127,-222.061783
4093.380692,0.000000,-8580.269578,0.000000
4093.381016,518.144159,-8120.612279,-370.102971
4093.381341,222.061783,-8656.879127,-444.123565
4093.381665,444.123565,-8503.660028,-814.226536
4093.381989,-296.082377,-8656.879127,-666.185348
4093.382314,-1184.329507,-8886.707777,-1110.308913
4093.382638,-1554.432478,-8656.879127,-592.164754
4093.382962,-2072.576638,-8810.098227,-518.144159
4093.383286,-2368.659014,-8810.098227,-222.061783
4093.383611,-1850.514855,-8503.660028,-148.041188
4093.383935,-1406.391290,-8733.488677,222.061783
4093.384259,-444.123565,-8273.831378,444.123565
4093.384584,1406.391290,-7967.393179,222.061783
4093.384908,2442.679609,-7890.783629,444.123565
4093.385232,3775.050304,-8197.221829,222.061783
4093.385556,4293.194464,-7814.174080,592.164754
4093.385881,4071.132681,-8350.440928,0.000000
4093.386205,3627.009116,-9039.926876,-518.144159
4093.386529,2368.659014,-9269.755526,-444.123565
4093.386854,444.123565,-9422.974625,-814.226536
4093.387178,-962.267725,-9346.365076,-518.144159
4093.387502,-2960.823768,-9269.755526,-888.247130
4093.387826,-4737.318029,-9193.145976,-962.267725
4093.388151,-3923.091493,-8350.440928,-740.205942
4093.388475,-3701.029710,-8810.098227,0.000000
4093.388799,-1258.350101,-8503.660028,-444.123565
4093.389124,666.185348,-8580.269578,0.000000
4093.389448,2590.720797,-8350.440928,-370.102971
4093.389772,2738.761985,-8427.050478,0.000000
4093.390097,3849.070898,-8580.269578,0.000000
4093.390421,3552.988522,-8656.879127,370.102971
4093.390745,2294.638420,-8120.612279,296.082377
4093.391069,1702.473667,-9116.536426,370.102971
4093.391394,1258.350101,-8886.707777,0.000000
4093.391718,518.144159,-8580.269578,-518.144159
4093.392042,740.205942,-7890.783629,-740.205942
4093.392367,814.226536,-9039.926876,-296.082377
4093.392691,296.082377,-8427.050478,-1036.288319
4093.393015,888.247130,-8503.660028,-740.205942
4093.393339,-148.041188,-8197.221829,-1406.391290
4093.393664,-814.226536,-9193.145976,-1258.350101
4093.393988,-1850.514855,-8350.440928,-666.185348
4093.394312,-1850.514855,-9039.926876,-666.185348
4093.394637,-2072.576638,-8963.317327,-962.267725
4093.394961,-2072.576638,-8273.831378,-666.185348
4093.395285,-1110.308913,-8197.221829,-444.123565
4093.395609,-74.020594,-8044.002729,-444.123565
4093.395934,1628.453072,-8197.221829,74.020594
4093.396258,3034.844362,-8120.612279,148.041188
4093.396582,3849.070898,-7967.393179,-148.041188
4093.396907,5033.400406,-8810.098227,-296.082377
4093.397231,4737.318029,-8580.269578,0.000000
4093.397555,4663.297435,-9039.926876,-222.061783
4093.397879,3256.906145,-9039.926876,-740.205942
4093.398204,1406.391290,-10035.851024,-370.102971
4093.398528,-370.102971,-9422.974625,-814.226536
4093.398852,-2664.741391,-9346.365076,-814.226536
4093.399177,-3701.029710,-9422.974625,-518.144159
4093.399501,-4367.215058,-8503.660028,-962.267725
4093.399825,-3997.112087,-8503.660028,-666.185348
4093.400149,-3108.864956,-8427.050478,-888.247130
4093.400474,-814.226536,-8580.269578,-148.041188
4093.400798,222.061783,-8044.002729,-148.041188
4093.401122,2590.720797,-8350.440928,296.082377
4093.401447,2590.720797,-7967.393179,0.000000
4093.401771,3182.885551,-8656.879127,518.144159
4093.402095,2368.659014,-8427.050478,814.226536
4093.402419,1702.473667,-9116.536426,814.226536
4093.402744,1258.350101,-8503.660028,222.061783
4093.403068,740.205942,-8503.660028,296.082377
4093.403392,962.267725,-8733.488677,0.000000
4093.403717,0.000000,-8273.831378,-814.226536
4093.404041,592.164754,-9116.536426,-222.061783
4093.404365,-518.144159,-8044.002729,-444.123565
4093.404690,-962.267725,-8963.317327,-592.164754
4093.405014,-1480.411884,-8273.831378,-888.247130
4093.405338,-1776.494261,-8963.317327,-370.102971
4093.405662,-2368.659014,-8580.269578,-1184.329507
4093.405987,-2294.638420,-8580.269578,-814.226536
4093.406311,-1702.473667,-8580.269578,-666.185348
4093.406635,-1628.453072,-8350.440928,-296.082377
4093.406960,-370.102971,-8273.831378,222.061783
4093.407284,814.226536,-7967.393179,148.041188
4093.407608,2368.659014,-7814.174080,740.205942
4093.407932,3478.967927,-7660.954980,148.041188
4093.408257,4441.235652,-8273.831378,592.164754
4093.408581,4737.318029,-8197.221829,0.000000
4093.408905,4737.318029,-8273.831378,-222.061783
4093.409230,4071.132681,-9499.584175,0.000000
4093.409554,1628.453072,-9652.803275,-148.041188
4093.409878,296.082377,-9652.803275,-444.123565
4093.410202,-2220.617826,-9116.536426,-1258.350101
4093.410527,-2664.741391,-9729.412825,-888.247130
4093.410851,-3849.070898,-9116.536426,-1406.391290
4093.411175,-3701.029710,-9346.365076,-666.185348
4093.411500,-3997.112087,-8120.612279,-518.144159
4093.411824,-1702.473667,-9039.926876,-370.102971
4093.412148,-444.123565,-8656.879127,-370.102971
4093.412472,2146.597232,-8580.269578,0.000000
4093.412797,2590.720797,-8427.050478,-222.061783
4093.413121,3256.906145,-8580.269578,148.041188
4093.413445,2664.741391,-8120.612279,370.102971
4093.413770,2442.679609,-9193.145976,518.144159
4093.414094,1628.453072,-8886.707777,-222.061783
4093.414418,962.267725,-8503.660028,-592.164754
4093.414742,814.226536,-8350.440928,-148.041188
4093.415067,814.226536,-8197.221829,-888.247130
4093.415391,444.123565,-8503.660028,-888.247130
4093.415715,888.247130,-8350.440928,-888.247130
4093.416040,0.000000,-8197.221829,-1258.350101
4093.416364,0.000000,-8733.488677,-962.267725
4093.416688,-592.164754,-8503.660028,-666.185348
4093.417012,-1332.370696,-8963.317327,-814.226536
4093.417337,-888.247130,-8503.660028,-1184.329507
4093.417661,-814.226536,-9193.145976,-666.185348
4093.417985,-518.144159,-9116.536426,-296.082377
4093.418310,-148.041188,-8120.612279,-148.041188
4093.418634,888.247130,-8350.440928,-296.082377
4093.418958,1850.514855,-7814.174080,74.020594
4093.419283,2960.823768,-7967.393179,0.000000
4093.419607,3330.926739,-8197.221829,222.061783
4093.419931,3627.009116,-8197.221829,0.000000
4093.420255,2738.761985,-8656.879127,-148.041188
4093.420580,2590.720797,-9346.365076,0.000000
4093.420904,888.247130,-8503.660028,-592.164754
4093.421228,-296.082377,-9576.193725,-444.123565
4093.421553,-1998.556043,-9116.536426,-666.185348
4093.421877,-2664.741391,-9576.193725,-518.144159
4093.422201,-3775.050304,-8733.488677,-962.267725
4093.422525,-2812.782580,-9039.926876,-518.144159
4093.422850,-2664.741391,-8656.879127,-888.247130
4093.423174,-1036.288319,-8580.269578,74.020594
4093.423498,740.205942,-8044.002729,74.020594
4093.423823,1776.494261,-7814.174080,592.164754
4093.424147,2664.741391,-8273.831378,222.061783
4093.424471,2812.782580,-8580.269578,518.144159
4093.424795,2590.720797,-8656.879127,0.000000
4093.425120,2146.597232,-8120.612279,962.267725
4093.425444,1332.370696,-8427.050478,296.082377
4093.425768,666.185348,-8350.440928,222.061783
4093.426093,592.164754,-7967.393179,-74.020594
4093.426417,0.000000,-7967.393179,-296.082377
4093.426741,814.226536,-8273.831378,-740.205942
4093.427065,296.082377,-8427.050478,-666.185348
4093.427390,148.041188,-8350.440928,-592.164754
4093.427714,-444.123565,-8810.098227,-888.247130
4093.428038,-666.185348,-8580.269578,-814.226536
4093.428363,-1776.494261,-8810.098227,-740.205942
4093.428687,-2368.659014,-9116.536426,-518.144159
4093.429011,-2146.597232,-9039.926876,-592.164754
4093.429335,-1332.370696,-8810.098227,-740.205942
4093.429660,-296.082377,-8044.002729,-222.061783
4093.429984,148.041188,-7967.393179,-148.041188
4093.430308,1776.494261,-8120.612279,74.020594
4093.430633,2812.782580,-7890.783629,0.000000
4093.430957,4071.132681,-8503.660028,-148.041188
4093.431281,3701.029710,-8350.440928,0.000000
4093.431605,3775.050304,-8886.707777,-370.102971
4093.431930,3182.885551,-9039.926876,-666.185348
4093.432254,1776.494261,-9116.536426,-814.226536
4093.432578,0.000000,-9576.193725,-666.185348
4093.432903,-1776.494261,-9193.145976,-1258.350101
4093.433227,-2812.782580,-9193.145976,-666.185348
4093.433551,-2960.823768,-8503.660028,-962.267725
4093.433875,-2886.803174,-8656.879127,-444.123565
4093.434200,-2220.617826,-8197.221829,-592.164754
4093.434524,0.000000,-9039.926876,-148.041188
4093.434848,1110.308913,-8427.050478,-518.144159
4093.435173,2812.782580,-8963.317327,0.000000
4093.435497,3256.906145,-8503.660028,-74.020594
4093.435821,3108.864956,-9269.755526,370.102971
4093.436146,2294.638420,-8810.098227,-148.041188
4093.436470,2294.638420,-9422.974625,148.041188
4093.436794,1036.288319,-8350.440928,-518.144159
4093.437118,1110.308913,-8886.707777,-296.082377
4093.437443,444.123565,-8197.221829,-592.164754
4093.437767,296.082377,-8427.050478,-148.041188
4093.438091,0.000000,-7814.174080,-962.267725
4093.438416,222.061783,-8733.488677,-962.267725
4093.438740,0.000000,-8656.879127,-1258.350101
4093.439064,-370.102971,-8427.050478,-666.185348
4093.439388,-1332.370696,-8503.660028,-1036.288319
4093.439713,-1850.514855,-9269.755526,-888.247130
4093.440037,-1776.494261,-8503.660028,-666.185348
4093.440361,-1406.391290,-8580.269578,-666.185348
4093.440686,-1480.411884,-8120.612279,-444.123565
4093.441010,0.000000,-8427.050478,0.000000
4093.441334,1258.350101,-8503.660028,222.061783
4093.441658,2220.617826,-7814.174080,-296.082377
4093.441983,2960.823768,-8044.002729,296.082377
4093.442307,3775.050304,-7967.393179,296.082377
4093.442631,3404.947333,-8733.488677,148.041188
4093.442956,2812.782580,-8656.879127,-370.102971
4093.443280,2220.617826,-8810.098227,-148.041188
4093.443604,1184.329507,-8733.488677,-518.144159
4093.443928,0.000000,-8886.707777,-74.020594
4093.444253,-1258.350101,-9193.145976,-740.205942
4093.444577,-2294.638420,-9116.536426,-296.082377
4093.444901,-2812.782580,-8197.221829,-296.082377
4093.445226,-2220.617826,-8350.440928,-370.102971
4093.445550,-2368.659014,-8273.831378,-518.144159
4093.445874,-592.164754,-8350.440928,222.061783
4093.446198,0.000000,-8350.440928,-74.020594
4093.446523,814.226536,-8886.707777,592.164754
4093.446847,1850.514855,-7967.393179,0.000000
4093.447171,2368.659014,-8656.879127,222.061783
4093.447496,2220.617826,-8733.488677,222.061783
4093.447820,1332.370696,-8427.050478,370.102971
4093.448144,740.205942,-8273.831378,148.041188
4093.448468,592.164754,-8427.050478,74.020594
4093.448793,1036.288319,-8273.831378,-148.041188
4093.449117,518.144159,-8273.831378,-962.267725
4093.449441,1110.308913,-8197.221829,-222.061783
4093.449766,444.123565,-8503.660028,-666.185348
4093.450090,148.041188,-8810.098227,-592.164754
4093.450414,74.020594,-8427.050478,-1776.494261
4093.450739,-740.205942,-9422.974625,-740.205942
4093.451063,-1628.453072,-9269.755526,-1184.329507
4093.451387,-2072.576638,-9346.365076,-666.185348
4093.451711,-1998.556043,-8733.488677,-592.164754
4093.452036,-1258.350101,-8810.098227,0.000000
4093.452360,-370.102971,-8656.879127,-296.082377
4093.452684,666.185348,-7890.783629,74.020594
4093.453009,2516.700203,-7507.735880,0.000000
4093.453333,3478.967927,-8656.879127,-296.082377
4093.453657,4663.297435,-8120.612279,-222.061783
4093.453981,4367.215058,-8350.440928,-74.020594
4093.454306,3627.009116,-8810.098227,-444.123565
4093.454630,3034.844362,-9422.974625,-444.123565
4093.454954,1554.432478,-9576.193725,-444.123565
4093.455279,-296.082377,-9346.365076,-814.226536
4093.455603,-1850.514855,-9422.974625,-888.247130
4093.455927,-3627.009116,-8810.098227,-1036.288319
4093.456251,-3256.906145,-8810.098227,-592.164754
4093.456576,-3256.906145,-8350.440928,-740.205942
4093.456900,-1850.514855,-9193.145976,-444.123565
4093.457224,-1110.308913,-8044.002729,-740.205942
4093.457549,1406.391290,-8580.269578,0.000000
4093.457873,1998.556043,-8656.879127,-296.082377
4093.458197,3478.967927,-9422.974625,222.061783
4093.458521,3034.844362,-8350.440928,0.000000
4093.458846,2442.679609,-9346.365076,592.164754
4093.459170,1998.556043,-8197.221829,0.000000
4093.459494,814.226536,-9193.145976,518.144159
4093.459819,74.020594,-7814.174080,-222.061783
4093.460143,0.000000,-8350.440928,222.061783
4093.460467,74.020594,-8580.269578,-296.082377
4093.460791,222.061783,-8044.002729,-370.102971
4093.461116,888.247130,-8197.221829,-962.267725
4093.461440,740.205942,-8733.488677,-814.226536
4093.461764,370.102971,-8733.488677,-814.226536
4093.462089,-148.041188,-8656.879127,-740.205942
4093.462413,-1184.329507,-9039.926876,-518.144159
4093.462737,-2072.576638,-8886.707777,-1110.308913
4093.463061,-2368.659014,-9193.145976,-370.102971
4093.463386,-2516.700203,-8197.221829,0.000000
4093.463710,-1184.329507,-8273.831378,0.000000
4093.464034,-888.247130,-8197.221829,518.144159
4093.464359,888.247130,-7890.783629,74.020594
4093.464683,2812.782580,-7584.345430,74.020594
4093.465007,3404.947333,-7814.174080,74.020594
4093.465332,4811.338623,-8503.660028,0.000000
4093.465656,4219.173869,-8656.879127,-148.041188
4093.465980,3552.988522,-9039.926876,0.000000
4093.466304,2072.576638,-8963.317327,0.000000
4093.466629,148.041188,-8886.707777,-444.123565
4093.466953,-1184.329507,-9729.412825,-592.164754
4093.467277,-3034.844362,-8963.317327,-370.102971
4093.467602,-3997.112087,-8886.707777,-592.164754
4093.467926,-4293.194464,-8580.269578,-888.247130
4093.468250,-3034.844362,-8886.707777,-370.102971
4093.468574,-1924.535449,-8197.221829,-740.205942
4093.468899,148.041188,-8733.488677,666.185348
4093.469223,1332.370696,-8120.612279,0.000000
4093.469547,2812.782580,-9116.536426,444.123565
4093.469872,3627.009116,-8656.879127,-148.041188
4093.470196,3404.947333,-8963.317327,814.226536
4093.470520,2516.700203,-8273.831378,444.123565
4093.470845,1702.473667,-9193.145976,518.144159
4093.471169,1332.370696,-8810.098227,74.020594
4093.471493,370.102971,-8427.050478,-148.041188
4093.471817,296.082377,-8427.050478,-296.082377
4093.472142,-222.061783,-7967.393179,-814.226536
4093.472466,518.144159,-8197.221829,-666.185348
4093.472790,222.061783,-8273.831378,-814.226536
4093.473115,888.247130,-8963.317327,-962.267725
4093.473439,-296.082377,-8886.707777,-1332.370696
4093.473763,-370.102971,-8810.098227,-1110.308913
4093.474088,-1924.535449,-9193.145976,-1406.391290
4093.474412,-2072.576638,-9193.145976,-1036.288319
4093.474736,-1776.494261,-8273.831378,-666.185348
4093.475060,-1924.535449,-8810.098227,0.000000
4093.475385,-740.205942,-8503.660028,-444.123565
4093.475709,740.205942,-7890.783629,222.061783
4093.476033,2368.659014,-7890.783629,-296.082377
4093.476358,3627.009116,-7431.126331,-296.082377
4093.476682,4663.297435,-8273.831378,-370.102971
4093.477006,4515.256246,-8580.269578,0.000000
4093.477330,3923.091493,-8427.050478,-518.144159
4093.477655,2960.823768,-9269.755526,-518.144159
4093.477979,1480.411884,-8963.317327,-888.247130
4093.478303,-370.102971,-9116.536426,-592.164754
4093.478628,-1924.535449,-9193.145976,-1036.288319
4093.478952,-3404.947333,-9422.974625,-888.247130
4093.479276,-3701.029710,-8886.707777,-518.144159
4093.479601,-3330.926739,-8580.269578,-370.102971
4093.479925,-1850.514855,-8350.440928,-296.082377
4093.480249,-666.185348,-9039.926876,-370.102971
4093.480573,1554.432478,-8273.831378,296.082377
4093.480898,2368.659014,-8427.050478,0.000000
4093.481222,3330.926739,-8963.317327,-148.041188
4093.481546,2516.700203,-8503.660028,296.082377
4093.481871,3478.967927,-9193.145976,148.041188
4093.482195,1628.453072,-8580.269578,370.102971
4093.482519,1406.391290,-8886.707777,222.061783
4093.482843,222.061783,-8503.660028,-148.041188
4093.483168,0.000000,-8733.488677,-74.020594
4093.483492,0.000000,-8350.440928,-518.144159
4093.483816,296.082377,-8044.002729,-666.185348
4093.484141,370.102971,-8044.002729,-592.164754
4093.484465,370.102971,-9193.145976,-814.226536
4093.484789,222.061783,-8503.660028,-1184.329507
4093.485114,-740.205942,-8810.098227,-888.247130
4093.485438,-1110.308913,-9116.536426,-1184.329507
4093.485762,-2220.617826,-9193.145976,-444.123565
4093.486086,-2960.823768,-8733.488677,-148.041188
4093.486411,-2590.720797,-8580.269578,-370.102971
4093.486735,-1184.329507,-8350.440928,0.000000
4093.487059,222.061783,-8273.831378,74.020594
4093.487384,1924.535449,-7277.907231,-148.041188
4093.487708,3627.009116,-7814.174080,148.041188
4093.488032,4293.194464,-8120.612279,148.041188
4093.488356,4959.379811,-8503.660028,222.061783
4093.488681,4145.153275,-8427.050478,0.000000
4093.489005,3627.009116,-9039.926876,-296.082377
4093.489329,1924.535449,-9116.536426,-592.164754
4093.489654,0.000000,-9729.412825,-814.226536
4093.489978,-2294.638420,-9269.755526,-222.061783
4093.490302,-3330.926739,-8580.269578,-962.267725
4093.490627,-3923.091493,-9116.536426,-888.247130
4093.490951,-3997.112087,-8120.612279,-666.185348
4093.491275,-2146.597232,-8580.269578,-370.102971
4093.491599,-1036.288319,-7814.174080,-518.144159
4093.491924,1258.350101,-8580.269578,74.020594
4093.492248,2220.617826,-8350.440928,-222.061783
4093.492572,3182.885551,-9346.365076,0.000000
4093.492897,3404.947333,-8810.098227,0.000000
4093.493221,3478.967927,-8886.707777,296.082377
4093.493545,1480.411884,-8963.317327,296.082377
4093.493869,1258.350101,-8886.707777,148.041188
4093.494194,296.082377,-8733.488677,370.102971
4093.494518,222.061783,-8120.612279,-370.102971
4093.494842,518.144159,-8350.440928,-370.102971
4093.495167,0.000000,-8120.612279,-518.144159
4093.495491,592.164754,-8427.050478,-888.247130
4093.495815,0.000000,-8427.050478,-1406.391290
4093.496140,1036.288319,-9269.755526,-740.205942
4093.496464,-370.102971,-8273.831378,-1036.288319
4093.496788,-1036.288319,-9269.755526,-666.185348
4093.497112,-1628.453072,-8810.098227,-1480.411884
4093.497437,-1998.556043,-9039.926876,-518.144159
4093.497761,-1628.453072,-8580.269578,-666.185348
4093.498085,-1332.370696,-8044.002729,-222.061783
4093.498410,-370.102971,-8350.440928,-148.041188
4093.498734,1554.432478,-7737.564530,-370.102971
4093.499058,3108.864956,-8197.221829,-370.102971
4093.499383,3775.050304,-8197.221829,74.020594
4093.499707,4663.297435,-8273.831378,-444.123565
4093.500031,4441.235652,-9039.926876,0.000000
4093.500355,4071.132681,-8886.707777,-888.247130
4093.500680,2072.576638,-9193.145976,-222.061783
4093.501004,518.144159,-9193.145976,-962.267725
4093.501328,-1406.391290,-9039.926876,-592.164754
4093.501653,-3034.844362,-8733.488677,-1480.411884
4093.501977,-3701.029710,-9729.412825,-962.267725
4093.502301,-3701.029710,-8733.488677,-888.247130
4093.502625,-3552.988522,-8810.098227,-444.123565
4093.502950,-1998.556043,-8580.269578,-518.144159
4093.503274,0.000000,-8656.879127,222.061783
4093.503598,1332.370696,-8120.612279,-370.102971
4093.503923,2738.761985,-8886.707777,0.000000
4093.504247,3478.967927,-9193.145976,0.000000
4093.504571,3108.864956,-9193.145976,222.061783
4093.504896,2368.659014,-8427.050478,148.041188
4093.505220,1850.514855,-9193.145976,740.205942
4093.505544,592.164754,-8580.269578,148.041188
4093.505868,148.041188,-8503.660028,518.144159
4093.506193,814.226536,-8350.440928,-222.061783
4093.506517,222.061783,-8503.660028,0.000000
4093.506841,74.020594,-7967.393179,-518.144159
4093.507166,-148.041188,-9116.536426,74.020594
4093.507490,0.000000,-8120.612279,-666.185348
4093.507814,-888.247130,-8273.831378,-888.247130
4093.508138,-1036.288319,-8580.269578,-740.205942
4093.508463,-2146.597232,-8810.098227,-518.144159
4093.508787,-2294.638420,-8886.707777,-740.205942
4093.509111,-2072.576638,-8503.660028,-444.123565
4093.509436,-962.267725,-8197.221829,74.020594
4093.509760,-370.102971,-8273.831378,74.020594
4093.510084,1406.391290,-7507.735880,666.185348
4093.510409,2368.659014,-7890.783629,74.020594
4093.510733,3108.864956,-8120.612279,296.082377
4093.511057,3775.050304,-7890.783629,0.000000
4093.511381,4589.276840,-8963.317327,148.041188
4093.511706,3923.091493,-8810.098227,222.061783
4093.512030,2516.700203,-8656.879127,-592.164754
4093.512354,1184.329507,-9116.536426,-592.164754
4093.512679,-666.185348,-9193.145976,-962.267725
4093.513003,-1776.494261,-8963.317327,-370.102971
4093.513327,-3182.885551,-8963.317327,-1036.288319
4093.513651,-3627.009116,-8886.707777,-444.123565
4093.513976,-2812.782580,-8963.317327,-296.082377
4093.514300,-2220.617826,-8197.221829,-370.102971
4093.514624,0.000000,-8580.269578,0.000000
4093.514949,1036.288319,-8427.050478,-222.061783
4093.515273,2442.679609,-8580.269578,296.082377
4093.515597,3182.885551,-7737.564530,0.000000
4093.515922,2960.823768,-9116.536426,296.082377
4093.516246,2294.638420,-8656.879127,74.020594
4093.516570,2220.617826,-8810.098227,222.061783
4093.516894,1258.350101,-9116.536426,0.000000
4093.517219,592.164754,-8503.660028,-296.082377
4093.517543,296.082377,-8580.269578,-666.185348
4093.517867,-666.185348,-8503.660028,-814.226536
4093.518192,222.061783,-8427.050478,-962.267725
4093.518516,148.041188,-8350.440928,-1406.391290
4093.518840,222.061783,-8886.707777,-888.247130
4093.519165,-666.185348,-8044.002729,-1628.453072
4093.519489,-296.082377,-9729.412825,-1036.288319
4093.519813,-1480.411884,-8197.221829,-1480.411884
4093.520137,-1184.329507,-9193.145976,-592.164754
4093.520462,-1850.514855,-8503.660028,-444.123565
4093.520786,-1184.329507,-8963.317327,-444.123565
4093.521110,-148.041188,-8120.612279,0.000000
4093.521435,962.267725,-8044.002729,-444.123565
4093.521759,2220.617826,-8273.831378,-296.082377
4093.522083,3182.885551,-8044.002729,0.000000
4093.522407,3404.947333,-8503.660028,-296.082377
4093.522732,3701.029710,-9576.193725,-518.144159
4093.523056,2960.823768,-8350.440928,-296.082377
4093.523380,2442.679609,-9346.365076,-148.041188
4093.523705,814.226536,-9116.536426,-814.226536
4093.524029,-222.061783,-9652.803275,-518.144159
4093.524353,-2294.638420,-9193.145976,-814.226536
4093.524678,-3182.885551,-9576.193725,-592.164754
4093.525002,-3404.947333,-8197.221829,-1036.288319
4093.525326,-2368.659014,-8886.707777,370.102971
4093.525650,-2146.597232,-7814.174080,-296.082377
4093.525975,74.020594,-8733.488677,0.000000
4093.526299,962.267725,-7967.393179,-296.082377
4093.526623,2812.782580,-8886.707777,666.185348
4093.526948,2812.782580,-7967.393179,0.000000
4093.527272,2738.761985,-8656.879127,444.123565
4093.527596,1776.494261,-8810.098227,296.082377
4093.527920,888.247130,-8810.098227,370.102971
4093.528245,296.082377,-8886.707777,0.000000
4093.528569,-666.185348,-8273.831378,0.000000
4093.528893,222.061783,-8273.831378,0.000000
4093.529218,296.082377,-7967.393179,-444.123565
4093.529542,1036.288319,-8503.660028,-444.123565
4093.529866,1258.350101,-7967.393179,-814.226536
4093.530191,1184.329507,-8503.660028,-888.247130
4093.530515,222.061783,-8886.707777,-888.247130
4093.530839,-444.123565,-8580.269578,-740.205942
4093.531163,-1628.453072,-9269.755526,-814.226536
4093.531488,-2294.638420,-8733.488677,-444.123565
4093.531812,-2146.597232,-8350.440928,-296.082377
4093.532136,-1554.432478,-8427.050478,-592.164754
4093.532461,-740.205942,-7584.345430,-148.041188
4093.532785,148.041188,-7660.954980,0.000000
4093.533109,2220.617826,-8044.002729,0.000000
4093.533433,3404.947333,-8120.612279,74.020594
4093.533758,4663.297435,-8580.269578,-370.102971
4093.534082,4293.194464,-8273.831378,0.000000
4093.534406,3997.112087,-8963.317327,0.000000
4093.534731,2664.741391,-9039.926876,-592.164754
4093.535055,1110.308913,-9039.926876,-444.123565
4093.535379,1702.473667,-9729.412825,-370.102971
4093.535704,-1258.350101,-9193.145976,-1554.432478
4093.536028,-3404.947333,-9039.926876,-666.185348
4093.536352,-2812.782580,-8810.098227,-1184.329507
4093.536676,-3108.864956,-8656.879127,0.000000
4093.537001,-1258.350101,-8580.269578,-962.267725
4093.537325,148.041188,-8350.440928,0.000000
4093.537649,740.205942,-8733.488677,-444.123565
4093.537974,1998.556043,-8733.488677,-296.082377
4093.538298,3552.988522,-9499.584175,0.000000
4093.538622,2146.597232,-7814.174080,-148.041188
4093.538947,3849.070898,-9422.974625,0.000000
4093.539271,962.267725,-9269.755526,74.020594
4093.539595,592.164754,-9499.584175,74.020594
4093.539919,444.123565,-8427.050478,-222.061783
4093.540244,592.164754,-8886.707777,-296.082377
4093.540568,518.144159,-8273.831378,-296.082377
4093.540892,666.185348,-8197.221829,-814.226536
4093.541217,370.102971,-8886.707777,-444.123565
4093.541541,222.061783,-8427.050478,-666.185348
4093.541865,444.123565,-8580.269578,-1554.432478
4093.542189,-740.205942,-8886.707777,-814.226536
4093.542514,-666.185348,-9039.926876,-740.205942
4093.542838,-2294.638420,-8886.707777,-814.226536
4093.543162,-1036.288319,-8886.707777,-296.082377
4093.543487,-1776.494261,-8044.002729,0.000000
4093.543811,-666.185348,-8580.269578,0.000000
4093.544135,-148.041188,-8044.002729,148.041188
4093.544460,1332.370696,-8044.002729,444.123565
4093.544784,2072.576638,-7584.345430,-814.226536
4093.545108,2294.638420,-8503.660028,666.185348
4093.545432,3849.070898,-8273.831378,-444.123565
4093.545757,3627.009116,-9039.926876,-222.061783
4093.546081,3108.864956,-8580.269578,-74.020594
4093.546405,2072.576638,-9116.536426,-296.082377
4093.546730,148.041188,-9729.412825,-296.082377
4093.547054,-1110.308913,-9422.974625,-222.061783
4093.547378,-2294.638420,-8656.879127,-666.185348
4093.547702,-3182.885551,-9269.755526,-370.102971
4093.548027,-2886.803174,-8273.831378,-740.205942
4093.548351,-1998.556043,-8963.317327,74.020594
4093.548675,-1554.432478,-7584.345430,0.000000
4093.549000,0.000000,-8273.831378,148.041188
4093.549324,1628.453072,-8273.831378,296.082377
4093.549648,2294.638420,-8810.098227,592.164754
4093.549973,2738.761985,-8350.440928,444.123565
4093.550297,2664.741391,-8810.098227,518.144159
4093.550621,1998.556043,-8350.440928,222.061783
4093.550945,1924.535449,-8197.221829,370.102971
4093.551270,1184.329507,-8733.488677,0.000000
4093.551594,-370.102971,-8350.440928,74.020594
4093.551918,-148.041188,-8656.879127,-222.061783
4093.552243,-444.123565,-8427.050478,-518.144159
4093.552567,518.144159,-8273.831378,-888.247130
4093.552891,-296.082377,-8580.269578,-1480.411884
4093.553215,370.102971,-8580.269578,-962.267725
4093.553540,-814.226536,-8350.440928,-888.247130
4093.553864,-444.123565,-8810.098227,-518.144159
4093.554188,-1110.308913,-8886.707777,-740.205942
4093.554513,-1110.308913,-8886.707777,-814.226536
4093.554837,-592.164754,-8580.269578,-222.061783
4093.555161,-888.247130,-7584.345430,-296.082377
4093.555486,148.041188,-8810.098227,74.020594
4093.555810,814.226536,-7431.126331,0.000000
4093.556134,2220.617826,-8580.269578,74.020594
4093.556458,3701.029710,-7967.393179,-740.205942
4093.556783,3775.050304,-8273.831378,370.102971
4093.557107,3701.029710,-8427.050478,-888.247130
4093.557431,3701.029710,-9269.755526,-592.164754
4093.557756,2146.597232,-8810.098227,-888.247130
4093.558080,740.205942,-9193.145976,-888.247130
4093.558404,-962.267725,-9422.974625,-962.267725
4093.558729,-2664.741391,-9422.974625,-518.144159
4093.559053,-3182.885551,-9499.584175,-814.226536
4093.559377,-3330.926739,-8273.831378,-666.185348
4093.559701,-2220.617826,-9116.536426,-888.247130
4093.560026,-1702.473667,-7814.174080,-222.061783
4093.560350,74.020594,-8503.660028,0.000000
4093.560674,1480.411884,-8273.831378,-222.061783
4093.560999,3182.885551,-8733.488677,0.000000
4093.561323,3552.988522,-8503.660028,-148.041188
4093.561647,3330.926739,-9116.536426,148.041188
4093.561971,2294.638420,-8733.488677,74.020594
4093.562296,1332.370696,-10112.460574,814.226536
4093.562620,148.041188,-8733.488677,296.082377
4093.562944,0.000000,-8580.269578,0.000000
4093.563269,0.000000,-9116.536426,222.061783
4093.563593,74.020594,-7584.345430,-888.247130
4093.563917,592.164754,-8273.831378,-592.164754
4093.564242,148.041188,-8120.612279,-1184.329507
4093.564566,444.123565,-8503.660028,-814.226536
4093.564891,74.020594,-8273.831378,-1480.411884
4093.565215,-296.082377,-9499.584175,-370.102971
4093.565540,-1480.411884,-8656.879127,-592.164754
4093.565864,-1850.514855,-8886.707777,-444.123565
4093.566188,-1850.514855,-8886.707777,0.000000
4093.566513,-1480.411884,-9193.145976,0.000000
4093.566837,-444.123565,-8810.098227,0.000000
4093.567161,222.061783,-7737.564530,74.020594
4093.567486,2146.597232,-7967.393179,0.000000
4093.567810,2516.700203,-7967.393179,0.000000
4093.568134,3849.070898,-8197.221829,222.061783
4093.568458,3849.070898,-8197.221829,0.000000
4093.568783,3478.967927,-8886.707777,0.000000
4093.569107,2516.700203,-8580.269578,-296.082377
4093.569431,1332.370696,-9269.755526,-148.041188
4093.569756,0.000000,-9346.365076,-518.144159
4093.570080,-1924.535449,-8886.707777,-1036.288319
4093.570404,-2442.679609,-9499.584175,-518.144159
4093.570729,-3404.947333,-9039.926876,-222.061783
4093.571053,-2738.761985,-9116.536426,-444.123565
4093.571377,-2590.720797,-8120.612279,-444.123565
4093.571702,-444.123565,-8886.707777,0.000000
4093.572026,740.205942,-8044.002729,-148.041188
4093.572350,1998.556043,-8427.050478,-222.061783
4093.572674,2368.659014,-8503.660028,222.061783
4093.572999,2294.638420,-8503.660028,222.061783
4093.573323,2442.679609,-8886.707777,0.000000
4093.573647,1776.494261,-8886.707777,0.000000
4093.573972,1850.514855,-8886.707777,0.000000
4093.574296,740.205942,-8656.879127,-592.164754
4093.574620,296.082377,-8503.660028,-296.082377
4093.574945,518.144159,-8044.002729,-666.185348
4093.575269,592.164754,-8350.440928,-518.144159
4093.575593,666.185348,-8350.440928,-1036.288319
4093.575918,444.123565,-8503.660028,-1036.288319
4093.576242,0.000000,-8810.098227,-1332.370696
4093.576566,-1036.288319,-8427.050478,-888.247130
4093.576890,-1110.308913,-9039.926876,-1036.288319
4093.577215,-1702.473667,-8733.488677,-1184.329507
4093.577539,-1184.329507,-8656.879127,-370.102971
4093.577863,-1184.329507,-8120.612279,-592.164754
4093.578188,-666.185348,-8580.269578,-444.123565
4093.578512,518.144159,-8120.612279,-222.061783
4093.578836,1850.514855,-8044.002729,-222.061783
4093.579161,3034.844362,-8197.221829,-74.020594
4093.579485,3775.050304,-8197.221829,-222.061783
4093.579809,4071.132681,-8963.317327,0.000000
4093.580134,3627.009116,-8427.050478,-296.082377
4093.580458,2960.823768,-9116.536426,-518.144159
4093.580782,1628.453072,-8886.707777,-1036.288319
4093.581106,-518.144159,-9499.584175,-296.082377
4093.581431,-1998.556043,-9193.145976,-740.205942
4093.581755,-2960.823768,-8810.098227,-962.267725
4093.582079,-2738.761985,-7967.393179,-370.102971
4093.582404,-2738.761985,-8810.098227,-592.164754
4093.582728,-1924.535449,-8580.269578,-148.041188
4093.583052,-592.164754,-8197.221829,-148.041188
4093.583377,888.247130,-8580.269578,222.061783
4093.583701,1702.473667,-8120.612279,148.041188
4093.584025,2664.741391,-8886.707777,518.144159
4093.584350,2664.741391,-8197.221829,0.000000
4093.584674,2886.803174,-8656.879127,222.061783
4093.584998,1628.453072,-8656.879127,814.226536
4093.585322,1480.411884,-8886.707777,0.000000
4093.585647,1184.329507,-8503.660028,74.020594
4093.585971,740.205942,-8503.660028,0.000000
4093.586295,740.205942,-8427.050478,-222.061783
4093.586620,222.061783,-8273.831378,-74.020594
4093.586944,444.123565,-8427.050478,-296.082377
4093.587268,518.144159,-8197.221829,-1110.308913
4093.587593,148.041188,-8963.317327,-1184.329507
4093.587917,-1036.288319,-8120.612279,-814.226536
4093.588241,-1924.535449,-8886.707777,-740.205942
4093.588566,-2368.659014,-8656.879127,-370.102971
4093.588890,-2368.659014,-8350.440928,0.000000
4093.589214,-1702.473667,-8197.221829,-370.102971
4093.589538,-740.205942,-8503.660028,0.000000
4093.589863,370.102971,-7967.393179,0.000000
4093.590187,1702.473667,-8120.612279,148.041188
4093.590511,3034.844362,-7737.564530,0.000000
4093.590836,3330.926739,-8197.221829,-296.082377
4093.591160,3997.112087,-8656.879127,0.000000
4093.591484,3552.988522,-7814.174080,-444.123565
4093.591809,3108.864956,-9116.536426,-444.123565
4093.592133,1480.411884,-9116.536426,-888.247130
4093.592457,518.144159,-9193.145976,-592.164754
4093.592782,-1480.411884,-9499.584175,-666.185348
4093.593106,-2738.761985,-8963.317327,-740.205942
4093.593430,-2812.782580,-9806.022374,-740.205942
4093.593754,-3108.864956,-8197.221829,-592.164754
4093.594079,-1850.514855,-9193.145976,-444.123565
4093.594403,-962.267725,-8350.440928,-444.123565
4093.594727,666.185348,-8503.660028,444.123565
4093.595052,1480.411884,-8120.612279,0.000000
4093.595376,3034.844362,-8886.707777,-444.123565
4093.595700,2960.823768,-8733.488677,74.020594
4093.596025,2664.741391,-9346.365076,0.000000
4093.596349,1702.473667,-9193.145976,370.102971
4093.596673,1036.288319,-9193.145976,148.041188
4093.596998,74.020594,-9116.536426,-370.102971
4093.597322,-370.102971,-8503.660028,-148.041188
4093.597646,-888.247130,-8350.440928,-666.185348
4093.597970,-296.082377,-8273.831378,-296.082377
4093.598295,222.061783,-7890.783629,-666.185348
4093.598619,0.000000,-8120.612279,-1036.288319
4093.598943,592.164754,-8733.488677,-1332.370696
4093.599268,0.000000,-8197.221829,-1184.329507
4093.599592,-370.102971,-9039.926876,-1406.391290
4093.599916,-1110.308913,-8503.660028,-1036.288319
4093.600241,-1480.411884,-8963.317327,-222.061783
4093.600565,-1258.350101,-8810.098227,-592.164754
4093.600889,-962.267725,-8733.488677,74.020594
4093.601214,-148.041188,-8427.050478,0.000000
4093.601538,1258.350101,-8580.269578,74.020594
4093.601862,2442.679609,-7584.345430,0.000000
4093.602187,3627.009116,-8273.831378,0.000000
4093.602511,4515.256246,-7814.174080,-296.082377
4093.602835,4663.297435,-8350.440928,-444.123565
4093.603159,3701.029710,-8886.707777,-296.082377
4093.603484,2294.638420,-8886.707777,-444.123565
4093.603808,296.082377,-9422.974625,-592.164754
4093.604132,-1332.370696,-9422.974625,-666.185348
4093.604457,-2516.700203,-9422.974625,-592.164754
4093.604781,-3701.029710,-8810.098227,148.041188
4093.605105,-3552.988522,-8503.660028,-370.102971
4093.605430,-2220.617826,-8350.440928,0.000000
4093.605754,-1406.391290,-8580.269578,-222.061783
4093.606078,518.144159,-8503.660028,74.020594
4093.606403,1480.411884,-7584.345430,0.000000
4093.606727,2516.700203,-8350.440928,518.144159
4093.607051,3330.926739,-8580.269578,-222.061783
4093.607375,3330.926739,-9193.145976,888.247130
4093.607700,2146.597232,-8886.707777,518.144159
4093.608024,1332.370696,-9346.365076,-296.082377
4093.608348,0.000000,-9193.145976,-296.082377
4093.608673,0.000000,-8580.269578,0.000000
4093.608997,-1332.370696,-7507.735880,74.020594
4093.609321,0.000000,-8273.831378,-444.123565
4093.609646,444.123565,-8044.002729,-592.164754
4093.609970,444.123565,-8427.050478,-740.205942
4093.610294,74.020594,-8350.440928,-1036.288319
4093.610619,222.061783,-8656.879127,-888.247130
4093.610943,-370.102971,-8656.879127,-1184.329507
4093.611267,-1110.308913,-9269.755526,-444.123565
4093.611591,-1406.391290,-8656.879127,0.000000
4093.611916,-1036.288319,-8810.098227,370.102971
4093.612240,-518.144159,-8350.440928,-740.205942
4093.612564,0.000000,-8810.098227,148.041188
4093.612889,888.247130,-7737.564530,-370.102971
4093.613213,2368.659014,-8273.831378,148.041188
4093.613537,2368.659014,-7814.174080,-444.123565
4093.613862,2812.782580,-8886.707777,222.061783
4093.614186,3034.844362,-8120.612279,-444.123565
4093.614510,2886.803174,-9116.536426,0.000000
4093.614835,2664.741391,-8810.098227,-666.185348
4093.615159,1036.288319,-9269.755526,-740.205942
4093.615483,-518.144159,-9269.755526,-814.226536
4093.615807,-2220.617826,-8963.317327,-814.226536
4093.616132,-2220.617826,-9346.365076,-296.082377
4093.616456,-3404.947333,-8427.050478,-962.267725
4093.616780,-2368.659014,-8503.660028,-370.102971
4093.617105,-1776.494261,-7814.174080,-444.123565
4093.617429,148.041188,-7890.783629,148.041188
4093.617753,1036.288319,-7890.783629,-148.041188
4093.618078,2368.659014,-8580.269578,296.082377
4093.618402,2664.741391,-8197.221829,-148.041188
4093.618726,2442.679609,-8963.317327,370.102971
4093.619051,2664.741391,-8503.660028,0.000000
4093.619375,1702.473667,-8963.317327,148.041188
4093.619699,148.041188,-8963.317327,0.000000
4093.620023,148.041188,-9116.536426,148.041188
4093.620348,-296.082377,-8120.612279,-296.082377
4093.620672,0.000000,-8503.660028,-296.082377
4093.620996,370.102971,-8273.831378,-888.247130
4093.621321,592.164754,-8580.269578,-444.123565
4093.621645,222.061783,-8197.221829,-444.123565
4093.621969,518.144159,-8427.050478,-1036.288319
4093.622294,0.000000,-9116.536426,-1258.350101
4093.622618,-592.164754,-8733.488677,-814.226536
4093.622942,-888.247130,-9039.926876,-444.123565
4093.623267,-1554.432478,-8120.612279,-296.082377
4093.623591,-1036.288319,-8503.660028,0.000000
4093.623915,-296.082377,-8120.612279,-222.061783
4093.624239,814.226536,-8273.831378,-148.041188
4093.624564,1998.556043,-8044.002729,-148.041188
4093.624888,2738.761985,-8503.660028,0.000000
4093.625212,3552.988522,-7890.783629,-222.061783
4093.625537,3627.009116,-8503.660028,0.000000
4093.625861,2516.700203,-8120.612279,-148.041188
4093.626185,2220.617826,-8963.317327,-148.041188
4093.626510,740.205942,-9116.536426,-1332.370696
4093.626834,-296.082377,-9499.584175,-444.123565
4093.627158,-2146.597232,-8656.879127,-1184.329507
4093.627483,-2664.741391,-9346.365076,-666.185348
4093.627807,-3330.926739,-8810.098227,-888.247130
4093.628131,-2368.659014,-9193.145976,0.000000
4093.628455,-1480.411884,-8197.221829,-296.082377
4093.628780,0.000000,-9269.755526,0.000000
4093.629104,740.205942,-7660.954980,0.000000
4093.629428,2886.803174,-8044.002729,518.144159
4093.629753,2738.761985,-8656.879127,666.185348
4093.630077,2664.741391,-8580.269578,296.082377
4093.630401,2664.741391,-8733.488677,222.061783
4093.630726,962.267725,-8810.098227,74.020594
4093.631050,888.247130,-9729.412825,148.041188
4093.631374,370.102971,-8197.221829,-592.164754
4093.631699,74.020594,-8656.879127,148.041188
4093.632023,-444.123565,-7967.393179,-666.185348
4093.632347,518.144159,-8427.050478,-518.144159
4093.632671,518.144159,-8273.831378,-1036.288319
4093.632996,1036.288319,-9269.755526,-592.164754
4093.633320,222.061783,-8044.002729,-1332.370696
4093.633644,-666.185348,-9269.755526,-962.267725
4093.633969,-888.247130,-8044.002729,-814.226536
4093.634293,-1406.391290,-9269.755526,-592.164754
4093.634617,-1776.494261,-8810.098227,-740.205942
4093.634942,-1776.494261,-8810.098227,222.061783
4093.635266,-740.205942,-8350.440928,0.000000
4093.635590,-148.041188,-8120.612279,0.000000
4093.635915,1110.308913,-8197.221829,74.020594
4093.636239,3034.844362,-8044.002729,444.123565
4093.636563,3182.885551,-8197.221829,-296.082377
4093.636887,3478.967927,-8427.050478,0.000000
4093.637212,3627.009116,-8733.488677,-222.061783
4093.637536,3182.885551,-9116.536426,-444.123565
4093.637860,1702.473667,-9269.755526,-962.267725
4093.638185,444.123565,-9576.193725,-740.205942
4093.638509,-1258.350101,-9422.974625,-740.205942
4093.638833,-2886.803174,-9039.926876,-740.205942
4093.639158,-2960.823768,-9193.145976,-962.267725
4093.639482,-2960.823768,-8656.879127,-814.226536
4093.639806,-1924.535449,-8580.269578,-222.061783
4093.640131,-444.123565,-7354.516781,-592.164754
4093.640455,1480.411884,-9039.926876,148.041188
4093.640779,1628.453072,-7584.345430,-518.144159
4093.641104,3256.906145,-9193.145976,814.226536
4093.641428,2590.720797,-8350.440928,-296.082377
4093.641752,3256.906145,-9806.022374,592.164754
4093.642076,1628.453072,-7660.954980,-222.061783
4093.642401,1184.329507,-9652.803275,444.123565
4093.642725,444.123565,-8273.831378,-1036.288319
4093.643049,0.000000,-8810.098227,0.000000
4093.643374,0.000000,-7737.564530,-666.185348
4093.643698,-518.144159,-8580.269578,-518.144159
4093.644022,148.041188,-8197.221829,-592.164754
4093.644347,222.061783,-7507.735880,-666.185348
4093.644671,814.226536,-8733.488677,-1184.329507
4093.644995,-296.082377,-8350.440928,-740.205942
4093.645320,222.061783,-9116.536426,-740.205942
4093.645644,-1406.391290,-8197.221829,-1406.391290
4093.645968,-1332.370696,-9193.145976,74.020594
4093.646292,-1776.494261,-8503.660028,-592.164754
4093.646617,-888.247130,-8656.879127,148.041188
4093.646941,-592.164754,-7890.783629,0.000000
4093.647265,1036.288319,-8197.221829,222.061783
4093.647590,2146.597232,-7660.954980,-222.061783
4093.647914,3034.844362,-8120.612279,148.041188
4093.648238,4071.132681,-8044.002729,-370.102971
4093.648563,4441.235652,-8427.050478,0.000000
4093.648887,3849.070898,-9039.926876,-370.102971
4093.649211,2368.659014,-8886.707777,-444.123565
4093.649536,1554.432478,-9269.755526,-888.247130
4093.649860,-1036.288319,-9346.365076,-814.226536
4093.650184,-2368.659014,-9269.755526,-666.185348
4093.650508,-3849.070898,-8886.707777,-148.041188
4093.650833,-3552.988522,-8810.098227,-444.123565
4093.651157,-2590.720797,-8580.269578,0.000000
4093.651481,-1110.308913,-8197.221829,0.000000
4093.651806,740.205942,-8044.002729,-148.041188
4093.652130,1998.556043,-8197.221829,0.000000
4093.652454,2442.679609,-8886.707777,222.061783
4093.652779,2886.803174,-7354.516781,666.185348
4093.653103,2886.803174,-8580.269578,148.041188
4093.653427,1924.535449,-9116.536426,222.061783
4093.653752,1406.391290,-8503.660028,222.061783
4093.654076,222.061783,-9116.536426,0.000000
4093.654400,-444.123565,-8963.317327,-222.061783
4093.654724,444.123565,-8580.269578,-296.082377
4093.655049,-296.082377,-8350.440928,-962.267725
4093.655373,444.123565,-8580.269578,-888.247130
4093.655697,222.061783,-8197.221829,-814.226536
4093.656022,148.041188,-8810.098227,-1184.329507
4093.656346,-370.102971,-8656.879127,-962.267725
4093.656670,-1036.288319,-8810.098227,-962.267725
4093.656995,-666.185348,-8810.098227,-1184.329507
4093.657319,-1406.391290,-8733.488677,-444.123565
4093.657643,-1776.494261,-8810.098227,-444.123565
4093.657968,-592.164754,-8273.831378,-222.061783
4093.658292,0.000000,-7814.174080,-148.041188
4093.658616,1036.288319,-8503.660028,-148.041188
4093.658940,2072.576638,-7890.783629,0.000000
4093.659265,3182.885551,-8120.612279,74.020594
4093.659589,3404.947333,-8350.440928,-370.102971
4093.659913,4145.153275,-8120.612279,-296.082377
4093.660238,3330.926739,-9039.926876,-666.185348
4093.660562,2738.761985,-8733.488677,-1184.329507
4093.660886,1332.370696,-9116.536426,-592.164754
4093.661211,-444.123565,-9116.536426,-740.205942
4093.661535,-2220.617826,-9576.193725,-222.061783
4093.661859,-2886.803174,-9116.536426,-740.205942
4093.662184,-3108.864956,-9193.145976,-444.123565
4093.662508,-2442.679609,-8810.098227,-518.144159
4093.662832,-1850.514855,-8580.269578,0.000000
4093.663157,-296.082377,-8120.612279,-222.061783
4093.663481,740.205942,-8273.831378,-222.061783
4093.663806,2072.576638,-8810.098227,148.041188
4093.664130,2442.679609,-8580.269578,-444.123565
4093.664455,3034.844362,-8503.660028,592.164754
4093.664779,1850.514855,-8580.269578,0.000000
4093.665103,1110.308913,-8810.098227,444.123565
4093.665428,740.205942,-8886.707777,-370.102971
4093.665752,148.041188,-8810.098227,296.082377
4093.666077,444.123565,-8503.660028,-222.061783
4093.666401,592.164754,-8503.660028,-444.123565
4093.666725,888.247130,-8044.002729,-888.247130
4093.667050,592.164754,-8580.269578,-888.247130
4093.667374,592.164754,-8503.660028,-814.226536
4093.667699,74.020594,-8503.660028,-962.267725
4093.668023,-592.164754,-8810.098227,-1110.308913
4093.668348,-1554.432478,-8580.269578,-444.123565
4093.668672,-1924.535449,-8580.269578,-814.226536
4093.668996,-1924.535449,-8886.707777,-296.082377
4093.669321,-1406.391290,-8427.050478,-222.061783
4093.669645,-592.164754,-8810.098227,0.000000
4093.669970,592.164754,-7584.345430,-296.082377
4093.670294,2220.617826,-7890.783629,74.020594
4093.670618,2886.803174,-8044.002729,-148.041188
4093.670943,3478.967927,-7890.783629,-74.020594
4093.671267,3775.050304,-8350.440928,-296.082377
4093.671592,2960.823768,-8810.098227,-592.164754
4093.671916,2516.700203,-9193.145976,-518.144159
4093.672241,1036.288319,-9269.755526,-666.185348
4093.672565,0.000000,-10035.851024,-370.102971
4093.672889,-1776.494261,-9346.365076,-740.205942
4093.673214,-2590.720797,-9576.193725,-888.247130
4093.673538,-2664.741391,-8963.317327,-666.185348
4093.673863,-2664.741391,-8580.269578,-222.061783
4093.674187,-1850.514855,-8503.660028,0.000000
4093.674511,0.000000,-8273.831378,0.000000
4093.674836,888.247130,-8656.879127,0.000000
4093.675160,1554.432478,-8733.488677,222.061783
4093.675485,2294.638420,-8044.002729,0.000000
4093.675809,2368.659014,-8886.707777,888.247130
4093.676134,2738.761985,-8427.050478,0.000000
4093.676458,1776.494261,-8886.707777,814.226536
4093.676782,1184.329507,-9039.926876,-222.061783
4093.677107,666.185348,-8580.269578,0.000000
4093.677431,666.185348,-8273.831378,-888.247130
4093.677756,962.267725,-8427.050478,-222.061783
4093.678080,888.247130,-7890.783629,-740.205942
4093.678404,1110.308913,-8427.050478,-814.226536
4093.678729,666.185348,-8044.002729,-1258.350101
4093.679053,0.000000,-8886.707777,-888.247130
4093.679378,-1110.308913,-8580.269578,-1110.308913
4093.679702,-1702.473667,-9039.926876,-888.247130
4093.680027,-2294.638420,-8656.879127,-740.205942
4093.680351,-2294.638420,-9039.926876,-444.123565
4093.680675,-2442.679609,-8044.002729,-296.082377
4093.681000,-1036.288319,-8503.660028,-222.061783
4093.681324,444.123565,-7737.564530,-148.041188
4093.681649,1924.535449,-7814.174080,148.041188
4093.681973,3404.947333,-7890.783629,-444.123565
4093.682297,4293.194464,-8197.221829,74.020594
4093.682622,3997.112087,-8197.221829,-592.164754
4093.682946,3997.112087,-9039.926876,-370.102971
4093.683271,3256.906145,-9193.145976,-518.144159
4093.683595,1924.535449,-9116.536426,-518.144159
4093.683920,0.000000,-9499.584175,-740.205942
4093.684244,-2368.659014,-9422.974625,-666.185348
4093.684568,-2960.823768,-9422.974625,-370.102971
4093.684893,-3108.864956,-8656.879127,-518.144159
4093.685217,-2516.700203,-9346.365076,-222.061783
4093.685542,-1776.494261,-8503.660028,-148.041188
4093.685866,0.000000,-8120.612279,-296.082377
4093.686190,1554.432478,-8427.050478,0.000000
4093.686515,1850.514855,-8197.221829,296.082377
4093.686839,2368.659014,-8963.317327,888.247130
4093.687164,2368.659014,-8197.221829,0.000000
4093.687488,2220.617826,-9039.926876,370.102971
4093.687813,814.226536,-8503.660028,296.082377
4093.688137,370.102971,-9039.926876,222.061783
4093.688461,-148.041188,-8427.050478,148.041188
4093.688786,-296.082377,-8810.098227,-74.020594
4093.689110,0.000000,-8197.221829,-296.082377
4093.689435,518.144159,-7967.393179,-592.164754
4093.689759,1110.308913,-8044.002729,-888.247130
4093.690083,1110.308913,-8656.879127,-444.123565
4093.690408,444.123565,-8273.831378,-888.247130
4093.690732,74.020594,-8810.098227,-888.247130
4093.691057,-222.061783,-8810.098227,-1480.411884
4093.691381,-1036.288319,-9346.365076,-444.123565
4093.691706,-1776.494261,-8656.879127,-1036.288319
4093.692030,-1702.473667,-8963.317327,222.061783
4093.692354,-1554.432478,-8733.488677,444.123565
4093.692679,0.000000,-8427.050478,0.000000
4093.693003,1628.453072,-7737.564530,-296.082377
4093.693328,2812.782580,-8273.831378,222.061783
4093.693652,3330.926739,-7660.954980,-518.144159
4093.693976,4071.132681,-8733.488677,222.061783
4093.694301,3256.906145,-8197.221829,-296.082377
4093.694625,3182.885551,-8886.707777,-518.144159
4093.694950,1702.473667,-8733.488677,-814.226536
4093.695274,222.061783,-8810.098227,-148.041188
4093.695599,-1258.350101,-9116.536426,-740.205942
4093.695923,-2738.761985,-9269.755526,-666.185348
4093.696247,-2590.720797,-9039.926876,-370.102971
4093.696572,-2812.782580,-8503.660028,-148.041188
4093.696896,-1628.453072,-8886.707777,-222.061783
4093.697221,-666.185348,-8197.221829,-296.082377
4093.697545,1110.308913,-8580.269578,0.000000
4093.697869,1776.494261,-7814.174080,0.000000
4093.698194,2442.679609,-8580.269578,0.000000
4093.698518,2442.679609,-8733.488677,-148.041188
4093.698843,2146.597232,-9039.926876,518.144159
4093.699167,1332.370696,-8580.269578,222.061783
4093.699492,1258.350101,-9806.022374,592.164754
4093.699816,0.000000,-8197.221829,-296.082377
4093.700140,518.144159,-9269.755526,-296.082377
4093.700465,740.205942,-7967.393179,-740.205942
4093.700789,0.000000,-8810.098227,0.000000
4093.701114,740.205942,-7814.174080,-1036.288319
4093.701438,1036.288319,-8580.269578,-148.041188
4093.701762,740.205942,-7967.393179,-1258.350101
4093.702087,296.082377,-8580.269578,-814.226536
4093.702411,-962.267725,-8503.660028,-1110.308913
4093.702736,-1776.494261,-9269.755526,-740.205942
4093.703060,-2220.617826,-8733.488677,-518.144159
4093.703385,-1480.411884,-8733.488677,-148.041188
4093.703709,-1036.288319,-8197.221829,0.000000
4093.704033,-518.144159,-8044.002729,-296.082377
4093.704358,1110.308913,-8197.221829,296.082377
4093.704682,1998.556043,-7967.393179,-592.164754
4093.705007,2886.803174,-8120.612279,-370.102971
4093.705331,3182.885551,-7890.783629,-296.082377
4093.705655,3256.906145,-8580.269578,74.020594
4093.705980,2590.720797,-9039.926876,-740.205942
4093.706304,1776.494261,-9346.365076,-592.164754
4093.706629,296.082377,-8656.879127,-888.247130
4093.706953,-888.247130,-9576.193725,-518.144159
4093.707278,-2590.720797,-9346.365076,-1110.308913
4093.707602,-2664.741391,-9652.803275,0.000000
4093.707926,-2590.720797,-8656.879127,-814.226536
4093.708251,-1776.494261,-9039.926876,0.000000
4093.708575,-592.164754,-8120.612279,-740.205942
4093.708900,814.226536,-8503.660028,222.061783
4093.709224,1702.473667,-7814.174080,-518.144159
4093.709548,2738.761985,-8580.269578,296.082377
4093.709873,2590.720797,-8656.879127,0.000000
4093.710197,2812.782580,-8503.660028,444.123565
4093.710522,2072.576638,-8733.488677,0.000000
4093.710846,370.102971,-9193.145976,-222.061783
4093.711171,0.000000,-9269.755526,296.082377
4093.711495,-592.164754,-8427.050478,-444.123565
4093.711819,592.164754,-9039.926876,-370.102971
4093.712144,0.000000,-8503.660028,-814.226536
4093.712468,1184.329507,-8580.269578,-444.123565
4093.712793,1110.308913,-7890.783629,-888.247130
4093.713117,1258.350101,-8963.317327,-666.185348
4093.713441,740.205942,-8580.269578,-1332.370696
4093.713766,0.000000,-8963.317327,-814.226536
4093.714090,-1480.411884,-8733.488677,-1184.329507
4093.714415,-1702.473667,-8886.707777,0.000000
4093.714739,-1850.514855,-8656.879127,-296.082377
4093.715064,-1628.453072,-8886.707777,444.123565
4093.715388,-666.185348,-8503.660028,-148.041188
4093.715712,444.123565,-7890.783629,74.020594
4093.716037,2368.659014,-7507.735880,-222.061783
4093.716361,2960.823768,-8656.879127,222.061783
4093.716686,3775.050304,-8044.002729,-222.061783
4093.717010,4293.194464,-8427.050478,0.000000
4093.717334,3701.029710,-8733.488677,-444.123565
4093.717659,2516.700203,-9116.536426,-518.144159
4093.717983,888.247130,-8963.317327,-1110.308913
4093.718308,-814.226536,-9729.412825,-518.144159
4093.718632,-2368.659014,-9116.536426,-592.164754
4093.718957,-3108.864956,-9269.755526,-1036.288319
4093.719281,-2590.720797,-9422.974625,-370.102971
4093.719605,-1924.535449,-8427.050478,0.000000
4093.719930,-1406.391290,-7814.174080,-222.061783
4093.720254,0.000000,-8350.440928,0.000000
4093.720579,1628.453072,-9346.365076,0.000000
4093.720903,1776.494261,-9039.926876,0.000000
4093.721227,2368.659014,-7584.345430,-370.102971
4093.721552,3775.050304,-10112.460574,1036.288319
4093.721876,666.185348,-7507.735880,-1184.329507
4093.722201,444.123565,-10418.898773,2220.617826
4093.722525,222.061783,-8120.612279,-1702.473667
4093.722850,0.000000,-9499.584175,370.102971
4093.723174,0.000000,-7507.735880,-814.226536
4093.723498,0.000000,-9499.584175,370.102971
4093.723823,148.041188,-7814.174080,-962.267725
4093.724147,518.144159,-8273.831378,-592.164754
4093.724472,1184.329507,-8580.269578,-1184.329507
4093.724796,222.061783,-8886.707777,-1480.411884
4093.725120,-740.205942,-8886.707777,-1184.329507
4093.725445,-1702.473667,-8503.660028,-740.205942
4093.725769,-2442.679609,-8963.317327,-592.164754
4093.726094,-1850.514855,-8810.098227,-370.102971
4093.726418,-1924.535449,-8503.660028,0.000000
4093.726743,-592.164754,-8350.440928,-296.082377
4093.727067,148.041188,-8044.002729,-296.082377
4093.727391,2294.638420,-7890.783629,74.020594
4093.727716,3108.864956,-7814.174080,-592.164754
4093.728040,3182.885551,-8273.831378,296.082377
4093.728365,3552.988522,-8197.221829,-370.102971
4093.728689,3034.844362,-9193.145976,0.000000
4093.729013,1998.556043,-9269.755526,-888.247130
4093.729338,888.247130,-8963.317327,-666.185348
4093.729662,-666.185348,-9346.365076,-888.247130
4093.729987,-1924.535449,-9193.145976,-296.082377
4093.730311,-2294.638420,-8886.707777,-444.123565
4093.730636,-2368.659014,-9346.365076,-370.102971
4093.730960,-1998.556043,-8273.831378,-370.102971
4093.731284,-888.247130,-8427.050478,-444.123565
4093.731609,74.020594,-8580.269578,222.061783
4093.731933,1554.432478,-8810.098227,518.144159
4093.732258,2220.617826,-8273.831378,148.041188
4093.732582,2146.597232,-8886.707777,148.041188
4093.732906,2294.638420,-8273.831378,296.082377
4093.733231,2294.638420,-8886.707777,222.061783
4093.733555,814.226536,-8427.050478,518.144159
4093.733880,888.247130,-9193.145976,444.123565
4093.734204,0.000000,-8273.831378,-444.123565
4093.734529,0.000000,-8273.831378,-296.082377
4093.734853,592.164754,-8733.488677,0.000000
4093.735177,1036.288319,-8197.221829,-666.185348
4093.735502,814.226536,-8350.440928,-444.123565
4093.735826,592.164754,-8580.269578,-1036.288319
4093.736151,0.000000,-8656.879127,-740.205942
4093.736475,-666.185348,-8656.879127,-962.267725
4093.736799,-666.185348,-9269.755526,-962.267725
4093.737124,-1480.411884,-8733.488677,-888.247130
4093.737448,-1554.432478,-9499.584175,-296.082377
4093.737773,-1628.453072,-7660.954980,-444.123565
4093.738097,-444.123565,-8580.269578,74.020594
4093.738422,148.041188,-7737.564530,-222.061783
4093.738746,1406.391290,-7890.783629,444.123565
4093.739070,2960.823768,-7354.516781,222.061783
4093.739395,3627.009116,-8427.050478,74.020594
4093.739719,3849.070898,-7814.174080,-1258.350101
4093.740044,3997.112087,-9116.536426,-222.061783
4093.740368,2664.741391,-8733.488677,-888.247130
4093.740692,1628.453072,-9269.755526,-222.061783
4093.741017,-74.020594,-9499.584175,-888.247130
4093.741341,-1480.411884,-9422.974625,-370.102971
4093.741666,-2590.720797,-9116.536426,-1110.308913
4093.741990,-2664.741391,-9652.803275,-444.123565
4093.742315,-2664.741391,-8273.831378,-370.102971
4093.742639,-2146.597232,-8350.440928,-444.123565
4093.742963,-518.144159,-8273.831378,-592.164754
4093.743288,1036.288319,-8503.660028,592.164754
4093.743612,1924.535449,-7814.174080,-592.164754
4093.743937,2442.679609,-8733.488677,370.102971
4093.744261,2368.659014,-8273.831378,74.020594
4093.744585,2220.617826,-9422.974625,370.102971
4093.744910,1110.308913,-8120.612279,-518.144159
4093.745234,444.123565,-9193.145976,666.185348
4093.745559,-296.082377,-8197.221829,0.000000
4093.745883,74.020594,-9039.926876,-148.041188
4093.746208,296.082377,-7890.783629,-1036.288319
4093.746532,814.226536,-8733.488677,-518.144159
4093.746856,888.247130,-7890.783629,-1036.288319
4093.747181,1110.308913,-8427.050478,-740.205942
4093.747505,666.185348,-8120.612279,-888.247130
4093.747830,-222.061783,-9116.536426,-814.226536
4093.748154,-1184.329507,-8503.660028,-1258.350101
4093.748478,-1628.453072,-9499.584175,-222.061783
4093.748803,-2146.597232,-8427.050478,-666.185348
4093.749127,-1702.473667,-8886.707777,0.000000
4093.749452,-666.185348,-8044.002729,0.000000
4093.749776,148.041188,-8273.831378,74.020594
4093.750100,1480.411884,-7354.516781,-148.041188
4093.750425,3330.926739,-8044.002729,222.061783
4093.750749,3552.988522,-7890.783629,74.020594
4093.751074,3701.029710,-8273.831378,0.000000
4093.751398,3478.967927,-8656.879127,0.000000
4093.751723,2738.761985,-8810.098227,-370.102971
4093.752047,1702.473667,-9116.536426,-518.144159
4093.752371,296.082377,-9193.145976,-740.205942
4093.752696,-1036.288319,-9422.974625,-296.082377
4093.753020,-2220.617826,-8656.879127,-444.123565
4093.753345,-2590.720797,-8886.707777,-740.205942
4093.753669,-2590.720797,-8503.660028,-370.102971
4093.753993,-1776.494261,-8733.488677,0.000000
4093.754318,-962.267725,-7967.393179,0.000000
4093.754642,1036.288319,-8886.707777,0.000000
4093.754967,2146.597232,-8273.831378,-592.164754
4093.755291,2886.803174,-8963.317327,0.000000
4093.755616,2072.576638,-7967.393179,0.000000
4093.755940,1850.514855,-9193.145976,666.185348
4093.756264,1036.288319,-8120.612279,0.000000
4093.756589,1110.308913,-9116.536426,222.061783
4093.756913,222.061783,-8197.221829,222.061783
4093.757238,518.144159,-8350.440928,-296.082377
4093.757562,444.123565,-8580.269578,-888.247130
4093.757886,1258.350101,-8350.440928,-666.185348
4093.758211,888.247130,-8197.221829,-962.267725
4093.758535,962.267725,-8350.440928,-1258.350101
4093.758860,444.123565,-9039.926876,-1480.411884
4093.759184,-370.102971,-9116.536426,-1184.329507
4093.759509,-1184.329507,-8733.488677,-1036.288319
4093.759833,-1998.556043,-9422.974625,-444.123565
4093.760157,-2220.617826,-8350.440928,-444.123565
4093.760482,-1924.535449,-8733.488677,0.000000
4093.760806,-962.267725,-8503.660028,-370.102971
4093.761131,296.082377,-8273.831378,444.123565
4093.761455,1406.391290,-7737.564530,-296.082377
4093.761779,2590.720797,-9039.926876,222.061783
4093.762104,3552.988522,-8120.612279,0.000000
4093.762428,3627.009116,-8273.831378,-370.102971
4093.762753,3404.947333,-8886.707777,-666.185348
4093.763077,2516.700203,-8733.488677,-370.102971
4093.763402,1776.494261,-9193.145976,-444.123565
4093.763726,0.000000,-8503.660028,-1406.391290
4093.764050,-666.185348,-9499.584175,-296.082377
4093.764375,-2960.823768,-9039.926876,-1110.308913
4093.764699,-2812.782580,-9499.584175,-148.041188
4093.765024,-2886.803174,-8120.612279,-814.226536
4093.765348,-1776.494261,-8733.488677,296.082377
4093.765672,-666.185348,-7814.174080,-962.267725
4093.765997,962.267725,-9499.584175,666.185348
4093.766321,1702.473667,-8120.612279,-888.247130
4093.766646,2146.597232,-9039.926876,592.164754
4093.766970,1924.535449,-8197.221829,-222.061783
4093.767295,1924.535449,-9729.412825,888.247130
4093.767619,814.226536,-8656.879127,-370.102971
4093.767943,222.061783,-9346.365076,74.020594
4093.768268,148.041188,-8580.269578,0.000000
4093.768592,-370.102971,-8273.831378,222.061783
4093.768917,74.020594,-8120.612279,-74.020594
4093.769241,666.185348,-8044.002729,-296.082377
4093.769565,1554.432478,-8350.440928,-518.144159
4093.769890,814.226536,-8427.050478,-1258.350101
4093.770214,1036.288319,-8350.440928,-888.247130
4093.770539,0.000000,-8197.221829,-962.267725
4093.770863,-592.164754,-9039.926876,-1036.288319
4093.771188,-1776.494261,-8810.098227,-740.205942
4093.771512,-1924.535449,-8273.831378,0.000000
4093.771836,-1776.494261,-8503.660028,-592.164754
4093.772161,-1184.329507,-8963.317327,0.000000
4093.772485,-370.102971,-8044.002729,0.000000
4093.772810,888.247130,-8120.612279,222.061783
4093.773134,2442.679609,-8350.440928,370.102971
4093.773458,3478.967927,-8273.831378,148.041188
4093.773783,4145.153275,-8197.221829,0.000000
4093.774107,3627.009116,-8503.660028,-370.102971
4093.774432,3108.864956,-8197.221829,-370.102971
4093.774756,2368.659014,-9269.755526,-444.123565
4093.775081,592.164754,-8656.879127,-444.123565
4093.775405,-962.267725,-9882.631924,-148.041188
4093.775729,-2516.700203,-8580.269578,-740.205942
4093.776054,-2072.576638,-8963.317327,0.000000
4093.776378,-2368.659014,-8350.440928,-962.267725
4093.776703,-1702.473667,-9116.536426,-148.041188
4093.777027,-1258.350101,-8044.002729,-666.185348
4093.777351,740.205942,-8427.050478,0.000000
4093.777676,1110.308913,-7737.564530,0.000000
4093.778000,2368.659014,-9039.926876,518.144159
4093.778325,2072.576638,-8580.269578,0.000000
4093.778649,2368.659014,-9039.926876,74.020594
4093.778974,1628.453072,-9039.926876,-518.144159
4093.779298,296.082377,-9039.926876,370.102971
4093.779622,666.185348,-8810.098227,-222.061783
4093.779947,-148.041188,-8963.317327,-296.082377
4093.780271,0.000000,-8503.660028,-296.082377
4093.780596,-296.082377,-7814.174080,-370.102971
4093.780920,1110.308913,-8273.831378,-740.205942
4093.781244,888.247130,-8120.612279,-814.226536
4093.781569,814.226536,-8427.050478,-666.185348
4093.781893,296.082377,-8656.879127,-814.226536
4093.782218,0.000000,-8580.269578,-962.267725
4093.782542,-1258.350101,-9422.974625,-1184.329507
4093.782867,-1554.432478,-8197.221829,0.000000
4093.783191,-1332.370696,-8810.098227,-296.082377
4093.783515,-1924.535449,-8427.050478,-740.205942
4093.783840,-592.164754,-8580.269578,222.061783
4093.784164,1110.308913,-8350.440928,222.061783
4093.784489,2072.576638,-8044.002729,74.020594
4093.784813,2368.659014,-7660.954980,-296.082377
4093.785137,3182.885551,-8427.050478,74.020594
4093.785462,3256.906145,-8197.221829,-370.102971
4093.785786,3108.864956,-8120.612279,-222.061783
4093.786111,2146.597232,-9193.145976,-222.061783
4093.786435,1406.391290,-8886.707777,-962.267725
4093.786760,-296.082377,-9193.145976,-814.226536
4093.787084,-1036.288319,-9499.584175,0.000000
4093.787408,-2220.617826,-8656.879127,-296.082377
4093.787733,-2664.741391,-8886.707777,-148.041188
4093.788057,-1924.535449,-8120.612279,0.000000
4093.788382,-888.247130,-8427.050478,-222.061783
4093.788706,444.123565,-8350.440928,-222.061783
4093.789030,1702.473667,-8044.002729,0.000000
4093.789355,2072.576638,-8350.440928,148.041188
4093.789679,2220.617826,-8733.488677,74.020594
4093.790004,2368.659014,-9116.536426,666.185348
4093.790328,2590.720797,-9422.974625,666.185348
4093.790653,592.164754,-8810.098227,-370.102971
4093.790977,592.164754,-9269.755526,222.061783
4093.791301,-222.061783,-8503.660028,74.020594
4093.791626,740.205942,-8273.831378,0.000000
4093.791950,370.102971,-8120.612279,-518.144159
4093.792275,1036.288319,-7967.393179,-148.041188
4093.792599,1406.391290,-7890.783629,-888.247130
4093.792923,1036.288319,-7967.393179,-740.205942
4093.793248,1036.288319,-8503.660028,-888.247130
4093.793572,74.020594,-8273.831378,-1184.329507
4093.793897,-518.144159,-9576.193725,-888.247130
4093.794221,-1702.473667,-8963.317327,-592.164754
4093.794546,-1628.453072,-9346.365076,-370.102971
4093.794870,-1924.535449,-8197.221829,-518.144159
4093.795194,-296.082377,-9269.755526,-296.082377
4093.795519,222.061783,-8120.612279,-444.123565
4093.795843,1258.350101,-7967.393179,222.061783
4093.796168,2368.659014,-7814.174080,-370.102971
4093.796492,3330.926739,-8197.221829,0.000000
4093.796816,3478.967927,-8120.612279,-370.102971
4093.797141,3330.926739,-9193.145976,-1258.350101
4093.797465,2738.761985,-9346.365076,-740.205942
4093.797790,1998.556043,-9576.193725,-814.226536
4093.798114,-148.041188,-9269.755526,-962.267725
4093.798439,-1184.329507,-10342.289223,-518.144159
4093.798763,-2368.659014,-9346.365076,-592.164754
4093.799087,-2368.659014,-9269.755526,-740.205942
4093.799412,-2368.659014,-8427.050478,-444.123565
4093.799736,-1554.432478,-8656.879127,0.000000
4093.800061,-1110.308913,-7814.174080,-370.102971
4093.800385,962.267725,-8656.879127,370.102971
4093.800709,1332.370696,-8044.002729,0.000000
4093.801034,1850.514855,-9193.145976,370.102971
4093.801358,1628.453072,-8044.002729,296.082377
4093.801683,1850.514855,-9346.365076,222.061783
4093.802007,962.267725,-8886.707777,0.000000
4093.802332,222.061783,-9652.803275,0.000000
4093.802656,370.102971,-8886.707777,-518.144159
4093.802980,222.061783,-8350.440928,-296.082377
4093.803305,666.185348,-8350.440928,-518.144159
4093.803629,888.247130,-7660.954980,-518.144159
4093.803954,1406.391290,-8120.612279,-592.164754
4093.804278,814.226536,-7814.174080,-1258.350101
4093.804602,444.123565,-8580.269578,-888.247130
4093.804927,-296.082377,-8197.221829,-888.247130
4093.805251,-1110.308913,-8886.707777,-592.164754
4093.805576,-2072.576638,-8273.831378,-1554.432478
4093.805900,-1924.535449,-9499.584175,-148.041188
4093.806225,-1776.494261,-7890.783629,-370.102971
4093.806549,-1258.350101,-8810.098227,222.061783
4093.806873,0.000000,-8580.269578,-148.041188
4093.807198,1184.329507,-7890.783629,518.144159
4093.807522,3034.844362,-7660.954980,-148.041188
4093.807847,3108.864956,-7890.783629,0.000000
4093.808171,3404.947333,-7967.393179,0.000000
4093.808495,3034.844362,-8273.831378,-370.102971
4093.808820,2886.803174,-8963.317327,-296.082377
4093.809144,2072.576638,-8886.707777,-888.247130
4093.809469,666.185348,-9116.536426,-740.205942
4093.809793,-296.082377,-9269.755526,148.041188
4093.810118,-1850.514855,-9039.926876,-1184.329507
4093.810442,-1924.535449,-9116.536426,-370.102971
4093.810766,-2294.638420,-7967.393179,0.000000
4093.811091,-1480.411884,-9039.926876,0.000000
4093.811415,-444.123565,-8273.831378,-370.102971
4093.811740,962.267725,-8580.269578,222.061783
4093.812064,1702.473667,-8120.612279,-222.061783
4093.812388,2442.679609,-8810.098227,0.000000
4093.812713,2960.823768,-8197.221829,-444.123565
4093.813037,1702.473667,-9039.926876,592.164754
4093.813362,1036.288319,-8656.879127,-296.082377
4093.813686,444.123565,-9499.584175,370.102971
4093.814011,-370.102971,-8503.660028,-592.164754
4093.814335,0.000000,-8733.488677,-518.144159
4093.814659,0.000000,-8503.660028,-740.205942
4093.814984,592.164754,-8197.221829,-370.102971
4093.815308,740.205942,-7584.345430,-592.164754
4093.815633,962.267725,-8273.831378,-962.267725
4093.815957,814.226536,-8197.221829,-1258.350101
4093.816281,148.041188,-8963.317327,-1184.329507
4093.816606,-814.226536,-8656.879127,-518.144159
4093.816930,-1110.308913,-8810.098227,-814.226536
4093.817255,-2294.638420,-9269.755526,-370.102971
4093.817579,-2072.576638,-9193.145976,-370.102971
4093.817904,-1480.411884,-8580.269578,-592.164754
4093.818228,-444.123565,-9039.926876,666.185348
4093.818552,592.164754,-7967.393179,-444.123565
4093.818877,2442.679609,-7967.393179,222.061783
4093.819201,3478.967927,-8197.221829,-370.102971
4093.819526,4293.194464,-8273.831378,-370.102971
4093.819850,4293.194464,-8580.269578,-296.082377
4093.820174,2516.700203,-8886.707777,-296.082377
4093.820499,1924.535449,-8963.317327,-592.164754
4093.820823,1776.494261,-9193.145976,-148.041188
4093.821148,-2294.638420,-9499.584175,-1036.288319
4093.821472,-1480.411884,-9039.926876,-518.144159
4093.821797,-4071.132681,-8580.269578,-370.102971
4093.822121,-2812.782580,-8963.317327,148.041188
4093.822445,-1554.432478,-8044.002729,370.102971
4093.822770,-1332.370696,-8427.050478,-592.164754
4093.823094,222.061783,-8350.440928,592.164754
4093.823419,1406.391290,-8044.002729,-444.123565
4093.823743,1998.556043,-9193.145976,1036.288319
4093.824067,2368.659014,-7890.783629,-518.144159
4093.824392,2368.659014,-9346.365076,814.226536
4093.824716,1406.391290,-8733.488677,-148.041188
4093.825041,814.226536,-8733.488677,148.041188
4093.825365,518.144159,-8273.831378,444.123565
4093.825690,-592.164754,-8503.660028,0.000000
4093.826014,74.020594,-8350.440928,0.000000
4093.826338,296.082377,-7584.345430,-666.185348
4093.826663,1258.350101,-7814.174080,-370.102971
4093.826987,2072.576638,-7890.783629,-518.144159
4093.827312,444.123565,-7890.783629,-740.205942
4093.827636,592.164754,-8886.707777,-740.205942
4093.827960,-814.226536,-8197.221829,-1332.370696
4093.828285,-962.267725,-9193.145976,-518.144159
4093.828609,-1110.308913,-8503.660028,-592.164754
4093.828934,-1628.453072,-9499.584175,296.082377
4093.829258,-1480.411884,-7967.393179,-814.226536
4093.829583,370.102971,-9269.755526,592.164754
4093.829907,592.164754,-7584.345430,-444.123565
4093.830231,1628.453072,-8656.879127,370.102971
4093.830556,2664.741391,-7277.907231,-518.144159
4093.830880,3478.967927,-8810.098227,74.020594
4093.831205,3627.009116,-8427.050478,-1184.329507
4093.831529,3478.967927,-8886.707777,-296.082377
4093.831853,2590.720797,-8886.707777,-1332.370696
4093.832178,1036.288319,-9039.926876,-740.205942
4093.832502,592.164754,-9193.145976,-592.164754
4093.832827,-740.205942,-9193.145976,-592.164754
4093.833151,-2146.597232,-9193.145976,-888.247130
4093.833476,-2368.659014,-9269.755526,-740.205942
4093.833800,-1776.494261,-8350.440928,-296.082377
4093.834124,-1924.535449,-7967.393179,-518.144159
4093.834449,-148.041188,-8886.707777,0.000000
4093.834773,370.102971,-7967.393179,0.000000
4093.835098,1406.391290,-8810.098227,0.000000
4093.835422,2294.638420,-8273.831378,0.000000
4093.835746,1998.556043,-8810.098227,148.041188
4093.836071,2220.617826,-9422.974625,0.000000
4093.836395,1480.411884,-9193.145976,74.020594
4093.836720,814.226536,-9116.536426,0.000000
4093.837044,0.000000,-8963.317327,-592.164754
4093.837369,666.185348,-8580.269578,0.000000
4093.837693,444.123565,-8350.440928,-814.226536
4093.838017,888.247130,-8427.050478,-74.020594
4093.838342,592.164754,-7660.954980,-1258.350101
4093.838666,592.164754,-8197.221829,-296.082377
4093.838991,-148.041188,-7890.783629,-1554.432478
4093.839315,-592.164754,-8810.098227,-444.123565
4093.839639,-1628.453072,-8580.269578,-1110.308913
4093.839964,-1850.514855,-8580.269578,-296.082377
4093.840288,-1480.411884,-8503.660028,-666.185348
4093.840613,-1184.329507,-8810.098227,-148.041188
4093.840937,0.000000,-8810.098227,222.061783
4093.841262,0.000000,-8197.221829,148.041188
4093.841586,1184.329507,-8503.660028,0.000000
4093.841910,2590.720797,-7814.174080,0.000000
4093.842235,2960.823768,-8503.660028,0.000000
4093.842559,3552.988522,-8503.660028,0.000000
4093.842884,3034.844362,-8656.879127,-444.123565
4093.843208,2294.638420,-9039.926876,-222.061783
4093.843533,962.267725,-8810.098227,-296.082377
4093.843857,-444.123565,-8656.879127,-592.164754
4093.844181,-888.247130,-9269.755526,-518.144159
4093.844506,-2072.576638,-8580.269578,-370.102971
4093.844830,-2368.659014,-9193.145976,-518.144159
4093.845155,-2664.741391,-8656.879127,-370.102971
4093.845479,-1924.535449,-8580.269578,74.020594
4093.845803,-1480.411884,-8273.831378,0.000000
4093.846128,222.061783,-8733.488677,370.102971
4093.846452,1258.350101,-8044.002729,0.000000
4093.846777,2072.576638,-8733.488677,296.082377
4093.847101,2368.659014,-8580.269578,0.000000
4093.847426,1998.556043,-9422.974625,222.061783
4093.847750,1776.494261,-8580.269578,74.020594
4093.848074,1110.308913,-9269.755526,0.000000
4093.848399,518.144159,-9269.755526,-222.061783
4093.848723,296.082377,-8197.221829,-296.082377
4093.849048,888.247130,-8503.660028,-740.205942
4093.849372,666.185348,-7890.783629,-666.185348
4093.849696,1036.288319,-8350.440928,-444.123565
4093.850021,666.185348,-7660.954980,-740.205942
4093.850345,740.205942,-8580.269578,-740.205942
4093.850670,-592.164754,-8350.440928,-1702.473667
4093.850994,-518.144159,-9039.926876,-592.164754
4093.851319,-1036.288319,-7967.393179,-1184.329507
4093.851643,-1406.391290,-9652.803275,-222.061783
4093.851967,-1406.391290,-8503.660028,-1036.288319
4093.852292,-1184.329507,-9729.412825,888.247130
4093.852616,0.000000,-8656.879127,-666.185348
4093.852941,1110.308913,-8656.879127,148.041188
4093.853265,2516.700203,-7967.393179,-370.102971
4093.853589,3404.947333,-8963.317327,74.020594
4093.853914,3330.926739,-7814.174080,-1036.288319
4093.854238,2664.741391,-8963.317327,-370.102971
4093.854563,2738.761985,-8656.879127,-740.205942
4093.854887,1554.432478,-9346.365076,-740.205942
4093.855212,0.000000,-9269.755526,-888.247130
4093.855536,-740.205942,-9193.145976,-666.185348
4093.855860,-1924.535449,-8810.098227,-1036.288319
4093.856185,-1924.535449,-9116.536426,-592.164754
4093.856509,-2516.700203,-8120.612279,0.000000
4093.856834,-1702.473667,-8733.488677,74.020594
4093.857158,-1258.350101,-7890.783629,-296.082377
4093.857482,592.164754,-8503.660028,222.061783
4093.857807,1776.494261,-8044.002729,-444.123565
4093.858131,2516.700203,-8427.050478,148.041188
4093.858456,2368.659014,-8273.831378,0.000000
4093.858780,2294.638420,-8963.317327,0.000000
4093.859105,1110.308913,-9193.145976,0.000000
4093.859429,1406.391290,-9346.365076,-148.041188
4093.859753,148.041188,-9346.365076,-370.102971
4093.860078,-444.123565,-8427.050478,-222.061783
4093.860402,222.061783,-8273.831378,-148.041188
4093.860727,888.247130,-8733.488677,0.000000
4093.861051,1332.370696,-8273.831378,-370.102971
4093.861375,814.226536,-7814.174080,-962.267725
4093.861700,1036.288319,-8273.831378,-222.061783
4093.862024,-148.041188,-8197.221829,-888.247130
4093.862349,-148.041188,-8580.269578,-444.123565
4093.862673,-1776.494261,-8580.269578,-666.185348
4093.862998,-1628.453072,-9039.926876,-148.041188
4093.863322,-1850.514855,-8350.440928,0.000000
4093.863646,-1110.308913,-8656.879127,222.061783
4093.863971,-370.102971,-8273.831378,-148.041188
4093.864295,296.082377,-8197.221829,74.020594
4093.864620,1924.535449,-8350.440928,-222.061783
4093.864944,3256.906145,-8427.050478,-370.102971
4093.865268,3478.967927,-8197.221829,-148.041188
4093.865593,2812.782580,-8350.440928,-370.102971
4093.865917,2368.659014,-8656.879127,-592.164754
4093.866242,2072.576638,-8656.879127,-592.164754
4093.866566,814.226536,-9422.974625,-296.082377
4093.866890,-222.061783,-9346.365076,-370.102971
4093.867215,-1850.514855,-8810.098227,-518.144159
4093.867539,-2294.638420,-9193.145976,-444.123565
4093.867864,-2664.741391,-8580.269578,-518.144159
4093.868188,-2072.576638,-8886.707777,222.061783
4093.868512,-1554.432478,-7890.783629,-370.102971
4093.868837,0.000000,-8503.660028,296.082377
4093.869161,1110.308913,-8120.612279,-666.185348
4093.869486,2590.720797,-9116.536426,222.061783
4093.869810,2590.720797,-8733.488677,-444.123565
4093.870134,2368.659014,-8963.317327,222.061783
4093.870459,2368.659014,-9346.365076,74.020594
4093.870783,1184.329507,-8656.879127,0.000000
4093.871108,1480.411884,-9346.365076,148.041188
4093.871432,-222.061783,-8044.002729,-518.144159
4093.871756,148.041188,-9116.536426,148.041188
4093.872081,0.000000,-7201.297681,-518.144159
4093.872405,74.020594,-8733.488677,0.000000
4093.872730,222.061783,-8120.612279,-1036.288319
4093.873054,296.082377,-8350.440928,-888.247130
4093.873378,-222.061783,-8733.488677,-592.164754
4093.873703,0.000000,-9116.536426,-1110.308913
4093.874027,-888.247130,-8733.488677,-888.247130
4093.874351,-1554.432478,-9116.536426,-740.205942
4093.874676,-1036.288319,-8427.050478,-444.123565
4093.875000,-740.205942,-8503.660028,-518.144159
4093.875325,296.082377,-8503.660028,-370.102971
4093.875649,592.164754,-7507.735880,0.000000
4093.875973,1184.329507,-7660.954980,-592.164754
4093.876298,2590.720797,-8427.050478,-222.061783
4093.876622,3034.844362,-8580.269578,-814.226536
4093.876947,3404.947333,-8810.098227,-592.164754
4093.877271,2294.638420,-8886.707777,-740.205942
4093.877595,2442.679609,-8656.879127,-888.247130
4093.877920,1184.329507,-9116.536426,-518.144159
4093.878244,296.082377,-8503.660028,-592.164754
4093.878569,-518.144159,-9729.412825,-296.082377
4093.878893,-1184.329507,-8656.879127,-666.185348
4093.879217,-2220.617826,-9193.145976,-444.123565
4093.879542,-2516.700203,-7660.954980,0.000000
4093.879866,-2368.659014,-8503.660028,74.020594
4093.880191,-666.185348,-8427.050478,-666.185348
4093.880515,1702.473667,-8733.488677,0.000000
4093.880839,962.267725,-8350.440928,222.061783
4093.881164,2960.823768,-8810.098227,-370.102971
4093.881488,1702.473667,-8886.707777,888.247130
4093.881813,1998.556043,-9039.926876,-518.144159
4093.882137,3775.050304,-9499.584175,-1332.370696
4093.882461,1850.514855,-10112.460574,0.000000
4093.882786,-4145.153275,-8044.002729,740.205942
4093.883110,-1924.535449,-6971.469032,888.247130
4093.883434,1628.453072,-8120.612279,-1258.350101
4093.883759,1998.556043,-10189.070123,-1776.494261
4093.884083,-1924.535449,-3907.087040,-1850.514855
4093.884408,0.000000,-9499.584175,-444.123565
4093.884732,3034.844362,-5286.058936,-2886.803174
4093.885056,1110.308913,-9346.365076,814.226536
4093.885381,-1036.288319,-6281.983084,1702.473667
4093.885705,-666.185348,-9806.022374,-814.226536
4093.886030,-2516.700203,-11338.213370,1332.370696
4093.886354,-1702.473667,-9193.145976,1628.453072
4093.886678,-2664.741391,-9116.536426,1998.556043
4093.887003,-2220.617826,-11721.261119,0.000000
4093.887327,0.000000,-8810.098227,0.000000
4093.887652,370.102971,-8886.707777,370.102971
4093.887976,1554.432478,-6588.421283,-1184.329507
4093.888300,3330.926739,-8963.317327,444.123565
4093.888625,3997.112087,-6818.249932,-1850.514855
4093.888949,3923.091493,-9269.755526,-888.247130
4093.889274,2590.720797,-7431.126331,-1776.494261
4093.889598,1554.432478,-10035.851024,370.102971
4093.889922,0.000000,-6818.249932,-962.267725
4093.890247,-740.205942,-9499.584175,0.000000
4093.890571,-2368.659014,-8350.440928,-1924.535449
4093.890896,-1110.308913,-8273.831378,-740.205942
4093.891220,-962.267725,-7354.516781,-1554.432478
4093.891544,-592.164754,-8656.879127,-296.082377
4093.891869,296.082377,-6665.030833,148.041188
4093.892193,1480.411884,-7431.126331,888.247130
4093.892517,2442.679609,-7737.564530,-370.102971
4093.892842,1850.514855,-7814.174080,-370.102971
4093.893166,2072.576638,-9576.193725,-370.102971
4093.893491,-296.082377,-9576.193725,592.164754
4093.893815,-1184.329507,-10801.946522,518.144159
4093.894139,-1480.411884,-10035.851024,-666.185348
4093.894464,-296.082377,-9882.631924,814.226536
4093.894788,-1110.308913,-8733.488677,-1184.329507
4093.895113,-296.082377,-9116.536426,0.000000
4093.895437,666.185348,-8120.612279,-666.185348
4093.895761,888.247130,-8273.831378,-814.226536
4093.896086,1850.514855,-7584.345430,-2516.700203
4093.896410,592.164754,-8197.221829,148.041188
4093.896735,222.061783,-8120.612279,-222.061783
4093.897059,148.041188,-8580.269578,-518.144159
4093.897383,-518.144159,-9576.193725,-666.185348
4093.897708,-148.041188,-9346.365076,-222.061783
4093.898032,0.000000,-9116.536426,-518.144159
4093.898357,296.082377,-8580.269578,222.061783
4093.898681,1776.494261,-8273.831378,592.164754
4093.899005,2368.659014,-8120.612279,-370.102971
4093.899330,3775.050304,-8503.660028,-740.205942
4093.899654,4293.194464,-8120.612279,-666.185348
4093.899979,3627.009116,-8580.269578,-1036.288319
4093.900303,2368.659014,-8886.707777,-592.164754
4093.900627,1776.494261,-9499.584175,0.000000
4093.900952,0.000000,-9193.145976,-1110.308913
4093.901276,-1184.329507,-9729.412825,-444.123565
4093.901600,-2146.597232,-8886.707777,-592.164754
4093.901925,-2738.761985,-9729.412825,-222.061783
4093.902249,-2738.761985,-8733.488677,-740.205942
4093.902574,-1998.556043,-8810.098227,222.061783
4093.902898,-962.267725,-7814.174080,-370.102971
4093.903222,444.123565,-8273.831378,74.020594
4093.903547,1110.308913,-7737.564530,0.000000
4093.903871,1776.494261,-8503.660028,518.144159
4093.904196,2072.576638,-7660.954980,148.041188
4093.904520,1850.514855,-8810.098227,962.267725
4093.904844,962.267725,-8503.660028,444.123565
4093.905169,74.020594,-9193.145976,222.061783
4093.905493,-518.144159,-8656.879127,-296.082377
4093.905818,-296.082377,-9193.145976,-518.144159
4093.906142,74.020594,-8350.440928,-1258.350101
4093.906466,74.020594,-8963.317327,-592.164754
4093.906791,444.123565,-7967.393179,-370.102971
4093.907115,888.247130,-8427.050478,-592.164754
4093.907440,1184.329507,-8350.440928,0.000000
4093.907764,518.144159,-8503.660028,-444.123565
4093.908088,222.061783,-8580.269578,0.000000
4093.908413,-666.185348,-8580.269578,-666.185348
4093.908737,-740.205942,-8733.488677,444.123565
4093.909062,-740.205942,-8120.612279,-444.123565
4093.909386,-962.267725,-8503.660028,148.041188
4093.909710,-666.185348,-8350.440928,74.020594
4093.910035,296.082377,-8044.002729,148.041188
4093.910359,1406.391290,-7354.516781,148.041188
4093.910683,1998.556043,-8197.221829,0.000000
4093.911008,2886.803174,-8733.488677,0.000000
4093.911332,2812.782580,-8273.831378,-518.144159
4093.911657,2442.679609,-8810.098227,-592.164754
4093.911981,1480.411884,-8733.488677,-740.205942
4093.912305,296.082377,-9193.145976,-888.247130
4093.912630,-666.185348,-9422.974625,-814.226536
4093.912954,-2146.597232,-9193.145976,-1258.350101
4093.913279,-2220.617826,-9039.926876,-1110.308913
4093.913603,-2738.761985,-8733.488677,-518.144159
4093.913927,-2294.638420,-8733.488677,-370.102971
4093.914252,-1554.432478,-8810.098227,-444.123565
4093.914576,444.123565,-8580.269578,-148.041188
4093.914901,1406.391290,-8120.612279,-148.041188
4093.915225,2590.720797,-8503.660028,0.000000
4093.915549,2664.741391,-8733.488677,0.000000
4093.915874,2738.761985,-8503.660028,0.000000
4093.916198,2072.576638,-9039.926876,0.000000
4093.916523,962.267725,-8350.440928,0.000000
4093.916847,296.082377,-9039.926876,-444.123565
4093.917171,0.000000,-8427.050478,-296.082377
4093.917496,148.041188,-8656.879127,-370.102971
4093.917820,0.000000,-8120.612279,-888.247130
4093.918145,1332.370696,-8503.660028,-592.164754
4093.918469,1036.288319,-8350.440928,-1258.350101
4093.918793,1554.432478,-8197.221829,-1110.308913
4093.919118,814.226536,-8733.488677,-1036.288319
4093.919442,0.000000,-9116.536426,-962.267725
4093.919766,-1184.329507,-9116.536426,-1110.308913
4093.920091,-1110.308913,-8580.269578,-592.164754
4093.920415,-814.226536,-9039.926876,-592.164754
4093.920740,-814.226536,-8810.098227,0.000000
4093.921064,-370.102971,-8733.488677,-296.082377
4093.921388,370.102971,-8273.831378,-370.102971
4093.921713,2072.576638,-8273.831378,0.000000
4093.922037,3256.906145,-7890.783629,148.041188
4093.922362,3627.009116,-8350.440928,74.020594
4093.922686,3330.926739,-8733.488677,0.000000
4093.923010,2664.741391,-8733.488677,-814.226536
4093.923335,1924.535449,-8886.707777,-814.226536
4093.923659,1258.350101,-9346.365076,-814.226536
4093.923984,-518.144159,-9422.974625,-370.102971
4093.924308,-1554.432478,-8656.879127,-370.102971
4093.924632,-2590.720797,-9269.755526,-592.164754
4093.924957,-2368.659014,-8963.317327,-222.061783
4093.925281,-1554.432478,-8273.831378,-222.061783
4093.925606,-592.164754,-8810.098227,148.041188
4093.925930,296.082377,-7890.783629,296.082377
4093.926254,1924.535449,-8427.050478,296.082377
4093.926579,2146.597232,-8120.612279,370.102971
4093.926903,2516.700203,-8580.269578,518.144159
4093.927228,2368.659014,-9039.926876,0.000000
4093.927552,1702.473667,-9039.926876,222.061783
4093.927876,148.041188,-8503.660028,0.000000
4093.928201,-296.082377,-8656.879127,222.061783
4093.928525,-666.185348,-8197.221829,148.041188
4093.928849,-518.144159,-8197.221829,-222.061783
4093.929174,-148.041188,-7814.174080,-370.102971
4093.929498,592.164754,-8120.612279,-666.185348
4093.929823,962.267725,-8656.879127,-962.267725
4093.930147,370.102971,-8197.221829,-814.226536
4093.930471,444.123565,-8503.660028,-962.267725
4093.930796,-518.144159,-8810.098227,-814.226536
4093.931120,-1332.370696,-9039.926876,-518.144159
4093.931445,-1776.494261,-8733.488677,-370.102971
4093.931769,-1776.494261,-9039.926876,0.000000
4093.932093,-1924.535449,-8503.660028,0.000000
4093.932418,-962.267725,-8733.488677,222.061783
4093.932742,148.041188,-8044.002729,0.000000
4093.933067,1332.370696,-7967.393179,-296.082377
4093.933391,2590.720797,-8120.612279,74.020594
4093.933715,3478.967927,-8273.831378,-296.082377
4093.934040,3849.070898,-8580.269578,-740.205942
4093.934364,3330.926739,-8810.098227,-222.061783
4093.934689,2960.823768,-9193.145976,-444.123565
4093.935013,1776.494261,-9576.193725,-666.185348
4093.935337,74.020594,-9116.536426,-592.164754
4093.935662,-666.185348,-10112.460574,-666.185348
4093.935986,-2072.576638,-8656.879127,-888.247130
4093.936311,-2146.597232,-9499.584175,-518.144159
4093.936635,-1628.453072,-8580.269578,-518.144159
4093.936959,-1258.350101,-8120.612279,-296.082377
4093.937284,-592.164754,-8273.831378,-666.185348
4093.937608,962.267725,-8503.660028,-444.123565
4093.937932,1850.514855,-7737.564530,-592.164754
4093.938257,2220.617826,-8886.707777,-74.020594
4093.938581,2146.597232,-9039.926876,-296.082377
4093.938906,1850.514855,-9039.926876,-74.020594
4093.939230,962.267725,-8427.050478,-222.061783
4093.939554,0.000000,-8886.707777,0.000000
4093.939879,-444.123565,-8197.221829,-222.061783
4093.940203,-592.164754,-8656.879127,0.000000
4093.940528,0.000000,-8044.002729,-518.144159
4093.940852,444.123565,-8120.612279,-592.164754
4093.941176,1258.350101,-8197.221829,-962.267725
4093.941501,1110.308913,-7814.174080,-888.247130
4093.941825,1036.288319,-8733.488677,-814.226536
4093.942150,148.041188,-8503.660028,-962.267725
4093.942474,-370.102971,-8963.317327,-592.164754
4093.942798,-962.267725,-8886.707777,-962.267725
4093.943123,-888.247130,-9039.926876,-370.102971
4093.943447,-1036.288319,-8733.488677,-444.123565
4093.943772,-666.185348,-8963.317327,148.041188
4093.944096,-296.082377,-7890.783629,148.041188
4093.944420,592.164754,-8120.612279,296.082377
4093.944745,2072.576638,-8197.221829,0.000000
4093.945069,3108.864956,-7737.564530,-296.082377
4093.945393,3552.988522,-8120.612279,0.000000
4093.945718,3627.009116,-8503.660028,148.041188
4093.946042,2960.823768,-9039.926876,-592.164754
4093.946367,1628.453072,-9039.926876,-296.082377
4093.946691,666.185348,-9193.145976,-888.247130
4093.947015,-444.123565,-9652.803275,74.020594
4093.947340,-1998.556043,-8810.098227,-518.144159
4093.947664,-2368.659014,-9116.536426,-370.102971
4093.947989,-2590.720797,-8733.488677,-222.061783
4093.948313,-1924.535449,-9499.584175,0.000000
4093.948637,-1036.288319,-8197.221829,0.000000
4093.948962,222.061783,-8580.269578,222.061783
4093.949286,1184.329507,-8273.831378,-370.102971
4093.949611,2146.597232,-8656.879127,0.000000
4093.949935,2072.576638,-8656.879127,0.000000
4093.950259,2072.576638,-8886.707777,370.102971
4093.950584,1406.391290,-8656.879127,0.000000
