#time,accel_x,accel_y,accel_z
5568.942717,370.102971,-8810.098227,-296.082377
5568.943042,740.205942,-8197.221829,-518.144159
5568.943366,370.102971,-8427.050478,0.000000
5568.943690,370.102971,-8656.879127,-370.102971
5568.944015,444.123565,-8733.488677,-444.123565
5568.944339,370.102971,-8886.707777,-592.164754
5568.944664,814.226536,-7967.393179,-296.082377
5568.944988,518.144159,-8197.221829,-444.123565
5568.945313,592.164754,-8810.098227,-370.102971
5568.945637,296.082377,-8580.269578,-148.041188
5568.945961,518.144159,-8810.098227,-666.185348
5568.946286,518.144159,-8580.269578,-592.164754
5568.946610,592.164754,-8273.831378,-296.082377
5568.946935,296.082377,-8733.488677,-370.102971
5568.947259,592.164754,-8503.660028,-518.144159
5568.947584,296.082377,-9193.145976,-666.185348
5568.947908,444.123565,-8580.269578,-444.123565
5568.948232,222.061783,-8580.269578,0.000000
5568.948557,370.102971,-8733.488677,-74.020594
5568.948881,518.144159,-8656.879127,0.000000
5568.949206,518.144159,-8427.050478,-444.123565
5568.949530,74.020594,-8886.707777,-296.082377
5568.949855,592.164754,-8810.098227,-296.082377
5568.950179,592.164754,-8886.707777,-222.061783
5568.950503,296.082377,-8350.440928,-518.144159
5568.950828,296.082377,-8427.050478,-222.061783
5568.951152,444.123565,-8580.269578,-148.041188
5568.951477,222.061783,-8656.879127,-222.061783
5568.951801,518.144159,-9422.974625,148.041188
5568.952126,296.082377,-8580.269578,-222.061783
5568.952450,74.020594,-8580.269578,-222.061783
5568.952774,296.082377,-8197.221829,-148.041188
5568.953099,444.123565,-8503.660028,-296.082377
5568.953423,148.041188,-8580.269578,-222.061783
5568.953748,222.061783,-8580.269578,0.000000
5568.954072,370.102971,-8810.098227,-444.123565
5568.954396,444.123565,-8580.269578,-444.123565
5568.954721,370.102971,-9116.536426,148.041188
5568.955045,148.041188,-8273.831378,0.000000
5568.955370,444.123565,-8810.098227,-296.082377
5568.955694,666.185348,-8273.831378,-296.082377
5568.956019,74.020594,-8350.440928,0.000000
5568.956343,222.061783,-8656.879127,-444.123565
5568.956667,518.144159,-8503.660028,0.000000
5568.956992,814.226536,-8580.269578,-592.164754
5568.957316,666.185348,-8810.098227,-518.144159
5568.957641,74.020594,-8273.831378,-296.082377
5568.957965,370.102971,-8350.440928,-296.082377
5568.958290,222.061783,-8580.269578,-222.061783
5568.958614,592.164754,-8427.050478,-370.102971
5568.958938,74.020594,-8580.269578,-740.205942
5568.959263,296.082377,-8733.488677,-296.082377
5568.959587,444.123565,-8580.269578,-296.082377
5568.959912,296.082377,-8886.707777,-518.144159
5568.960236,444.123565,-9039.926876,-740.205942
5568.960561,222.061783,-8273.831378,-222.061783
5568.960885,444.123565,-8733.488677,-444.123565
5568.961209,222.061783,-8656.879127,-592.164754
5568.961534,296.082377,-8810.098227,-296.082377
5568.961858,740.205942,-8580.269578,-518.144159
5568.962183,296.082377,-8733.488677,0.000000
5568.962507,592.164754,-8580.269578,-370.102971
5568.962832,296.082377,-8580.269578,-296.082377
5568.963156,222.061783,-9193.145976,148.041188
5568.963480,296.082377,-8656.879127,-370.102971
5568.963805,444.123565,-8503.660028,-222.061783
5568.964129,-444.123565,-8427.050478,-814.226536
5568.964454,-740.205942,-9346.365076,-148.041188
5568.964778,-1554.432478,-7967.393179,-666.185348
5568.965103,-2072.576638,-9039.926876,-222.061783
5568.965427,-1924.535449,-8273.831378,-592.164754
5568.965751,-2146.597232,-9039.926876,0.000000
5568.966076,-1406.391290,-8503.660028,-962.267725
5568.966400,-1184.329507,-8656.879127,-296.082377
5568.966725,-888.247130,-8427.050478,-592.164754
5568.967049,-1332.370696,-8810.098227,-370.102971
5568.967374,-1850.514855,-8656.879127,0.000000
5568.967698,-2294.638420,-8963.317327,-444.123565
5568.968022,-2590.720797,-8656.879127,-370.102971
5568.968347,-3478.967927,-8733.488677,-518.144159
5568.968671,-3701.029710,-9039.926876,74.020594
5568.968996,-3552.988522,-8273.831378,-370.102971
5568.969320,-2738.761985,-8886.707777,-592.164754
5568.969645,-2368.659014,-8503.660028,-518.144159
5568.969969,-2072.576638,-8580.269578,-222.061783
5568.970293,-1850.514855,-8580.269578,-222.061783
5568.970618,-2072.576638,-8963.317327,-222.061783
5568.970942,-2368.659014,-8886.707777,-222.061783
5568.971267,-2886.803174,-9039.926876,-444.123565
5568.971591,-3701.029710,-9576.193725,222.061783
5568.971916,-3404.947333,-8656.879127,-296.082377
5568.972240,-3701.029710,-9116.536426,0.000000
5568.972564,-3256.906145,-8810.098227,-370.102971
5568.972889,-2738.761985,-9039.926876,-222.061783
5568.973213,-2516.700203,-8273.831378,-444.123565
5568.973538,-1850.514855,-8427.050478,-296.082377
5568.973862,-1628.453072,-8580.269578,-370.102971
5568.974187,-1332.370696,-8273.831378,0.000000
5568.974511,-962.267725,-8733.488677,-296.082377
5568.974835,-1850.514855,-8886.707777,0.000000
5568.975160,-2442.679609,-8656.879127,-222.061783
5568.975484,-2590.720797,-8810.098227,0.000000
5568.975809,-2368.659014,-9422.974625,0.000000
5568.976133,-2960.823768,-8580.269578,-148.041188
5568.976457,-2368.659014,-8503.660028,-370.102971
5568.976782,-1850.514855,-8350.440928,-592.164754
5568.977106,-1998.556043,-8197.221829,-740.205942
5568.977431,-962.267725,-8427.050478,-592.164754
5568.977755,-1258.350101,-7737.564530,-370.102971
5568.978080,-1850.514855,-8273.831378,-592.164754
5568.978404,-1924.535449,-8120.612279,-444.123565
5568.978728,-1998.556043,-8427.050478,-370.102971
5568.979053,-2146.597232,-8197.221829,-222.061783
5568.979377,-2072.576638,-8273.831378,-518.144159
5568.979702,-1628.453072,-8350.440928,-444.123565
5568.980026,-1110.308913,-8810.098227,-296.082377
5568.980351,0.000000,-8580.269578,-592.164754
5568.980675,0.000000,-8503.660028,-740.205942
5568.980999,148.041188,-8427.050478,-740.205942
5568.981324,444.123565,-8044.002729,-592.164754
5568.981648,222.061783,-8886.707777,-370.102971
5568.981973,592.164754,-8580.269578,-666.185348
5568.982297,592.164754,-8580.269578,-444.123565
5568.982622,518.144159,-8810.098227,-222.061783
5568.982946,740.205942,-9422.974625,74.020594
5568.983270,1184.329507,-9422.974625,-814.226536
5568.983595,888.247130,-9269.755526,-592.164754
5568.983919,592.164754,-8733.488677,-1036.288319
5568.984244,222.061783,-9806.022374,-370.102971
5568.984568,-296.082377,-8427.050478,-1184.329507
5568.984893,-1776.494261,-9422.974625,0.000000
5568.985217,-1850.514855,-8733.488677,-888.247130
5568.985541,-2886.803174,-9116.536426,-222.061783
5568.985866,-2664.741391,-8273.831378,-666.185348
5568.986190,-3330.926739,-8580.269578,-148.041188
5568.986515,-2442.679609,-8580.269578,-592.164754
5568.986839,-2368.659014,-8656.879127,-592.164754
5568.987164,74.020594,-8733.488677,74.020594
5568.987488,-1184.329507,-8886.707777,-1110.308913
5568.987812,-1554.432478,-8427.050478,-740.205942
5568.988137,-2220.617826,-9116.536426,222.061783
5568.988461,-1924.535449,-8350.440928,-1184.329507
5568.988786,-2442.679609,-8810.098227,0.000000
5568.989110,-1702.473667,-8810.098227,-222.061783
5568.989435,-2220.617826,-8886.707777,-222.061783
5568.989759,-2220.617826,-7967.393179,0.000000
5568.990083,-666.185348,-9039.926876,-370.102971
5568.990408,0.000000,-8503.660028,-222.061783
5568.990732,148.041188,-8273.831378,-962.267725
5568.991057,148.041188,-9039.926876,-370.102971
5568.991381,-740.205942,-8197.221829,-666.185348
5568.991706,-1702.473667,-9116.536426,-148.041188
5568.992030,-3256.906145,-8963.317327,-518.144159
5568.992354,-4515.256246,-8503.660028,296.082377
5568.992679,-4663.297435,-8810.098227,-222.061783
5568.993003,-5033.400406,-9039.926876,0.000000
5568.993328,-4145.153275,-8350.440928,888.247130
5568.993652,-3330.926739,-7967.393179,0.000000
5568.993977,-1628.453072,-8656.879127,148.041188
5568.994301,-962.267725,-7890.783629,-444.123565
5568.994625,0.000000,-9346.365076,592.164754
5568.994950,222.061783,-7431.126331,-518.144159
5568.995274,-518.144159,-9576.193725,888.247130
5568.995599,-1258.350101,-9116.536426,370.102971
5568.995923,-1998.556043,-9499.584175,148.041188
5568.996248,-3849.070898,-9499.584175,74.020594
5568.996572,-5921.647536,-9116.536426,-444.123565
5568.996896,-6143.709319,-9116.536426,-222.061783
5568.997221,-5625.565159,-8656.879127,-444.123565
5568.997545,-4515.256246,-8120.612279,-370.102971
5568.997870,-1924.535449,-7814.174080,-740.205942
5568.998194,-370.102971,-7584.345430,-518.144159
5568.998518,1628.453072,-7048.078582,-370.102971
5568.998843,2664.741391,-7737.564530,0.000000
5568.999167,3256.906145,-7890.783629,-296.082377
5568.999492,3256.906145,-7354.516781,-148.041188
5568.999816,2442.679609,-8810.098227,296.082377
5569.000141,1702.473667,-9193.145976,-666.185348
5569.000465,-962.267725,-9346.365076,-814.226536
5569.000789,-2738.761985,-9422.974625,-1332.370696
5569.001114,-4737.318029,-9422.974625,-1924.535449
5569.001438,-5625.565159,-9269.755526,-1850.514855
5569.001763,-5477.523971,-8273.831378,-1480.411884
5569.002087,-4145.153275,-7431.126331,-1184.329507
5569.002412,-2072.576638,-7890.783629,-1332.370696
5569.002736,1332.370696,-7584.345430,-518.144159
5569.003061,3108.864956,-8120.612279,-518.144159
5569.003385,4145.153275,-7890.783629,-518.144159
5569.003709,4959.379811,-9576.193725,148.041188
5569.004034,3108.864956,-9652.803275,-962.267725
5569.004358,1406.391290,-10342.289223,-666.185348
5569.004683,-2516.700203,-9729.412825,-1332.370696
5569.005007,-6069.688724,-10342.289223,-222.061783
5569.005332,-6661.853478,-8810.098227,-1406.391290
5569.005656,-7105.977043,-8733.488677,-666.185348
5569.005981,-5847.626942,-8273.831378,-592.164754
5569.006305,-1924.535449,-6971.469032,-962.267725
5569.006629,1998.556043,-7354.516781,-962.267725
5569.006954,4219.173869,-6588.421283,-962.267725
5569.007278,7920.203579,-7660.954980,-666.185348
5569.007603,7846.182985,-8733.488677,-592.164754
5569.007927,5403.503377,-9729.412825,-444.123565
5569.008252,1184.329507,-10418.898773,-1184.329507
5569.008576,-4219.173869,-11568.042020,-1628.453072
5569.008901,-9622.677246,-11797.870669,-1406.391290
5569.009225,-11991.336260,-11108.384721,-962.267725
5569.009550,-13471.748144,-9116.536426,-370.102971
5569.009874,-9992.780217,-9116.536426,0.000000
5569.010198,-4441.235652,-6665.030833,-592.164754
5569.010523,0.000000,-6128.763984,-740.205942
5569.010847,5181.441594,-5439.278036,444.123565
5569.011172,8808.450710,-6894.859482,0.000000
5569.011496,8438.347739,-7814.174080,666.185348
5569.011821,5403.503377,-7737.564530,0.000000
5569.012145,814.226536,-10725.336972,1406.391290
5569.012470,-4293.194464,-10418.898773,74.020594
5569.012794,-9770.718434,-13636.499864,518.144159
5569.013118,-10732.986159,-12104.308868,740.205942
5569.013443,-11103.089130,-9422.974625,888.247130
5569.013767,-7254.018232,-7737.564530,148.041188
5569.014092,-2516.700203,-6741.640382,222.061783
5569.014416,814.226536,-6358.592633,74.020594
5569.014741,5403.503377,-6128.763984,-1776.494261
5569.015065,4071.132681,-5745.716235,-370.102971
5569.015390,3404.947333,-6665.030833,1332.370696
5569.015714,1258.350101,-7124.688131,74.020594
5569.016038,-2368.659014,-10342.289223,1258.350101
5569.016363,-6735.874072,-10189.070123,592.164754
5569.016687,-7994.224174,-10725.336972,962.267725
5569.017012,-8882.471304,-10035.851024,222.061783
5569.017336,-4293.194464,-10189.070123,0.000000
5569.017661,-2516.700203,-8886.707777,-666.185348
5569.017985,-1036.288319,-7354.516781,-1480.411884
5569.018310,4145.153275,-7507.735880,148.041188
5569.018634,1554.432478,-4596.572988,-1850.514855
5569.018958,1184.329507,-7354.516781,222.061783
5569.019283,3330.926739,-6588.421283,296.082377
5569.019607,592.164754,-8044.002729,962.267725
5569.019932,1406.391290,-9806.022374,1110.308913
5569.020256,-518.144159,-10418.898773,-1702.473667
5569.020581,-4589.276840,-11644.651570,-1184.329507
5569.020905,-5921.647536,-9959.241474,-2960.823768
5569.021230,-4737.318029,-10648.727422,-1480.411884
5569.021554,-5107.421000,-8273.831378,-1924.535449
5569.021878,-3108.864956,-9193.145976,-370.102971
5569.022203,-444.123565,-6435.202183,-1110.308913
5569.022527,2072.576638,-7124.688131,-444.123565
5569.022852,3627.009116,-6128.763984,74.020594
5569.023176,4737.318029,-7124.688131,148.041188
5569.023501,3478.967927,-7507.735880,0.000000
5569.023825,1480.411884,-8733.488677,-888.247130
5569.024150,-1258.350101,-9806.022374,-2072.576638
5569.024474,-2738.761985,-10648.727422,-2368.659014
5569.024799,-3775.050304,-10572.117872,-2368.659014
5569.025123,-4737.318029,-10725.336972,-2146.597232
5569.025447,-3849.070898,-10265.679673,-2072.576638
5569.025772,-2516.700203,-10112.460574,-962.267725
5569.026096,-2442.679609,-7814.174080,-1480.411884
5569.026421,-1924.535449,-7890.783629,-740.205942
5569.026745,1332.370696,-6894.859482,-1332.370696
5569.027070,1998.556043,-7354.516781,888.247130
5569.027394,4071.132681,-6511.811733,0.000000
5569.027719,2664.741391,-8503.660028,148.041188
5569.028043,1628.453072,-8350.440928,-592.164754
5569.028367,2516.700203,-10342.289223,-1110.308913
5569.028692,-1998.556043,-9499.584175,-2812.782580
5569.029016,-3997.112087,-11491.432470,-888.247130
5569.029341,-4515.256246,-10035.851024,-740.205942
5569.029665,-4663.297435,-11338.213370,1924.535449
5569.029990,-3256.906145,-6588.421283,814.226536
5569.030314,-1258.350101,-8656.879127,1480.411884
5569.030639,1406.391290,-7277.907231,-592.164754
5569.030963,2146.597232,-7660.954980,74.020594
5569.031287,1406.391290,-6358.592633,-444.123565
5569.031612,222.061783,-6971.469032,74.020594
5569.031936,296.082377,-7737.564530,148.041188
5569.032261,444.123565,-9422.974625,148.041188
5569.032585,0.000000,-9882.631924,222.061783
5569.032910,-1184.329507,-10035.851024,-148.041188
5569.033234,-1628.453072,-11184.994271,1036.288319
5569.033559,-1776.494261,-8886.707777,-296.082377
5569.033883,-1850.514855,-9882.631924,1998.556043
5569.034207,888.247130,-7354.516781,1850.514855
5569.034532,1554.432478,-7124.688131,666.185348
5569.034856,3627.009116,-5669.106685,444.123565
5569.035181,1998.556043,-6052.154434,-888.247130
5569.035505,2960.823768,-8273.831378,1036.288319
5569.035830,1702.473667,-6818.249932,-1554.432478
5569.036154,592.164754,-9499.584175,0.000000
5569.036479,222.061783,-8503.660028,0.000000
5569.036803,-1036.288319,-9039.926876,222.061783
5569.037127,370.102971,-11031.775171,814.226536
5569.037452,1702.473667,-8810.098227,148.041188
5569.037776,2368.659014,-10801.946522,370.102971
5569.038101,3108.864956,-8810.098227,-444.123565
5569.038425,2960.823768,-7814.174080,-814.226536
5569.038750,1924.535449,-7124.688131,0.000000
5569.039074,3775.050304,-5362.668486,-1554.432478
5569.039399,2886.803174,-7124.688131,-666.185348
5569.039723,3034.844362,-6818.249932,-814.226536
5569.040048,1702.473667,-8197.221829,-962.267725
5569.040372,296.082377,-10112.460574,-1628.453072
5569.040696,-1702.473667,-10725.336972,-1258.350101
5569.041021,-1110.308913,-9806.022374,-740.205942
5569.041345,-2738.761985,-10035.851024,-296.082377
5569.041670,-740.205942,-8656.879127,-444.123565
5569.041994,1776.494261,-9499.584175,222.061783
5569.042319,1998.556043,-8810.098227,-592.164754
5569.042643,3627.009116,-8886.707777,-1110.308913
5569.042968,5255.462188,-7967.393179,-1776.494261
5569.043292,4145.153275,-8963.317327,-1554.432478
5569.043616,3182.885551,-7584.345430,-1110.308913
5569.043941,3478.967927,-8273.831378,-148.041188
5569.044265,-2590.720797,-9806.022374,-1258.350101
5569.044590,-1628.453072,-8580.269578,-1702.473667
5569.044914,-3627.009116,-10342.289223,-222.061783
5569.045239,-370.102971,-11644.651570,-2220.617826
5569.045563,-2442.679609,-9193.145976,-1184.329507
5569.045888,-1258.350101,-10265.679673,-962.267725
5569.046212,-2368.659014,-7354.516781,74.020594
5569.046536,296.082377,-6971.469032,-1110.308913
5569.046861,1406.391290,-9346.365076,-222.061783
5569.047185,3627.009116,-6818.249932,370.102971
5569.047510,1406.391290,-7890.783629,-592.164754
5569.047834,2664.741391,-9193.145976,-592.164754
5569.048159,-666.185348,-8120.612279,-296.082377
5569.048483,-1776.494261,-10035.851024,296.082377
5569.048808,-1776.494261,-8886.707777,296.082377
5569.049132,-3701.029710,-9193.145976,-148.041188
5569.049456,-1924.535449,-8963.317327,-148.041188
5569.049781,-1184.329507,-8197.221829,0.000000
5569.050105,-1554.432478,-9039.926876,-370.102971
5569.050430,1110.308913,-7737.564530,666.185348
5569.050754,222.061783,-6818.249932,-518.144159
5569.051079,1924.535449,-7277.907231,1258.350101
5569.051403,1406.391290,-6741.640382,222.061783
5569.051728,148.041188,-8427.050478,1258.350101
5569.052052,592.164754,-8120.612279,-1184.329507
5569.052377,74.020594,-9806.022374,1924.535449
5569.052701,-1480.411884,-8350.440928,-222.061783
5569.053025,-592.164754,-10418.898773,-888.247130
5569.053350,-3256.906145,-9499.584175,1258.350101
5569.053674,-4959.379811,-8580.269578,0.000000
5569.053999,-1184.329507,-8580.269578,0.000000
5569.054323,1036.288319,-7890.783629,-740.205942
5569.054648,2664.741391,-7124.688131,0.000000
5569.054972,4589.276840,-8733.488677,-814.226536
5569.055297,1850.514855,-7431.126331,-1184.329507
5569.055621,962.267725,-7890.783629,370.102971
5569.055945,-370.102971,-7201.297681,740.205942
5569.056270,-222.061783,-7431.126331,0.000000
5569.056594,-518.144159,-7967.393179,666.185348
5569.056919,666.185348,-9116.536426,-222.061783
5569.057243,2516.700203,-9806.022374,-962.267725
5569.057568,1110.308913,-9806.022374,-444.123565
5569.057892,2812.782580,-8810.098227,-1332.370696
5569.058217,1258.350101,-8197.221829,-888.247130
5569.058541,2220.617826,-7890.783629,-370.102971
5569.058865,-3404.947333,-7277.907231,-2516.700203
5569.059190,5477.523971,-9422.974625,1184.329507
5569.059514,148.041188,-5362.668486,-2442.679609
5569.059839,1850.514855,-11031.775171,-444.123565
5569.060163,1776.494261,-8810.098227,-1850.514855
5569.060488,-1184.329507,-9959.241474,-2590.720797
5569.060812,-666.185348,-8810.098227,1258.350101
5569.061137,518.144159,-8503.660028,-2516.700203
5569.061461,1184.329507,-12104.308868,592.164754
5569.061785,1554.432478,-7201.297681,-1258.350101
5569.062110,5329.482782,-11338.213370,814.226536
5569.062434,1776.494261,-7431.126331,-2294.638420
5569.062759,3330.926739,-8810.098227,1258.350101
5569.063083,2368.659014,-7507.735880,-666.185348
5569.063408,740.205942,-8733.488677,-222.061783
5569.063732,0.000000,-8810.098227,-962.267725
5569.064057,518.144159,-9193.145976,-1036.288319
5569.064381,-444.123565,-9422.974625,-888.247130
5569.064705,-2368.659014,-9422.974625,-1998.556043
5569.065030,-1702.473667,-8886.707777,0.000000
5569.065354,-2294.638420,-8810.098227,-444.123565
5569.065679,-1850.514855,-9422.974625,-370.102971
5569.066003,148.041188,-7967.393179,-148.041188
5569.066328,1480.411884,-10112.460574,814.226536
5569.066652,3182.885551,-8733.488677,-1110.308913
5569.066977,2664.741391,-8733.488677,1406.391290
5569.067301,2072.576638,-8044.002729,-740.205942
5569.067626,370.102971,-8273.831378,148.041188
5569.067950,-1184.329507,-7660.954980,222.061783
5569.068274,-1184.329507,-9039.926876,0.000000
5569.068599,-1554.432478,-7814.174080,-296.082377
5569.068923,-1924.535449,-9193.145976,518.144159
5569.069248,-962.267725,-8044.002729,296.082377
5569.069572,-1110.308913,-8963.317327,-888.247130
5569.069897,-1480.411884,-8503.660028,-148.041188
5569.070221,-1850.514855,-7124.688131,0.000000
5569.070546,518.144159,-8120.612279,1554.432478
5569.070870,2072.576638,-7507.735880,-518.144159
5569.071194,3330.926739,-7814.174080,1850.514855
5569.071519,1628.453072,-7048.078582,-296.082377
5569.071843,1628.453072,-9806.022374,666.185348
5569.072168,1258.350101,-8044.002729,-888.247130
5569.072492,-2146.597232,-9729.412825,74.020594
5569.072817,-2738.761985,-7890.783629,740.205942
5569.073141,-3997.112087,-8197.221829,296.082377
5569.073466,-3108.864956,-8427.050478,814.226536
5569.073790,814.226536,-7354.516781,0.000000
5569.074114,1554.432478,-8733.488677,-148.041188
5569.074439,2368.659014,-7890.783629,-1184.329507
5569.074763,2886.803174,-7124.688131,-222.061783
5569.075088,2072.576638,-7737.564530,-666.185348
5569.075412,2590.720797,-7737.564530,0.000000
5569.075737,592.164754,-8656.879127,0.000000
5569.076061,1628.453072,-9499.584175,-1924.535449
5569.076386,1184.329507,-9729.412825,0.000000
5569.076710,592.164754,-9346.365076,-222.061783
5569.077034,666.185348,-9346.365076,-666.185348
5569.077359,444.123565,-9576.193725,-296.082377
5569.077683,-1554.432478,-8886.707777,-814.226536
5569.078008,296.082377,-7967.393179,-296.082377
5569.078332,1406.391290,-7660.954980,-592.164754
5569.078657,814.226536,-8503.660028,-1110.308913
5569.078981,1480.411884,-7354.516781,-814.226536
5569.079306,3256.906145,-8656.879127,-666.185348
5569.079630,1332.370696,-8580.269578,-1850.514855
5569.079954,444.123565,-8120.612279,-1480.411884
5569.080279,1036.288319,-9652.803275,-666.185348
5569.080603,962.267725,-8656.879127,-962.267725
5569.080928,2368.659014,-9346.365076,518.144159
5569.081252,3701.029710,-9729.412825,-1554.432478
5569.081577,2368.659014,-10342.289223,-740.205942
5569.081901,2220.617826,-8886.707777,-888.247130
5569.082226,1702.473667,-9269.755526,-2072.576638
5569.082550,0.000000,-9806.022374,0.000000
5569.082875,-370.102971,-6741.640382,-1702.473667
5569.083199,-1258.350101,-8580.269578,74.020594
5569.083523,592.164754,-7967.393179,-1036.288319
5569.083848,814.226536,-9193.145976,-1480.411884
5569.084172,222.061783,-9116.536426,-2146.597232
5569.084497,-148.041188,-8733.488677,-1110.308913
5569.084821,-296.082377,-7660.954980,-1258.350101
5569.085146,-296.082377,-9346.365076,666.185348
5569.085470,1184.329507,-8810.098227,0.000000
5569.085795,1110.308913,-9039.926876,0.000000
5569.086119,1554.432478,-8963.317327,518.144159
5569.086443,2960.823768,-8733.488677,-666.185348
5569.086768,1702.473667,-9499.584175,740.205942
5569.087092,666.185348,-7967.393179,-1036.288319
5569.087417,370.102971,-7967.393179,1110.308913
5569.087741,-2368.659014,-6358.592633,888.247130
5569.088066,666.185348,-7814.174080,-296.082377
5569.088390,740.205942,-8273.831378,222.061783
5569.088715,-814.226536,-7814.174080,814.226536
5569.089039,1628.453072,-9499.584175,-148.041188
5569.089363,-2960.823768,-9422.974625,-1850.514855
5569.089688,-2442.679609,-10112.460574,1184.329507
5569.090012,-3108.864956,-7814.174080,888.247130
5569.090337,-3034.844362,-7814.174080,962.267725
5569.090661,-1406.391290,-8656.879127,592.164754
5569.090986,2886.803174,-9116.536426,888.247130
5569.091310,74.020594,-7660.954980,0.000000
5569.091635,222.061783,-8044.002729,-962.267725
5569.091959,0.000000,-7584.345430,1184.329507
5569.092283,2294.638420,-6971.469032,296.082377
5569.092608,2072.576638,-9346.365076,1184.329507
5569.092932,1998.556043,-7354.516781,-296.082377
5569.093257,-1850.514855,-9422.974625,666.185348
5569.093581,-444.123565,-8886.707777,-888.247130
5569.093906,-444.123565,-9346.365076,-1184.329507
5569.094230,-2516.700203,-8350.440928,0.000000
5569.094555,-3775.050304,-8273.831378,-296.082377
5569.094879,-1258.350101,-8886.707777,74.020594
5569.095203,-592.164754,-7890.783629,-1628.453072
5569.095528,2294.638420,-9039.926876,0.000000
5569.095852,2294.638420,-7584.345430,-1036.288319
5569.096177,2368.659014,-9422.974625,0.000000
5569.096501,4071.132681,-8350.440928,-962.267725
5569.096826,666.185348,-9116.536426,0.000000
5569.097150,592.164754,-8503.660028,1110.308913
5569.097475,1480.411884,-9806.022374,-1036.288319
5569.097799,1036.288319,-9729.412825,-1184.329507
5569.098124,1702.473667,-9422.974625,-296.082377
5569.098448,-296.082377,-7660.954980,-1406.391290
5569.098772,518.144159,-9576.193725,-1628.453072
5569.099097,-2516.700203,-7431.126331,-1850.514855
5569.099421,-1036.288319,-9269.755526,296.082377
5569.099746,-296.082377,-7431.126331,-740.205942
5569.100070,1258.350101,-8503.660028,-666.185348
5569.100395,3478.967927,-9193.145976,148.041188
5569.100719,4219.173869,-8656.879127,-1406.391290
5569.101044,4145.153275,-10495.508323,-1258.350101
5569.101368,1110.308913,-8427.050478,-1406.391290
5569.101692,2072.576638,-11261.603821,740.205942
5569.102017,370.102971,-8733.488677,-2072.576638
5569.102340,-370.102971,-9499.584175,0.000000
5569.102664,1036.288319,-7814.174080,-814.226536
5569.102988,370.102971,-8963.317327,-1924.535449
5569.103313,-370.102971,-8580.269578,-1850.514855
5569.103637,444.123565,-8503.660028,-1406.391290
5569.103962,0.000000,-7584.345430,-370.102971
5569.104286,-1258.350101,-8044.002729,222.061783
5569.104610,1332.370696,-8580.269578,296.082377
5569.104935,2738.761985,-8886.707777,296.082377
5569.105259,2294.638420,-8963.317327,-888.247130
5569.105584,2590.720797,-9576.193725,-1554.432478
5569.105908,1924.535449,-9499.584175,222.061783
5569.106232,0.000000,-9422.974625,-592.164754
5569.106557,-814.226536,-8197.221829,518.144159
5569.106881,-1036.288319,-8963.317327,666.185348
5569.107206,-2220.617826,-8427.050478,-370.102971
5569.107530,-592.164754,-7277.907231,-740.205942
5569.107854,-1406.391290,-8197.221829,0.000000
5569.108179,-1332.370696,-7507.735880,-814.226536
5569.108503,74.020594,-7048.078582,0.000000
5569.108827,148.041188,-9269.755526,-888.247130
5569.109152,0.000000,-8427.050478,296.082377
5569.109476,-1184.329507,-7584.345430,888.247130
5569.109801,-1406.391290,-8503.660028,-1110.308913
5569.110125,-1406.391290,-9422.974625,1628.453072
5569.110449,74.020594,-8810.098227,370.102971
5569.110774,888.247130,-10648.727422,444.123565
5569.111098,592.164754,-8656.879127,-296.082377
5569.111423,-2146.597232,-7890.783629,518.144159
5569.111747,-444.123565,-8427.050478,592.164754
5569.112071,1480.411884,-7584.345430,148.041188
5569.112396,-1110.308913,-7201.297681,-592.164754
5569.112720,814.226536,-7354.516781,740.205942
5569.113045,2146.597232,-8197.221829,-1554.432478
5569.113369,296.082377,-8963.317327,-1258.350101
5569.113693,-666.185348,-8963.317327,-370.102971
5569.114018,-814.226536,-10035.851024,-296.082377
5569.114342,-2664.741391,-9193.145976,-518.144159
5569.114666,222.061783,-9652.803275,814.226536
5569.114991,296.082377,-8656.879127,148.041188
5569.115315,1406.391290,-8733.488677,296.082377
5569.115640,2664.741391,-7737.564530,-1184.329507
5569.115964,1776.494261,-9652.803275,-148.041188
5569.116288,444.123565,-7660.954980,-296.082377
5569.116613,1554.432478,-8427.050478,0.000000
5569.116937,296.082377,-8120.612279,-666.185348
5569.117262,888.247130,-8656.879127,74.020594
5569.117586,1406.391290,-8656.879127,-1258.350101
5569.117910,-962.267725,-9499.584175,-962.267725
5569.118235,-962.267725,-9499.584175,-1554.432478
5569.118559,-296.082377,-9039.926876,-666.185348
5569.118884,-1924.535449,-9116.536426,-222.061783
5569.119208,-888.247130,-8886.707777,-1406.391290
5569.119532,2368.659014,-9576.193725,-296.082377
5569.119857,1184.329507,-7277.907231,-1258.350101
5569.120181,3404.947333,-9882.631924,0.000000
5569.120506,4737.318029,-8120.612279,-962.267725
5569.120830,4145.153275,-8810.098227,444.123565
5569.121154,3701.029710,-7431.126331,-370.102971
5569.121479,74.020594,-9039.926876,74.020594
5569.121803,-1258.350101,-9116.536426,-1110.308913
5569.122127,222.061783,-8656.879127,-1702.473667
5569.122452,-1924.535449,-10112.460574,370.102971
5569.122776,-740.205942,-8656.879127,-2442.679609
5569.123101,-1998.556043,-9806.022374,-148.041188
5569.123425,-2516.700203,-6435.202183,-1702.473667
5569.123749,-1184.329507,-8886.707777,222.061783
5569.124074,1258.350101,-7354.516781,-1110.308913
5569.124398,2960.823768,-9806.022374,740.205942
5569.124723,2516.700203,-7584.345430,-296.082377
5569.125047,2812.782580,-10418.898773,-666.185348
5569.125371,2072.576638,-8886.707777,0.000000
5569.125696,222.061783,-9116.536426,740.205942
5569.126020,740.205942,-9652.803275,-296.082377
5569.126345,-1036.288319,-9652.803275,296.082377
5569.126669,-444.123565,-7967.393179,-444.123565
5569.126993,-2368.659014,-8810.098227,-148.041188
5569.127318,-2072.576638,-7507.735880,-518.144159
5569.127642,0.000000,-8120.612279,-518.144159
5569.127966,-1036.288319,-8044.002729,-666.185348
5569.128291,1184.329507,-7660.954980,-592.164754
5569.128615,-222.061783,-8273.831378,518.144159
5569.128940,-1554.432478,-8044.002729,-296.082377
5569.129264,1554.432478,-8427.050478,888.247130
5569.129588,888.247130,-8503.660028,-518.144159
5569.129913,1702.473667,-10878.556072,444.123565
5569.130237,518.144159,-8503.660028,-518.144159
5569.130562,-518.144159,-10265.679673,148.041188
5569.130886,-592.164754,-7814.174080,-296.082377
5569.131210,-2146.597232,-7967.393179,-370.102971
5569.131535,814.226536,-7814.174080,1036.288319
5569.131859,0.000000,-6128.763984,-1036.288319
5569.132184,1110.308913,-8963.317327,814.226536
5569.132508,-296.082377,-6971.469032,-1554.432478
5569.132832,-148.041188,-9422.974625,74.020594
5569.133157,-2516.700203,-7124.688131,-1406.391290
5569.133481,-2442.679609,-9882.631924,2220.617826
5569.133805,-1184.329507,-6971.469032,-444.123565
5569.134130,-296.082377,-9806.022374,518.144159
5569.134454,1702.473667,-10035.851024,-222.061783
5569.134779,1036.288319,-9652.803275,-666.185348
5569.135103,1776.494261,-9346.365076,-296.082377
5569.135427,1850.514855,-8733.488677,296.082377
5569.135752,-370.102971,-8963.317327,666.185348
5569.136076,222.061783,-7890.783629,296.082377
5569.136401,148.041188,-7584.345430,-444.123565
5569.136725,740.205942,-7890.783629,-1036.288319
5569.137049,1776.494261,-7967.393179,-888.247130
5569.137374,962.267725,-9116.536426,222.061783
5569.137698,-148.041188,-8350.440928,-1258.350101
5569.138023,-2590.720797,-8656.879127,-888.247130
5569.138347,-2664.741391,-7967.393179,-1332.370696
5569.138671,-518.144159,-10418.898773,888.247130
5569.138996,814.226536,-7814.174080,444.123565
5569.139320,4663.297435,-10265.679673,-1036.288319
5569.139645,3034.844362,-8963.317327,-814.226536
5569.139969,3404.947333,-8503.660028,-518.144159
5569.140293,2368.659014,-9269.755526,-370.102971
5569.140618,148.041188,-7507.735880,-222.061783
5569.140942,-1110.308913,-8580.269578,518.144159
5569.141266,-962.267725,-6741.640382,-1332.370696
5569.141591,-1406.391290,-8886.707777,-1332.370696
5569.141915,296.082377,-9269.755526,-814.226536
5569.142240,-962.267725,-8886.707777,-888.247130
5569.142564,1110.308913,-9422.974625,-592.164754
5569.142888,-740.205942,-8197.221829,-740.205942
5569.143213,-148.041188,-7814.174080,962.267725
5569.143537,1850.514855,-6894.859482,592.164754
5569.143862,2960.823768,-8963.317327,296.082377
5569.144186,3330.926739,-8810.098227,-814.226536
5569.144510,1480.411884,-9959.241474,0.000000
5569.144835,2960.823768,-8886.707777,-1332.370696
5569.145159,1036.288319,-9039.926876,-592.164754
5569.145484,-740.205942,-8120.612279,-222.061783
5569.145808,-666.185348,-9422.974625,592.164754
5569.146132,-444.123565,-8197.221829,-444.123565
5569.146457,-518.144159,-8044.002729,-518.144159
5569.146781,-1628.453072,-8273.831378,-1258.350101
5569.147105,-962.267725,-9116.536426,-666.185348
5569.147430,740.205942,-8273.831378,-296.082377
5569.147754,1184.329507,-8273.831378,0.000000
5569.148079,1110.308913,-8810.098227,370.102971
5569.148403,1406.391290,-7431.126331,0.000000
5569.148727,2146.597232,-9116.536426,740.205942
5569.149052,740.205942,-8810.098227,-1184.329507
5569.149376,1998.556043,-9346.365076,814.226536
5569.149701,814.226536,-8963.317327,0.000000
5569.150025,-518.144159,-8656.879127,-444.123565
5569.150349,-1258.350101,-8273.831378,740.205942
5569.150674,-2812.782580,-8963.317327,370.102971
5569.150998,-666.185348,-8427.050478,222.061783
5569.151323,0.000000,-7431.126331,-370.102971
5569.151647,888.247130,-8120.612279,-740.205942
5569.151971,1184.329507,-8580.269578,-814.226536
5569.152296,222.061783,-9039.926876,-1628.453072
5569.152620,-1406.391290,-8733.488677,148.041188
5569.152944,-1850.514855,-8197.221829,0.000000
5569.153269,-962.267725,-9652.803275,740.205942
5569.153593,-444.123565,-8197.221829,-370.102971
5569.153918,888.247130,-9116.536426,0.000000
5569.154242,2590.720797,-9116.536426,0.000000
5569.154566,1924.535449,-8656.879127,0.000000
5569.154891,2368.659014,-7967.393179,-518.144159
5569.155215,1036.288319,-7967.393179,370.102971
5569.155540,1258.350101,-7967.393179,74.020594
5569.155864,1332.370696,-7201.297681,-222.061783
5569.156188,2664.741391,-7890.783629,-296.082377
5569.156513,-814.226536,-8963.317327,-1776.494261
5569.156837,-296.082377,-8656.879127,-1628.453072
5569.157162,-814.226536,-9269.755526,-740.205942
5569.157486,-962.267725,-9039.926876,-518.144159
5569.157810,-1184.329507,-8963.317327,962.267725
5569.158135,-1332.370696,-8120.612279,1036.288319
5569.158459,1406.391290,-8810.098227,-1332.370696
5569.158784,3552.988522,-9269.755526,-592.164754
5569.159108,2886.803174,-8733.488677,-1628.453072
5569.159432,1850.514855,-9346.365076,-370.102971
5569.159757,2220.617826,-8350.440928,888.247130
5569.160081,888.247130,-8427.050478,-740.205942
5569.160405,222.061783,-8120.612279,444.123565
5569.160730,-444.123565,-7354.516781,-1110.308913
5569.161054,1332.370696,-8810.098227,0.000000
5569.161379,1258.350101,-8044.002729,-1110.308913
5569.161703,1480.411884,-9652.803275,-814.226536
5569.162027,-592.164754,-7967.393179,-1332.370696
5569.162352,-1332.370696,-8963.317327,444.123565
5569.162676,1332.370696,-7814.174080,444.123565
5569.163001,1406.391290,-7967.393179,-1110.308913
5569.163325,1628.453072,-9652.803275,-518.144159
5569.163649,2516.700203,-8120.612279,-1110.308913
5569.163974,1850.514855,-8810.098227,370.102971
5569.164298,1258.350101,-7431.126331,-1258.350101
5569.164623,2516.700203,-9882.631924,666.185348
5569.164947,-296.082377,-7737.564530,-370.102971
5569.165271,-814.226536,-9269.755526,-370.102971
5569.165596,-148.041188,-7354.516781,-1184.329507
5569.165920,-1406.391290,-8273.831378,-592.164754
5569.166244,-444.123565,-8580.269578,-1702.473667
5569.166569,962.267725,-9116.536426,-1258.350101
5569.166893,-1924.535449,-8580.269578,-814.226536
5569.167218,-1332.370696,-7660.954980,-888.247130
5569.167542,-1110.308913,-9959.241474,0.000000
5569.167866,1036.288319,-8810.098227,-1184.329507
5569.168191,370.102971,-8197.221829,222.061783
5569.168515,3182.885551,-7431.126331,-518.144159
5569.168840,148.041188,-9652.803275,296.082377
5569.169164,3552.988522,-9346.365076,-1184.329507
5569.169488,222.061783,-9039.926876,-962.267725
5569.169813,-3478.967927,-8733.488677,-1036.288319
5569.170137,-1776.494261,-8656.879127,1850.514855
5569.170462,-3330.926739,-7890.783629,-888.247130
5569.170786,-1036.288319,-9116.536426,148.041188
5569.171110,222.061783,-8810.098227,-518.144159
5569.171435,-666.185348,-9116.536426,-1258.350101
5569.171759,-592.164754,-7660.954980,-740.205942
5569.172083,-814.226536,-7814.174080,-148.041188
5569.172408,740.205942,-8886.707777,444.123565
5569.172732,814.226536,-7890.783629,148.041188
5569.173057,2886.803174,-10342.289223,962.267725
5569.173381,2516.700203,-8810.098227,-1480.411884
5569.173705,2886.803174,-10648.727422,444.123565
5569.174030,74.020594,-7737.564530,-1036.288319
5569.174354,296.082377,-9422.974625,0.000000
5569.174679,-1332.370696,-9039.926876,148.041188
5569.175003,-2072.576638,-8273.831378,222.061783
5569.175327,-1258.350101,-7277.907231,1332.370696
5569.175652,0.000000,-7354.516781,-1332.370696
5569.175976,222.061783,-8044.002729,-1036.288319
5569.176301,1702.473667,-9039.926876,-888.247130
5569.176625,1332.370696,-7967.393179,-518.144159
5569.176949,814.226536,-8044.002729,-740.205942
5569.177274,2738.761985,-8886.707777,1480.411884
5569.177598,444.123565,-7354.516781,666.185348
5569.177923,2368.659014,-9806.022374,-592.164754
5569.178247,1924.535449,-9499.584175,370.102971
5569.178571,1998.556043,-10878.556072,-1184.329507
5569.178896,2886.803174,-7660.954980,-1554.432478
5569.179220,-1702.473667,-8733.488677,0.000000
5569.179544,0.000000,-9193.145976,0.000000
5569.179869,-962.267725,-7354.516781,-222.061783
5569.180193,0.000000,-8044.002729,-370.102971
5569.180518,888.247130,-7967.393179,-592.164754
5569.180842,1628.453072,-7967.393179,-1110.308913
5569.181166,444.123565,-8656.879127,-1776.494261
5569.181491,740.205942,-8656.879127,-1036.288319
5569.181815,296.082377,-9193.145976,0.000000
5569.182140,-666.185348,-8580.269578,-1406.391290
5569.182464,0.000000,-9499.584175,1628.453072
5569.182788,2146.597232,-8427.050478,-1184.329507
5569.183113,2590.720797,-9729.412825,-814.226536
5569.183437,3404.947333,-8120.612279,0.000000
5569.183762,0.000000,-8810.098227,-1258.350101
5569.184086,-444.123565,-9039.926876,-740.205942
5569.184410,-222.061783,-8044.002729,148.041188
5569.184735,-296.082377,-8197.221829,-888.247130
5569.185059,-1110.308913,-7737.564530,0.000000
5569.185383,1406.391290,-8197.221829,-1036.288319
5569.185708,296.082377,-10112.460574,-592.164754
5569.186032,-518.144159,-8120.612279,-1406.391290
5569.186357,-296.082377,-9422.974625,-1258.350101
5569.186681,-1924.535449,-9039.926876,-370.102971
5569.187005,-592.164754,-9039.926876,370.102971
5569.187330,-666.185348,-9499.584175,-222.061783
5569.187654,0.000000,-9729.412825,370.102971
5569.187979,0.000000,-7967.393179,-1110.308913
5569.188303,1406.391290,-9039.926876,-592.164754
5569.188627,814.226536,-8273.831378,-1110.308913
5569.188952,0.000000,-8273.831378,-666.185348
5569.189276,370.102971,-8656.879127,962.267725
5569.189601,-1036.288319,-8427.050478,-444.123565
5569.189925,0.000000,-9422.974625,-666.185348
5569.190249,0.000000,-8044.002729,-1036.288319
5569.190574,-518.144159,-9039.926876,-740.205942
5569.190898,-296.082377,-9116.536426,-592.164754
5569.191222,-814.226536,-8733.488677,148.041188
5569.191547,-888.247130,-8580.269578,-740.205942
5569.191871,-888.247130,-9576.193725,666.185348
5569.192196,-444.123565,-8273.831378,-1110.308913
5569.192520,2442.679609,-9346.365076,0.000000
5569.192844,2590.720797,-8733.488677,0.000000
5569.193169,2368.659014,-8733.488677,-962.267725
5569.193493,1998.556043,-8120.612279,-296.082377
5569.193818,1332.370696,-8580.269578,222.061783
5569.194142,-222.061783,-8503.660028,370.102971
5569.194466,-666.185348,-8044.002729,-444.123565
5569.194791,-1628.453072,-9193.145976,74.020594
5569.195115,0.000000,-8044.002729,-592.164754
5569.195440,518.144159,-8963.317327,0.000000
5569.195764,592.164754,-8044.002729,-1480.411884
5569.196088,-666.185348,-9499.584175,0.000000
5569.196413,-888.247130,-8963.317327,148.041188
5569.196737,-1332.370696,-8810.098227,-74.020594
5569.197062,592.164754,-7660.954980,0.000000
5569.197386,1554.432478,-7967.393179,-222.061783
5569.197710,2442.679609,-8733.488677,0.000000
5569.198035,3108.864956,-8273.831378,-222.061783
5569.198359,3478.967927,-9039.926876,0.000000
5569.198683,814.226536,-7431.126331,-666.185348
5569.199008,1480.411884,-8810.098227,888.247130
5569.199332,592.164754,-8120.612279,-518.144159
5569.199657,1480.411884,-9422.974625,222.061783
5569.199981,962.267725,-7890.783629,-666.185348
5569.200305,888.247130,-9193.145976,-1332.370696
5569.200630,-296.082377,-9193.145976,-2220.617826
5569.200954,-518.144159,-8427.050478,-1332.370696
5569.201279,-1332.370696,-8963.317327,740.205942
5569.201603,-962.267725,-8273.831378,74.020594
5569.201927,888.247130,-8810.098227,296.082377
5569.202252,1850.514855,-9039.926876,-740.205942
5569.202576,1628.453072,-9116.536426,-1184.329507
5569.202900,3478.967927,-8580.269578,-740.205942
5569.203225,1480.411884,-8810.098227,-444.123565
5569.203549,222.061783,-9576.193725,-296.082377
5569.203873,444.123565,-9422.974625,222.061783
5569.204197,-1258.350101,-8580.269578,-296.082377
5569.204522,-1776.494261,-8427.050478,-518.144159
5569.204846,370.102971,-8120.612279,-1184.329507
5569.205170,-1258.350101,-8810.098227,-888.247130
5569.205494,0.000000,-8580.269578,-962.267725
5569.205819,0.000000,-8120.612279,-1628.453072
5569.206143,666.185348,-9269.755526,370.102971
5569.206467,592.164754,-8427.050478,-444.123565
5569.206791,1998.556043,-8963.317327,-518.144159
5569.207115,2442.679609,-8273.831378,0.000000
5569.207440,2516.700203,-9193.145976,-222.061783
5569.207764,1554.432478,-8503.660028,-592.164754
5569.208088,888.247130,-9193.145976,0.000000
5569.208412,1406.391290,-8656.879127,-444.123565
5569.208737,-3552.988522,-8733.488677,0.000000
5569.209061,-1258.350101,-7584.345430,-296.082377
5569.209385,-1776.494261,-6435.202183,-1036.288319
5569.209709,370.102971,-8427.050478,-370.102971
5569.210034,222.061783,-7967.393179,-518.144159
5569.210358,-444.123565,-8733.488677,-888.247130
5569.210682,-888.247130,-8503.660028,-962.267725
5569.211006,-296.082377,-8197.221829,-296.082377
5569.211331,296.082377,-10189.070123,888.247130
5569.211655,1850.514855,-7814.174080,-296.082377
5569.211979,2146.597232,-8886.707777,666.185348
5569.212303,2146.597232,-8886.707777,-444.123565
5569.212628,2516.700203,-8886.707777,-888.247130
5569.212952,1332.370696,-8810.098227,-1480.411884
5569.213276,0.000000,-9039.926876,0.000000
5569.213600,0.000000,-7431.126331,592.164754
5569.213925,-1702.473667,-7354.516781,0.000000
5569.214249,592.164754,-7660.954980,370.102971
5569.214573,-2960.823768,-7890.783629,-666.185348
5569.214897,370.102971,-9269.755526,-814.226536
5569.215221,370.102971,-8963.317327,-888.247130
5569.215546,-740.205942,-8273.831378,-1036.288319
5569.215870,-1776.494261,-8273.831378,370.102971
5569.216194,1702.473667,-8733.488677,1258.350101
5569.216518,1036.288319,-9116.536426,-1110.308913
5569.216843,2294.638420,-8197.221829,-814.226536
5569.217167,2294.638420,-10035.851024,814.226536
5569.217491,444.123565,-7890.783629,-1924.535449
5569.217815,2072.576638,-7660.954980,296.082377
5569.218140,-296.082377,-8197.221829,-444.123565
5569.218464,-1184.329507,-8810.098227,518.144159
5569.218788,-148.041188,-7277.907231,-370.102971
5569.219112,296.082377,-9422.974625,666.185348
5569.219437,222.061783,-7967.393179,-592.164754
5569.219761,1258.350101,-8503.660028,-814.226536
5569.220085,518.144159,-9499.584175,-1332.370696
5569.220409,148.041188,-8427.050478,-1036.288319
5569.220734,-888.247130,-9576.193725,444.123565
5569.221058,-888.247130,-9039.926876,-962.267725
5569.221382,592.164754,-8580.269578,444.123565
5569.221706,1036.288319,-7048.078582,-666.185348
5569.222030,740.205942,-8810.098227,962.267725
5569.222355,2590.720797,-7584.345430,-1184.329507
5569.222679,2220.617826,-9499.584175,-370.102971
5569.223003,814.226536,-8044.002729,-814.226536
5569.223327,1480.411884,-8886.707777,222.061783
5569.223652,518.144159,-7507.735880,-370.102971
5569.223976,518.144159,-8197.221829,-222.061783
5569.224300,222.061783,-8963.317327,-518.144159
5569.224624,-222.061783,-9039.926876,-888.247130
5569.224949,-1036.288319,-8810.098227,-1332.370696
5569.225273,-592.164754,-8963.317327,-1480.411884
5569.225597,-2072.576638,-8963.317327,148.041188
5569.225921,-592.164754,-7890.783629,444.123565
5569.226246,1036.288319,-8963.317327,-296.082377
5569.226570,222.061783,-8580.269578,-370.102971
5569.226894,3330.926739,-8350.440928,-592.164754
5569.227218,2812.782580,-9193.145976,-962.267725
5569.227543,1702.473667,-8580.269578,518.144159
5569.227867,444.123565,-8273.831378,444.123565
5569.228191,370.102971,-9346.365076,518.144159
5569.228515,-1258.350101,-7048.078582,0.000000
5569.228840,-1406.391290,-8503.660028,74.020594
5569.229164,-222.061783,-9346.365076,592.164754
5569.229488,-740.205942,-8197.221829,-1036.288319
5569.229812,-1702.473667,-8886.707777,-1258.350101
5569.230136,-2738.761985,-8044.002729,-1110.308913
5569.230461,-888.247130,-8810.098227,444.123565
5569.230785,814.226536,-7967.393179,444.123565
5569.231109,2220.617826,-8733.488677,666.185348
5569.231433,2442.679609,-8580.269578,-1036.288319
5569.231758,2886.803174,-8580.269578,444.123565
5569.232082,3034.844362,-8503.660028,-1332.370696
5569.232406,2960.823768,-9576.193725,-296.082377
5569.232730,-222.061783,-7890.783629,222.061783
5569.233055,-888.247130,-9039.926876,-518.144159
5569.233379,-4811.338623,-8273.831378,0.000000
5569.233703,-222.061783,-8886.707777,518.144159
5569.234027,-222.061783,-8044.002729,-296.082377
5569.234352,222.061783,-8656.879127,-1998.556043
5569.234676,-222.061783,-8656.879127,-444.123565
5569.235000,0.000000,-7277.907231,-1258.350101
5569.235324,-1924.535449,-9193.145976,296.082377
5569.235649,962.267725,-8580.269578,-444.123565
5569.235973,1554.432478,-9269.755526,592.164754
5569.236297,1184.329507,-7737.564530,0.000000
5569.236621,2368.659014,-10572.117872,-370.102971
5569.236945,888.247130,-8350.440928,-1628.453072
5569.237270,740.205942,-9652.803275,296.082377
5569.237594,444.123565,-6741.640382,-1036.288319
5569.237918,-222.061783,-8886.707777,1480.411884
5569.238242,-1480.411884,-7277.907231,0.000000
5569.238567,-888.247130,-8580.269578,-1184.329507
5569.238891,740.205942,-7737.564530,-1480.411884
5569.239215,592.164754,-8886.707777,0.000000
5569.239539,444.123565,-8273.831378,-2368.659014
5569.239864,0.000000,-9116.536426,-74.020594
5569.240188,518.144159,-8886.707777,-518.144159
5569.240512,0.000000,-9269.755526,-148.041188
5569.240836,1480.411884,-9116.536426,74.020594
5569.241161,370.102971,-8963.317327,-370.102971
5569.241485,1110.308913,-9193.145976,-592.164754
5569.241809,2812.782580,-8810.098227,-1258.350101
5569.242133,666.185348,-9346.365076,-740.205942
5569.242458,-296.082377,-7737.564530,-444.123565
5569.242782,1184.329507,-8197.221829,888.247130
5569.243106,148.041188,-8656.879127,222.061783
5569.243430,1332.370696,-8044.002729,-444.123565
5569.243755,74.020594,-8273.831378,-444.123565
5569.244079,-222.061783,-8580.269578,-2072.576638
5569.244403,0.000000,-8810.098227,-888.247130
5569.244727,-1406.391290,-8733.488677,-740.205942
5569.245051,-962.267725,-9806.022374,222.061783
5569.245376,-1332.370696,-8273.831378,-666.185348
5569.245700,814.226536,-9806.022374,1184.329507
5569.246024,740.205942,-7124.688131,-296.082377
5569.246348,2220.617826,-9729.412825,222.061783
5569.246673,2812.782580,-8273.831378,-1110.308913
5569.246997,1184.329507,-8810.098227,-222.061783
5569.247321,592.164754,-8197.221829,-370.102971
5569.247645,370.102971,-8350.440928,814.226536
5569.247970,-592.164754,-7660.954980,-222.061783
5569.248294,-814.226536,-9039.926876,0.000000
5569.248618,-814.226536,-8503.660028,-370.102971
5569.248942,-518.144159,-8810.098227,-518.144159
5569.249267,-888.247130,-7890.783629,-1332.370696
5569.249591,-1184.329507,-8273.831378,-222.061783
5569.249915,370.102971,-9346.365076,0.000000
5569.250239,-444.123565,-7967.393179,444.123565
5569.250564,2220.617826,-9039.926876,370.102971
5569.250888,1184.329507,-8810.098227,-592.164754
5569.251212,2590.720797,-8503.660028,1406.391290
5569.251536,2294.638420,-8197.221829,-444.123565
5569.251860,2294.638420,-9269.755526,-888.247130
5569.252185,518.144159,-7584.345430,1480.411884
5569.252509,-2146.597232,-8044.002729,370.102971
5569.252833,-1406.391290,-9039.926876,-1554.432478
5569.253157,-1184.329507,-8580.269578,0.000000
5569.253482,-444.123565,-7890.783629,0.000000
5569.253806,1258.350101,-7584.345430,-1776.494261
5569.254130,-1850.514855,-10342.289223,-296.082377
5569.254454,-222.061783,-8580.269578,-1850.514855
5569.254779,296.082377,-7890.783629,888.247130
5569.255103,148.041188,-8120.612279,-74.020594
5569.255427,1554.432478,-8733.488677,-222.061783
5569.255751,2886.803174,-7048.078582,-296.082377
5569.256076,4071.132681,-10418.898773,-74.020594
5569.256400,2294.638420,-9499.584175,-1480.411884
5569.256724,-370.102971,-8273.831378,-666.185348
5569.257048,-148.041188,-9039.926876,370.102971
5569.257373,-1480.411884,-7584.345430,-666.185348
5569.257697,1184.329507,-9039.926876,0.000000
5569.258021,1258.350101,-8580.269578,-666.185348
5569.258345,962.267725,-8503.660028,-222.061783
5569.258670,1554.432478,-8580.269578,-1850.514855
5569.258994,-592.164754,-9039.926876,-1184.329507
5569.259318,74.020594,-8427.050478,-1036.288319
5569.259642,-296.082377,-8963.317327,-222.061783
5569.259966,-444.123565,-8656.879127,-666.185348
5569.260291,1110.308913,-8733.488677,-740.205942
5569.260615,1554.432478,-9652.803275,74.020594
5569.260939,2368.659014,-8350.440928,-444.123565
5569.261263,1480.411884,-9193.145976,-814.226536
5569.261588,1258.350101,-9499.584175,-888.247130
5569.261912,296.082377,-7890.783629,1036.288319
5569.262236,444.123565,-7354.516781,-666.185348
5569.262560,592.164754,-8656.879127,-370.102971
5569.262885,-888.247130,-7660.954980,-296.082377
5569.263209,-222.061783,-9652.803275,-1184.329507
5569.263533,962.267725,-8120.612279,-1628.453072
5569.263857,-1184.329507,-9193.145976,-296.082377
5569.264182,-1036.288319,-8350.440928,-1036.288319
5569.264506,518.144159,-8273.831378,222.061783
5569.264830,74.020594,-9039.926876,-592.164754
5569.265154,1702.473667,-9039.926876,666.185348
5569.265479,2368.659014,-8044.002729,444.123565
5569.265803,1998.556043,-10801.946522,-814.226536
5569.266127,2960.823768,-7967.393179,-1480.411884
5569.266451,370.102971,-8044.002729,-444.123565
5569.266775,-592.164754,-8810.098227,666.185348
5569.267100,-1184.329507,-8273.831378,0.000000
5569.267424,-148.041188,-8963.317327,0.000000
5569.267748,-1332.370696,-8350.440928,74.020594
5569.268072,962.267725,-8120.612279,-962.267725
5569.268397,296.082377,-9499.584175,-740.205942
5569.268721,1110.308913,-7660.954980,-962.267725
5569.269045,962.267725,-7814.174080,814.226536
5569.269369,370.102971,-7890.783629,-518.144159
5569.269694,1998.556043,-9499.584175,444.123565
5569.270018,1332.370696,-7814.174080,-666.185348
5569.270342,740.205942,-9652.803275,740.205942
5569.270666,2368.659014,-8273.831378,-888.247130
5569.270991,0.000000,-9039.926876,-370.102971
5569.271315,0.000000,-8197.221829,0.000000
5569.271639,-814.226536,-8503.660028,0.000000
5569.271963,148.041188,-9346.365076,370.102971
5569.272288,-222.061783,-8044.002729,0.000000
5569.272612,-444.123565,-7890.783629,-666.185348
5569.272936,518.144159,-9193.145976,370.102971
5569.273260,-518.144159,-8044.002729,-1332.370696
5569.273584,74.020594,-8656.879127,-592.164754
5569.273909,-740.205942,-8044.002729,-296.082377
5569.274233,-740.205942,-7737.564530,-296.082377
5569.274557,666.185348,-9269.755526,1110.308913
5569.274881,1406.391290,-8273.831378,-592.164754
5569.275206,2294.638420,-10112.460574,740.205942
5569.275530,1036.288319,-7737.564530,-814.226536
5569.275854,2368.659014,-8810.098227,-814.226536
5569.276178,1258.350101,-9039.926876,-1332.370696
5569.276503,-296.082377,-9269.755526,444.123565
5569.276827,-1110.308913,-7814.174080,-962.267725
5569.277151,-1628.453072,-8886.707777,888.247130
5569.277475,-1628.453072,-7354.516781,-444.123565
5569.277800,-962.267725,-9806.022374,-296.082377
5569.278124,0.000000,-7737.564530,-1406.391290
5569.278448,-740.205942,-8810.098227,-1554.432478
5569.278772,1332.370696,-8886.707777,-1184.329507
5569.279097,1924.535449,-7584.345430,0.000000
5569.279421,1628.453072,-8810.098227,518.144159
5569.279745,2442.679609,-8197.221829,-1406.391290
5569.280069,2516.700203,-9806.022374,-148.041188
5569.280394,1554.432478,-9806.022374,296.082377
5569.280718,2146.597232,-7431.126331,-1554.432478
5569.281042,-444.123565,-9039.926876,-370.102971
5569.281366,-1406.391290,-7967.393179,-296.082377
5569.281690,-962.267725,-8197.221829,370.102971
5569.282015,-1258.350101,-7737.564530,-1628.453072
5569.282339,0.000000,-8733.488677,444.123565
5569.282663,592.164754,-7660.954980,-1554.432478
5569.282987,444.123565,-9116.536426,-1850.514855
5569.283312,1184.329507,-8120.612279,-1110.308913
5569.283636,1184.329507,-8044.002729,222.061783
5569.283960,518.144159,-8810.098227,592.164754
5569.284284,3849.070898,-9269.755526,1110.308913
5569.284609,1998.556043,-7890.783629,-666.185348
5569.284933,1036.288319,-9193.145976,148.041188
5569.285257,2072.576638,-8120.612279,-666.185348
5569.285581,1110.308913,-10342.289223,0.000000
5569.285906,-740.205942,-7890.783629,-296.082377
5569.286230,-1850.514855,-9039.926876,222.061783
5569.286554,-1184.329507,-8810.098227,-740.205942
5569.286878,-1184.329507,-7584.345430,-1258.350101
5569.287203,296.082377,-8886.707777,-222.061783
5569.287527,1480.411884,-8120.612279,-666.185348
5569.287851,1036.288319,-8886.707777,-666.185348
5569.288175,296.082377,-8886.707777,-1406.391290
5569.288499,-296.082377,-9652.803275,-148.041188
5569.288824,1036.288319,-8350.440928,444.123565
5569.289148,1554.432478,-9039.926876,370.102971
5569.289472,1406.391290,-7890.783629,-148.041188
5569.289796,2442.679609,-8810.098227,-222.061783
5569.290121,1406.391290,-8580.269578,-1110.308913
5569.290445,0.000000,-8427.050478,-296.082377
5569.290769,518.144159,-8656.879127,74.020594
5569.291093,-1036.288319,-8120.612279,148.041188
5569.291418,-518.144159,-9193.145976,0.000000
5569.291742,962.267725,-8350.440928,-592.164754
5569.292066,0.000000,-8580.269578,-666.185348
5569.292390,-666.185348,-8503.660028,-888.247130
5569.292715,740.205942,-9346.365076,-962.267725
5569.293039,-1480.411884,-7814.174080,-740.205942
5569.293363,-592.164754,-10112.460574,0.000000
5569.293687,-814.226536,-8350.440928,-666.185348
5569.294012,962.267725,-9422.974625,666.185348
5569.294336,-1184.329507,-7814.174080,-740.205942
5569.294660,1628.453072,-9499.584175,666.185348
5569.294984,1332.370696,-7967.393179,-1258.350101
5569.295309,2220.617826,-9116.536426,-222.061783
5569.295633,1406.391290,-7277.907231,-444.123565
5569.295957,1036.288319,-7737.564530,222.061783
5569.296281,666.185348,-8427.050478,222.061783
5569.296605,740.205942,-7890.783629,-1036.288319
5569.296930,1184.329507,-9652.803275,-444.123565
5569.297254,0.000000,-8427.050478,-888.247130
5569.297578,-1332.370696,-8810.098227,-1628.453072
5569.297902,-1628.453072,-8503.660028,-518.144159
5569.298227,-2368.659014,-8273.831378,0.000000
5569.298551,222.061783,-9193.145976,666.185348
5569.298875,-148.041188,-8197.221829,0.000000
5569.299199,2960.823768,-9039.926876,0.000000
5569.299524,1998.556043,-8656.879127,-592.164754
5569.299848,3256.906145,-9346.365076,-370.102971
5569.300172,1406.391290,-8656.879127,-962.267725
5569.300496,2664.741391,-8733.488677,222.061783
5569.300821,-222.061783,-8273.831378,1110.308913
5569.301145,-1184.329507,-7967.393179,-1036.288319
5569.301469,-148.041188,-9652.803275,296.082377
5569.301793,-1184.329507,-8197.221829,370.102971
5569.302118,-666.185348,-7277.907231,-1702.473667
5569.302442,0.000000,-10495.508323,-962.267725
5569.302766,-1850.514855,-7507.735880,-1702.473667
5569.303090,592.164754,-9576.193725,1406.391290
5569.303414,-518.144159,-8120.612279,0.000000
5569.303739,2146.597232,-8963.317327,-222.061783
5569.304063,2220.617826,-8350.440928,-296.082377
5569.304387,3627.009116,-10035.851024,0.000000
5569.304711,2294.638420,-9269.755526,-962.267725
5569.305035,2294.638420,-8580.269578,-296.082377
5569.305359,-814.226536,-7967.393179,222.061783
5569.305684,296.082377,-9193.145976,740.205942
5569.306008,222.061783,-7354.516781,-962.267725
5569.306332,74.020594,-8197.221829,370.102971
5569.306656,0.000000,-8197.221829,-518.144159
5569.306980,740.205942,-8427.050478,-2294.638420
5569.307304,666.185348,-8886.707777,-888.247130
5569.307629,148.041188,-7737.564530,-888.247130
5569.307953,-740.205942,-8580.269578,0.000000
5569.308277,1776.494261,-8963.317327,666.185348
5569.308601,740.205942,-8350.440928,0.000000
5569.308925,1924.535449,-9269.755526,-1258.350101
5569.309249,3552.988522,-8733.488677,74.020594
5569.309574,-444.123565,-9806.022374,-1332.370696
5569.309898,2220.617826,-7967.393179,-1110.308913
5569.310222,-148.041188,-7890.783629,148.041188
5569.310546,-1628.453072,-9039.926876,0.000000
5569.310870,-1036.288319,-8197.221829,-518.144159
5569.311194,-592.164754,-7431.126331,0.000000
5569.311519,296.082377,-9039.926876,148.041188
5569.311843,962.267725,-7814.174080,-962.267725
5569.312167,148.041188,-9729.412825,370.102971
5569.312491,1184.329507,-8044.002729,-1036.288319
5569.312815,-814.226536,-9729.412825,-962.267725
5569.313139,1184.329507,-9193.145976,-370.102971
5569.313463,1406.391290,-9039.926876,-222.061783
5569.313788,148.041188,-9116.536426,518.144159
5569.314112,1184.329507,-8503.660028,222.061783
5569.314436,888.247130,-8580.269578,-222.061783
5569.314760,814.226536,-8044.002729,-296.082377
5569.315084,-666.185348,-7737.564530,-740.205942
5569.315408,962.267725,-8733.488677,518.144159
5569.315733,-296.082377,-8427.050478,-518.144159
5569.316057,74.020594,-7814.174080,222.061783
5569.316381,-666.185348,-7660.954980,-296.082377
5569.316705,1036.288319,-9039.926876,-296.082377
5569.317029,-518.144159,-7967.393179,-1184.329507
5569.317353,-148.041188,-8886.707777,-1480.411884
5569.317678,74.020594,-9959.241474,370.102971
5569.318002,-2368.659014,-7814.174080,-296.082377
5569.318326,2368.659014,-9576.193725,814.226536
5569.318650,-2146.597232,-7124.688131,-370.102971
5569.318974,3849.070898,-10418.898773,1998.556043
5569.319298,1406.391290,-6511.811733,-3478.967927
5569.319623,2886.803174,-11644.651570,2146.597232
5569.319947,148.041188,-5056.230287,-2368.659014
5569.320271,444.123565,-9729.412825,1628.453072
5569.320595,0.000000,-6818.249932,-888.247130
5569.320919,518.144159,-8273.831378,518.144159
5569.321243,444.123565,-8733.488677,0.000000
5569.321568,-370.102971,-8810.098227,-1924.535449
5569.321892,0.000000,-8656.879127,-1258.350101
5569.322216,-1480.411884,-8044.002729,-1258.350101
5569.322540,-666.185348,-8886.707777,1406.391290
5569.322864,0.000000,-8197.221829,1258.350101
5569.323188,814.226536,-8886.707777,-222.061783
5569.323513,3330.926739,-9116.536426,-740.205942
5569.323837,1554.432478,-8733.488677,148.041188
5569.324161,3404.947333,-9269.755526,-1924.535449
5569.324485,962.267725,-8120.612279,-1628.453072
5569.324809,-296.082377,-8273.831378,1332.370696
5569.325133,-1036.288319,-8580.269578,592.164754
5569.325458,-370.102971,-7737.564530,444.123565
5569.325782,148.041188,-8503.660028,-370.102971
5569.326106,222.061783,-8810.098227,-1628.453072
5569.326430,1406.391290,-8886.707777,0.000000
5569.326754,-1110.308913,-7967.393179,-1850.514855
5569.327078,1406.391290,-8580.269578,0.000000
5569.327403,-962.267725,-7354.516781,222.061783
5569.327727,370.102971,-9269.755526,-296.082377
5569.328051,740.205942,-8656.879127,-592.164754
5569.328375,444.123565,-9499.584175,0.000000
5569.328699,3108.864956,-9576.193725,-1332.370696
5569.329023,2960.823768,-9269.755526,148.041188
5569.329348,2294.638420,-9652.803275,-1184.329507
5569.329672,0.000000,-7354.516781,0.000000
5569.329996,1258.350101,-8503.660028,592.164754
5569.330320,-1480.411884,-8350.440928,0.000000
5569.330644,740.205942,-7890.783629,-740.205942
5569.330968,1702.473667,-8503.660028,-148.041188
5569.331292,-444.123565,-9039.926876,-888.247130
5569.331617,-296.082377,-6818.249932,-1406.391290
5569.331941,444.123565,-9806.022374,-666.185348
5569.332265,-2072.576638,-9346.365076,444.123565
5569.332589,-1110.308913,-7890.783629,296.082377
5569.332913,370.102971,-9269.755526,-814.226536
5569.333237,1850.514855,-9652.803275,-666.185348
5569.333562,2664.741391,-10035.851024,-592.164754
5569.333886,1184.329507,-9652.803275,-1776.494261
5569.334210,1332.370696,-8733.488677,0.000000
5569.334534,-518.144159,-7048.078582,222.061783
5569.334858,-370.102971,-9422.974625,740.205942
5569.335182,-592.164754,-7354.516781,-370.102971
5569.335507,-518.144159,-8733.488677,592.164754
5569.335831,518.144159,-8733.488677,-1406.391290
5569.336155,222.061783,-9729.412825,-222.061783
5569.336479,-740.205942,-7967.393179,-1036.288319
5569.336803,-148.041188,-7890.783629,296.082377
5569.337127,-1332.370696,-8580.269578,592.164754
5569.337452,-518.144159,-9269.755526,0.000000
5569.337776,1628.453072,-8733.488677,148.041188
5569.338100,1776.494261,-9116.536426,444.123565
5569.338424,592.164754,-9193.145976,-296.082377
5569.338748,1628.453072,-8810.098227,-888.247130
5569.339072,444.123565,-8580.269578,-222.061783
5569.339397,1110.308913,-7124.688131,148.041188
5569.339721,-370.102971,-8273.831378,1184.329507
5569.340045,1110.308913,-7967.393179,0.000000
5569.340369,148.041188,-7431.126331,666.185348
5569.340693,0.000000,-8197.221829,-740.205942
5569.341017,0.000000,-9422.974625,-962.267725
5569.341342,222.061783,-7967.393179,-888.247130
5569.341666,-962.267725,-8120.612279,0.000000
5569.341990,-962.267725,-8427.050478,0.000000
5569.342314,0.000000,-8044.002729,888.247130
5569.342638,2072.576638,-8810.098227,0.000000
5569.342962,1702.473667,-8733.488677,-1554.432478
5569.343287,2220.617826,-9499.584175,222.061783
5569.343611,1850.514855,-8580.269578,-1776.494261
5569.343935,1850.514855,-8427.050478,-518.144159
5569.344259,444.123565,-7890.783629,222.061783
5569.344583,0.000000,-8427.050478,0.000000
5569.344907,1258.350101,-8044.002729,-814.226536
5569.345232,1406.391290,-7814.174080,-518.144159
5569.345556,962.267725,-9269.755526,-592.164754
5569.345880,444.123565,-7967.393179,-1998.556043
5569.346204,592.164754,-9269.755526,-1332.370696
5569.346528,-1776.494261,-9193.145976,74.020594
5569.346852,-1480.411884,-9269.755526,-518.144159
5569.347176,0.000000,-8963.317327,-296.082377
5569.347501,1480.411884,-8963.317327,-592.164754
5569.347825,2886.803174,-9422.974625,-814.226536
5569.348149,2442.679609,-9269.755526,296.082377
5569.348473,1184.329507,-8503.660028,-666.185348
5569.348797,1406.391290,-8427.050478,-1258.350101
5569.349121,222.061783,-9346.365076,-444.123565
5569.349446,-1332.370696,-8656.879127,0.000000
5569.349770,-1036.288319,-8273.831378,0.000000
5569.350094,888.247130,-8427.050478,666.185348
5569.350418,0.000000,-8273.831378,-1480.411884
5569.350742,518.144159,-8580.269578,-1850.514855
5569.351066,888.247130,-9882.631924,-2368.659014
5569.351391,-1998.556043,-8886.707777,-592.164754
5569.351715,-740.205942,-7814.174080,-1036.288319
5569.352039,1406.391290,-10035.851024,1332.370696
5569.352363,296.082377,-7890.783629,-1184.329507
5569.352687,2442.679609,-9346.365076,666.185348
5569.353011,2516.700203,-9422.974625,0.000000
5569.353336,1110.308913,-8350.440928,-1480.411884
5569.353660,1332.370696,-9499.584175,-222.061783
5569.353984,-666.185348,-7814.174080,-444.123565
5569.354308,222.061783,-8963.317327,592.164754
5569.354632,-222.061783,-6971.469032,-296.082377
5569.354956,-444.123565,-8580.269578,-222.061783
5569.355281,-1406.391290,-6818.249932,-888.247130
5569.355605,-814.226536,-9039.926876,-592.164754
5569.355929,-1110.308913,-7967.393179,-1258.350101
5569.356253,1184.329507,-8886.707777,222.061783
5569.356577,888.247130,-7201.297681,444.123565
5569.356901,3182.885551,-9346.365076,666.185348
5569.357226,0.000000,-8120.612279,-296.082377
5569.357550,1702.473667,-10418.898773,0.000000
5569.357874,888.247130,-8044.002729,-222.061783
5569.358198,1554.432478,-9346.365076,-814.226536
5569.358522,0.000000,-8120.612279,0.000000
5569.358846,0.000000,-8350.440928,1406.391290
5569.359171,-666.185348,-9346.365076,740.205942
5569.359495,296.082377,-8197.221829,-296.082377
5569.359819,592.164754,-7507.735880,-518.144159
5569.360143,962.267725,-8503.660028,-370.102971
5569.360467,1110.308913,-8810.098227,-666.185348
5569.360791,222.061783,-8580.269578,-1036.288319
5569.361116,-222.061783,-8963.317327,666.185348
5569.361440,0.000000,-7737.564530,444.123565
5569.361764,962.267725,-8503.660028,0.000000
5569.362088,1332.370696,-9882.631924,0.000000
5569.362412,1628.453072,-9652.803275,-444.123565
5569.362736,2590.720797,-9499.584175,-1036.288319
5569.363061,0.000000,-8810.098227,-888.247130
5569.363385,296.082377,-9422.974625,-1258.350101
5569.363709,-1998.556043,-8350.440928,814.226536
5569.364033,-666.185348,-9039.926876,-222.061783
5569.364357,-666.185348,-7814.174080,-370.102971
5569.364681,1332.370696,-8963.317327,0.000000
5569.365005,0.000000,-8197.221829,-1850.514855
5569.365330,2146.597232,-8733.488677,-1258.350101
5569.365654,2072.576638,-8273.831378,-814.226536
5569.365978,-1110.308913,-8350.440928,-666.185348
5569.366302,-518.144159,-8886.707777,148.041188
5569.366626,-444.123565,-7967.393179,518.144159
5569.366950,666.185348,-9652.803275,0.000000
5569.367275,1924.535449,-8350.440928,-666.185348
5569.367599,1110.308913,-9959.241474,-518.144159
5569.367923,1406.391290,-7507.735880,-2072.576638
5569.368247,370.102971,-8044.002729,74.020594
5569.368571,222.061783,-8656.879127,222.061783
5569.368895,814.226536,-8273.831378,74.020594
5569.369220,0.000000,-7584.345430,-666.185348
5569.369544,148.041188,-8656.879127,-370.102971
5569.369868,888.247130,-8733.488677,-1480.411884
5569.370192,1110.308913,-8656.879127,-2368.659014
5569.370516,-1110.308913,-9806.022374,-444.123565
5569.370840,-888.247130,-8733.488677,0.000000
5569.371165,-962.267725,-8733.488677,592.164754
5569.371489,296.082377,-8503.660028,222.061783
5569.371813,2368.659014,-9116.536426,-814.226536
5569.372137,1332.370696,-9039.926876,-296.082377
5569.372461,3330.926739,-8733.488677,-296.082377
5569.372785,2516.700203,-8503.660028,-1110.308913
5569.373110,-296.082377,-8886.707777,-1110.308913
5569.373434,-222.061783,-7814.174080,592.164754
5569.373758,592.164754,-8427.050478,740.205942
5569.374082,-1776.494261,-8197.221829,-888.247130
5569.374406,1036.288319,-8503.660028,296.082377
5569.374730,222.061783,-8733.488677,-962.267725
5569.375055,-148.041188,-9652.803275,0.000000
5569.375379,-1554.432478,-7431.126331,-1480.411884
5569.375703,-1110.308913,-8963.317327,666.185348
5569.376027,-296.082377,-8503.660028,-296.082377
5569.376351,2220.617826,-8656.879127,-148.041188
5569.376675,1480.411884,-8656.879127,444.123565
5569.377000,1480.411884,-8427.050478,-148.041188
5569.377324,2590.720797,-8810.098227,-1036.288319
5569.377648,666.185348,-8580.269578,-370.102971
5569.377972,1850.514855,-8503.660028,0.000000
5569.378296,-1406.391290,-8120.612279,814.226536
5569.378620,-1998.556043,-8656.879127,0.000000
5569.378945,-1258.350101,-8810.098227,-370.102971
5569.379269,-296.082377,-8656.879127,-1036.288319
5569.379593,74.020594,-9193.145976,0.000000
5569.379917,-222.061783,-7737.564530,-814.226536
5569.380241,-592.164754,-7814.174080,-444.123565
5569.380565,-1110.308913,-8044.002729,-1110.308913
5569.380890,592.164754,-9422.974625,740.205942
5569.381214,1406.391290,-9116.536426,-814.226536
5569.381538,2960.823768,-9499.584175,74.020594
5569.381862,1628.453072,-9422.974625,444.123565
5569.382186,2516.700203,-9576.193725,-1110.308913
5569.382510,1628.453072,-8503.660028,-1406.391290
5569.382834,0.000000,-8580.269578,-518.144159
5569.383159,-1036.288319,-9422.974625,888.247130
5569.383483,-370.102971,-7814.174080,0.000000
5569.383807,148.041188,-9193.145976,370.102971
5569.384131,740.205942,-6665.030833,-1036.288319
5569.384455,-296.082377,-9269.755526,-1110.308913
5569.384779,592.164754,-8044.002729,-2220.617826
5569.385104,1036.288319,-9269.755526,-518.144159
5569.385428,0.000000,-8350.440928,-888.247130
5569.385752,-1258.350101,-10035.851024,444.123565
5569.386076,962.267725,-8503.660028,-518.144159
5569.386400,1924.535449,-9422.974625,370.102971
5569.386724,592.164754,-8656.879127,-1554.432478
5569.387049,1110.308913,-9193.145976,-740.205942
5569.387373,-592.164754,-8197.221829,-666.185348
5569.387697,-666.185348,-9116.536426,0.000000
5569.388021,592.164754,-8427.050478,0.000000
5569.388345,-1332.370696,-8120.612279,74.020594
5569.388669,370.102971,-7737.564530,296.082377
5569.388994,148.041188,-7967.393179,-1998.556043
5569.389318,3256.906145,-9422.974625,-1554.432478
5569.389642,1924.535449,-7354.516781,-962.267725
5569.389966,0.000000,-8350.440928,-1258.350101
5569.390290,296.082377,-9346.365076,888.247130
5569.390614,-1702.473667,-7584.345430,74.020594
5569.390939,1998.556043,-10189.070123,518.144159
5569.391263,740.205942,-7814.174080,-1332.370696
5569.391587,1998.556043,-9882.631924,740.205942
5569.391911,1702.473667,-8427.050478,-1554.432478
5569.392235,1110.308913,-8580.269578,-296.082377
5569.392559,-296.082377,-7354.516781,-222.061783
5569.392884,-1110.308913,-7967.393179,-222.061783
5569.393208,-592.164754,-9193.145976,-592.164754
5569.393532,592.164754,-7354.516781,-370.102971
5569.393856,1924.535449,-9882.631924,370.102971
5569.394180,-2368.659014,-5898.935335,-962.267725
5569.394504,1184.329507,-9499.584175,-1924.535449
5569.394829,-1406.391290,-9652.803275,-666.185348
5569.395153,1628.453072,-8503.660028,888.247130
5569.395477,370.102971,-6971.469032,-222.061783
5569.395801,74.020594,-9806.022374,2368.659014
5569.396125,1258.350101,-7584.345430,-2220.617826
5569.396449,2590.720797,-9346.365076,0.000000
5569.396774,1258.350101,-8733.488677,-1036.288319
5569.397098,0.000000,-8120.612279,-148.041188
5569.397422,592.164754,-7277.907231,148.041188
5569.397746,592.164754,-8427.050478,740.205942
5569.398070,888.247130,-9346.365076,-222.061783
5569.398394,-1110.308913,-7814.174080,-1110.308913
5569.398719,-592.164754,-8810.098227,740.205942
5569.399043,-888.247130,-7507.735880,-592.164754
5569.399367,518.144159,-9806.022374,-666.185348
5569.399691,148.041188,-8350.440928,-2072.576638
5569.400015,370.102971,-9499.584175,296.082377
5569.400339,0.000000,-8273.831378,-444.123565
5569.400663,1628.453072,-9652.803275,1258.350101
5569.400988,1184.329507,-7431.126331,-592.164754
5569.401312,2220.617826,-9959.241474,-148.041188
5569.401636,666.185348,-8886.707777,-1850.514855
5569.401960,2442.679609,-9422.974625,0.000000
5569.402284,-518.144159,-7431.126331,-222.061783
5569.402608,-1258.350101,-9193.145976,444.123565
5569.402933,-296.082377,-8810.098227,-1036.288319
5569.403257,-1406.391290,-7814.174080,0.000000
5569.403581,0.000000,-8733.488677,-666.185348
5569.403905,888.247130,-8427.050478,-1332.370696
5569.404230,370.102971,-8273.831378,-148.041188
5569.404554,1036.288319,-7737.564530,-1850.514855
5569.404878,-592.164754,-8886.707777,-1110.308913
5569.405202,-296.082377,-9499.584175,592.164754
5569.405527,74.020594,-8810.098227,-296.082377
5569.405851,2294.638420,-10418.898773,296.082377
5569.406175,592.164754,-7660.954980,-814.226536
5569.406500,1258.350101,-9039.926876,-666.185348
5569.406824,0.000000,-7584.345430,-1184.329507
5569.407148,1924.535449,-9039.926876,888.247130
5569.407473,-1998.556043,-7584.345430,-296.082377
5569.407797,0.000000,-8886.707777,296.082377
5569.408121,370.102971,-8273.831378,-888.247130
5569.408445,370.102971,-8503.660028,0.000000
5569.408770,740.205942,-8503.660028,-888.247130
5569.409094,814.226536,-9039.926876,-1036.288319
5569.409418,148.041188,-8350.440928,-592.164754
5569.409743,0.000000,-8273.831378,-814.226536
5569.410067,0.000000,-7890.783629,1702.473667
5569.410391,74.020594,-8427.050478,74.020594
5569.410716,962.267725,-9499.584175,-148.041188
5569.411040,1924.535449,-9576.193725,148.041188
5569.411364,1184.329507,-8350.440928,-962.267725
5569.411688,222.061783,-8656.879127,-888.247130
5569.412013,666.185348,-7737.564530,-666.185348
5569.412337,-370.102971,-9346.365076,888.247130
5569.412661,-148.041188,-7584.345430,-296.082377
5569.412986,888.247130,-8044.002729,740.205942
5569.413310,-962.267725,-8120.612279,-962.267725
5569.413634,-296.082377,-8580.269578,-962.267725
5569.413959,0.000000,-8197.221829,-1332.370696
5569.414283,-666.185348,-8963.317327,-962.267725
5569.414607,-1332.370696,-9882.631924,888.247130
5569.414931,-1036.288319,-8197.221829,-814.226536
5569.415256,962.267725,-9422.974625,222.061783
5569.415580,1258.350101,-7201.297681,-666.185348
5569.415904,3182.885551,-9652.803275,74.020594
5569.416229,2294.638420,-7737.564530,-1480.411884
5569.416553,1850.514855,-9269.755526,0.000000
5569.416877,-1110.308913,-7890.783629,-222.061783
5569.417202,1110.308913,-9729.412825,740.205942
5569.417526,222.061783,-7890.783629,-1036.288319
5569.417850,-222.061783,-8197.221829,592.164754
5569.418174,-740.205942,-7277.907231,-370.102971
5569.418499,740.205942,-9499.584175,-740.205942
5569.418823,-666.185348,-7890.783629,-1776.494261
5569.419147,222.061783,-8656.879127,-518.144159
5569.419472,0.000000,-8503.660028,-296.082377
5569.419796,0.000000,-8810.098227,1184.329507
5569.420120,1184.329507,-8120.612279,-518.144159
5569.420444,3330.926739,-9039.926876,-666.185348
5569.420769,2146.597232,-9116.536426,-1184.329507
5569.421093,2886.803174,-9193.145976,-296.082377
5569.421417,1258.350101,-7584.345430,-1332.370696
5569.421742,592.164754,-10035.851024,1406.391290
5569.422066,-1480.411884,-8120.612279,-370.102971
5569.422390,-666.185348,-9039.926876,0.000000
5569.422715,-666.185348,-8273.831378,-1036.288319
5569.423039,74.020594,-8656.879127,-740.205942
5569.423363,370.102971,-8963.317327,-740.205942
5569.423687,-1998.556043,-8350.440928,-1628.453072
5569.424012,-2368.659014,-8503.660028,-814.226536
5569.424336,148.041188,-7967.393179,1110.308913
5569.424660,1406.391290,-9346.365076,666.185348
5569.424985,2368.659014,-9116.536426,-370.102971
5569.425309,2590.720797,-9422.974625,0.000000
5569.425633,1776.494261,-9959.241474,-1184.329507
5569.425958,370.102971,-8273.831378,-1480.411884
5569.426282,370.102971,-8886.707777,1406.391290
5569.426606,-1554.432478,-7431.126331,-74.020594
5569.426930,-1998.556043,-9729.412825,814.226536
5569.427255,-1776.494261,-8120.612279,-370.102971
5569.427579,-1036.288319,-7814.174080,-1036.288319
5569.427903,2072.576638,-8044.002729,-666.185348
5569.428228,1628.453072,-8427.050478,-296.082377
5569.428552,2294.638420,-8886.707777,-1406.391290
5569.428876,-148.041188,-7354.516781,-740.205942
5569.429201,666.185348,-9576.193725,666.185348
5569.429525,1036.288319,-8580.269578,-296.082377
5569.429849,2368.659014,-9806.022374,518.144159
5569.430173,1998.556043,-7354.516781,-148.041188
5569.430498,-222.061783,-10112.460574,0.000000
5569.430822,2220.617826,-8197.221829,-2294.638420
5569.431146,-1776.494261,-9116.536426,518.144159
5569.431471,-1184.329507,-7814.174080,666.185348
5569.431795,-1628.453072,-8656.879127,592.164754
5569.432119,-740.205942,-8197.221829,-518.144159
5569.432444,-3404.947333,-7354.516781,0.000000
5569.432768,1036.288319,-8963.317327,-888.247130
5569.433092,0.000000,-7660.954980,-740.205942
5569.433416,1850.514855,-9806.022374,-222.061783
5569.433741,-814.226536,-7967.393179,-1850.514855
5569.434065,740.205942,-9422.974625,370.102971
5569.434389,370.102971,-7507.735880,222.061783
5569.434714,2516.700203,-9576.193725,296.082377
5569.435038,2146.597232,-8120.612279,296.082377
5569.435362,1702.473667,-9116.536426,444.123565
5569.435687,1702.473667,-9422.974625,-1110.308913
5569.436011,-370.102971,-8120.612279,-1036.288319
5569.436335,740.205942,-8886.707777,444.123565
5569.436659,-666.185348,-8427.050478,-370.102971
5569.436984,-1480.411884,-8350.440928,0.000000
5569.437308,962.267725,-8044.002729,-666.185348
5569.437632,74.020594,-8427.050478,-444.123565
5569.437957,518.144159,-9346.365076,-1332.370696
5569.438281,518.144159,-9346.365076,-1998.556043
5569.438605,0.000000,-8350.440928,-740.205942
5569.438930,148.041188,-10495.508323,1110.308913
5569.439254,666.185348,-8350.440928,370.102971
5569.439578,-518.144159,-7660.954980,-814.226536
5569.439902,962.267725,-9806.022374,0.000000
5569.440227,2368.659014,-8580.269578,-518.144159
5569.440551,1776.494261,-9269.755526,-444.123565
5569.440875,-296.082377,-8273.831378,-1110.308913
5569.441200,-1406.391290,-7890.783629,-296.082377
5569.441524,592.164754,-8733.488677,0.000000
5569.441848,518.144159,-8810.098227,-296.082377
5569.442173,518.144159,-8656.879127,222.061783
5569.442497,-1332.370696,-8044.002729,-1406.391290
5569.442821,-148.041188,-9193.145976,-370.102971
5569.443145,1036.288319,-8427.050478,-2368.659014
5569.443470,-296.082377,-8120.612279,-222.061783
5569.443794,-1480.411884,-7277.907231,1036.288319
5569.444118,1036.288319,-9039.926876,0.000000
5569.444443,370.102971,-9652.803275,-296.082377
5569.444767,2072.576638,-8120.612279,148.041188
5569.445091,3775.050304,-9422.974625,-1628.453072
5569.445416,1628.453072,-9576.193725,0.000000
5569.445740,1998.556043,-8503.660028,-296.082377
5569.446064,370.102971,-8197.221829,0.000000
5569.446388,296.082377,-9269.755526,222.061783
5569.446713,-222.061783,-7431.126331,-666.185348
5569.447037,518.144159,-8044.002729,962.267725
5569.447361,-1406.391290,-7890.783629,-518.144159
5569.447686,0.000000,-8810.098227,-1036.288319
5569.448010,-888.247130,-7814.174080,-1480.411884
5569.448334,-222.061783,-8886.707777,-1628.453072
5569.448659,370.102971,-9193.145976,592.164754
5569.448983,740.205942,-8350.440928,74.020594
5569.449307,1998.556043,-9346.365076,-222.061783
5569.449631,2072.576638,-8733.488677,-444.123565
5569.449956,2294.638420,-9499.584175,0.000000
5569.450280,1258.350101,-8044.002729,-1776.494261
5569.450604,740.205942,-8350.440928,370.102971
5569.450929,-296.082377,-8580.269578,592.164754
5569.451253,-814.226536,-8963.317327,148.041188
5569.451577,-1332.370696,-8656.879127,-666.185348
5569.451901,-444.123565,-8427.050478,0.000000
5569.452226,296.082377,-7277.907231,0.000000
5569.452550,1036.288319,-8810.098227,-1110.308913
5569.452874,888.247130,-8350.440928,-888.247130
5569.453199,-518.144159,-7967.393179,-370.102971
5569.453523,-1332.370696,-9193.145976,444.123565
5569.453847,1184.329507,-8886.707777,0.000000
5569.454172,2664.741391,-8656.879127,0.000000
5569.454496,1110.308913,-9269.755526,0.000000
5569.454820,444.123565,-8810.098227,-1628.453072
5569.455144,1628.453072,-9269.755526,-666.185348
5569.455469,148.041188,-8350.440928,-296.082377
5569.455793,-444.123565,-8733.488677,-148.041188
5569.456117,-1406.391290,-8273.831378,-296.082377
5569.456442,148.041188,-8427.050478,222.061783
5569.456766,0.000000,-8197.221829,-666.185348
5569.457090,0.000000,-8810.098227,-222.061783
5569.457415,1036.288319,-7967.393179,-1258.350101
5569.457739,0.000000,-8427.050478,-1554.432478
5569.458063,-518.144159,-9576.193725,-1332.370696
5569.458387,592.164754,-8350.440928,74.020594
5569.458712,222.061783,-9499.584175,296.082377
5569.459036,1702.473667,-8656.879127,-814.226536
5569.459360,1332.370696,-9499.584175,444.123565
5569.459685,1628.453072,-9116.536426,-962.267725
5569.460009,888.247130,-9499.584175,-1036.288319
5569.460333,1628.453072,-7737.564530,-1480.411884
5569.460658,-888.247130,-8810.098227,222.061783
5569.460982,-1258.350101,-8810.098227,-962.267725
5569.461306,-1110.308913,-9193.145976,-592.164754
5569.461630,-370.102971,-7967.393179,370.102971
5569.461955,296.082377,-8963.317327,222.061783
5569.462279,2368.659014,-9193.145976,-1332.370696
5569.462603,-888.247130,-8580.269578,-2072.576638
5569.462928,666.185348,-8733.488677,666.185348
5569.463252,-1184.329507,-7201.297681,-666.185348
5569.463576,-888.247130,-9576.193725,962.267725
5569.463901,-444.123565,-7431.126331,222.061783
5569.464225,370.102971,-9499.584175,1406.391290
5569.464549,1184.329507,-8580.269578,-1036.288319
5569.464873,1850.514855,-8810.098227,0.000000
5569.465198,2368.659014,-8886.707777,-370.102971
5569.465522,592.164754,-8273.831378,-296.082377
5569.465846,74.020594,-9269.755526,740.205942
5569.466171,0.000000,-7354.516781,370.102971
5569.466495,-592.164754,-7431.126331,370.102971
5569.466819,-962.267725,-8810.098227,-296.082377
5569.467144,74.020594,-7660.954980,-1998.556043
5569.467468,0.000000,-7890.783629,296.082377
5569.467792,-2220.617826,-7354.516781,-2294.638420
5569.468116,1480.411884,-8503.660028,1998.556043
5569.468441,814.226536,-7584.345430,0.000000
5569.468765,2294.638420,-10265.679673,444.123565
5569.469089,3256.906145,-8503.660028,-1036.288319
5569.469414,1702.473667,-9193.145976,962.267725
5569.469738,1184.329507,-8273.831378,-1702.473667
5569.470062,-222.061783,-8197.221829,-518.144159
5569.470387,74.020594,-9116.536426,296.082377
5569.470711,-1406.391290,-7660.954980,0.000000
5569.471035,-1702.473667,-9499.584175,-370.102971
5569.471359,0.000000,-7660.954980,-962.267725
5569.471684,-1480.411884,-8963.317327,0.000000
5569.472008,1036.288319,-9116.536426,-1480.411884
5569.472332,1702.473667,-8503.660028,-1110.308913
5569.472657,962.267725,-9422.974625,444.123565
5569.472981,2442.679609,-8197.221829,-1628.453072
5569.473305,962.267725,-8886.707777,74.020594
5569.473630,2960.823768,-8733.488677,-962.267725
5569.473954,3034.844362,-9422.974625,0.000000
5569.474278,3404.947333,-8656.879127,-814.226536
5569.474602,-370.102971,-9346.365076,-666.185348
5569.474927,-1110.308913,-7660.954980,0.000000
5569.475251,-1924.535449,-9499.584175,-296.082377
5569.475575,-1036.288319,-8503.660028,-148.041188
5569.475900,-296.082377,-9193.145976,-370.102971
5569.476224,518.144159,-7507.735880,-888.247130
5569.476548,74.020594,-9729.412825,-444.123565
5569.476873,-1110.308913,-8197.221829,-2590.720797
5569.477197,888.247130,-10265.679673,-1406.391290
5569.477521,-740.205942,-7890.783629,-814.226536
5569.477845,1776.494261,-10035.851024,888.247130
5569.478170,1406.391290,-7890.783629,-1850.514855
5569.478494,2294.638420,-9959.241474,592.164754
5569.478818,1480.411884,-7890.783629,-814.226536
5569.479143,518.144159,-10035.851024,-370.102971
5569.479467,0.000000,-8273.831378,-518.144159
5569.479791,1036.288319,-7584.345430,222.061783
5569.480116,222.061783,-8427.050478,0.000000
5569.480440,-1554.432478,-7967.393179,-148.041188
5569.480764,1258.350101,-8120.612279,-592.164754
5569.481088,962.267725,-8733.488677,-148.041188
5569.481413,148.041188,-8427.050478,-518.144159
5569.481737,1332.370696,-8580.269578,-1036.288319
5569.482061,-518.144159,-7967.393179,-592.164754
5569.482386,1332.370696,-8503.660028,370.102971
5569.482710,-518.144159,-7660.954980,0.000000
5569.483034,666.185348,-9806.022374,888.247130
5569.483358,1480.411884,-7507.735880,296.082377
5569.483683,2368.659014,-9422.974625,-222.061783
5569.484007,2294.638420,-8886.707777,-1332.370696
5569.484331,370.102971,-7967.393179,592.164754
5569.484656,-296.082377,-7814.174080,296.082377
5569.484980,962.267725,-8656.879127,1258.350101
5569.485304,0.000000,-7507.735880,-222.061783
5569.485629,370.102971,-9499.584175,148.041188
5569.485953,-962.267725,-7277.907231,0.000000
5569.486277,-962.267725,-9346.365076,74.020594
5569.486601,-444.123565,-7814.174080,-888.247130
5569.486926,-962.267725,-7967.393179,222.061783
5569.487250,-888.247130,-8503.660028,-518.144159
5569.487574,740.205942,-9729.412825,740.205942
5569.487899,666.185348,-8733.488677,-296.082377
5569.488223,2294.638420,-9422.974625,0.000000
5569.488547,2442.679609,-8733.488677,-962.267725
5569.488872,3330.926739,-9422.974625,74.020594
5569.489196,1184.329507,-9039.926876,-1036.288319
5569.489520,-1110.308913,-7507.735880,0.000000
5569.489844,-592.164754,-8810.098227,592.164754
5569.490169,-1554.432478,-8197.221829,-1332.370696
5569.490493,-888.247130,-8733.488677,222.061783
5569.490817,-370.102971,-7354.516781,444.123565
5569.491142,592.164754,-9806.022374,-1850.514855
5569.491466,-222.061783,-8044.002729,-1480.411884
5569.491790,666.185348,-8656.879127,-1258.350101
5569.492115,-888.247130,-8810.098227,-1332.370696
5569.492439,740.205942,-8810.098227,-814.226536
5569.492763,1702.473667,-9806.022374,0.000000
5569.493087,962.267725,-8580.269578,-1036.288319
5569.493412,1110.308913,-10265.679673,-518.144159
5569.493736,1258.350101,-8733.488677,-962.267725
5569.494060,666.185348,-8656.879127,-740.205942
5569.494385,0.000000,-8120.612279,-370.102971
5569.494709,-962.267725,-8503.660028,222.061783
5569.495033,222.061783,-8580.269578,-1184.329507
5569.495358,518.144159,-9193.145976,-888.247130
5569.495682,888.247130,-8733.488677,-370.102971
5569.496006,-148.041188,-8273.831378,-1110.308913
5569.496330,2812.782580,-9882.631924,-814.226536
5569.496655,0.000000,-8273.831378,-1702.473667
5569.496979,1036.288319,-10035.851024,518.144159
5569.497303,0.000000,-8120.612279,-1628.453072
5569.497628,1332.370696,-9959.241474,814.226536
5569.497952,0.000000,-8350.440928,-1184.329507
5569.498276,1924.535449,-9269.755526,444.123565
5569.498601,666.185348,-8810.098227,-1332.370696
5569.498925,0.000000,-8886.707777,-888.247130
5569.499249,1184.329507,-8273.831378,444.123565
5569.499573,-888.247130,-8044.002729,666.185348
5569.499898,444.123565,-9499.584175,-370.102971
5569.500222,0.000000,-8120.612279,-1258.350101
5569.500546,0.000000,-10035.851024,-74.020594
5569.500871,-148.041188,-8197.221829,-962.267725
5569.501195,0.000000,-9039.926876,-444.123565
5569.501519,74.020594,-7584.345430,-444.123565
5569.501844,-1110.308913,-8197.221829,-222.061783
5569.502168,-814.226536,-9193.145976,888.247130
5569.502492,518.144159,-9039.926876,592.164754
5569.502816,1480.411884,-8120.612279,-296.082377
5569.503141,3256.906145,-8503.660028,1110.308913
5569.503465,2664.741391,-9039.926876,-1332.370696
5569.503789,814.226536,-8963.317327,-370.102971
5569.504114,0.000000,-6818.249932,592.164754
5569.504438,-1924.535449,-8197.221829,740.205942
5569.504762,-2220.617826,-8273.831378,-518.144159
5569.505087,74.020594,-8810.098227,74.020594
5569.505411,370.102971,-8044.002729,-222.061783
5569.505735,0.000000,-8580.269578,-1036.288319
5569.506060,370.102971,-7660.954980,-370.102971
5569.506384,-296.082377,-7890.783629,0.000000
5569.506708,-740.205942,-7814.174080,740.205942
5569.507033,2886.803174,-8733.488677,74.020594
5569.507357,2368.659014,-8120.612279,148.041188
5569.507681,3552.988522,-11031.775171,1998.556043
5569.508006,0.000000,-7124.688131,-1480.411884
5569.508330,1998.556043,-9652.803275,-222.061783
5569.508654,3404.947333,-7431.126331,-2072.576638
5569.508979,148.041188,-9652.803275,444.123565
5569.509303,-740.205942,-8580.269578,0.000000
5569.509627,-1036.288319,-9116.536426,814.226536
5569.509952,740.205942,-7737.564530,-296.082377
5569.510276,-148.041188,-9193.145976,-296.082377
5569.510600,-444.123565,-7660.954980,-592.164754
5569.510925,-444.123565,-9116.536426,-2072.576638
5569.511249,-740.205942,-8273.831378,-1332.370696
5569.511573,888.247130,-9499.584175,148.041188
5569.511898,296.082377,-8273.831378,-740.205942
5569.512222,1850.514855,-9193.145976,370.102971
5569.512546,1628.453072,-8427.050478,-518.144159
5569.512871,2590.720797,-9346.365076,0.000000
5569.513195,2664.741391,-9346.365076,-740.205942
5569.513519,888.247130,-7890.783629,-1332.370696
5569.513844,518.144159,-9116.536426,0.000000
5569.514168,-1184.329507,-7048.078582,-2220.617826
5569.514492,-592.164754,-10342.289223,296.082377
5569.514817,-666.185348,-6894.859482,-518.144159
5569.515141,-2146.597232,-8580.269578,74.020594
5569.515465,444.123565,-8197.221829,-1406.391290
5569.515790,-444.123565,-8120.612279,-1850.514855
5569.516114,296.082377,-9806.022374,0.000000
5569.516438,666.185348,-7584.345430,-518.144159
5569.516763,814.226536,-9269.755526,-740.205942
5569.517087,2442.679609,-9729.412825,592.164754
5569.517411,3478.967927,-9039.926876,0.000000
5569.517736,1480.411884,-9116.536426,-1998.556043
5569.518060,888.247130,-9422.974625,-592.164754
5569.518384,1776.494261,-8044.002729,-148.041188
5569.518709,0.000000,-8044.002729,-1184.329507
5569.519033,-1480.411884,-7507.735880,1184.329507
5569.519357,444.123565,-7890.783629,-592.164754
5569.519682,74.020594,-8120.612279,-296.082377
5569.520006,222.061783,-9116.536426,222.061783
5569.520330,444.123565,-8197.221829,-74.020594
5569.520655,-518.144159,-8656.879127,-296.082377
5569.520979,-888.247130,-7507.735880,-962.267725
5569.521303,740.205942,-9576.193725,74.020594
5569.521628,-1110.308913,-8733.488677,740.205942
5569.521952,1184.329507,-8886.707777,74.020594
5569.522276,1702.473667,-9193.145976,-370.102971
5569.522601,1406.391290,-9269.755526,74.020594
5569.522925,370.102971,-8427.050478,-222.061783
5569.523249,1184.329507,-6665.030833,-148.041188
5569.523574,0.000000,-8656.879127,592.164754
5569.523898,-518.144159,-7584.345430,-444.123565
5569.524222,370.102971,-8503.660028,74.020594
5569.524547,-222.061783,-7967.393179,-444.123565
5569.524871,962.267725,-8886.707777,444.123565
5569.525195,148.041188,-8503.660028,-592.164754
5569.525520,0.000000,-8503.660028,-222.061783
5569.525844,-740.205942,-7354.516781,-444.123565
5569.526168,1036.288319,-8656.879127,370.102971
5569.526493,148.041188,-8197.221829,444.123565
5569.526817,1554.432478,-8733.488677,814.226536
5569.527141,1628.453072,-8427.050478,-1036.288319
5569.527466,-2368.659014,-9729.412825,-1184.329507
5569.527790,3108.864956,-9882.631924,-370.102971
5569.528114,3849.070898,-7967.393179,-2886.803174
5569.528439,444.123565,-10572.117872,814.226536
5569.528763,-518.144159,-7277.907231,-296.082377
5569.529087,-2146.597232,-8273.831378,-740.205942
5569.529411,-1480.411884,-8580.269578,1554.432478
5569.529736,0.000000,-7737.564530,-2220.617826
5569.530060,0.000000,-9959.241474,444.123565
5569.530384,-592.164754,-6971.469032,-2590.720797
5569.530709,-962.267725,-8963.317327,666.185348
5569.531033,-740.205942,-8273.831378,-518.144159
5569.531357,-1110.308913,-9652.803275,-148.041188
5569.531682,1332.370696,-8886.707777,0.000000
5569.532006,888.247130,-7967.393179,0.000000
5569.532330,3256.906145,-10418.898773,-370.102971
5569.532655,1554.432478,-8273.831378,-1332.370696
5569.532979,740.205942,-9882.631924,-666.185348
5569.533303,1184.329507,-8044.002729,-1110.308913
5569.533628,814.226536,-8503.660028,0.000000
5569.533952,1850.514855,-8810.098227,-592.164754
5569.534276,-148.041188,-8044.002729,-296.082377
5569.534601,0.000000,-9346.365076,-518.144159
5569.534925,0.000000,-9576.193725,-1554.432478
5569.535249,-1776.494261,-8427.050478,-1184.329507
5569.535574,-1184.329507,-8580.269578,-370.102971
5569.535898,-1036.288319,-8120.612279,-370.102971
5569.536222,1406.391290,-9882.631924,0.000000
5569.536547,666.185348,-8044.002729,-814.226536
5569.536871,2812.782580,-10035.851024,222.061783
5569.537195,2516.700203,-8733.488677,-1184.329507
5569.537520,1628.453072,-9806.022374,-814.226536
5569.537844,1110.308913,-6894.859482,-296.082377
5569.538168,592.164754,-9116.536426,148.041188
5569.538493,1036.288319,-8733.488677,-888.247130
5569.538817,444.123565,-8886.707777,370.102971
5569.539141,-592.164754,-7354.516781,-1480.411884
5569.539466,-222.061783,-9729.412825,444.123565
5569.539790,-2368.659014,-7048.078582,-1850.514855
5569.540114,-1110.308913,-10189.070123,888.247130
5569.540439,-592.164754,-7277.907231,-1702.473667
5569.540763,-1110.308913,-9729.412825,1036.288319
5569.541087,1110.308913,-8273.831378,222.061783
5569.541412,2072.576638,-9269.755526,0.000000
5569.541736,1998.556043,-9422.974625,-518.144159
5569.542060,1924.535449,-8350.440928,-592.164754
5569.542385,1702.473667,-9346.365076,-222.061783
5569.542709,444.123565,-7890.783629,-444.123565
5569.543033,1480.411884,-9116.536426,518.144159
5569.543358,-740.205942,-8120.612279,0.000000
5569.543682,148.041188,-7890.783629,-666.185348
5569.544006,-148.041188,-8503.660028,0.000000
5569.544331,-444.123565,-8273.831378,74.020594
5569.544655,-296.082377,-8427.050478,0.000000
5569.544979,-1554.432478,-8580.269578,-1332.370696
5569.545304,-1258.350101,-8580.269578,0.000000
5569.545628,-444.123565,-8886.707777,0.000000
5569.545952,518.144159,-9039.926876,148.041188
5569.546277,2146.597232,-9576.193725,592.164754
5569.546601,1110.308913,-8427.050478,-666.185348
5569.546925,2886.803174,-9652.803275,444.123565
5569.547250,1036.288319,-9729.412825,-1702.473667
5569.547574,1776.494261,-9576.193725,-740.205942
5569.547898,-888.247130,-8273.831378,148.041188
5569.548223,-1850.514855,-8120.612279,-148.041188
5569.548547,148.041188,-8427.050478,-666.185348
5569.548871,-666.185348,-8273.831378,-888.247130
5569.549196,-1924.535449,-9269.755526,-370.102971
5569.549520,-1184.329507,-7737.564530,-888.247130
5569.549844,-296.082377,-8963.317327,-888.247130
5569.550169,-296.082377,-7967.393179,-1258.350101
5569.550493,1406.391290,-8044.002729,0.000000
5569.550817,1554.432478,-8963.317327,74.020594
5569.551142,1480.411884,-8810.098227,-1332.370696
5569.551466,3775.050304,-10495.508323,-370.102971
5569.551790,2738.761985,-9193.145976,-666.185348
5569.552115,1406.391290,-9806.022374,-1036.288319
5569.552439,-592.164754,-8580.269578,-1850.514855
5569.552763,-370.102971,-8503.660028,888.247130
5569.553088,-888.247130,-8197.221829,-1110.308913
5569.553412,-2368.659014,-7967.393179,-222.061783
5569.553736,518.144159,-7967.393179,370.102971
5569.554061,1480.411884,-7584.345430,-1480.411884
5569.554385,148.041188,-9652.803275,-1258.350101
5569.554709,888.247130,-7660.954980,-222.061783
5569.555034,888.247130,-8273.831378,0.000000
5569.555358,444.123565,-8350.440928,-1110.308913
5569.555682,2220.617826,-9729.412825,370.102971
5569.556007,3034.844362,-8273.831378,-296.082377
5569.556331,1480.411884,-10418.898773,222.061783
5569.556655,0.000000,-8273.831378,-1332.370696
5569.556980,518.144159,-9269.755526,148.041188
5569.557304,814.226536,-8503.660028,-1184.329507
5569.557628,1036.288319,-8350.440928,-296.082377
5569.557953,-740.205942,-7584.345430,-148.041188
5569.558277,1332.370696,-8503.660028,444.123565
5569.558601,1998.556043,-8886.707777,518.144159
5569.558926,-814.226536,-6435.202183,-740.205942
5569.559250,0.000000,-8503.660028,-1924.535449
5569.559574,592.164754,-10878.556072,0.000000
5569.559899,296.082377,-7124.688131,-666.185348
5569.560223,-666.185348,-8656.879127,592.164754
5569.560547,0.000000,-8733.488677,962.267725
5569.560872,1110.308913,-9193.145976,-370.102971
5569.561196,2368.659014,-9346.365076,148.041188
5569.561520,4145.153275,-9806.022374,-592.164754
5569.561845,1184.329507,-8273.831378,-814.226536
5569.562169,-1036.288319,-7277.907231,962.267725
5569.562493,1258.350101,-7277.907231,-592.164754
5569.562818,-222.061783,-10112.460574,1036.288319
5569.563142,296.082377,-7354.516781,-1110.308913
5569.563466,-148.041188,-9269.755526,1258.350101
5569.563791,-1628.453072,-7431.126331,-1702.473667
5569.564115,-962.267725,-10035.851024,74.020594
5569.564439,-1184.329507,-7584.345430,-1628.453072
5569.564764,-518.144159,-9806.022374,740.205942
5569.565088,740.205942,-8044.002729,-666.185348
5569.565412,370.102971,-9269.755526,296.082377
5569.565737,3108.864956,-7967.393179,0.000000
5569.566061,2738.761985,-9039.926876,-444.123565
5569.566385,3108.864956,-9882.631924,-148.041188
5569.566710,592.164754,-7660.954980,-740.205942
5569.567034,3552.988522,-8273.831378,1184.329507
5569.567358,-5033.400406,-8044.002729,-1776.494261
5569.567683,-2294.638420,-9116.536426,-888.247130
5569.568007,-1702.473667,-7967.393179,222.061783
5569.568331,-296.082377,-8273.831378,-666.185348
5569.568656,518.144159,-8656.879127,-370.102971
5569.568980,-1850.514855,-7967.393179,-2072.576638
5569.569304,-1480.411884,-8886.707777,-148.041188
5569.569629,296.082377,-8197.221829,-2368.659014
5569.569953,1184.329507,-11874.480219,1258.350101
5569.570277,1036.288319,-7124.688131,-1258.350101
5569.570602,4071.132681,-10035.851024,888.247130
5569.570926,2516.700203,-8580.269578,-1628.453072
5569.571250,1850.514855,-10725.336972,0.000000
5569.571575,1480.411884,-6511.811733,-1332.370696
5569.571899,-1406.391290,-9346.365076,1702.473667
5569.572223,-592.164754,-7507.735880,-1628.453072
5569.572548,-518.144159,-8810.098227,1110.308913
5569.572872,-1554.432478,-7124.688131,-296.082377
5569.573196,-592.164754,-7737.564530,-222.061783
5569.573521,0.000000,-9116.536426,-888.247130
5569.573845,-148.041188,-8733.488677,-296.082377
5569.574169,1332.370696,-7890.783629,148.041188
5569.574494,-592.164754,-8963.317327,-2072.576638
5569.574818,1850.514855,-10801.946522,74.020594
5569.575142,1036.288319,-7354.516781,-814.226536
5569.575467,592.164754,-8733.488677,370.102971
5569.575791,2442.679609,-9882.631924,0.000000
5569.576115,-666.185348,-7354.516781,74.020594
5569.576440,962.267725,-8427.050478,1998.556043
5569.576764,666.185348,-7354.516781,-1554.432478
5569.577088,222.061783,-9729.412825,-370.102971
5569.577413,0.000000,-7354.516781,74.020594
5569.577737,-740.205942,-7890.783629,0.000000
5569.578061,518.144159,-8197.221829,-444.123565
5569.578386,3034.844362,-9729.412825,-666.185348
5569.578710,-222.061783,-7048.078582,-666.185348
5569.579034,-2294.638420,-8120.612279,-888.247130
5569.579359,1628.453072,-8963.317327,-1776.494261
5569.579683,814.226536,-9193.145976,-296.082377
5569.580007,2664.741391,-8733.488677,-296.082377
5569.580332,1480.411884,-7967.393179,1554.432478
5569.580656,444.123565,-7660.954980,814.226536
5569.580980,4219.173869,-9882.631924,-1258.350101
5569.581305,2812.782580,-9959.241474,-2590.720797
5569.581629,148.041188,-8120.612279,444.123565
5569.581953,0.000000,-7048.078582,-888.247130
5569.582278,-814.226536,-9039.926876,666.185348
5569.582602,1110.308913,-7967.393179,-1850.514855
5569.582926,-444.123565,-8963.317327,0.000000
5569.583251,-1110.308913,-7660.954980,-1184.329507
5569.583575,370.102971,-8350.440928,-222.061783
5569.583899,0.000000,-9039.926876,-1110.308913
5569.584224,0.000000,-10035.851024,296.082377
5569.584548,-1332.370696,-10112.460574,-1184.329507
5569.584872,1110.308913,-10035.851024,1036.288319
5569.585197,1036.288319,-8963.317327,592.164754
5569.585521,1850.514855,-9422.974625,-296.082377
5569.585845,2664.741391,-9499.584175,-1110.308913
5569.586170,1628.453072,-9193.145976,-962.267725
5569.586494,370.102971,-8197.221829,74.020594
5569.586818,-148.041188,-7660.954980,74.020594
5569.587143,-222.061783,-9269.755526,-148.041188
5569.587467,592.164754,-7890.783629,0.000000
5569.587791,0.000000,-8427.050478,-592.164754
5569.588116,-444.123565,-9039.926876,-1924.535449
5569.588440,-518.144159,-8197.221829,74.020594
5569.588764,-1480.411884,-8733.488677,-888.247130
5569.589089,-1184.329507,-8503.660028,-814.226536
5569.589413,2442.679609,-8197.221829,592.164754
5569.589737,1110.308913,-7507.735880,0.000000
5569.590062,888.247130,-8273.831378,148.041188
5569.590386,3182.885551,-9652.803275,-666.185348
5569.590710,-148.041188,-8810.098227,-1332.370696
5569.591035,74.020594,-9193.145976,-444.123565
5569.591359,-666.185348,-7584.345430,-148.041188
5569.591683,0.000000,-8963.317327,592.164754
5569.592008,-1184.329507,-7277.907231,-740.205942
5569.592332,-592.164754,-8810.098227,0.000000
5569.592656,-592.164754,-7967.393179,0.000000
5569.592981,-1628.453072,-7507.735880,-1702.473667
5569.593305,740.205942,-9499.584175,-444.123565
5569.593629,-814.226536,-7354.516781,-1036.288319
5569.593954,148.041188,-9806.022374,1332.370696
5569.594278,370.102971,-8350.440928,-1258.350101
5569.594602,1702.473667,-9422.974625,222.061783
5569.594926,888.247130,-8656.879127,370.102971
5569.595251,1924.535449,-9269.755526,740.205942
5569.595575,1554.432478,-8656.879127,-1110.308913
5569.595899,296.082377,-8427.050478,1036.288319
5569.596224,74.020594,-7584.345430,-370.102971
5569.596548,0.000000,-8044.002729,0.000000
5569.596872,0.000000,-7967.393179,-222.061783
5569.597197,518.144159,-7201.297681,370.102971
5569.597521,-1110.308913,-8733.488677,-296.082377
5569.597845,1110.308913,-8120.612279,-888.247130
5569.598170,1628.453072,-9193.145976,74.020594
5569.598494,74.020594,-8350.440928,-1110.308913
5569.598818,1406.391290,-9422.974625,814.226536
5569.599143,2294.638420,-7814.174080,-222.061783
5569.599467,1776.494261,-9959.241474,592.164754
5569.599791,1998.556043,-8427.050478,-148.041188
5569.600116,1258.350101,-9652.803275,148.041188
5569.600440,-518.144159,-8580.269578,-1924.535449
5569.600764,2442.679609,-9422.974625,0.000000
5569.601089,148.041188,-6665.030833,-740.205942
5569.601413,1258.350101,-8197.221829,-592.164754
5569.601737,-740.205942,-6818.249932,-666.185348
5569.602062,814.226536,-8503.660028,148.041188
5569.602386,888.247130,-8197.221829,-592.164754
5569.602710,814.226536,-8963.317327,-1480.411884
5569.603035,74.020594,-9652.803275,-592.164754
5569.603359,1702.473667,-7277.907231,-2294.638420
5569.603683,1184.329507,-10495.508323,222.061783
5569.604008,-592.164754,-7660.954980,-1406.391290
5569.604332,666.185348,-9882.631924,814.226536
5569.604656,1110.308913,-8733.488677,-370.102971
5569.604981,1258.350101,-9422.974625,222.061783
5569.605305,2294.638420,-7431.126331,-666.185348
5569.605629,962.267725,-8810.098227,-740.205942
5569.605954,592.164754,-7814.174080,-1776.494261
5569.606278,-666.185348,-8427.050478,-962.267725
5569.606603,0.000000,-8044.002729,-222.061783
5569.606927,-444.123565,-8197.221829,1554.432478
5569.607251,1924.535449,-8427.050478,0.000000
5569.607576,1258.350101,-8656.879127,-814.226536
5569.607900,-1036.288319,-6511.811733,-518.144159
5569.608224,666.185348,-10112.460574,1258.350101
5569.608549,888.247130,-7890.783629,-1480.411884
5569.608873,3552.988522,-10189.070123,592.164754
5569.609197,-1184.329507,-8350.440928,-1554.432478
5569.609522,2294.638420,-9959.241474,1776.494261
5569.609846,2072.576638,-8044.002729,-2368.659014
5569.610170,1776.494261,-10035.851024,1036.288319
5569.610495,296.082377,-6665.030833,-1110.308913
5569.610819,0.000000,-8810.098227,1776.494261
5569.611143,222.061783,-8810.098227,-888.247130
5569.611468,-888.247130,-8580.269578,-1036.288319
5569.611792,-666.185348,-8963.317327,0.000000
5569.612116,-2738.761985,-7584.345430,-888.247130
5569.612441,-1554.432478,-9806.022374,-888.247130
5569.612765,-1036.288319,-8044.002729,-1406.391290
5569.613089,-740.205942,-9422.974625,814.226536
5569.613414,148.041188,-7737.564530,-740.205942
5569.613738,-222.061783,-9806.022374,0.000000
5569.614062,814.226536,-7737.564530,148.041188
5569.614387,2220.617826,-9039.926876,148.041188
5569.614711,1406.391290,-9193.145976,370.102971
5569.615035,2368.659014,-8810.098227,-1036.288319
5569.615360,444.123565,-8120.612279,148.041188
5569.615684,-592.164754,-8273.831378,-592.164754
5569.616009,-1998.556043,-8427.050478,-370.102971
5569.616333,-1850.514855,-7354.516781,-666.185348
5569.616657,962.267725,-7814.174080,814.226536
5569.616982,370.102971,-7967.393179,-1406.391290
5569.617306,-74.020594,-8963.317327,0.000000
5569.617630,-222.061783,-8044.002729,-1184.329507
5569.617955,222.061783,-9499.584175,518.144159
5569.618279,0.000000,-9039.926876,-1554.432478
5569.618603,148.041188,-9959.241474,0.000000
5569.618928,2960.823768,-8503.660028,222.061783
5569.619252,3330.926739,-9116.536426,888.247130
5569.619576,1924.535449,-8503.660028,740.205942
5569.619901,888.247130,-8733.488677,-1184.329507
5569.620225,1332.370696,-8197.221829,-592.164754
5569.620549,1480.411884,-9039.926876,-148.041188
5569.620874,1110.308913,-7584.345430,74.020594
5569.621198,0.000000,-8580.269578,-740.205942
5569.621522,888.247130,-7814.174080,-962.267725
5569.621847,814.226536,-9806.022374,-444.123565
5569.622171,444.123565,-8197.221829,-666.185348
5569.622495,-518.144159,-8656.879127,-518.144159
5569.622820,-814.226536,-9499.584175,-666.185348
5569.623144,-1036.288319,-9422.974625,-370.102971
5569.623468,814.226536,-9422.974625,-592.164754
5569.623793,1850.514855,-8810.098227,-666.185348
5569.624117,1776.494261,-9806.022374,-296.082377
5569.624441,2072.576638,-8580.269578,-740.205942
5569.624766,1554.432478,-9116.536426,-888.247130
5569.625090,1702.473667,-7201.297681,-518.144159
5569.625415,1036.288319,-9039.926876,296.082377
5569.625739,-518.144159,-7584.345430,-1184.329507
5569.626063,370.102971,-9039.926876,-370.102971
5569.626388,518.144159,-8580.269578,0.000000
5569.626712,222.061783,-8044.002729,-666.185348
5569.627036,74.020594,-8350.440928,-1258.350101
5569.627361,444.123565,-8733.488677,-148.041188
5569.627685,-814.226536,-7814.174080,-222.061783
5569.628009,1924.535449,-9422.974625,-148.041188
5569.628334,-1554.432478,-7814.174080,-1110.308913
5569.628658,2146.597232,-9806.022374,814.226536
5569.628982,1258.350101,-7431.126331,-1258.350101
5569.629307,1554.432478,-9499.584175,592.164754
5569.629631,0.000000,-7967.393179,-814.226536
5569.629955,1480.411884,-8580.269578,370.102971
5569.630280,-1554.432478,-8197.221829,-592.164754
5569.630604,-444.123565,-7890.783629,0.000000
5569.630928,-592.164754,-8503.660028,370.102971
5569.631253,666.185348,-7737.564530,518.144159
5569.631577,962.267725,-8503.660028,-518.144159
5569.631901,0.000000,-8503.660028,-592.164754
5569.632226,-740.205942,-8273.831378,-1332.370696
5569.632550,-962.267725,-8427.050478,-222.061783
5569.632874,-1110.308913,-9729.412825,0.000000
5569.633199,-592.164754,-8656.879127,-444.123565
5569.633523,0.000000,-8656.879127,296.082377
5569.633847,1554.432478,-8273.831378,74.020594
5569.634172,2516.700203,-8656.879127,370.102971
5569.634496,1258.350101,-7737.564530,-962.267725
5569.634820,1184.329507,-9193.145976,-222.061783
5569.635145,740.205942,-7431.126331,74.020594
5569.635469,0.000000,-8273.831378,-888.247130
5569.635794,-592.164754,-8427.050478,-1036.288319
5569.636118,0.000000,-8580.269578,74.020594
5569.636442,0.000000,-9499.584175,-1110.308913
5569.636767,-962.267725,-9499.584175,-1332.370696
5569.637091,-2146.597232,-7354.516781,-888.247130
5569.637415,-2516.700203,-8886.707777,592.164754
5569.637740,-222.061783,-8733.488677,0.000000
5569.638064,1776.494261,-8273.831378,-148.041188
5569.638388,2368.659014,-9039.926876,-370.102971
5569.638713,1184.329507,-8963.317327,-888.247130
5569.639037,2220.617826,-9729.412825,-148.041188
5569.639361,1776.494261,-8503.660028,-1554.432478
5569.639686,-666.185348,-7814.174080,-518.144159
5569.640010,1628.453072,-10189.070123,0.000000
5569.640334,-518.144159,-8197.221829,444.123565
5569.640659,-518.144159,-6894.859482,444.123565
5569.640983,592.164754,-7584.345430,-1702.473667
5569.641307,592.164754,-9422.974625,296.082377
5569.641632,222.061783,-7124.688131,-1702.473667
5569.641956,0.000000,-8733.488677,296.082377
5569.642280,0.000000,-8427.050478,-1036.288319
5569.642605,-444.123565,-9499.584175,-888.247130
5569.642929,666.185348,-8886.707777,-148.041188
5569.643253,1924.535449,-9269.755526,-148.041188
5569.643578,2590.720797,-10342.289223,-666.185348
5569.643902,2442.679609,-8810.098227,-814.226536
5569.644226,888.247130,-8656.879127,-518.144159
5569.644551,592.164754,-8503.660028,-592.164754
5569.644875,-222.061783,-8656.879127,-370.102971
5569.645200,-1036.288319,-9193.145976,-370.102971
5569.645524,0.000000,-7890.783629,-592.164754
5569.645848,370.102971,-8120.612279,222.061783
5569.646173,-518.144159,-9576.193725,-740.205942
5569.646497,1110.308913,-7890.783629,-370.102971
5569.646821,-222.061783,-8273.831378,0.000000
5569.647146,-296.082377,-8886.707777,-1110.308913
5569.647470,2072.576638,-8963.317327,-370.102971
5569.647794,740.205942,-9422.974625,592.164754
5569.648119,2664.741391,-9652.803275,0.000000
5569.648443,2812.782580,-9499.584175,-296.082377
5569.648767,1184.329507,-9039.926876,-148.041188
5569.649092,-74.020594,-7967.393179,-666.185348
5569.649416,-444.123565,-7354.516781,-222.061783
5569.649740,0.000000,-8350.440928,1110.308913
5569.650065,-1110.308913,-7124.688131,-666.185348
5569.650389,148.041188,-8810.098227,74.020594
5569.650713,-592.164754,-8503.660028,0.000000
5569.651038,2442.679609,-9806.022374,222.061783
5569.651362,-666.185348,-7507.735880,-1554.432478
5569.651686,-1258.350101,-8886.707777,444.123565
5569.652011,-740.205942,-7814.174080,-592.164754
5569.652335,-444.123565,-8273.831378,0.000000
5569.652659,1036.288319,-8503.660028,962.267725
5569.652984,1110.308913,-7584.345430,-814.226536
5569.653308,2146.597232,-10418.898773,1110.308913
5569.653632,888.247130,-7967.393179,-518.144159
5569.653957,518.144159,-9039.926876,0.000000
5569.654281,-888.247130,-7814.174080,-666.185348
5569.654606,0.000000,-8350.440928,148.041188
5569.654930,148.041188,-7431.126331,-666.185348
5569.655254,-888.247130,-7201.297681,-370.102971
5569.655579,222.061783,-8503.660028,74.020594
5569.655903,-296.082377,-7814.174080,-1258.350101
5569.656227,-740.205942,-8580.269578,-296.082377
5569.656552,-296.082377,-8733.488677,-1110.308913
5569.656876,222.061783,-9116.536426,-370.102971
5569.657200,518.144159,-9269.755526,-888.247130
5569.657525,1036.288319,-9652.803275,-148.041188
5569.657849,2072.576638,-8810.098227,1036.288319
5569.658173,1628.453072,-7507.735880,-888.247130
5569.658498,2368.659014,-9882.631924,-148.041188
5569.658822,2220.617826,-8273.831378,-1036.288319
5569.659146,-1036.288319,-9193.145976,-1036.288319
5569.659471,4293.194464,-9269.755526,814.226536
5569.659795,-666.185348,-6818.249932,-2738.761985
5569.660119,-666.185348,-11414.822920,814.226536
5569.660444,74.020594,-6435.202183,-444.123565
5569.660768,-1110.308913,-10572.117872,-2220.617826
5569.661092,-1036.288319,-8197.221829,-740.205942
5569.661417,-1628.453072,-8656.879127,-296.082377
5569.661741,-518.144159,-10342.289223,-592.164754
5569.662065,-296.082377,-7814.174080,-1036.288319
5569.662390,740.205942,-10035.851024,888.247130
5569.662714,1036.288319,-8580.269578,-1554.432478
5569.663038,2738.761985,-10725.336972,370.102971
5569.663363,3552.988522,-7201.297681,-2220.617826
5569.663687,962.267725,-9959.241474,148.041188
5569.664012,740.205942,-7660.954980,-1258.350101
5569.664336,-962.267725,-8197.221829,0.000000
5569.664660,148.041188,-9039.926876,0.000000
5569.664985,0.000000,-8580.269578,0.000000
5569.665309,666.185348,-7737.564530,148.041188
5569.665633,-814.226536,-8044.002729,74.020594
5569.665958,2072.576638,-7967.393179,-1036.288319
5569.666282,-592.164754,-10572.117872,-1110.308913
5569.666606,-2146.597232,-8580.269578,148.041188
5569.666931,814.226536,-7354.516781,-518.144159
5569.667255,0.000000,-9346.365076,0.000000
5569.667579,1332.370696,-9193.145976,592.164754
5569.667904,2442.679609,-9652.803275,-222.061783
5569.668228,3182.885551,-9269.755526,-814.226536
5569.668552,0.000000,-8197.221829,-444.123565
5569.668877,444.123565,-7584.345430,0.000000
5569.669201,-1036.288319,-9116.536426,814.226536
5569.669525,-518.144159,-7890.783629,-518.144159
5569.669850,-740.205942,-8273.831378,74.020594
5569.670174,-296.082377,-7814.174080,74.020594
5569.670498,-814.226536,-8963.317327,-444.123565
5569.670823,-296.082377,-8044.002729,-740.205942
5569.671147,-592.164754,-8427.050478,-74.020594
5569.671471,444.123565,-8273.831378,-518.144159
5569.671796,-296.082377,-8273.831378,1258.350101
5569.672120,2072.576638,-8963.317327,-740.205942
5569.672444,1628.453072,-8580.269578,-518.144159
5569.672769,1554.432478,-9346.365076,0.000000
5569.673093,592.164754,-7737.564530,-1184.329507
5569.673418,444.123565,-10265.679673,0.000000
5569.673742,-1332.370696,-7124.688131,-666.185348
5569.674066,-1554.432478,-8886.707777,444.123565
5569.674391,-2368.659014,-8197.221829,-888.247130
5569.674715,-1776.494261,-9193.145976,296.082377
5569.675039,-740.205942,-7890.783629,-518.144159
5569.675364,2072.576638,-9806.022374,-444.123565
5569.675688,-592.164754,-8580.269578,-1258.350101
5569.676012,0.000000,-8580.269578,296.082377
5569.676337,370.102971,-8810.098227,-1110.308913
5569.676661,592.164754,-9959.241474,0.000000
5569.676985,1406.391290,-8656.879127,-814.226536
5569.677310,2220.617826,-9499.584175,-222.061783
5569.677634,962.267725,-9193.145976,-592.164754
5569.677958,148.041188,-8580.269578,0.000000
5569.678283,0.000000,-7890.783629,-1702.473667
5569.678607,0.000000,-8963.317327,740.205942
5569.678931,-1184.329507,-7201.297681,-148.041188
5569.679256,222.061783,-8733.488677,-444.123565
5569.679580,1036.288319,-7354.516781,-1110.308913
5569.679904,1554.432478,-9193.145976,0.000000
5569.680229,2738.761985,-7660.954980,-1110.308913
5569.680553,888.247130,-9116.536426,-740.205942
5569.680877,296.082377,-9039.926876,-1628.453072
5569.681202,74.020594,-9193.145976,222.061783
5569.681526,1036.288319,-9346.365076,-1036.288319
5569.681850,1998.556043,-8580.269578,74.020594
5569.682175,1702.473667,-9806.022374,0.000000
5569.682499,2072.576638,-8273.831378,-518.144159
5569.682823,1924.535449,-9576.193725,-962.267725
5569.683148,-1406.391290,-7737.564530,-1332.370696
5569.683472,444.123565,-8427.050478,-296.082377
5569.683797,148.041188,-8044.002729,444.123565
5569.684121,296.082377,-8810.098227,-1332.370696
5569.684445,1110.308913,-7584.345430,370.102971
5569.684770,962.267725,-7890.783629,-296.082377
5569.685094,370.102971,-9269.755526,-370.102971
5569.685418,592.164754,-8580.269578,-370.102971
5569.685743,444.123565,-8810.098227,740.205942
5569.686067,888.247130,-8580.269578,-370.102971
5569.686391,1628.453072,-9269.755526,148.041188
5569.686716,-222.061783,-8350.440928,-1406.391290
5569.687040,-296.082377,-10342.289223,0.000000
5569.687364,1036.288319,-9346.365076,222.061783
5569.687689,666.185348,-8580.269578,-1258.350101
5569.688013,1036.288319,-8044.002729,666.185348
5569.688337,666.185348,-6741.640382,0.000000
5569.688662,-592.164754,-8503.660028,0.000000
5569.688986,222.061783,-7584.345430,-148.041188
5569.689310,1480.411884,-8886.707777,888.247130
5569.689635,222.061783,-8197.221829,-296.082377
5569.689959,-740.205942,-8963.317327,518.144159
5569.690283,-1776.494261,-8810.098227,-1406.391290
5569.690608,-1184.329507,-8120.612279,-296.082377
5569.690932,-1628.453072,-8273.831378,518.144159
5569.691256,592.164754,-7814.174080,-1258.350101
5569.691581,2368.659014,-7354.516781,1110.308913
5569.691905,1332.370696,-8273.831378,518.144159
5569.692229,3108.864956,-9116.536426,370.102971
5569.692554,3256.906145,-8427.050478,-740.205942
5569.692878,666.185348,-8810.098227,0.000000
5569.693203,1480.411884,-8503.660028,-370.102971
5569.693527,-296.082377,-7584.345430,74.020594
5569.693851,-148.041188,-8580.269578,-666.185348
5569.694176,-222.061783,-7507.735880,0.000000
5569.694500,-370.102971,-9729.412825,0.000000
5569.694824,-1184.329507,-7737.564530,-1776.494261
5569.695149,-1554.432478,-8427.050478,1480.411884
5569.695473,296.082377,-8273.831378,-962.267725
5569.695797,74.020594,-9193.145976,-592.164754
5569.696122,1998.556043,-9039.926876,148.041188
5569.696446,1110.308913,-8656.879127,-962.267725
5569.696770,2368.659014,-9039.926876,-1258.350101
5569.697095,1036.288319,-9116.536426,-666.185348
5569.697419,1184.329507,-8580.269578,-666.185348
5569.697743,888.247130,-9116.536426,-814.226536
5569.698068,-592.164754,-8810.098227,740.205942
5569.698392,740.205942,-9039.926876,-814.226536
5569.698716,-222.061783,-7890.783629,-296.082377
5569.699041,-740.205942,-9193.145976,-814.226536
5569.699365,1184.329507,-8197.221829,-666.185348
5569.699689,-370.102971,-8427.050478,-1184.329507
5569.700014,-888.247130,-8503.660028,-814.226536
5569.700338,-962.267725,-8197.221829,-814.226536
5569.700662,444.123565,-9652.803275,444.123565
5569.700987,592.164754,-9193.145976,-666.185348
5569.701311,2146.597232,-9806.022374,-962.267725
5569.701635,1554.432478,-8810.098227,-740.205942
5569.701960,2368.659014,-9193.145976,-222.061783
5569.702284,814.226536,-8656.879127,-1184.329507
5569.702609,296.082377,-8810.098227,-370.102971
5569.702933,-814.226536,-7354.516781,296.082377
5569.703257,518.144159,-8350.440928,-962.267725
5569.703582,518.144159,-8427.050478,-740.205942
5569.703906,222.061783,-7507.735880,-148.041188
5569.704230,740.205942,-10035.851024,0.000000
5569.704555,592.164754,-7431.126331,-1628.453072
5569.704879,-592.164754,-9729.412825,-296.082377
5569.705203,-592.164754,-7584.345430,-518.144159
5569.705528,740.205942,-9116.536426,-296.082377
5569.705852,-814.226536,-8120.612279,-888.247130
5569.706176,1036.288319,-9422.974625,370.102971
5569.706501,2220.617826,-7967.393179,-222.061783
5569.706825,1258.350101,-9422.974625,0.000000
5569.707149,3330.926739,-7814.174080,740.205942
5569.707474,4145.153275,-8197.221829,740.205942
5569.707798,-2960.823768,-6205.373534,-2294.638420
5569.708123,0.000000,-10418.898773,1184.329507
5569.708447,666.185348,-6358.592633,-1258.350101
5569.708771,222.061783,-9652.803275,518.144159
5569.709096,1924.535449,-7814.174080,-592.164754
5569.709420,-1850.514855,-10112.460574,222.061783
5569.709744,-2294.638420,-7660.954980,-888.247130
5569.710069,-962.267725,-9193.145976,0.000000
5569.710393,-222.061783,-8120.612279,-222.061783
5569.710718,888.247130,-9652.803275,-370.102971
5569.711042,1628.453072,-9499.584175,518.144159
5569.711366,1406.391290,-9039.926876,-222.061783
5569.711691,2590.720797,-9039.926876,740.205942
5569.712015,1554.432478,-8503.660028,-1850.514855
5569.712339,1406.391290,-9729.412825,370.102971
5569.712664,-962.267725,-6894.859482,-1702.473667
5569.712988,-962.267725,-8963.317327,296.082377
5569.713312,-1406.391290,-7660.954980,-592.164754
5569.713637,-1110.308913,-8503.660028,740.205942
5569.713961,-1850.514855,-8580.269578,0.000000
5569.714286,-1036.288319,-8197.221829,-1480.411884
5569.714610,-666.185348,-8886.707777,740.205942
5569.714934,-518.144159,-7967.393179,-962.267725
5569.715259,370.102971,-8273.831378,222.061783
5569.715583,1110.308913,-8350.440928,-592.164754
5569.715907,1184.329507,-8427.050478,-592.164754
5569.716232,1628.453072,-9652.803275,-370.102971
5569.716556,2442.679609,-8963.317327,-1110.308913
5569.716880,0.000000,-8656.879127,-1110.308913
5569.717205,148.041188,-9269.755526,0.000000
5569.717529,296.082377,-8810.098227,222.061783
5569.717854,-592.164754,-7584.345430,-1110.308913
5569.718178,-296.082377,-8197.221829,296.082377
5569.718502,296.082377,-7967.393179,444.123565
5569.718827,74.020594,-8273.831378,-222.061783
5569.719151,1332.370696,-9269.755526,-518.144159
5569.719475,962.267725,-8886.707777,-592.164754
5569.719800,-1850.514855,-8503.660028,-666.185348
5569.720124,74.020594,-8580.269578,0.000000
5569.720449,-592.164754,-7354.516781,-1776.494261
5569.720773,2812.782580,-9806.022374,518.144159
5569.721097,1998.556043,-8810.098227,-740.205942
5569.721422,2220.617826,-9193.145976,-444.123565
5569.721746,1110.308913,-8350.440928,-444.123565
5569.722070,296.082377,-7890.783629,0.000000
5569.722395,1924.535449,-8963.317327,74.020594
5569.722719,222.061783,-8733.488677,-1554.432478
5569.723043,-592.164754,-8656.879127,148.041188
5569.723368,-296.082377,-8427.050478,-222.061783
5569.723692,0.000000,-9039.926876,-962.267725
5569.724017,-962.267725,-7890.783629,-814.226536
5569.724341,-1258.350101,-8886.707777,148.041188
5569.724665,-148.041188,-9116.536426,0.000000
5569.724990,296.082377,-9039.926876,-814.226536
5569.725314,-222.061783,-9193.145976,-666.185348
5569.725638,1258.350101,-9652.803275,0.000000
5569.725963,370.102971,-8963.317327,0.000000
5569.726287,1628.453072,-9039.926876,-666.185348
5569.726611,888.247130,-8044.002729,0.000000
5569.726936,1258.350101,-8273.831378,-444.123565
5569.727260,0.000000,-8120.612279,-222.061783
5569.727585,0.000000,-7584.345430,740.205942
5569.727909,666.185348,-8580.269578,518.144159
5569.728233,74.020594,-7967.393179,370.102971
5569.728558,0.000000,-8810.098227,-296.082377
5569.728882,-296.082377,-8197.221829,-1332.370696
5569.729206,-148.041188,-8120.612279,-666.185348
5569.729531,-1702.473667,-8427.050478,-1110.308913
5569.729855,518.144159,-8044.002729,0.000000
5569.730180,814.226536,-7814.174080,370.102971
5569.730504,1998.556043,-9576.193725,-1036.288319
5569.730828,1480.411884,-9806.022374,-518.144159
5569.731153,2220.617826,-8273.831378,-1110.308913
5569.731477,962.267725,-8963.317327,-962.267725
5569.731801,296.082377,-8503.660028,296.082377
5569.732126,666.185348,-8350.440928,-592.164754
5569.732450,-1554.432478,-8656.879127,-592.164754
5569.732774,1702.473667,-8656.879127,-296.082377
5569.733099,-148.041188,-8044.002729,0.000000
5569.733423,-592.164754,-8503.660028,148.041188
5569.733748,962.267725,-9116.536426,-1776.494261
5569.734072,-888.247130,-8427.050478,-370.102971
5569.734396,74.020594,-8733.488677,0.000000
5569.734721,0.000000,-8733.488677,-1110.308913
5569.735045,1184.329507,-9269.755526,-666.185348
5569.735369,666.185348,-9193.145976,0.000000
5569.735694,1850.514855,-8810.098227,-296.082377
5569.736018,2368.659014,-9422.974625,-222.061783
5569.736342,518.144159,-7814.174080,-1554.432478
5569.736667,444.123565,-9576.193725,0.000000
5569.736991,-2738.761985,-7967.393179,74.020594
5569.737316,-148.041188,-8963.317327,74.020594
5569.737640,-814.226536,-7814.174080,-1036.288319
5569.737964,-518.144159,-8810.098227,592.164754
5569.738289,0.000000,-8963.317327,-592.164754
5569.738613,1184.329507,-8810.098227,-1110.308913
5569.738937,-518.144159,-8503.660028,222.061783
5569.739262,1258.350101,-8350.440928,-148.041188
5569.739586,1702.473667,-7737.564530,1110.308913
5569.739911,3108.864956,-7277.907231,-740.205942
5569.740235,3256.906145,-9729.412825,148.041188
5569.740559,518.144159,-8580.269578,-1184.329507
5569.740884,2368.659014,-9039.926876,296.082377
5569.741208,1110.308913,-7507.735880,-962.267725
5569.741532,0.000000,-9499.584175,592.164754
5569.741857,-1184.329507,-7814.174080,-1332.370696
5569.742181,0.000000,-9729.412825,0.000000
5569.742505,-962.267725,-7967.393179,666.185348
5569.742830,-518.144159,-7967.393179,-222.061783
5569.743154,-1332.370696,-8120.612279,-1184.329507
5569.743479,370.102971,-8656.879127,-666.185348
5569.743803,-814.226536,-8886.707777,-370.102971
5569.744127,888.247130,-8963.317327,-814.226536
5569.744452,1628.453072,-8733.488677,148.041188
5569.744776,1776.494261,-7967.393179,-814.226536
5569.745100,1184.329507,-9499.584175,-148.041188
5569.745425,2368.659014,-8427.050478,-888.247130
5569.745749,1406.391290,-9729.412825,74.020594
5569.746073,2146.597232,-8656.879127,-296.082377
