#time,accel_x,accel_y,accel_z
5483.834268,-740.205942,-8733.488677,-444.123565
5483.834593,-740.205942,-8656.879127,-518.144159
5483.834917,-962.267725,-9039.926876,0.000000
5483.835242,-1406.391290,-8580.269578,-296.082377
5483.835566,-888.247130,-8656.879127,-370.102971
5483.835891,-740.205942,-8886.707777,-518.144159
5483.836215,0.000000,-8120.612279,-592.164754
5483.836539,666.185348,-8197.221829,-370.102971
5483.836864,1258.350101,-7967.393179,-1332.370696
5483.837188,1406.391290,-8503.660028,-1110.308913
5483.837513,1036.288319,-7890.783629,-1628.453072
5483.837837,740.205942,-8656.879127,-1480.411884
5483.838162,148.041188,-8197.221829,-1776.494261
5483.838486,-592.164754,-9422.974625,-1480.411884
5483.838811,-1406.391290,-8656.879127,-1776.494261
5483.839135,-1850.514855,-9193.145976,-1184.329507
5483.839460,-1924.535449,-8886.707777,-1554.432478
5483.839784,-1110.308913,-9116.536426,-1480.411884
5483.840109,-518.144159,-8503.660028,-1258.350101
5483.840433,222.061783,-8580.269578,-1332.370696
5483.840757,444.123565,-8350.440928,-1702.473667
5483.841082,888.247130,-8733.488677,-1480.411884
5483.841406,74.020594,-8350.440928,-1924.535449
5483.841731,-370.102971,-8810.098227,-1406.391290
5483.842055,-1258.350101,-9346.365076,-962.267725
5483.842380,-1702.473667,-9499.584175,-1036.288319
5483.842704,-2960.823768,-9499.584175,-962.267725
5483.843029,-2960.823768,-9806.022374,-592.164754
5483.843353,-2738.761985,-9652.803275,-592.164754
5483.843678,-2442.679609,-9346.365076,-592.164754
5483.844002,-2590.720797,-9499.584175,-370.102971
5483.844327,-2516.700203,-9193.145976,-592.164754
5483.844651,-2738.761985,-9193.145976,-814.226536
5483.844976,-3108.864956,-8580.269578,-370.102971
5483.845300,-3997.112087,-8350.440928,-222.061783
5483.845624,-4145.153275,-8963.317327,74.020594
5483.845949,-4737.318029,-8733.488677,0.000000
5483.846273,-4589.276840,-9116.536426,148.041188
5483.846598,-4293.194464,-8503.660028,-296.082377
5483.846922,-3552.988522,-8580.269578,592.164754
5483.847247,-3627.009116,-8503.660028,296.082377
5483.847571,-3034.844362,-8503.660028,666.185348
5483.847896,-3034.844362,-8273.831378,444.123565
5483.848220,-2812.782580,-8427.050478,962.267725
5483.848545,-2590.720797,-8120.612279,296.082377
5483.848869,-2738.761985,-8350.440928,814.226536
5483.849194,-2368.659014,-7814.174080,592.164754
5483.849518,-2886.803174,-7967.393179,888.247130
5483.849842,-3108.864956,-8197.221829,666.185348
5483.850167,-2664.741391,-7890.783629,888.247130
5483.850491,-2368.659014,-7584.345430,666.185348
5483.850816,-370.102971,-8810.098227,592.164754
5483.851140,-1924.535449,-8886.707777,518.144159
5483.851465,-148.041188,-8273.831378,-222.061783
5483.851789,-3034.844362,-8197.221829,962.267725
5483.852114,-1184.329507,-7737.564530,814.226536
5483.852438,-888.247130,-8197.221829,592.164754
5483.852763,444.123565,-8120.612279,592.164754
5483.853087,1332.370696,-7967.393179,666.185348
5483.853412,1554.432478,-7814.174080,148.041188
5483.853736,1554.432478,-8580.269578,740.205942
5483.854060,1036.288319,-7660.954980,0.000000
5483.854385,2442.679609,-8886.707777,-222.061783
5483.854709,1036.288319,-7814.174080,-296.082377
5483.855034,1480.411884,-9116.536426,-296.082377
5483.855358,740.205942,-8427.050478,-592.164754
5483.855683,518.144159,-8656.879127,-370.102971
5483.856007,962.267725,-8656.879127,-1036.288319
5483.856332,888.247130,-8580.269578,-666.185348
5483.856656,1406.391290,-8273.831378,-1258.350101
5483.856981,2146.597232,-8580.269578,-1036.288319
5483.857305,2294.638420,-7967.393179,-740.205942
5483.857630,2368.659014,-8273.831378,-1406.391290
5483.857954,3108.864956,-8273.831378,-1036.288319
5483.858279,3256.906145,-8044.002729,-1554.432478
5483.858603,3108.864956,-9269.755526,-1332.370696
5483.858927,2368.659014,-8886.707777,-1998.556043
5483.859252,1554.432478,-8810.098227,-1184.329507
5483.859576,1850.514855,-9193.145976,-1924.535449
5483.859901,1924.535449,-8886.707777,-1406.391290
5483.860225,1332.370696,-9193.145976,-1776.494261
5483.860550,2664.741391,-9346.365076,-1924.535449
5483.860874,2146.597232,-9039.926876,-2294.638420
5483.861199,2664.741391,-8963.317327,-1924.535449
5483.861523,3182.885551,-9422.974625,-2146.597232
5483.861848,2812.782580,-9116.536426,-1998.556043
5483.862172,3256.906145,-9499.584175,-2072.576638
5483.862497,2960.823768,-9499.584175,-1406.391290
5483.862821,2368.659014,-9729.412825,-1406.391290
5483.863145,1628.453072,-9729.412825,-1110.308913
5483.863470,1258.350101,-9499.584175,-1036.288319
5483.863794,444.123565,-9422.974625,-1110.308913
5483.864119,0.000000,-9269.755526,-814.226536
5483.864443,-444.123565,-9193.145976,-666.185348
5483.864768,-962.267725,-8733.488677,-666.185348
5483.865092,-222.061783,-8580.269578,-666.185348
5483.865417,-592.164754,-8656.879127,-370.102971
5483.865741,-592.164754,-8580.269578,-814.226536
5483.866066,-962.267725,-8656.879127,0.000000
5483.866390,-888.247130,-9269.755526,0.000000
5483.866715,-1702.473667,-8963.317327,74.020594
5483.867039,-2072.576638,-8580.269578,148.041188
5483.867363,-2294.638420,-8963.317327,592.164754
5483.867688,-2664.741391,-8350.440928,740.205942
5483.868012,-2738.761985,-8197.221829,592.164754
5483.868337,-2664.741391,-7890.783629,814.226536
5483.868661,-1850.514855,-7660.954980,962.267725
5483.868986,-962.267725,-7277.907231,370.102971
5483.869310,-370.102971,-7201.297681,1110.308913
5483.869635,-296.082377,-7507.735880,1406.391290
5483.869959,-592.164754,-7967.393179,1036.288319
5483.870284,-222.061783,-7660.954980,1184.329507
5483.870608,0.000000,-7890.783629,1110.308913
5483.870933,-370.102971,-8350.440928,1258.350101
5483.871257,-370.102971,-8503.660028,1480.411884
5483.871582,-296.082377,-8503.660028,1110.308913
5483.871906,-222.061783,-8273.831378,1480.411884
5483.872230,1110.308913,-7967.393179,888.247130
5483.872555,740.205942,-8044.002729,888.247130
5483.872879,666.185348,-7584.345430,1110.308913
5483.873204,814.226536,-7814.174080,888.247130
5483.873528,1702.473667,-8197.221829,666.185348
5483.873853,814.226536,-8197.221829,592.164754
5483.874177,1110.308913,-8350.440928,222.061783
5483.874502,666.185348,-8427.050478,148.041188
5483.874826,222.061783,-8810.098227,518.144159
5483.875151,0.000000,-8963.317327,370.102971
5483.875475,-296.082377,-8580.269578,-148.041188
5483.875800,-222.061783,-8810.098227,-148.041188
5483.876124,-296.082377,-8427.050478,-296.082377
5483.876448,0.000000,-8350.440928,-444.123565
5483.876773,-222.061783,-8503.660028,-740.205942
5483.877097,222.061783,-8350.440928,-518.144159
5483.877422,740.205942,-8120.612279,-1110.308913
5483.877746,1036.288319,-8350.440928,-740.205942
5483.878071,2072.576638,-8120.612279,-1110.308913
5483.878395,2368.659014,-8580.269578,-1184.329507
5483.878720,1998.556043,-8963.317327,-1628.453072
5483.879044,2368.659014,-9346.365076,-1258.350101
5483.879369,2220.617826,-9116.536426,-1924.535449
5483.879693,1776.494261,-9193.145976,-1924.535449
5483.880018,2072.576638,-9269.755526,-1776.494261
5483.880342,1406.391290,-9039.926876,-1554.432478
5483.880666,1850.514855,-8963.317327,-1850.514855
5483.880991,2294.638420,-9116.536426,-2220.617826
5483.881315,2812.782580,-9422.974625,-1628.453072
5483.881640,3182.885551,-8580.269578,-1776.494261
5483.881964,3256.906145,-9116.536426,-1554.432478
5483.882289,3404.947333,-9346.365076,-2072.576638
5483.882613,3034.844362,-9422.974625,-1924.535449
5483.882938,2442.679609,-9729.412825,-1702.473667
5483.883262,2146.597232,-9806.022374,-1332.370696
5483.883587,740.205942,-9806.022374,-1184.329507
5483.883911,148.041188,-9729.412825,-1036.288319
5483.884236,-444.123565,-9652.803275,-740.205942
5483.884560,-666.185348,-9422.974625,-814.226536
5483.884885,-518.144159,-8963.317327,-814.226536
5483.885209,-296.082377,-8273.831378,-444.123565
5483.885533,-296.082377,-8733.488677,-592.164754
5483.885858,-222.061783,-7967.393179,-518.144159
5483.886182,148.041188,-8197.221829,148.041188
5483.886507,-518.144159,-8427.050478,-296.082377
5483.886831,-592.164754,-8733.488677,0.000000
5483.887156,-1036.288319,-8503.660028,296.082377
5483.887480,-962.267725,-8350.440928,74.020594
5483.887805,-1184.329507,-8197.221829,0.000000
5483.888129,-1628.453072,-8580.269578,222.061783
5483.888454,-740.205942,-8197.221829,444.123565
5483.888778,-370.102971,-7507.735880,370.102971
5483.889103,666.185348,-7890.783629,370.102971
5483.889427,296.082377,-7124.688131,444.123565
5483.889751,444.123565,-7890.783629,518.144159
5483.890076,444.123565,-7814.174080,666.185348
5483.890400,148.041188,-7737.564530,444.123565
5483.890725,222.061783,-8273.831378,888.247130
5483.891049,-222.061783,-7967.393179,1110.308913
5483.891374,74.020594,-8810.098227,1184.329507
5483.891698,370.102971,-8273.831378,666.185348
5483.892023,814.226536,-8427.050478,1258.350101
5483.892347,592.164754,-8044.002729,740.205942
5483.892672,1110.308913,-8197.221829,666.185348
5483.892996,1036.288319,-8197.221829,1110.308913
5483.893321,1480.411884,-8350.440928,962.267725
5483.893645,740.205942,-8427.050478,740.205942
5483.893970,0.000000,-8273.831378,666.185348
5483.894294,0.000000,-8350.440928,518.144159
5483.894618,-518.144159,-8427.050478,222.061783
5483.894943,-518.144159,-8963.317327,148.041188
5483.895267,-592.164754,-8580.269578,222.061783
5483.895592,-444.123565,-8886.707777,-148.041188
5483.895916,-666.185348,-8886.707777,222.061783
5483.896241,-888.247130,-8273.831378,0.000000
5483.896565,-222.061783,-8886.707777,-296.082377
5483.896890,-370.102971,-8197.221829,-666.185348
5483.897214,222.061783,-8733.488677,-222.061783
5483.897539,296.082377,-7584.345430,-888.247130
5483.897863,888.247130,-8273.831378,-666.185348
5483.898188,888.247130,-8197.221829,-1258.350101
5483.898512,1332.370696,-8733.488677,-1332.370696
5483.898836,1184.329507,-8273.831378,-1480.411884
5483.899161,1702.473667,-9116.536426,-1554.432478
5483.899485,1110.308913,-8656.879127,-1924.535449
5483.899810,1332.370696,-9346.365076,-1480.411884
5483.900134,1258.350101,-9039.926876,-1850.514855
5483.900459,1258.350101,-9806.022374,-1554.432478
5483.900783,1702.473667,-9039.926876,-1924.535449
5483.901108,2220.617826,-9193.145976,-1776.494261
5483.901432,2146.597232,-9193.145976,-2072.576638
5483.901757,2664.741391,-9882.631924,-1924.535449
5483.902081,2664.741391,-9422.974625,-1554.432478
5483.902406,2442.679609,-9269.755526,-1480.411884
5483.902730,2072.576638,-9499.584175,-1332.370696
5483.903054,1628.453072,-9729.412825,-1480.411884
5483.903379,1406.391290,-9729.412825,-1480.411884
5483.903703,740.205942,-9422.974625,-1036.288319
5483.904028,370.102971,-9346.365076,-888.247130
5483.904352,0.000000,-9269.755526,-962.267725
5483.904677,-962.267725,-8886.707777,-740.205942
5483.905001,-222.061783,-8810.098227,-740.205942
5483.905326,-444.123565,-8580.269578,-814.226536
5483.905650,-296.082377,-8580.269578,-370.102971
5483.905975,-666.185348,-8197.221829,-740.205942
5483.906299,-222.061783,-8503.660028,-444.123565
5483.906624,-888.247130,-8120.612279,-592.164754
5483.906948,-222.061783,-8580.269578,518.144159
5483.907273,-592.164754,-8350.440928,0.000000
5483.907597,-296.082377,-8580.269578,0.000000
5483.907921,-592.164754,-8044.002729,370.102971
5483.908246,296.082377,-8580.269578,592.164754
5483.908570,518.144159,-7660.954980,0.000000
5483.908895,740.205942,-7737.564530,296.082377
5483.909219,1036.288319,-7354.516781,518.144159
5483.909544,1110.308913,-7354.516781,370.102971
5483.909868,1184.329507,-7890.783629,222.061783
5483.910193,888.247130,-8197.221829,370.102971
5483.910517,444.123565,-7737.564530,518.144159
5483.910842,0.000000,-8044.002729,444.123565
5483.911166,0.000000,-8044.002729,740.205942
5483.911491,296.082377,-8427.050478,370.102971
5483.911815,0.000000,-8350.440928,666.185348
5483.912139,0.000000,-8044.002729,518.144159
5483.912464,370.102971,-8580.269578,222.061783
5483.912788,666.185348,-8197.221829,666.185348
5483.913113,1036.288319,-8273.831378,888.247130
5483.913437,518.144159,-8197.221829,444.123565
5483.913762,740.205942,-8350.440928,518.144159
5483.914086,74.020594,-8503.660028,296.082377
5483.914411,518.144159,-8733.488677,222.061783
5483.914735,-518.144159,-8733.488677,74.020594
5483.915060,-592.164754,-9116.536426,296.082377
5483.915384,-1110.308913,-8580.269578,0.000000
5483.915709,-1036.288319,-8963.317327,0.000000
5483.916033,-1332.370696,-8427.050478,-370.102971
5483.916357,-1480.411884,-8580.269578,0.000000
5483.916682,-1480.411884,-8733.488677,-592.164754
5483.917006,-1406.391290,-8580.269578,-888.247130
5483.917331,-1332.370696,-8427.050478,-148.041188
5483.917655,-740.205942,-8197.221829,-962.267725
5483.917980,-222.061783,-8656.879127,-592.164754
5483.918304,222.061783,-8350.440928,-740.205942
5483.918629,814.226536,-9039.926876,-962.267725
5483.918953,666.185348,-8273.831378,-1554.432478
5483.919278,1184.329507,-8963.317327,-1406.391290
5483.919602,1110.308913,-8810.098227,-1332.370696
5483.919927,1110.308913,-8886.707777,-1184.329507
5483.920251,1628.453072,-8886.707777,-1998.556043
5483.920576,1110.308913,-8886.707777,-1628.453072
5483.920900,1480.411884,-9269.755526,-1554.432478
5483.921224,1702.473667,-9346.365076,-1406.391290
5483.921549,1776.494261,-8963.317327,-1480.411884
5483.921873,2220.617826,-9269.755526,-1628.453072
5483.922197,1924.535449,-9193.145976,-1480.411884
5483.922522,2146.597232,-9269.755526,-1702.473667
5483.922846,1702.473667,-9499.584175,-1554.432478
5483.923171,1554.432478,-9576.193725,-1184.329507
5483.923495,814.226536,-9422.974625,-1184.329507
5483.923819,592.164754,-9576.193725,-962.267725
5483.924144,222.061783,-9193.145976,-1110.308913
5483.924468,-666.185348,-8503.660028,-370.102971
5483.924792,-592.164754,-9116.536426,-518.144159
5483.925117,-666.185348,-8886.707777,-592.164754
5483.925441,-222.061783,-8733.488677,-518.144159
5483.925766,-148.041188,-8273.831378,-592.164754
5483.926090,0.000000,-8656.879127,-370.102971
5483.926414,0.000000,-8427.050478,-148.041188
5483.926739,222.061783,-8120.612279,0.000000
5483.927063,0.000000,-8503.660028,0.000000
5483.927387,0.000000,-8273.831378,0.000000
5483.927712,518.144159,-7967.393179,0.000000
5483.928036,74.020594,-7814.174080,74.020594
5483.928361,592.164754,-8427.050478,296.082377
5483.928685,444.123565,-7354.516781,74.020594
5483.929009,1036.288319,-7814.174080,148.041188
5483.929334,666.185348,-7431.126331,0.000000
5483.929658,1628.453072,-7660.954980,0.000000
5483.929982,1184.329507,-7737.564530,296.082377
5483.930307,1332.370696,-7660.954980,222.061783
5483.930631,888.247130,-8197.221829,74.020594
5483.930956,1110.308913,-8120.612279,222.061783
5483.931280,1184.329507,-8580.269578,148.041188
5483.931604,1628.453072,-8656.879127,518.144159
5483.931929,888.247130,-8580.269578,518.144159
5483.932253,1184.329507,-9116.536426,666.185348
5483.932577,888.247130,-8503.660028,148.041188
5483.932902,1258.350101,-8963.317327,370.102971
5483.933226,444.123565,-8656.879127,74.020594
5483.933551,518.144159,-8656.879127,666.185348
5483.933875,0.000000,-8503.660028,0.000000
5483.934199,0.000000,-8963.317327,148.041188
5483.934524,-592.164754,-8044.002729,148.041188
5483.934848,-370.102971,-8963.317327,148.041188
5483.935172,-740.205942,-8733.488677,296.082377
5483.935497,-962.267725,-8886.707777,-148.041188
5483.935821,-1480.411884,-8503.660028,444.123565
5483.936145,-1628.453072,-8656.879127,0.000000
5483.936470,-1406.391290,-8656.879127,-148.041188
5483.936794,-1554.432478,-8503.660028,-666.185348
5483.937119,-888.247130,-8044.002729,222.061783
5483.937443,-1850.514855,-8350.440928,-592.164754
5483.937767,-962.267725,-8733.488677,-444.123565
5483.938092,-444.123565,-7737.564530,-666.185348
5483.938416,0.000000,-8580.269578,-888.247130
5483.938740,222.061783,-8197.221829,-814.226536
5483.939065,666.185348,-8656.879127,-888.247130
5483.939389,814.226536,-8733.488677,-740.205942
5483.939714,518.144159,-8427.050478,-1258.350101
5483.940038,666.185348,-8656.879127,-1258.350101
5483.940362,592.164754,-8886.707777,-1258.350101
5483.940687,666.185348,-8886.707777,-1110.308913
5483.941011,814.226536,-9116.536426,-1184.329507
5483.941335,1258.350101,-9193.145976,-666.185348
5483.941660,1110.308913,-8350.440928,-1480.411884
5483.941984,1776.494261,-9422.974625,-962.267725
5483.942309,1628.453072,-9039.926876,-962.267725
5483.942633,1998.556043,-9269.755526,-666.185348
5483.942957,1776.494261,-8733.488677,-1036.288319
5483.943282,1110.308913,-9116.536426,-740.205942
5483.943606,1184.329507,-9499.584175,-888.247130
5483.943930,740.205942,-8886.707777,-370.102971
5483.944255,592.164754,-8886.707777,-148.041188
5483.944579,-222.061783,-8886.707777,-814.226536
5483.944904,0.000000,-9116.536426,-222.061783
5483.945228,-518.144159,-8503.660028,-444.123565
5483.945552,-148.041188,-8963.317327,-740.205942
5483.945877,-222.061783,-8273.831378,0.000000
5483.946201,-222.061783,-8503.660028,74.020594
5483.946525,-518.144159,-8120.612279,-518.144159
5483.946850,0.000000,-8044.002729,0.000000
5483.947174,148.041188,-8044.002729,-518.144159
5483.947499,592.164754,-7814.174080,0.000000
5483.947823,740.205942,-7814.174080,-592.164754
5483.948147,740.205942,-8044.002729,222.061783
5483.948472,1702.473667,-7737.564530,-592.164754
5483.948796,1258.350101,-7737.564530,0.000000
5483.949120,1998.556043,-7507.735880,0.000000
5483.949445,2146.597232,-7737.564530,0.000000
5483.949769,1998.556043,-7890.783629,0.000000
5483.950094,1924.535449,-8120.612279,0.000000
5483.950418,1406.391290,-7814.174080,0.000000
5483.950742,1258.350101,-8503.660028,148.041188
5483.951067,1480.411884,-8044.002729,74.020594
5483.951391,1406.391290,-8810.098227,-296.082377
5483.951715,1036.288319,-8580.269578,-222.061783
5483.952040,1332.370696,-9039.926876,0.000000
5483.952364,962.267725,-9116.536426,0.000000
5483.952688,592.164754,-8350.440928,370.102971
5483.953013,888.247130,-9039.926876,74.020594
5483.953337,296.082377,-8733.488677,222.061783
5483.953662,296.082377,-8656.879127,296.082377
5483.953986,-148.041188,-8656.879127,0.000000
5483.954310,0.000000,-8810.098227,444.123565
5483.954635,0.000000,-8580.269578,148.041188
5483.954959,-222.061783,-9116.536426,74.020594
5483.955283,0.000000,-8580.269578,148.041188
5483.955608,-592.164754,-8273.831378,-148.041188
5483.955932,-666.185348,-9193.145976,0.000000
5483.956257,-1110.308913,-8656.879127,74.020594
5483.956581,-1036.288319,-8886.707777,0.000000
5483.956905,-2146.597232,-7890.783629,-148.041188
5483.957230,-1480.411884,-8810.098227,-370.102971
5483.957554,-1850.514855,-8197.221829,-444.123565
5483.957878,-1258.350101,-8656.879127,0.000000
5483.958203,-1258.350101,-8120.612279,-444.123565
5483.958527,-370.102971,-8427.050478,-666.185348
5483.958852,0.000000,-8120.612279,-740.205942
5483.959176,296.082377,-8656.879127,-592.164754
5483.959500,444.123565,-8427.050478,-740.205942
5483.959825,592.164754,-8273.831378,-1184.329507
5483.960149,666.185348,-8886.707777,-962.267725
5483.960473,370.102971,-8580.269578,-888.247130
5483.960798,888.247130,-9193.145976,-592.164754
5483.961122,518.144159,-8273.831378,-666.185348
5483.961447,888.247130,-8503.660028,-592.164754
5483.961771,1184.329507,-8580.269578,-740.205942
5483.962095,1628.453072,-9269.755526,-666.185348
5483.962420,1628.453072,-8656.879127,-666.185348
5483.962744,1628.453072,-8580.269578,-666.185348
5483.963068,1702.473667,-9116.536426,-592.164754
5483.963393,1258.350101,-9193.145976,-592.164754
5483.963717,888.247130,-9269.755526,-222.061783
5483.964042,666.185348,-8656.879127,-296.082377
5483.964366,592.164754,-9269.755526,-148.041188
5483.964690,0.000000,-8886.707777,-370.102971
5483.965015,0.000000,-8810.098227,148.041188
5483.965339,-592.164754,-8427.050478,-148.041188
5483.965663,222.061783,-8503.660028,0.000000
5483.965988,296.082377,-8273.831378,0.000000
5483.966312,222.061783,-8580.269578,0.000000
5483.966637,148.041188,-8350.440928,-222.061783
5483.966961,518.144159,-8427.050478,370.102971
5483.967285,814.226536,-7814.174080,-370.102971
5483.967610,1036.288319,-8350.440928,0.000000
5483.967934,1110.308913,-8120.612279,-148.041188
5483.968258,1258.350101,-8427.050478,0.000000
5483.968583,888.247130,-7890.783629,-370.102971
5483.968907,1184.329507,-7967.393179,-296.082377
5483.969232,1406.391290,-7814.174080,-444.123565
5483.969556,1258.350101,-7814.174080,-296.082377
5483.969880,1702.473667,-8044.002729,-518.144159
5483.970205,1554.432478,-8120.612279,-222.061783
5483.970529,1702.473667,-7967.393179,-592.164754
5483.970853,1850.514855,-8350.440928,-148.041188
5483.971178,1184.329507,-8427.050478,-148.041188
5483.971502,1998.556043,-8733.488677,0.000000
5483.971826,1406.391290,-8273.831378,-148.041188
5483.972151,1702.473667,-9039.926876,-296.082377
5483.972475,1406.391290,-9039.926876,-148.041188
5483.972800,1332.370696,-8963.317327,-370.102971
5483.973124,1110.308913,-9116.536426,-592.164754
5483.973448,518.144159,-9269.755526,-148.041188
5483.973773,444.123565,-8733.488677,-370.102971
5483.974097,0.000000,-8580.269578,-222.061783
5483.974421,0.000000,-8963.317327,-222.061783
5483.974746,0.000000,-8963.317327,-740.205942
5483.975070,74.020594,-9039.926876,-518.144159
5483.975395,-518.144159,-8427.050478,-148.041188
5483.975719,-592.164754,-9193.145976,-666.185348
5483.976043,-1702.473667,-8503.660028,-518.144159
5483.976368,-1258.350101,-9039.926876,0.000000
5483.976692,-1628.453072,-8656.879127,-592.164754
5483.977016,-1702.473667,-8963.317327,-296.082377
5483.977341,-1850.514855,-8580.269578,-370.102971
5483.977665,-1332.370696,-8580.269578,0.000000
5483.977990,-962.267725,-8044.002729,-740.205942
5483.978314,-370.102971,-8886.707777,-444.123565
5483.978638,0.000000,-8273.831378,-296.082377
5483.978963,0.000000,-8197.221829,-148.041188
5483.979287,0.000000,-8350.440928,-592.164754
5483.979611,296.082377,-8886.707777,-444.123565
5483.979936,74.020594,-8350.440928,-444.123565
5483.980260,222.061783,-8886.707777,-444.123565
5483.980585,518.144159,-8963.317327,-814.226536
5483.980909,444.123565,-9193.145976,-296.082377
5483.981233,518.144159,-8886.707777,-592.164754
5483.981558,666.185348,-8580.269578,-592.164754
5483.981882,1184.329507,-8810.098227,0.000000
5483.982206,1332.370696,-8733.488677,-148.041188
5483.982531,1702.473667,-9346.365076,0.000000
5483.982855,1184.329507,-8810.098227,-444.123565
5483.983180,1332.370696,-8886.707777,0.000000
5483.983504,666.185348,-8656.879127,-444.123565
5483.983828,888.247130,-9806.022374,222.061783
5483.984153,296.082377,-8656.879127,74.020594
5483.984477,0.000000,-9039.926876,222.061783
5483.984801,0.000000,-8733.488677,0.000000
5483.985126,0.000000,-8656.879127,0.000000
5483.985450,0.000000,-8733.488677,148.041188
5483.985775,148.041188,-8044.002729,-148.041188
5483.986099,370.102971,-8350.440928,148.041188
5483.986423,148.041188,-8120.612279,0.000000
5483.986748,222.061783,-7737.564530,148.041188
5483.987072,518.144159,-8350.440928,0.000000
5483.987396,0.000000,-7967.393179,0.000000
5483.987721,592.164754,-8197.221829,-296.082377
5483.988045,74.020594,-7737.564530,0.000000
5483.988369,962.267725,-8580.269578,-148.041188
5483.988694,962.267725,-7967.393179,-444.123565
5483.989018,1702.473667,-8197.221829,-444.123565
5483.989343,1702.473667,-7967.393179,-370.102971
5483.989667,2072.576638,-8273.831378,-666.185348
5483.989991,1924.535449,-8044.002729,-370.102971
5483.990316,2072.576638,-8120.612279,-962.267725
5483.990640,1850.514855,-8580.269578,-814.226536
5483.990964,2146.597232,-8886.707777,-296.082377
5483.991289,1776.494261,-8427.050478,-592.164754
5483.991613,1702.473667,-9039.926876,-888.247130
5483.991938,1258.350101,-8810.098227,-814.226536
5483.992262,1628.453072,-9193.145976,-592.164754
5483.992586,1110.308913,-8810.098227,-740.205942
5483.992911,962.267725,-9346.365076,-592.164754
5483.993235,740.205942,-8886.707777,-740.205942
5483.993559,888.247130,-9269.755526,-518.144159
5483.993884,518.144159,-9116.536426,-740.205942
5483.994208,296.082377,-9116.536426,-518.144159
5483.994533,0.000000,-8656.879127,-740.205942
5483.994857,0.000000,-9116.536426,-666.185348
5483.995181,0.000000,-8963.317327,-740.205942
5483.995506,-814.226536,-9039.926876,-740.205942
5483.995830,-518.144159,-9193.145976,-666.185348
5483.996154,-1406.391290,-8273.831378,-518.144159
5483.996479,-1628.453072,-9806.022374,-444.123565
5483.996803,-2072.576638,-8580.269578,-740.205942
5483.997128,-1554.432478,-8733.488677,-518.144159
5483.997452,-2072.576638,-8273.831378,-740.205942
5483.997776,-1332.370696,-8656.879127,-370.102971
5483.998101,-1036.288319,-8427.050478,-222.061783
5483.998425,-518.144159,-8273.831378,-370.102971
5483.998749,-222.061783,-8044.002729,-370.102971
5483.999074,222.061783,-8044.002729,-592.164754
5483.999398,518.144159,-8963.317327,296.082377
5483.999723,444.123565,-7890.783629,-740.205942
5484.000047,740.205942,-8810.098227,-740.205942
5484.000371,222.061783,-7967.393179,-518.144159
5484.000696,444.123565,-8580.269578,-370.102971
5484.001020,148.041188,-8503.660028,-444.123565
5484.001344,296.082377,-9039.926876,0.000000
5484.001669,370.102971,-8503.660028,-370.102971
5484.001993,666.185348,-8886.707777,0.000000
5484.002318,1628.453072,-8580.269578,-370.102971
5484.002642,1480.411884,-9039.926876,0.000000
5484.002966,1406.391290,-8580.269578,0.000000
5484.003291,1184.329507,-8656.879127,0.000000
5484.003615,1110.308913,-8810.098227,0.000000
5484.003939,444.123565,-8733.488677,0.000000
5484.004264,74.020594,-8886.707777,518.144159
5484.004588,-148.041188,-8656.879127,0.000000
5484.004912,-370.102971,-8886.707777,444.123565
5484.005237,-296.082377,-8044.002729,148.041188
5484.005561,0.000000,-8580.269578,74.020594
5484.005886,74.020594,-7967.393179,-222.061783
5484.006210,666.185348,-8503.660028,666.185348
5484.006534,592.164754,-7354.516781,-222.061783
5484.006859,592.164754,-8350.440928,222.061783
5484.007183,1036.288319,-8044.002729,0.000000
5484.007507,814.226536,-8503.660028,0.000000
5484.007832,370.102971,-8044.002729,0.000000
5484.008156,370.102971,-8503.660028,0.000000
5484.008481,814.226536,-8350.440928,-444.123565
5484.008805,444.123565,-8197.221829,0.000000
5484.009129,1406.391290,-7890.783629,-518.144159
5484.009454,1406.391290,-8197.221829,-814.226536
5484.009778,1776.494261,-8427.050478,-666.185348
5484.010102,1776.494261,-8120.612279,-592.164754
5484.010427,1776.494261,-8350.440928,-962.267725
5484.010751,1702.473667,-8044.002729,-296.082377
5484.011076,2146.597232,-8503.660028,-740.205942
5484.011400,2220.617826,-9116.536426,-666.185348
5484.011724,2220.617826,-9269.755526,-962.267725
5484.012049,2072.576638,-9422.974625,-370.102971
5484.012373,1554.432478,-9116.536426,-1110.308913
5484.012697,1184.329507,-9193.145976,-666.185348
5484.013022,740.205942,-9116.536426,-814.226536
5484.013346,888.247130,-8963.317327,-666.185348
5484.013671,74.020594,-8810.098227,-888.247130
5484.013995,74.020594,-9269.755526,-1036.288319
5484.014319,296.082377,-8886.707777,-1110.308913
5484.014644,0.000000,-9269.755526,-962.267725
5484.014968,222.061783,-8810.098227,-888.247130
5484.015292,-592.164754,-9346.365076,-814.226536
5484.015617,-592.164754,-8963.317327,-962.267725
5484.015941,-1110.308913,-8886.707777,-1110.308913
5484.016266,-1702.473667,-9269.755526,-888.247130
5484.016590,-1924.535449,-9269.755526,-592.164754
5484.016914,-2368.659014,-8350.440928,-518.144159
5484.017239,-2146.597232,-8656.879127,-370.102971
5484.017563,-2146.597232,-8427.050478,-666.185348
5484.017887,-1036.288319,-8503.660028,-370.102971
5484.018212,-666.185348,-8427.050478,-296.082377
5484.018536,74.020594,-8044.002729,-444.123565
5484.018860,592.164754,-7890.783629,0.000000
5484.019184,1406.391290,-8273.831378,-444.123565
5484.019508,1258.350101,-8350.440928,0.000000
5484.019833,1110.308913,-8350.440928,-592.164754
5484.020157,1036.288319,-8810.098227,-222.061783
5484.020481,74.020594,-7890.783629,-444.123565
5484.020805,296.082377,-8886.707777,0.000000
5484.021130,-444.123565,-8197.221829,-222.061783
5484.021454,74.020594,-8733.488677,74.020594
5484.021778,-148.041188,-7967.393179,-370.102971
5484.022102,296.082377,-8733.488677,-296.082377
5484.022427,962.267725,-8273.831378,-222.061783
5484.022751,1110.308913,-8733.488677,370.102971
5484.023075,1332.370696,-8120.612279,-370.102971
5484.023400,1702.473667,-8810.098227,370.102971
5484.023724,1332.370696,-8427.050478,0.000000
5484.024048,814.226536,-8273.831378,74.020594
5484.024372,148.041188,-8656.879127,370.102971
5484.024697,-148.041188,-8273.831378,444.123565
5484.025021,-296.082377,-8197.221829,370.102971
5484.025345,-370.102971,-8273.831378,666.185348
5484.025669,148.041188,-7890.783629,74.020594
5484.025994,0.000000,-7890.783629,222.061783
5484.026318,592.164754,-8503.660028,148.041188
5484.026642,74.020594,-8044.002729,370.102971
5484.026966,592.164754,-8197.221829,0.000000
5484.027291,592.164754,-8503.660028,0.000000
5484.027615,518.144159,-7124.688131,74.020594
5484.027939,518.144159,-8580.269578,-296.082377
5484.028264,740.205942,-8427.050478,-222.061783
5484.028588,666.185348,-8580.269578,-370.102971
5484.028912,518.144159,-8503.660028,0.000000
5484.029236,1036.288319,-7890.783629,-962.267725
5484.029561,1628.453072,-8273.831378,-296.082377
5484.029885,1998.556043,-7967.393179,-814.226536
5484.030209,2516.700203,-8503.660028,-518.144159
5484.030533,2442.679609,-7890.783629,-1036.288319
5484.030858,2664.741391,-8580.269578,-740.205942
5484.031182,2368.659014,-8886.707777,-1110.308913
5484.031506,1998.556043,-9269.755526,-370.102971
5484.031830,1850.514855,-9116.536426,-888.247130
5484.032155,1702.473667,-9193.145976,-666.185348
5484.032479,1554.432478,-9422.974625,-1332.370696
5484.032803,592.164754,-9269.755526,-1258.350101
5484.033127,740.205942,-9422.974625,-814.226536
5484.033452,-74.020594,-9039.926876,-592.164754
5484.033776,148.041188,-9422.974625,-888.247130
5484.034100,-148.041188,-8656.879127,-592.164754
5484.034425,296.082377,-9193.145976,-888.247130
5484.034749,0.000000,-8810.098227,-1332.370696
5484.035073,0.000000,-9499.584175,-666.185348
5484.035397,-444.123565,-8733.488677,-1110.308913
5484.035722,-666.185348,-9346.365076,-592.164754
5484.036046,-1036.288319,-8963.317327,-666.185348
5484.036370,-1554.432478,-8963.317327,-370.102971
5484.036694,-1628.453072,-8580.269578,-962.267725
5484.037019,-1776.494261,-8810.098227,-592.164754
5484.037343,-1628.453072,-8886.707777,-592.164754
5484.037667,-1036.288319,-8197.221829,0.000000
5484.037991,-962.267725,-8350.440928,-370.102971
5484.038316,-740.205942,-8273.831378,-296.082377
5484.038640,0.000000,-8273.831378,-296.082377
5484.038964,444.123565,-8120.612279,0.000000
5484.039289,740.205942,-8197.221829,-296.082377
5484.039613,296.082377,-8273.831378,-370.102971
5484.039937,592.164754,-8350.440928,-148.041188
5484.040261,74.020594,-8503.660028,-222.061783
5484.040586,296.082377,-8427.050478,-148.041188
5484.040910,148.041188,-8580.269578,222.061783
5484.041234,222.061783,-8273.831378,74.020594
5484.041558,296.082377,-8580.269578,0.000000
5484.041883,296.082377,-8273.831378,148.041188
5484.042207,962.267725,-8120.612279,0.000000
5484.042531,1406.391290,-8427.050478,148.041188
5484.042855,1702.473667,-8580.269578,296.082377
5484.043180,1628.453072,-8580.269578,370.102971
5484.043504,1184.329507,-8733.488677,74.020594
5484.043828,518.144159,-8580.269578,296.082377
5484.044152,444.123565,-8656.879127,370.102971
5484.044477,-296.082377,-8273.831378,444.123565
5484.044801,-518.144159,-8656.879127,814.226536
5484.045125,-666.185348,-8120.612279,0.000000
5484.045450,-370.102971,-8273.831378,222.061783
5484.045774,0.000000,-7584.345430,74.020594
5484.046098,592.164754,-8733.488677,518.144159
5484.046422,592.164754,-8120.612279,148.041188
5484.046747,666.185348,-7967.393179,0.000000
5484.047071,814.226536,-8044.002729,148.041188
5484.047395,666.185348,-8120.612279,0.000000
5484.047719,888.247130,-8350.440928,0.000000
5484.048044,814.226536,-8273.831378,148.041188
5484.048368,1332.370696,-8273.831378,-222.061783
5484.048692,888.247130,-8273.831378,-444.123565
5484.049016,1480.411884,-8427.050478,-370.102971
5484.049341,1776.494261,-8120.612279,-592.164754
5484.049665,1776.494261,-8580.269578,-666.185348
5484.049989,1554.432478,-8503.660028,-666.185348
5484.050314,1924.535449,-9193.145976,-518.144159
5484.050638,1628.453072,-8503.660028,-1036.288319
5484.050962,1776.494261,-9193.145976,-962.267725
5484.051286,2146.597232,-8963.317327,-1110.308913
5484.051611,1924.535449,-9193.145976,-962.267725
5484.051935,1480.411884,-8963.317327,-1036.288319
5484.052259,1554.432478,-9499.584175,-592.164754
5484.052583,1258.350101,-9039.926876,-1110.308913
5484.052908,1332.370696,-9499.584175,-888.247130
5484.053232,962.267725,-9422.974625,-814.226536
5484.053556,814.226536,-9652.803275,-888.247130
5484.053880,148.041188,-9039.926876,-1110.308913
5484.054205,296.082377,-9346.365076,-666.185348
5484.054529,148.041188,-9039.926876,-1110.308913
5484.054853,148.041188,-9269.755526,-962.267725
5484.055177,-444.123565,-8733.488677,-888.247130
5484.055502,-962.267725,-8886.707777,-888.247130
5484.055826,-1258.350101,-8886.707777,-1036.288319
5484.056150,-1406.391290,-8963.317327,-1036.288319
5484.056475,-1406.391290,-9346.365076,-962.267725
5484.056799,-1998.556043,-8656.879127,-444.123565
5484.057123,-1702.473667,-9039.926876,-370.102971
5484.057447,-1480.411884,-8733.488677,-444.123565
5484.057772,-1184.329507,-8427.050478,-296.082377
5484.058096,-148.041188,-8350.440928,-444.123565
5484.058420,0.000000,-8197.221829,296.082377
5484.058744,592.164754,-8350.440928,-740.205942
5484.059069,444.123565,-8427.050478,-222.061783
5484.059393,518.144159,-8427.050478,0.000000
5484.059717,222.061783,-7814.174080,-74.020594
5484.060041,592.164754,-8656.879127,-296.082377
5484.060366,148.041188,-8580.269578,0.000000
5484.060690,0.000000,-9116.536426,74.020594
5484.061014,-296.082377,-8503.660028,0.000000
5484.061339,296.082377,-8733.488677,222.061783
5484.061663,222.061783,-8656.879127,-296.082377
5484.061987,814.226536,-8656.879127,518.144159
5484.062311,1332.370696,-8427.050478,222.061783
5484.062636,1480.411884,-8503.660028,222.061783
5484.062960,1702.473667,-9039.926876,296.082377
5484.063284,1702.473667,-8427.050478,370.102971
5484.063608,1036.288319,-8197.221829,518.144159
5484.063933,444.123565,-8044.002729,518.144159
5484.064257,148.041188,-8810.098227,1258.350101
5484.064581,-370.102971,-8120.612279,740.205942
5484.064905,-296.082377,-9116.536426,444.123565
5484.065230,-370.102971,-7967.393179,222.061783
5484.065554,74.020594,-8197.221829,962.267725
5484.065878,-222.061783,-7737.564530,74.020594
5484.066202,518.144159,-8197.221829,740.205942
5484.066527,222.061783,-7584.345430,0.000000
5484.066851,962.267725,-8120.612279,74.020594
5484.067175,518.144159,-7814.174080,-148.041188
5484.067500,740.205942,-8580.269578,0.000000
5484.067824,444.123565,-8044.002729,-148.041188
5484.068148,666.185348,-8427.050478,-148.041188
5484.068472,888.247130,-8350.440928,-444.123565
5484.068797,1554.432478,-8273.831378,-148.041188
5484.069121,1480.411884,-8120.612279,-444.123565
5484.069445,1554.432478,-8350.440928,-888.247130
5484.069769,2368.659014,-8350.440928,-814.226536
5484.070094,2294.638420,-8197.221829,-740.205942
5484.070418,1924.535449,-8427.050478,-1184.329507
5484.070742,1776.494261,-8963.317327,-1036.288319
5484.071066,2072.576638,-9116.536426,-888.247130
5484.071391,1998.556043,-9116.536426,-1036.288319
5484.071715,1998.556043,-9193.145976,-1554.432478
5484.072039,1628.453072,-9499.584175,-1036.288319
5484.072364,1406.391290,-9116.536426,-1258.350101
5484.072688,1480.411884,-9576.193725,-1406.391290
5484.073012,1184.329507,-8963.317327,-962.267725
5484.073336,1184.329507,-9116.536426,-1110.308913
5484.073661,518.144159,-9116.536426,-1850.514855
5484.073985,444.123565,-9269.755526,-1332.370696
5484.074309,222.061783,-9422.974625,-592.164754
5484.074633,-148.041188,-9116.536426,-1184.329507
5484.074958,-370.102971,-9193.145976,-1258.350101
5484.075282,-592.164754,-9193.145976,-814.226536
5484.075606,-814.226536,-9269.755526,-1332.370696
5484.075930,-1258.350101,-9116.536426,-814.226536
5484.076255,-1628.453072,-9116.536426,-370.102971
5484.076579,-1776.494261,-9193.145976,-814.226536
5484.076903,-1924.535449,-8733.488677,-962.267725
5484.077227,-1924.535449,-8503.660028,148.041188
5484.077552,-1554.432478,-8273.831378,-666.185348
5484.077876,-1332.370696,-8427.050478,-296.082377
5484.078200,-740.205942,-7890.783629,-370.102971
5484.078525,0.000000,-7890.783629,0.000000
5484.078849,0.000000,-8197.221829,-740.205942
5484.079173,592.164754,-8197.221829,0.000000
5484.079497,740.205942,-8044.002729,74.020594
5484.079822,1110.308913,-8810.098227,-148.041188
5484.080146,-222.061783,-8197.221829,74.020594
5484.080470,518.144159,-8733.488677,222.061783
5484.080794,-296.082377,-8273.831378,0.000000
5484.081119,-148.041188,-8733.488677,518.144159
5484.081443,296.082377,-7660.954980,148.041188
5484.081767,370.102971,-8350.440928,296.082377
5484.082091,592.164754,-8503.660028,370.102971
5484.082416,1110.308913,-8197.221829,222.061783
5484.082740,1258.350101,-8273.831378,888.247130
5484.083064,962.267725,-7890.783629,518.144159
5484.083389,1184.329507,-8273.831378,222.061783
5484.083713,1036.288319,-8197.221829,444.123565
5484.084037,444.123565,-7967.393179,518.144159
5484.084361,296.082377,-8350.440928,370.102971
5484.084686,-148.041188,-8350.440928,740.205942
5484.085010,-518.144159,-8580.269578,814.226536
5484.085334,-518.144159,-7967.393179,444.123565
5484.085658,-148.041188,-7967.393179,1036.288319
5484.085983,-370.102971,-7660.954980,518.144159
5484.086307,296.082377,-8120.612279,814.226536
5484.086631,0.000000,-7890.783629,-222.061783
5484.086955,666.185348,-8197.221829,74.020594
5484.087280,666.185348,-7814.174080,-148.041188
5484.087604,740.205942,-8503.660028,0.000000
5484.087928,518.144159,-8120.612279,-296.082377
5484.088252,814.226536,-8733.488677,0.000000
5484.088577,592.164754,-8273.831378,-814.226536
5484.088901,1258.350101,-8350.440928,-518.144159
5484.089225,1332.370696,-8503.660028,-814.226536
5484.089550,1850.514855,-8350.440928,-962.267725
5484.089874,2220.617826,-7507.735880,-592.164754
5484.090198,2294.638420,-8580.269578,-1110.308913
5484.090522,2220.617826,-8810.098227,-1406.391290
5484.090847,2442.679609,-8886.707777,-1332.370696
5484.091171,2442.679609,-8886.707777,-1480.411884
5484.091495,2368.659014,-8963.317327,-1554.432478
5484.091819,1702.473667,-9499.584175,-1332.370696
5484.092144,1776.494261,-9499.584175,-1110.308913
5484.092468,1110.308913,-9039.926876,-1554.432478
5484.092792,1184.329507,-9499.584175,-1036.288319
5484.093116,592.164754,-8886.707777,-1332.370696
5484.093441,814.226536,-9729.412825,-1332.370696
5484.093765,0.000000,-9039.926876,-1480.411884
5484.094089,444.123565,-9576.193725,-1184.329507
5484.094414,296.082377,-8810.098227,-1480.411884
5484.094738,0.000000,-9422.974625,-1332.370696
5484.095062,-296.082377,-9116.536426,-1406.391290
5484.095386,-962.267725,-9039.926876,-1184.329507
5484.095711,-740.205942,-9193.145976,-1184.329507
5484.096035,-1258.350101,-9039.926876,-1184.329507
5484.096359,-1480.411884,-9193.145976,-888.247130
5484.096683,-1776.494261,-8580.269578,-962.267725
5484.097008,-1628.453072,-9269.755526,-518.144159
5484.097332,-1924.535449,-8656.879127,-740.205942
5484.097656,-1110.308913,-8120.612279,-370.102971
5484.097980,-666.185348,-8350.440928,-444.123565
5484.098305,-296.082377,-8273.831378,0.000000
5484.098629,222.061783,-7814.174080,-148.041188
5484.098953,444.123565,-7967.393179,-222.061783
5484.099277,888.247130,-8120.612279,0.000000
5484.099602,740.205942,-8427.050478,0.000000
5484.099926,740.205942,-8273.831378,-296.082377
5484.100250,444.123565,-8197.221829,148.041188
5484.100575,0.000000,-8197.221829,0.000000
5484.100899,74.020594,-8580.269578,0.000000
5484.101223,0.000000,-8273.831378,814.226536
5484.101547,296.082377,-8733.488677,222.061783
5484.101872,592.164754,-8044.002729,222.061783
5484.102196,1036.288319,-8503.660028,592.164754
5484.102520,1184.329507,-8273.831378,296.082377
5484.102844,1480.411884,-8120.612279,592.164754
5484.103169,1628.453072,-8427.050478,518.144159
5484.103493,962.267725,-8044.002729,666.185348
5484.103817,666.185348,-8197.221829,814.226536
5484.104141,444.123565,-8350.440928,592.164754
5484.104466,222.061783,-8427.050478,888.247130
5484.104790,-296.082377,-8044.002729,296.082377
5484.105114,-518.144159,-8656.879127,1036.288319
5484.105439,-222.061783,-7737.564530,222.061783
5484.105763,-370.102971,-8273.831378,518.144159
5484.106087,0.000000,-7890.783629,370.102971
5484.106411,0.000000,-7967.393179,0.000000
5484.106736,74.020594,-8120.612279,0.000000
5484.107060,74.020594,-8044.002729,222.061783
5484.107384,370.102971,-8503.660028,0.000000
5484.107708,296.082377,-8197.221829,-148.041188
5484.108033,518.144159,-8273.831378,-592.164754
5484.108357,814.226536,-8350.440928,-592.164754
5484.108681,1184.329507,-8427.050478,-296.082377
5484.109005,1184.329507,-8120.612279,-666.185348
5484.109330,1850.514855,-8503.660028,-666.185348
5484.109654,1850.514855,-7890.783629,-666.185348
5484.109978,2368.659014,-8810.098227,-740.205942
5484.110302,2294.638420,-8503.660028,-1110.308913
5484.110627,2072.576638,-8656.879127,-1110.308913
5484.110951,2072.576638,-9346.365076,-962.267725
5484.111275,1850.514855,-9116.536426,-1110.308913
5484.111600,1998.556043,-9346.365076,-1258.350101
5484.111924,1628.453072,-9269.755526,-1332.370696
5484.112248,1480.411884,-9499.584175,-1110.308913
5484.112572,1332.370696,-9806.022374,-1036.288319
5484.112897,1036.288319,-9576.193725,-1406.391290
5484.113221,740.205942,-9499.584175,-1258.350101
5484.113545,666.185348,-9576.193725,-1480.411884
5484.113869,444.123565,-9193.145976,-1184.329507
5484.114194,-148.041188,-9193.145976,-888.247130
5484.114518,-444.123565,-9422.974625,-1036.288319
5484.114842,-222.061783,-9116.536426,-1406.391290
5484.115166,-444.123565,-9116.536426,-888.247130
5484.115491,-592.164754,-8886.707777,-1036.288319
5484.115815,-666.185348,-9039.926876,-962.267725
5484.116139,-1184.329507,-8733.488677,-666.185348
5484.116464,-1628.453072,-9193.145976,-592.164754
5484.116788,-1628.453072,-7967.393179,-814.226536
5484.117112,-1258.350101,-8886.707777,-370.102971
5484.117436,-1850.514855,-8273.831378,-296.082377
5484.117761,-962.267725,-8503.660028,-222.061783
5484.118085,-666.185348,-8120.612279,-74.020594
5484.118409,0.000000,-8120.612279,148.041188
5484.118733,0.000000,-7814.174080,0.000000
5484.119058,370.102971,-7967.393179,148.041188
5484.119382,814.226536,-8120.612279,0.000000
5484.119707,518.144159,-8350.440928,518.144159
5484.120031,814.226536,-8503.660028,74.020594
5484.120355,370.102971,-8350.440928,222.061783
5484.120680,666.185348,-8350.440928,0.000000
5484.121004,592.164754,-8120.612279,370.102971
5484.121328,370.102971,-8503.660028,444.123565
5484.121653,74.020594,-8273.831378,0.000000
5484.121977,888.247130,-8197.221829,444.123565
5484.122302,1036.288319,-8273.831378,0.000000
5484.122626,1110.308913,-8580.269578,148.041188
5484.122950,962.267725,-8120.612279,148.041188
5484.123275,1036.288319,-8503.660028,444.123565
5484.123599,518.144159,-7890.783629,518.144159
5484.123923,592.164754,-8044.002729,148.041188
5484.124248,740.205942,-8197.221829,518.144159
5484.124572,222.061783,-8197.221829,222.061783
5484.124897,0.000000,-8733.488677,444.123565
5484.125221,-148.041188,-8120.612279,-296.082377
5484.125545,0.000000,-8503.660028,370.102971
5484.125870,-518.144159,-7967.393179,74.020594
5484.126194,0.000000,-8656.879127,592.164754
5484.126518,-518.144159,-8120.612279,-370.102971
5484.126843,0.000000,-8427.050478,0.000000
5484.127167,74.020594,-8197.221829,-444.123565
5484.127492,444.123565,-8810.098227,0.000000
5484.127816,740.205942,-7660.954980,-444.123565
5484.128140,962.267725,-8044.002729,-444.123565
5484.128465,1110.308913,-8197.221829,-666.185348
5484.128789,1406.391290,-8273.831378,-444.123565
5484.129114,2072.576638,-8427.050478,-888.247130
5484.129438,2146.597232,-8656.879127,-1184.329507
5484.129762,2072.576638,-8886.707777,-1110.308913
5484.130087,1998.556043,-8810.098227,-740.205942
5484.130411,1702.473667,-8733.488677,-1110.308913
5484.130735,1776.494261,-9193.145976,-1480.411884
5484.131060,2072.576638,-9269.755526,-1110.308913
5484.131384,1702.473667,-9039.926876,-1406.391290
5484.131709,1702.473667,-9422.974625,-1406.391290
5484.132033,1628.453072,-9116.536426,-1184.329507
5484.132357,2072.576638,-9499.584175,-1554.432478
5484.132682,1776.494261,-9269.755526,-1332.370696
5484.133006,1702.473667,-9346.365076,-1036.288319
5484.133330,1110.308913,-9193.145976,-1184.329507
5484.133655,888.247130,-9576.193725,-1110.308913
5484.133979,370.102971,-9039.926876,-1628.453072
5484.134304,0.000000,-9652.803275,-814.226536
5484.134628,-518.144159,-9039.926876,-1184.329507
5484.134952,-740.205942,-9116.536426,-740.205942
5484.135277,-814.226536,-9269.755526,-814.226536
5484.135601,-1184.329507,-8810.098227,-814.226536
5484.135925,-962.267725,-8886.707777,-740.205942
5484.136250,-1184.329507,-8580.269578,-814.226536
5484.136574,-814.226536,-8963.317327,-888.247130
5484.136899,-1480.411884,-8197.221829,-814.226536
5484.137223,-1110.308913,-8963.317327,-222.061783
5484.137547,-1036.288319,-7967.393179,-444.123565
5484.137872,-814.226536,-8503.660028,148.041188
5484.138196,-518.144159,-7814.174080,0.000000
5484.138520,-296.082377,-8120.612279,222.061783
5484.138845,0.000000,-7890.783629,-148.041188
5484.139169,0.000000,-8273.831378,222.061783
5484.139494,1110.308913,-8120.612279,0.000000
5484.139818,0.000000,-8120.612279,0.000000
5484.140142,370.102971,-8350.440928,74.020594
5484.140467,-148.041188,-8427.050478,148.041188
5484.140791,370.102971,-8886.707777,0.000000
5484.141116,0.000000,-7967.393179,0.000000
5484.141440,666.185348,-9039.926876,592.164754
5484.141764,592.164754,-8044.002729,0.000000
5484.142089,666.185348,-8656.879127,592.164754
5484.142413,370.102971,-8273.831378,222.061783
5484.142737,1184.329507,-8656.879127,740.205942
5484.143062,1110.308913,-8120.612279,74.020594
5484.143386,1184.329507,-8350.440928,444.123565
5484.143711,444.123565,-8273.831378,1036.288319
5484.144035,222.061783,-8580.269578,740.205942
5484.144359,296.082377,-8427.050478,518.144159
5484.144684,74.020594,-8580.269578,666.185348
5484.145008,0.000000,-7890.783629,444.123565
5484.145332,-592.164754,-7967.393179,444.123565
5484.145657,148.041188,-8427.050478,296.082377
5484.145981,-222.061783,-8197.221829,148.041188
5484.146306,74.020594,-8427.050478,148.041188
5484.146630,148.041188,-8044.002729,-666.185348
5484.146954,518.144159,-8503.660028,0.000000
5484.147279,74.020594,-8273.831378,-370.102971
5484.147603,296.082377,-8580.269578,-222.061783
5484.147927,0.000000,-8273.831378,-962.267725
5484.148252,666.185348,-8656.879127,-296.082377
5484.148576,1110.308913,-8503.660028,-888.247130
5484.148901,1702.473667,-8427.050478,-592.164754
5484.149225,1776.494261,-8580.269578,-962.267725
5484.149549,2220.617826,-8656.879127,-1110.308913
5484.149874,2368.659014,-8580.269578,-1184.329507
5484.150198,2368.659014,-9116.536426,-962.267725
5484.150523,1998.556043,-8656.879127,-1406.391290
5484.150847,2368.659014,-9346.365076,-888.247130
5484.151171,1480.411884,-8886.707777,-1628.453072
5484.151496,1850.514855,-9652.803275,-1184.329507
5484.151820,1480.411884,-9116.536426,-1480.411884
5484.152144,1850.514855,-9959.241474,-1110.308913
5484.152469,1332.370696,-8886.707777,-1480.411884
5484.152793,1554.432478,-9729.412825,-1184.329507
5484.153118,1258.350101,-9039.926876,-1702.473667
5484.153442,1184.329507,-9576.193725,-1036.288319
5484.153766,814.226536,-9499.584175,-1554.432478
5484.154091,222.061783,-9422.974625,-962.267725
5484.154415,0.000000,-9116.536426,-1184.329507
5484.154739,-222.061783,-9346.365076,-740.205942
5484.155064,-518.144159,-9269.755526,-444.123565
5484.155388,-740.205942,-9116.536426,-888.247130
5484.155713,-518.144159,-8963.317327,-592.164754
5484.156037,-1406.391290,-8503.660028,-888.247130
5484.156361,-1702.473667,-9422.974625,0.000000
5484.156686,-1628.453072,-8350.440928,-518.144159
5484.157010,-1554.432478,-8963.317327,-370.102971
5484.157334,-1702.473667,-8273.831378,-518.144159
5484.157659,-962.267725,-8503.660028,0.000000
5484.157983,-1110.308913,-8044.002729,-296.082377
5484.158308,-148.041188,-8656.879127,0.000000
5484.158632,222.061783,-8427.050478,-222.061783
5484.158956,74.020594,-8120.612279,74.020594
5484.159281,296.082377,-8044.002729,444.123565
5484.159605,74.020594,-8197.221829,0.000000
5484.159930,518.144159,-8044.002729,-222.061783
5484.160254,74.020594,-8044.002729,222.061783
5484.160578,0.000000,-8810.098227,222.061783
5484.160903,0.000000,-8656.879127,592.164754
5484.161227,74.020594,-8427.050478,444.123565
5484.161551,518.144159,-8656.879127,444.123565
5484.161876,592.164754,-7967.393179,0.000000
5484.162200,1332.370696,-8810.098227,1036.288319
5484.162525,1480.411884,-7737.564530,296.082377
5484.162849,1258.350101,-8656.879127,740.205942
5484.163173,666.185348,-8197.221829,0.000000
5484.163498,888.247130,-9039.926876,1036.288319
5484.163822,666.185348,-8044.002729,444.123565
5484.164146,-1184.329507,-8427.050478,444.123565
5484.164471,-370.102971,-8580.269578,1036.288319
5484.164795,-1184.329507,-8810.098227,444.123565
5484.165120,-370.102971,-8656.879127,814.226536
5484.165444,-296.082377,-7967.393179,74.020594
5484.165768,222.061783,-8350.440928,444.123565
5484.166093,0.000000,-7584.345430,222.061783
5484.166417,814.226536,-8503.660028,-222.061783
5484.166741,0.000000,-8120.612279,0.000000
5484.167066,296.082377,-8427.050478,222.061783
5484.167390,296.082377,-8503.660028,-518.144159
5484.167715,666.185348,-9116.536426,-148.041188
5484.168039,444.123565,-8350.440928,-74.020594
5484.168363,888.247130,-8886.707777,-444.123565
5484.168688,962.267725,-7967.393179,-370.102971
5484.169012,1554.432478,-8427.050478,-592.164754
5484.169336,1998.556043,-8197.221829,-1036.288319
5484.169661,2368.659014,-8580.269578,-962.267725
5484.169985,2072.576638,-8656.879127,-1332.370696
5484.170310,2442.679609,-8580.269578,-1480.411884
5484.170634,2220.617826,-8580.269578,-1332.370696
5484.170958,2072.576638,-9499.584175,-1258.350101
5484.171283,1850.514855,-9346.365076,-1332.370696
5484.171607,1776.494261,-9576.193725,-1184.329507
5484.171932,1998.556043,-9346.365076,-888.247130
5484.172256,2146.597232,-9346.365076,-1332.370696
5484.172580,2220.617826,-9346.365076,-1628.453072
5484.172905,2294.638420,-9116.536426,-1258.350101
5484.173229,1628.453072,-9193.145976,-1036.288319
5484.173553,592.164754,-9193.145976,-1110.308913
5484.173878,444.123565,-9346.365076,-1110.308913
5484.174202,74.020594,-8886.707777,-1036.288319
5484.174527,0.000000,-9422.974625,-962.267725
5484.174851,-814.226536,-8656.879127,-666.185348
5484.175175,-518.144159,-9269.755526,-592.164754
5484.175500,-1110.308913,-8963.317327,-1332.370696
5484.175824,-1110.308913,-9422.974625,-740.205942
5484.176148,-1480.411884,-8810.098227,-814.226536
5484.176473,-962.267725,-8733.488677,-296.082377
5484.176797,-1702.473667,-7967.393179,-814.226536
5484.177122,-1480.411884,-8810.098227,-370.102971
5484.177446,-1406.391290,-7890.783629,-370.102971
5484.177770,-666.185348,-8580.269578,-444.123565
5484.178095,-518.144159,-8427.050478,-148.041188
5484.178419,-518.144159,-7967.393179,0.000000
5484.178743,0.000000,-8197.221829,0.000000
5484.179068,222.061783,-7584.345430,74.020594
5484.179392,666.185348,-8120.612279,0.000000
5484.179717,296.082377,-7890.783629,0.000000
5484.180041,0.000000,-8120.612279,296.082377
5484.180365,0.000000,-8503.660028,-370.102971
5484.180690,148.041188,-8427.050478,0.000000
5484.181014,518.144159,-8273.831378,222.061783
5484.181339,666.185348,-8197.221829,296.082377
5484.181663,444.123565,-8427.050478,222.061783
5484.181987,1258.350101,-8733.488677,222.061783
5484.182312,888.247130,-8810.098227,296.082377
5484.182636,1110.308913,-8350.440928,444.123565
5484.182960,962.267725,-8427.050478,444.123565
5484.183285,814.226536,-8656.879127,814.226536
5484.183609,518.144159,-8273.831378,518.144159
5484.183934,0.000000,-8273.831378,518.144159
5484.184258,0.000000,-8427.050478,814.226536
5484.184582,-370.102971,-8273.831378,296.082377
5484.184907,0.000000,-8580.269578,444.123565
5484.185231,-296.082377,-8197.221829,666.185348
5484.185555,0.000000,-8350.440928,370.102971
5484.185880,-222.061783,-8427.050478,370.102971
5484.186204,370.102971,-8044.002729,740.205942
5484.186529,0.000000,-8197.221829,0.000000
5484.186853,-222.061783,-8044.002729,0.000000
5484.187177,0.000000,-8503.660028,0.000000
5484.187502,-370.102971,-8120.612279,222.061783
5484.187826,518.144159,-7890.783629,-592.164754
5484.188150,370.102971,-8427.050478,-296.082377
5484.188475,1258.350101,-8120.612279,-518.144159
5484.188799,1332.370696,-7814.174080,-666.185348
5484.189124,2368.659014,-8963.317327,-592.164754
5484.189448,1924.535449,-7890.783629,-962.267725
5484.189772,2072.576638,-8580.269578,-888.247130
5484.190097,2442.679609,-8427.050478,-888.247130
5484.190421,2886.803174,-8273.831378,-666.185348
5484.190746,2146.597232,-8886.707777,-1332.370696
5484.191070,1924.535449,-9193.145976,-1110.308913
5484.191394,1924.535449,-8733.488677,-1332.370696
5484.191719,2294.638420,-9346.365076,-1184.329507
5484.192043,1776.494261,-9269.755526,-1110.308913
5484.192367,2146.597232,-9422.974625,-1036.288319
5484.192692,1776.494261,-8810.098227,-1480.411884
5484.193016,1628.453072,-9499.584175,-1036.288319
5484.193341,1406.391290,-9346.365076,-1776.494261
5484.193665,962.267725,-9806.022374,-740.205942
5484.193989,148.041188,-8810.098227,-1184.329507
5484.194314,370.102971,-9422.974625,-1036.288319
5484.194638,0.000000,-9806.022374,-1184.329507
5484.194962,-296.082377,-9193.145976,-888.247130
5484.195287,-888.247130,-9269.755526,-962.267725
5484.195611,-1036.288319,-8886.707777,-1036.288319
5484.195936,-1110.308913,-9499.584175,-740.205942
5484.196260,-1184.329507,-8656.879127,-962.267725
5484.196584,-1332.370696,-9039.926876,-518.144159
5484.196909,-1554.432478,-8273.831378,-1036.288319
5484.197233,-962.267725,-8503.660028,-296.082377
5484.197557,-1554.432478,-7660.954980,-666.185348
5484.197882,-444.123565,-8656.879127,-592.164754
5484.198206,-444.123565,-7967.393179,-518.144159
5484.198531,148.041188,-8733.488677,74.020594
5484.198855,-296.082377,-7890.783629,-592.164754
5484.199179,518.144159,-8427.050478,222.061783
5484.199504,0.000000,-8120.612279,-296.082377
5484.199828,296.082377,-8503.660028,0.000000
5484.200152,222.061783,-8350.440928,0.000000
5484.200477,222.061783,-8810.098227,74.020594
5484.200801,222.061783,-7967.393179,74.020594
5484.201126,518.144159,-8427.050478,222.061783
5484.201450,592.164754,-8273.831378,74.020594
5484.201774,1406.391290,-8120.612279,148.041188
5484.202099,888.247130,-8427.050478,222.061783
5484.202423,1332.370696,-8733.488677,444.123565
5484.202748,1036.288319,-8350.440928,296.082377
5484.203072,962.267725,-8810.098227,222.061783
5484.203396,592.164754,-8197.221829,296.082377
5484.203721,222.061783,-8427.050478,666.185348
5484.204045,518.144159,-8273.831378,444.123565
5484.204369,-370.102971,-8197.221829,666.185348
5484.204694,-592.164754,-8733.488677,370.102971
5484.205018,-370.102971,-8350.440928,592.164754
5484.205343,-296.082377,-8120.612279,444.123565
5484.205667,-222.061783,-8273.831378,370.102971
5484.205991,0.000000,-8503.660028,74.020594
5484.206316,-296.082377,-8273.831378,444.123565
5484.206640,-222.061783,-8120.612279,0.000000
5484.206964,0.000000,-8273.831378,74.020594
5484.207289,0.000000,-8963.317327,222.061783
5484.207613,740.205942,-8427.050478,0.000000
5484.207938,444.123565,-7890.783629,148.041188
5484.208262,1110.308913,-8427.050478,-148.041188
5484.208586,1554.432478,-7814.174080,-370.102971
5484.208911,1776.494261,-8427.050478,0.000000
5484.209235,1850.514855,-8120.612279,-592.164754
5484.209559,1924.535449,-8427.050478,-888.247130
5484.209884,2146.597232,-8656.879127,-592.164754
5484.210208,1702.473667,-8656.879127,-888.247130
5484.210533,1702.473667,-8963.317327,-1184.329507
5484.210857,1628.453072,-8963.317327,-888.247130
5484.211181,1776.494261,-8580.269578,-814.226536
5484.211506,1628.453072,-9806.022374,-1406.391290
5484.211830,2072.576638,-9269.755526,-1184.329507
5484.212155,1628.453072,-9193.145976,-888.247130
5484.212479,1998.556043,-9422.974625,-1332.370696
5484.212803,1776.494261,-9116.536426,-1628.453072
5484.213128,1776.494261,-9652.803275,-814.226536
5484.213452,962.267725,-8963.317327,-1554.432478
5484.213776,814.226536,-9422.974625,-1184.329507
5484.214101,296.082377,-9193.145976,-1406.391290
5484.214425,592.164754,-9652.803275,-592.164754
5484.214750,-518.144159,-8963.317327,-1628.453072
5484.215074,-592.164754,-9422.974625,-740.205942
5484.215398,-962.267725,-8733.488677,-1406.391290
5484.215723,-888.247130,-9269.755526,-1184.329507
5484.216047,-1332.370696,-8503.660028,-1480.411884
5484.216371,-1258.350101,-9039.926876,-592.164754
5484.216696,-1554.432478,-8580.269578,-1184.329507
5484.217020,-1258.350101,-8886.707777,-888.247130
5484.217345,-1332.370696,-8810.098227,-888.247130
5484.217669,-1036.288319,-8503.660028,-370.102971
5484.217993,-518.144159,-8503.660028,-518.144159
5484.218318,-444.123565,-8503.660028,-296.082377
5484.218642,0.000000,-9346.365076,296.082377
5484.218966,0.000000,-8580.269578,-222.061783
5484.219291,592.164754,-8503.660028,0.000000
5484.219615,370.102971,-8273.831378,0.000000
5484.219940,592.164754,-8580.269578,74.020594
5484.220264,518.144159,-7967.393179,74.020594
5484.220588,518.144159,-8350.440928,74.020594
5484.220913,444.123565,-8810.098227,222.061783
5484.221237,518.144159,-8273.831378,444.123565
5484.221562,888.247130,-8273.831378,74.020594
5484.221886,592.164754,-8503.660028,296.082377
5484.222210,740.205942,-8350.440928,0.000000
5484.222535,1110.308913,-8273.831378,444.123565
5484.222859,1332.370696,-8886.707777,0.000000
5484.223183,1184.329507,-8503.660028,740.205942
5484.223507,740.205942,-7967.393179,592.164754
5484.223832,888.247130,-8273.831378,518.144159
5484.224156,222.061783,-8273.831378,518.144159
5484.224480,-370.102971,-8810.098227,592.164754
5484.224804,-666.185348,-8044.002729,666.185348
5484.225129,-888.247130,-7967.393179,740.205942
5484.225453,-444.123565,-7890.783629,296.082377
5484.225777,-814.226536,-7967.393179,0.000000
5484.226101,-222.061783,-8044.002729,740.205942
5484.226426,-444.123565,-7967.393179,0.000000
5484.226750,296.082377,-8120.612279,592.164754
5484.227074,148.041188,-8350.440928,-296.082377
5484.227398,74.020594,-8427.050478,148.041188
5484.227722,296.082377,-8197.221829,-444.123565
5484.228047,888.247130,-8273.831378,-444.123565
5484.228371,1258.350101,-8427.050478,-370.102971
5484.228695,962.267725,-7890.783629,-370.102971
5484.229019,1258.350101,-8503.660028,-444.123565
5484.229344,1184.329507,-8197.221829,-296.082377
5484.229668,1850.514855,-8580.269578,-740.205942
5484.229992,2072.576638,-9269.755526,-296.082377
5484.230316,2146.597232,-8503.660028,-888.247130
5484.230641,2368.659014,-8810.098227,-888.247130
5484.230965,2368.659014,-8810.098227,-1184.329507
5484.231289,2368.659014,-9652.803275,-1332.370696
5484.231613,1924.535449,-9499.584175,-962.267725
5484.231938,1850.514855,-9039.926876,-962.267725
5484.232262,1702.473667,-9576.193725,-1036.288319
5484.232586,1036.288319,-9269.755526,-1406.391290
5484.232910,1036.288319,-9039.926876,-1258.350101
5484.233235,518.144159,-9422.974625,-1480.411884
5484.233559,592.164754,-9576.193725,-1406.391290
5484.233883,370.102971,-9039.926876,-1258.350101
5484.234207,0.000000,-9422.974625,-888.247130
5484.234532,0.000000,-8963.317327,-1406.391290
5484.234856,0.000000,-9729.412825,-1480.411884
5484.235180,-296.082377,-9422.974625,-1036.288319
5484.235504,-370.102971,-9269.755526,-1258.350101
5484.235828,-740.205942,-8810.098227,-888.247130
5484.236153,-1258.350101,-9346.365076,-1110.308913
5484.236477,-1332.370696,-8810.098227,-740.205942
5484.236801,-1702.473667,-8656.879127,-1110.308913
5484.237125,-1554.432478,-8656.879127,-444.123565
5484.237450,-1776.494261,-8350.440928,-592.164754
5484.237774,-666.185348,-8580.269578,-592.164754
5484.238098,-666.185348,-7890.783629,-592.164754
5484.238422,74.020594,-9116.536426,0.000000
5484.238747,740.205942,-7890.783629,-444.123565
5484.239071,888.247130,-8197.221829,0.000000
5484.239395,814.226536,-7967.393179,-444.123565
5484.239719,888.247130,-8503.660028,296.082377
5484.240044,592.164754,-7890.783629,0.000000
5484.240368,222.061783,-8350.440928,0.000000
5484.240692,148.041188,-8120.612279,0.000000
5484.241016,0.000000,-8810.098227,222.061783
5484.241341,148.041188,-7890.783629,-444.123565
5484.241665,444.123565,-8503.660028,148.041188
5484.241989,740.205942,-8580.269578,296.082377
5484.242313,962.267725,-8044.002729,296.082377
5484.242638,1702.473667,-8580.269578,518.144159
5484.242962,1110.308913,-8197.221829,518.144159
5484.243286,1110.308913,-8350.440928,518.144159
5484.243610,740.205942,-8427.050478,444.123565
5484.243934,518.144159,-8503.660028,814.226536
5484.244259,-222.061783,-8197.221829,740.205942
5484.244583,-444.123565,-8427.050478,592.164754
5484.244907,-666.185348,-8273.831378,592.164754
5484.245231,-888.247130,-8197.221829,296.082377
5484.245556,-370.102971,-8044.002729,962.267725
5484.245880,-666.185348,-8120.612279,444.123565
5484.246204,74.020594,-8580.269578,592.164754
5484.246528,-296.082377,-7890.783629,222.061783
5484.246853,518.144159,-8427.050478,74.020594
5484.247177,740.205942,-8120.612279,-370.102971
5484.247501,518.144159,-8886.707777,222.061783
5484.247825,74.020594,-7890.783629,-296.082377
5484.248150,370.102971,-8503.660028,0.000000
5484.248474,666.185348,-8350.440928,-370.102971
5484.248798,1702.473667,-8580.269578,-518.144159
5484.249122,1628.453072,-7814.174080,-592.164754
5484.249447,1480.411884,-8197.221829,-592.164754
5484.249771,2664.741391,-8503.660028,-1184.329507
5484.250095,2368.659014,-8580.269578,-740.205942
5484.250419,2664.741391,-8273.831378,-1480.411884
5484.250744,1998.556043,-8810.098227,-962.267725
5484.251068,1998.556043,-9346.365076,-962.267725
5484.251392,1702.473667,-9193.145976,-1332.370696
5484.251716,1628.453072,-9499.584175,-1406.391290
5484.252040,1036.288319,-9269.755526,-1406.391290
5484.252365,1406.391290,-9806.022374,-1036.288319
5484.252689,1036.288319,-9116.536426,-1554.432478
5484.253013,1184.329507,-9806.022374,-1258.350101
5484.253337,74.020594,-9039.926876,-1332.370696
5484.253662,370.102971,-9499.584175,-814.226536
5484.253986,888.247130,-8427.050478,-962.267725
5484.254310,518.144159,-9499.584175,-888.247130
5484.254634,0.000000,-8503.660028,-1258.350101
5484.254959,0.000000,-9729.412825,-666.185348
5484.255283,-592.164754,-8503.660028,-1110.308913
5484.255607,-148.041188,-9576.193725,-962.267725
5484.255931,-666.185348,-8810.098227,-1110.308913
5484.256256,-740.205942,-9039.926876,-592.164754
5484.256580,-1036.288319,-8656.879127,-1036.288319
5484.256904,-1110.308913,-8580.269578,-888.247130
5484.257228,-1110.308913,-8427.050478,-740.205942
5484.257553,-1258.350101,-8427.050478,-444.123565
5484.257877,-666.185348,-8503.660028,-222.061783
5484.258201,-592.164754,-7354.516781,296.082377
5484.258525,888.247130,-8427.050478,-148.041188
5484.258849,74.020594,-7967.393179,-444.123565
5484.259174,444.123565,-8886.707777,-296.082377
5484.259498,370.102971,-8120.612279,0.000000
5484.259822,592.164754,-8350.440928,0.000000
5484.260146,296.082377,-8503.660028,0.000000
5484.260471,0.000000,-8120.612279,592.164754
5484.260795,0.000000,-8120.612279,0.000000
5484.261119,444.123565,-8120.612279,222.061783
5484.261443,518.144159,-8350.440928,518.144159
5484.261768,740.205942,-8044.002729,222.061783
5484.262092,1110.308913,-8580.269578,296.082377
5484.262416,740.205942,-8273.831378,518.144159
5484.262740,1332.370696,-8580.269578,666.185348
5484.263065,962.267725,-7814.174080,370.102971
5484.263389,814.226536,-8503.660028,518.144159
5484.263713,74.020594,-8273.831378,370.102971
5484.264037,148.041188,-8427.050478,518.144159
5484.264362,-296.082377,-8427.050478,370.102971
5484.264686,-666.185348,-8273.831378,740.205942
5484.265010,-814.226536,-8503.660028,962.267725
5484.265334,0.000000,-8273.831378,666.185348
5484.265659,-296.082377,-8120.612279,296.082377
5484.265983,-518.144159,-7890.783629,148.041188
5484.266307,148.041188,-8733.488677,518.144159
5484.266631,-370.102971,-7890.783629,0.000000
5484.266955,518.144159,-8733.488677,0.000000
5484.267280,74.020594,-7584.345430,-296.082377
5484.267604,518.144159,-8886.707777,0.000000
5484.267928,370.102971,-7890.783629,-666.185348
5484.268252,1406.391290,-8963.317327,74.020594
5484.268577,1184.329507,-7890.783629,-740.205942
5484.268901,1554.432478,-8656.879127,-296.082377
5484.269225,1776.494261,-7967.393179,-962.267725
5484.269549,2220.617826,-8580.269578,-740.205942
5484.269874,2516.700203,-8733.488677,-1184.329507
5484.270198,2072.576638,-8656.879127,-666.185348
5484.270522,1110.308913,-8503.660028,-1554.432478
5484.270846,962.267725,-8963.317327,-962.267725
5484.271171,2294.638420,-9193.145976,-1184.329507
5484.271495,1480.411884,-9422.974625,-1480.411884
5484.271819,1702.473667,-9039.926876,-1480.411884
5484.272143,1184.329507,-9193.145976,-666.185348
5484.272468,1628.453072,-9116.536426,-1036.288319
5484.272792,1554.432478,-9039.926876,-1628.453072
5484.273116,1480.411884,-9806.022374,-1110.308913
5484.273440,1036.288319,-8886.707777,-1258.350101
5484.273765,1036.288319,-9806.022374,-1258.350101
5484.274089,0.000000,-9269.755526,-1258.350101
5484.274413,74.020594,-9422.974625,-888.247130
5484.274737,-148.041188,-9346.365076,-1480.411884
5484.275061,-370.102971,-9499.584175,-962.267725
5484.275386,-1184.329507,-8886.707777,-740.205942
5484.275710,-518.144159,-9116.536426,-1184.329507
5484.276034,-1110.308913,-9116.536426,-888.247130
5484.276358,-1406.391290,-8810.098227,-518.144159
5484.276683,-888.247130,-9422.974625,-740.205942
5484.277007,-1184.329507,-8503.660028,-592.164754
5484.277331,-1036.288319,-8810.098227,-222.061783
5484.277655,-962.267725,-7890.783629,-370.102971
5484.277980,-444.123565,-8656.879127,-518.144159
5484.278304,-222.061783,-8273.831378,-148.041188
5484.278628,0.000000,-8350.440928,0.000000
5484.278952,370.102971,-8197.221829,-222.061783
5484.279277,370.102971,-8273.831378,0.000000
5484.279601,0.000000,-8273.831378,-148.041188
5484.279925,296.082377,-8503.660028,0.000000
5484.280249,148.041188,-8273.831378,74.020594
5484.280574,0.000000,-8350.440928,74.020594
5484.280898,592.164754,-9039.926876,370.102971
5484.281222,148.041188,-8197.221829,74.020594
5484.281546,888.247130,-8273.831378,148.041188
5484.281871,814.226536,-8427.050478,148.041188
5484.282195,888.247130,-8580.269578,444.123565
5484.282519,1184.329507,-7967.393179,518.144159
5484.282843,1258.350101,-8503.660028,592.164754
5484.283167,740.205942,-8350.440928,296.082377
5484.283492,888.247130,-8580.269578,592.164754
5484.283816,444.123565,-8120.612279,814.226536
5484.284140,370.102971,-8350.440928,740.205942
5484.284464,-444.123565,-8273.831378,444.123565
5484.284789,-370.102971,-8580.269578,666.185348
5484.285113,-592.164754,-7507.735880,296.082377
5484.285437,-296.082377,-8197.221829,370.102971
5484.285761,-888.247130,-7890.783629,444.123565
5484.286086,-444.123565,-8197.221829,592.164754
5484.286410,-518.144159,-7890.783629,-148.041188
5484.286734,74.020594,-8350.440928,222.061783
5484.287058,74.020594,-8503.660028,0.000000
5484.287383,222.061783,-8273.831378,-222.061783
5484.287707,518.144159,-8503.660028,-148.041188
5484.288031,444.123565,-8886.707777,0.000000
5484.288355,1258.350101,-8580.269578,-296.082377
5484.288680,1184.329507,-8197.221829,-370.102971
5484.289004,1628.453072,-8580.269578,-296.082377
5484.289328,1628.453072,-8733.488677,-666.185348
5484.289652,2072.576638,-8350.440928,-740.205942
5484.289977,1924.535449,-8656.879127,-1036.288319
5484.290301,2442.679609,-8733.488677,-1258.350101
5484.290625,2294.638420,-8656.879127,-1332.370696
5484.290949,2146.597232,-9039.926876,-814.226536
5484.291273,1702.473667,-9269.755526,-1258.350101
5484.291598,1998.556043,-9039.926876,-1258.350101
5484.291922,1998.556043,-9116.536426,-1036.288319
5484.292246,2146.597232,-9959.241474,-592.164754
5484.292570,1850.514855,-9346.365076,-1480.411884
5484.292895,1258.350101,-9422.974625,-1036.288319
5484.293219,1110.308913,-9422.974625,-1110.308913
5484.293543,888.247130,-9729.412825,-1628.453072
5484.293867,370.102971,-9499.584175,-1628.453072
5484.294192,-370.102971,-9193.145976,-740.205942
5484.294516,-296.082377,-8963.317327,-1332.370696
5484.294840,-296.082377,-9269.755526,-1184.329507
5484.295164,0.000000,-8963.317327,-962.267725
5484.295489,-592.164754,-9039.926876,-740.205942
5484.295813,-740.205942,-9193.145976,-1480.411884
5484.296137,-1258.350101,-9116.536426,-518.144159
5484.296461,-1258.350101,-9193.145976,0.000000
5484.296786,-1554.432478,-9039.926876,-592.164754
5484.297110,-1332.370696,-8580.269578,-518.144159
5484.297434,-962.267725,-8503.660028,-370.102971
5484.297758,-814.226536,-8733.488677,-296.082377
5484.298083,-222.061783,-8427.050478,-666.185348
5484.298407,370.102971,-8273.831378,0.000000
5484.298731,370.102971,-8197.221829,-222.061783
5484.299055,888.247130,-8273.831378,-296.082377
5484.299379,888.247130,-8427.050478,-74.020594
5484.299704,370.102971,-8197.221829,-148.041188
5484.300028,444.123565,-8503.660028,148.041188
5484.300352,222.061783,-7814.174080,0.000000
5484.300676,370.102971,-9346.365076,370.102971
5484.301001,74.020594,-7890.783629,74.020594
5484.301325,444.123565,-8503.660028,666.185348
5484.301649,148.041188,-7737.564530,-370.102971
5484.301973,444.123565,-9269.755526,666.185348
5484.302298,1036.288319,-8350.440928,222.061783
5484.302622,1258.350101,-8963.317327,444.123565
5484.302946,1184.329507,-8273.831378,592.164754
5484.303270,1036.288319,-8427.050478,962.267725
5484.303595,666.185348,-8503.660028,1036.288319
5484.303919,444.123565,-8350.440928,444.123565
5484.304243,-148.041188,-8503.660028,592.164754
5484.304567,-296.082377,-8044.002729,518.144159
5484.304892,-1110.308913,-8656.879127,1406.391290
5484.305216,-1110.308913,-8427.050478,518.144159
5484.305540,-444.123565,-8044.002729,592.164754
5484.305864,-666.185348,-8197.221829,222.061783
5484.306189,-148.041188,-8350.440928,222.061783
5484.306513,-222.061783,-7814.174080,74.020594
5484.306837,296.082377,-8350.440928,222.061783
5484.307161,222.061783,-8044.002729,0.000000
5484.307485,222.061783,-8427.050478,0.000000
5484.307810,444.123565,-8273.831378,74.020594
5484.308134,740.205942,-8350.440928,-148.041188
5484.308458,814.226536,-8427.050478,-370.102971
5484.308782,1258.350101,-8197.221829,-148.041188
5484.309107,1998.556043,-8273.831378,-148.041188
5484.309431,1776.494261,-8427.050478,-962.267725
5484.309755,2220.617826,-8886.707777,-666.185348
5484.310079,1850.514855,-8427.050478,-962.267725
5484.310404,2146.597232,-9039.926876,-1184.329507
5484.310728,1850.514855,-8963.317327,-740.205942
5484.311052,2072.576638,-9193.145976,-740.205942
5484.311376,1702.473667,-9346.365076,-1332.370696
5484.311701,1776.494261,-9193.145976,-814.226536
5484.312025,1850.514855,-9269.755526,-1110.308913
5484.312349,1628.453072,-9729.412825,-1258.350101
5484.312673,1628.453072,-9269.755526,-1480.411884
5484.312998,1628.453072,-9422.974625,-1332.370696
5484.313322,814.226536,-9269.755526,-1480.411884
5484.313646,592.164754,-9806.022374,-1184.329507
5484.313970,518.144159,-9193.145976,-1258.350101
5484.314295,296.082377,-8963.317327,-1110.308913
5484.314619,-444.123565,-9116.536426,-1332.370696
5484.314943,74.020594,-9193.145976,-888.247130
5484.315267,-444.123565,-8963.317327,-1110.308913
5484.315591,-666.185348,-9499.584175,-1184.329507
5484.315916,-814.226536,-8810.098227,-1184.329507
5484.316240,-518.144159,-8886.707777,-592.164754
5484.316564,-1406.391290,-8886.707777,-592.164754
5484.316888,-1554.432478,-8733.488677,-592.164754
5484.317213,-1332.370696,-8810.098227,-592.164754
5484.317537,-1110.308913,-8273.831378,-370.102971
5484.317861,-814.226536,-8273.831378,-148.041188
5484.318185,-518.144159,-8044.002729,0.000000
5484.318510,296.082377,-8120.612279,0.000000
5484.318834,444.123565,-7967.393179,-148.041188
5484.319158,1258.350101,-8427.050478,-222.061783
5484.319482,1184.329507,-8350.440928,74.020594
5484.319807,740.205942,-8044.002729,-370.102971
5484.320131,592.164754,-8810.098227,296.082377
5484.320455,296.082377,-7507.735880,370.102971
5484.320779,0.000000,-8733.488677,370.102971
5484.321103,-296.082377,-8427.050478,0.000000
5484.321428,0.000000,-8580.269578,518.144159
5484.321752,370.102971,-8044.002729,-370.102971
5484.322076,592.164754,-8580.269578,1036.288319
5484.322400,592.164754,-8120.612279,0.000000
5484.322724,1258.350101,-8733.488677,666.185348
5484.323049,1184.329507,-8120.612279,74.020594
5484.323373,1628.453072,-8580.269578,740.205942
5484.323697,222.061783,-8427.050478,222.061783
5484.324021,-222.061783,-8656.879127,814.226536
5484.324345,-370.102971,-8503.660028,444.123565
5484.324670,-740.205942,-8656.879127,1184.329507
5484.324994,-518.144159,-8580.269578,296.082377
5484.325318,-148.041188,-7737.564530,814.226536
5484.325642,0.000000,-8044.002729,296.082377
5484.325967,148.041188,-8273.831378,74.020594
5484.326291,74.020594,-8120.612279,148.041188
5484.326615,296.082377,-8350.440928,296.082377
5484.326939,74.020594,-8273.831378,-148.041188
5484.327263,222.061783,-8656.879127,-148.041188
5484.327588,888.247130,-8656.879127,444.123565
5484.327912,-1110.308913,-8197.221829,0.000000
5484.328236,888.247130,-8580.269578,-444.123565
5484.328560,0.000000,-8120.612279,-148.041188
5484.328884,1554.432478,-8963.317327,222.061783
5484.329209,1776.494261,-7737.564530,-814.226536
5484.329533,1554.432478,-8810.098227,-666.185348
5484.329857,1998.556043,-8580.269578,-888.247130
5484.330181,2368.659014,-8427.050478,-1332.370696
5484.330505,1998.556043,-8963.317327,-518.144159
5484.330830,1998.556043,-8656.879127,-1110.308913
5484.331154,1850.514855,-9499.584175,-888.247130
5484.331478,1184.329507,-9039.926876,-962.267725
5484.331802,1924.535449,-9422.974625,-1258.350101
5484.332126,2072.576638,-9499.584175,-962.267725
5484.332451,1702.473667,-8503.660028,-1184.329507
5484.332775,1850.514855,-9422.974625,-1184.329507
5484.333099,1332.370696,-9116.536426,-1628.453072
5484.333423,1406.391290,-9116.536426,-888.247130
5484.333748,1036.288319,-9193.145976,-1480.411884
5484.334072,296.082377,-9346.365076,-1184.329507
5484.334396,222.061783,-9422.974625,-1110.308913
5484.334720,-296.082377,-9269.755526,-1036.288319
5484.335044,-518.144159,-8963.317327,-1332.370696
5484.335369,-1110.308913,-9269.755526,-888.247130
5484.335693,-666.185348,-9039.926876,-1258.350101
5484.336017,-666.185348,-8963.317327,-962.267725
5484.336341,-888.247130,-9269.755526,-888.247130
5484.336665,-888.247130,-8427.050478,-888.247130
5484.336990,-666.185348,-8656.879127,-740.205942
5484.337314,-444.123565,-9193.145976,-666.185348
5484.337638,-592.164754,-8427.050478,-444.123565
5484.337962,-592.164754,-8503.660028,-444.123565
5484.338286,-592.164754,-8044.002729,-222.061783
5484.338611,0.000000,-8350.440928,0.000000
5484.338935,222.061783,-8197.221829,-444.123565
5484.339259,296.082377,-8197.221829,0.000000
5484.339583,74.020594,-8044.002729,0.000000
5484.339907,148.041188,-8350.440928,0.000000
5484.340232,1036.288319,-7814.174080,222.061783
5484.340556,444.123565,-8044.002729,-222.061783
5484.340880,666.185348,-8580.269578,74.020594
5484.341204,296.082377,-7967.393179,0.000000
5484.341529,888.247130,-8886.707777,74.020594
5484.341853,370.102971,-8044.002729,296.082377
5484.342177,370.102971,-8810.098227,222.061783
5484.342501,444.123565,-8273.831378,74.020594
5484.342825,814.226536,-8120.612279,518.144159
5484.343150,666.185348,-8044.002729,0.000000
5484.343474,296.082377,-8427.050478,444.123565
5484.343798,444.123565,-8427.050478,666.185348
5484.344122,222.061783,-8350.440928,296.082377
5484.344446,148.041188,-8427.050478,740.205942
5484.344771,-148.041188,-8273.831378,740.205942
5484.345095,-222.061783,-8503.660028,518.144159
5484.345419,-370.102971,-8120.612279,518.144159
5484.345743,0.000000,-8427.050478,370.102971
5484.346067,0.000000,-7814.174080,592.164754
5484.346392,-370.102971,-8197.221829,0.000000
5484.346716,-296.082377,-8197.221829,370.102971
5484.347040,0.000000,-8120.612279,0.000000
5484.347364,370.102971,-8197.221829,-444.123565
5484.347688,222.061783,-8350.440928,0.000000
5484.348013,518.144159,-8044.002729,0.000000
5484.348337,1480.411884,-8350.440928,-296.082377
5484.348661,1332.370696,-7584.345430,-370.102971
5484.348985,1702.473667,-8197.221829,-222.061783
5484.349310,1480.411884,-8197.221829,-444.123565
5484.349634,1480.411884,-8503.660028,-666.185348
5484.349958,1702.473667,-8273.831378,-1036.288319
5484.350282,1850.514855,-8886.707777,-888.247130
5484.350606,1258.350101,-8503.660028,-1258.350101
5484.350931,1776.494261,-9039.926876,-592.164754
5484.351255,1776.494261,-9039.926876,-888.247130
5484.351579,1924.535449,-9729.412825,-1036.288319
5484.351903,2072.576638,-9116.536426,-1332.370696
5484.352227,2368.659014,-9422.974625,-1110.308913
5484.352552,1924.535449,-9039.926876,-1406.391290
5484.352876,1850.514855,-9499.584175,-1036.288319
5484.353200,1332.370696,-8886.707777,-814.226536
5484.353524,888.247130,-9499.584175,-1184.329507
5484.353848,74.020594,-9193.145976,-1258.350101
5484.354173,370.102971,-9269.755526,-740.205942
5484.354497,0.000000,-9193.145976,-1332.370696
5484.354821,-222.061783,-9422.974625,-1184.329507
5484.355145,0.000000,-9422.974625,-740.205942
5484.355469,-370.102971,-8656.879127,-1406.391290
5484.355794,-444.123565,-9116.536426,-1332.370696
5484.356118,-888.247130,-8656.879127,-962.267725
5484.356442,-740.205942,-9422.974625,-370.102971
5484.356766,-1332.370696,-8044.002729,-962.267725
5484.357091,-1184.329507,-9346.365076,-666.185348
5484.357415,-1184.329507,-8427.050478,-1184.329507
5484.357739,-740.205942,-8656.879127,-592.164754
5484.358063,-518.144159,-8427.050478,-666.185348
5484.358387,-296.082377,-8580.269578,0.000000
5484.358712,74.020594,-8427.050478,-888.247130
5484.359036,-222.061783,-8273.831378,-74.020594
5484.359360,296.082377,-8197.221829,-370.102971
5484.359684,222.061783,-8427.050478,-296.082377
5484.360008,518.144159,-9422.974625,0.000000
5484.360333,74.020594,-8197.221829,0.000000
5484.360657,222.061783,-8963.317327,0.000000
5484.360981,74.020594,-8197.221829,0.000000
5484.361305,444.123565,-8733.488677,0.000000
5484.361629,592.164754,-8120.612279,-148.041188
5484.361954,1036.288319,-8580.269578,666.185348
5484.362278,1036.288319,-8427.050478,222.061783
5484.362602,1184.329507,-8656.879127,592.164754
5484.362926,740.205942,-8963.317327,444.123565
5484.363250,962.267725,-8503.660028,518.144159
5484.363575,666.185348,-8350.440928,740.205942
5484.363899,296.082377,-8427.050478,666.185348
5484.364223,296.082377,-8963.317327,814.226536
5484.364547,-592.164754,-8044.002729,296.082377
5484.364872,-296.082377,-8580.269578,1110.308913
5484.365196,-444.123565,-7584.345430,296.082377
5484.365520,0.000000,-8580.269578,592.164754
5484.365844,-222.061783,-7890.783629,0.000000
5484.366168,0.000000,-8580.269578,814.226536
5484.366493,-296.082377,-8044.002729,-296.082377
5484.366817,444.123565,-8273.831378,296.082377
5484.367141,-148.041188,-7737.564530,74.020594
5484.367465,0.000000,-8656.879127,0.000000
5484.367789,74.020594,-7890.783629,0.000000
5484.368114,666.185348,-8197.221829,0.000000
5484.368438,1184.329507,-8197.221829,-370.102971
5484.368762,1184.329507,-8044.002729,0.000000
5484.369086,2072.576638,-8120.612279,-592.164754
5484.369410,1850.514855,-8427.050478,-740.205942
5484.369735,1776.494261,-8733.488677,-814.226536
5484.370059,2294.638420,-8886.707777,-888.247130
5484.370383,2072.576638,-8733.488677,-888.247130
5484.370707,1554.432478,-8733.488677,-888.247130
5484.371031,1702.473667,-9422.974625,-1110.308913
5484.371356,1406.391290,-8810.098227,-1554.432478
5484.371680,1628.453072,-9422.974625,-1184.329507
5484.372004,1480.411884,-9039.926876,-1332.370696
5484.372328,1998.556043,-9499.584175,-888.247130
5484.372653,1628.453072,-9039.926876,-1554.432478
5484.372977,1554.432478,-9652.803275,-1110.308913
5484.373301,1332.370696,-9039.926876,-1628.453072
5484.373625,1110.308913,-9576.193725,-1110.308913
5484.373949,518.144159,-9269.755526,-1406.391290
5484.374274,370.102971,-9652.803275,-666.185348
5484.374598,0.000000,-9729.412825,-1406.391290
5484.374922,-296.082377,-9193.145976,-962.267725
5484.375246,0.000000,-9346.365076,-1406.391290
5484.375570,-1110.308913,-9346.365076,-1036.288319
5484.375895,-888.247130,-9499.584175,-1184.329507
5484.376219,-1554.432478,-8580.269578,-666.185348
5484.376543,-1184.329507,-9193.145976,-888.247130
5484.376867,-1628.453072,-8350.440928,-1406.391290
5484.377191,-1406.391290,-8733.488677,-444.123565
5484.377516,-1332.370696,-8273.831378,-444.123565
5484.377840,-962.267725,-8427.050478,-592.164754
5484.378164,-518.144159,-8350.440928,-370.102971
5484.378488,592.164754,-8427.050478,-148.041188
5484.378812,444.123565,-8427.050478,-518.144159
5484.379137,296.082377,-7967.393179,-148.041188
5484.379461,740.205942,-8197.221829,0.000000
5484.379785,592.164754,-8427.050478,-370.102971
5484.380109,444.123565,-8273.831378,74.020594
5484.380434,296.082377,-8427.050478,0.000000
5484.380758,666.185348,-8197.221829,222.061783
5484.381082,666.185348,-8273.831378,222.061783
5484.381406,740.205942,-8427.050478,148.041188
5484.381730,814.226536,-8197.221829,148.041188
5484.382055,592.164754,-8427.050478,444.123565
5484.382379,1406.391290,-8350.440928,296.082377
5484.382703,1332.370696,-8427.050478,740.205942
5484.383027,1184.329507,-8350.440928,444.123565
5484.383351,888.247130,-7967.393179,296.082377
5484.383676,444.123565,-8273.831378,666.185348
5484.384000,222.061783,-7967.393179,296.082377
5484.384324,444.123565,-8350.440928,962.267725
5484.384648,-666.185348,-8273.831378,444.123565
5484.384972,-814.226536,-8656.879127,592.164754
5484.385297,-740.205942,-7431.126331,592.164754
5484.385621,-518.144159,-8044.002729,370.102971
5484.385945,-666.185348,-8197.221829,296.082377
5484.386269,-444.123565,-8503.660028,814.226536
5484.386593,-296.082377,-7660.954980,-296.082377
5484.386918,518.144159,-8427.050478,296.082377
5484.387242,74.020594,-7967.393179,0.000000
5484.387566,592.164754,-8733.488677,148.041188
5484.387890,518.144159,-7584.345430,-222.061783
5484.388215,888.247130,-8733.488677,0.000000
5484.388539,1406.391290,-8197.221829,-296.082377
5484.388863,1554.432478,-8350.440928,-148.041188
5484.389187,2146.597232,-8350.440928,-444.123565
5484.389511,1998.556043,-8580.269578,-962.267725
5484.389836,2220.617826,-8886.707777,-740.205942
5484.390160,1850.514855,-8733.488677,-1036.288319
5484.390484,1702.473667,-8886.707777,-1036.288319
5484.390808,1702.473667,-8886.707777,-1110.308913
5484.391132,2294.638420,-9269.755526,-888.247130
5484.391457,1702.473667,-9116.536426,-1110.308913
5484.391781,1628.453072,-9269.755526,-1110.308913
5484.392105,1924.535449,-8963.317327,-1258.350101
5484.392429,2220.617826,-9269.755526,-1258.350101
5484.392753,1554.432478,-8733.488677,-1258.350101
5484.393078,1480.411884,-9729.412825,-962.267725
5484.393402,740.205942,-9346.365076,-1480.411884
5484.393726,148.041188,-9729.412825,-1184.329507
5484.394050,148.041188,-8656.879127,-1480.411884
5484.394374,0.000000,-9576.193725,-1332.370696
5484.394699,-222.061783,-9039.926876,-1406.391290
5484.395023,-444.123565,-9422.974625,-814.226536
5484.395347,-666.185348,-7814.174080,-1110.308913
5484.395671,-296.082377,-9269.755526,-1110.308913
5484.395996,-1184.329507,-8503.660028,-1258.350101
5484.396320,-1110.308913,-9269.755526,-740.205942
5484.396644,-1332.370696,-8580.269578,-740.205942
5484.396968,-1332.370696,-8963.317327,-666.185348
5484.397292,-1036.288319,-8273.831378,-814.226536
5484.397617,-814.226536,-8656.879127,-592.164754
5484.397941,-444.123565,-8350.440928,-370.102971
5484.398265,0.000000,-7814.174080,74.020594
5484.398589,0.000000,-7890.783629,-148.041188
5484.398913,296.082377,-8197.221829,0.000000
5484.399238,666.185348,-8120.612279,-74.020594
5484.399562,1332.370696,-8580.269578,-296.082377
5484.399886,0.000000,-7890.783629,0.000000
5484.400210,222.061783,-8350.440928,444.123565
5484.400534,222.061783,-8120.612279,0.000000
5484.400859,814.226536,-8810.098227,296.082377
5484.401183,0.000000,-8120.612279,0.000000
5484.401507,592.164754,-8580.269578,518.144159
5484.401831,296.082377,-7737.564530,370.102971
5484.402155,666.185348,-8810.098227,592.164754
5484.402480,1480.411884,-8197.221829,296.082377
5484.402804,888.247130,-8273.831378,296.082377
5484.403128,1184.329507,-8810.098227,444.123565
5484.403452,666.185348,-8350.440928,296.082377
5484.403776,740.205942,-8427.050478,888.247130
5484.404101,-148.041188,-7890.783629,444.123565
5484.404425,0.000000,-8580.269578,814.226536
5484.404749,-740.205942,-8273.831378,444.123565
5484.405073,-518.144159,-8427.050478,814.226536
5484.405398,-592.164754,-7660.954980,0.000000
5484.405722,-296.082377,-8427.050478,518.144159
5484.406046,-592.164754,-7967.393179,0.000000
5484.406370,-370.102971,-8350.440928,518.144159
5484.406694,74.020594,-8350.440928,-592.164754
5484.407019,0.000000,-8427.050478,296.082377
5484.407343,148.041188,-8350.440928,-296.082377
5484.407667,296.082377,-8197.221829,0.000000
5484.407991,1110.308913,-8197.221829,-592.164754
5484.408315,1480.411884,-8503.660028,74.020594
5484.408640,1554.432478,-7890.783629,-518.144159
5484.408964,1776.494261,-8273.831378,-222.061783
5484.409288,1776.494261,-8197.221829,-666.185348
5484.409612,2072.576638,-8656.879127,-666.185348
5484.409936,1924.535449,-8656.879127,-1184.329507
5484.410261,1406.391290,-9039.926876,-592.164754
5484.410585,1776.494261,-8656.879127,-1110.308913
5484.410909,1184.329507,-9882.631924,-962.267725
5484.411233,1998.556043,-8963.317327,-1184.329507
5484.411557,1628.453072,-8963.317327,-1258.350101
5484.411882,2368.659014,-9116.536426,-1184.329507
5484.412206,1110.308913,-9269.755526,-888.247130
5484.412530,1924.535449,-9346.365076,-1184.329507
5484.412854,1406.391290,-9346.365076,-1332.370696
5484.413179,1480.411884,-9039.926876,-1406.391290
5484.413503,888.247130,-9652.803275,-1406.391290
5484.413827,518.144159,-9652.803275,-1406.391290
5484.414151,444.123565,-9576.193725,-1184.329507
5484.414475,-148.041188,-8886.707777,-1406.391290
5484.414800,0.000000,-9576.193725,-1036.288319
5484.415124,-222.061783,-9576.193725,-1332.370696
5484.415448,-370.102971,-9193.145976,-888.247130
5484.415772,-888.247130,-8810.098227,-888.247130
5484.416096,-1110.308913,-9039.926876,-962.267725
5484.416421,-1184.329507,-8580.269578,-814.226536
5484.416745,-1110.308913,-8427.050478,-740.205942
5484.417069,-1332.370696,-8733.488677,-740.205942
5484.417393,-1110.308913,-8810.098227,-296.082377
5484.417717,-1184.329507,-8427.050478,-814.226536
5484.418042,-148.041188,-9346.365076,148.041188
5484.418366,-148.041188,-7967.393179,-370.102971
5484.418690,444.123565,-8810.098227,0.000000
5484.419014,962.267725,-8273.831378,-296.082377
5484.419338,518.144159,-8350.440928,-222.061783
5484.419663,740.205942,-8350.440928,0.000000
5484.419987,370.102971,-7967.393179,-370.102971
5484.420311,444.123565,-8886.707777,0.000000
5484.420635,370.102971,-8120.612279,-592.164754
5484.420960,370.102971,-9193.145976,0.000000
5484.421284,74.020594,-8273.831378,0.000000
5484.421608,222.061783,-8580.269578,370.102971
5484.421933,518.144159,-8273.831378,0.000000
5484.422257,1480.411884,-8963.317327,148.041188
5484.422581,1332.370696,-8197.221829,296.082377
5484.422906,1258.350101,-8963.317327,444.123565
5484.423230,1110.308913,-8120.612279,0.000000
5484.423554,1184.329507,-8810.098227,518.144159
5484.423879,444.123565,-8427.050478,296.082377
5484.424203,74.020594,-8810.098227,518.144159
5484.424527,-592.164754,-8427.050478,518.144159
5484.424852,-962.267725,-8503.660028,592.164754
5484.425176,-1184.329507,-8350.440928,814.226536
5484.425500,-962.267725,-8427.050478,814.226536
5484.425825,-962.267725,-7967.393179,296.082377
5484.426149,-592.164754,-8197.221829,444.123565
5484.426473,-444.123565,-8810.098227,-222.061783
5484.426797,296.082377,-8120.612279,0.000000
5484.427122,370.102971,-7890.783629,0.000000
5484.427446,740.205942,-8350.440928,222.061783
5484.427770,444.123565,-8273.831378,-148.041188
5484.428095,888.247130,-8427.050478,148.041188
5484.428419,1036.288319,-8427.050478,-518.144159
5484.428743,888.247130,-8580.269578,-370.102971
5484.429068,1480.411884,-8580.269578,-444.123565
5484.429392,1184.329507,-8273.831378,0.000000
5484.429716,1406.391290,-8427.050478,-740.205942
5484.430041,1554.432478,-8120.612279,-814.226536
5484.430365,1776.494261,-8273.831378,-1110.308913
5484.430689,1924.535449,-9039.926876,-740.205942
5484.431014,1850.514855,-8810.098227,-962.267725
5484.431338,2072.576638,-9039.926876,-1332.370696
5484.431662,1924.535449,-9346.365076,-1036.288319
5484.431987,1924.535449,-8886.707777,-1480.411884
5484.432311,1924.535449,-9806.022374,-1036.288319
5484.432635,1184.329507,-9039.926876,-1480.411884
5484.432960,1110.308913,-9652.803275,-740.205942
5484.433284,518.144159,-9116.536426,-1332.370696
5484.433608,444.123565,-9806.022374,-1184.329507
5484.433932,148.041188,-8810.098227,-1332.370696
5484.434257,148.041188,-9422.974625,-962.267725
5484.434581,0.000000,-8963.317327,-1628.453072
5484.434905,74.020594,-9882.631924,-962.267725
5484.435230,-222.061783,-9039.926876,-1184.329507
5484.435554,-296.082377,-9269.755526,-888.247130
5484.435878,-518.144159,-8963.317327,-1480.411884
5484.436203,-518.144159,-9193.145976,-592.164754
5484.436527,-1110.308913,-8886.707777,-962.267725
5484.436851,-1258.350101,-9269.755526,-888.247130
5484.437176,-1258.350101,-8733.488677,-666.185348
5484.437500,-1258.350101,-8273.831378,-518.144159
5484.437824,-592.164754,-8886.707777,0.000000
5484.438149,-148.041188,-8733.488677,0.000000
5484.438473,370.102971,-8044.002729,0.000000
5484.438797,814.226536,-7967.393179,-296.082377
5484.439122,1110.308913,-8197.221829,-148.041188
5484.439446,1110.308913,-8350.440928,0.000000
5484.439770,1184.329507,-8503.660028,0.000000
5484.440095,888.247130,-8427.050478,0.000000
5484.440419,222.061783,-8503.660028,0.000000
5484.440743,296.082377,-9116.536426,444.123565
5484.441067,0.000000,-8503.660028,0.000000
5484.441392,74.020594,-8810.098227,296.082377
5484.441716,74.020594,-8044.002729,74.020594
5484.442040,1110.308913,-8503.660028,1110.308913
5484.442365,1110.308913,-7967.393179,74.020594
5484.442689,1554.432478,-8273.831378,370.102971
5484.443013,962.267725,-8197.221829,592.164754
5484.443338,740.205942,-8273.831378,888.247130
5484.443662,814.226536,-8580.269578,296.082377
5484.443986,518.144159,-8580.269578,592.164754
5484.444311,222.061783,-8044.002729,296.082377
5484.444635,-592.164754,-8580.269578,296.082377
5484.444959,-370.102971,-8733.488677,222.061783
5484.445284,-962.267725,-8120.612279,370.102971
5484.445608,-666.185348,-7967.393179,296.082377
5484.445932,-814.226536,-7584.345430,222.061783
5484.446257,0.000000,-8350.440928,592.164754
5484.446581,0.000000,-7814.174080,-148.041188
5484.446905,518.144159,-8580.269578,148.041188
5484.447230,370.102971,-8044.002729,-222.061783
5484.447554,740.205942,-8656.879127,0.000000
5484.447878,888.247130,-7814.174080,-592.164754
5484.448203,1110.308913,-8733.488677,0.000000
5484.448527,740.205942,-8120.612279,-666.185348
5484.448851,1258.350101,-8656.879127,-74.020594
5484.449175,1628.453072,-8273.831378,-518.144159
5484.449500,1776.494261,-8810.098227,-1036.288319
5484.449824,1554.432478,-8656.879127,-740.205942
5484.450148,1924.535449,-8503.660028,-592.164754
5484.450473,1628.453072,-8886.707777,-888.247130
5484.450797,1776.494261,-9269.755526,-962.267725
5484.451121,1924.535449,-9346.365076,-1036.288319
5484.451446,1924.535449,-9269.755526,-1036.288319
5484.451770,1406.391290,-9269.755526,-1184.329507
5484.452094,1332.370696,-9039.926876,-666.185348
5484.452419,1110.308913,-9193.145976,-1406.391290
5484.452743,1110.308913,-9193.145976,-1258.350101
5484.453067,666.185348,-9116.536426,-1406.391290
5484.453392,592.164754,-9422.974625,-518.144159
5484.453716,370.102971,-8810.098227,-1406.391290
5484.454040,370.102971,-9346.365076,-740.205942
5484.454365,0.000000,-9039.926876,-1258.350101
5484.454689,296.082377,-9039.926876,-666.185348
5484.455013,148.041188,-9116.536426,-1184.329507
5484.455338,0.000000,-9116.536426,-1110.308913
5484.455662,0.000000,-8886.707777,-962.267725
5484.455986,-888.247130,-9269.755526,-666.185348
5484.456310,-1406.391290,-8733.488677,-740.205942
5484.456635,-1480.411884,-8810.098227,-1036.288319
5484.456959,-1406.391290,-8503.660028,-592.164754
5484.457283,-1480.411884,-8350.440928,-370.102971
5484.457608,-1110.308913,-8656.879127,0.000000
5484.457932,-296.082377,-8044.002729,-518.144159
5484.458256,-296.082377,-7967.393179,0.000000
5484.458581,74.020594,-8273.831378,0.000000
5484.458905,518.144159,-8350.440928,0.000000
5484.459229,740.205942,-8273.831378,148.041188
5484.459554,666.185348,-8503.660028,74.020594
5484.459878,740.205942,-8273.831378,-296.082377
5484.460202,0.000000,-8580.269578,148.041188
5484.460527,74.020594,-8044.002729,0.000000
5484.460851,0.000000,-8503.660028,222.061783
5484.461175,148.041188,-8197.221829,148.041188
5484.461500,592.164754,-8580.269578,148.041188
5484.461824,592.164754,-7431.126331,592.164754
5484.462148,814.226536,-8044.002729,222.061783
5484.462473,1184.329507,-8427.050478,444.123565
5484.462797,1924.535449,-8273.831378,296.082377
5484.463121,1184.329507,-8350.440928,666.185348
5484.463445,1184.329507,-8350.440928,222.061783
5484.463770,888.247130,-8580.269578,370.102971
5484.464094,0.000000,-8350.440928,518.144159
5484.464418,-814.226536,-8350.440928,666.185348
5484.464743,-740.205942,-8197.221829,370.102971
5484.465067,-666.185348,-8350.440928,592.164754
5484.465391,222.061783,-7890.783629,370.102971
5484.465716,-296.082377,-7507.735880,0.000000
5484.466040,-222.061783,-8273.831378,666.185348
5484.466364,0.000000,-8197.221829,0.000000
5484.466689,814.226536,-8427.050478,0.000000
5484.467013,222.061783,-7890.783629,-148.041188
5484.467337,296.082377,-8503.660028,518.144159
5484.467662,370.102971,-7737.564530,-370.102971
5484.467986,370.102971,-9269.755526,-518.144159
5484.468310,444.123565,-8120.612279,-666.185348
5484.468635,814.226536,-7737.564530,0.000000
5484.468959,740.205942,-8350.440928,0.000000
5484.469283,1554.432478,-8503.660028,-592.164754
5484.469608,1184.329507,-8273.831378,-888.247130
5484.469932,1628.453072,-8810.098227,-740.205942
5484.470256,1850.514855,-7507.735880,-1332.370696
5484.470580,888.247130,-10035.851024,-962.267725
5484.470905,3034.844362,-9193.145976,-1406.391290
5484.471229,3108.864956,-8120.612279,0.000000
5484.471553,2294.638420,-7124.688131,-2146.597232
5484.471878,2590.720797,-10495.508323,-1924.535449
5484.472202,-1258.350101,-8273.831378,-740.205942
5484.472526,3256.906145,-10342.289223,1554.432478
5484.472851,4959.379811,-8427.050478,-1110.308913
5484.473175,2590.720797,-6588.421283,-2072.576638
5484.473499,3478.967927,-9882.631924,-3034.844362
5484.473824,-962.267725,-8580.269578,-3627.009116
5484.474148,-1036.288319,-13636.499864,1406.391290
5484.474472,1776.494261,-5132.839837,-962.267725
5484.474797,740.205942,-9193.145976,1110.308913
5484.475121,-1110.308913,-8044.002729,-1554.432478
5484.475445,-740.205942,-9116.536426,-1776.494261
5484.475770,-1110.308913,-9882.631924,-370.102971
5484.476094,-518.144159,-11184.994271,1258.350101
5484.476418,-370.102971,-9576.193725,1628.453072
5484.476743,-3256.906145,-10112.460574,1924.535449
5484.477067,-3256.906145,-10418.898773,-1702.473667
5484.477391,-2738.761985,-10955.165621,-592.164754
5484.477715,-1554.432478,-6741.640382,-1258.350101
5484.478040,-222.061783,-8580.269578,370.102971
5484.478364,370.102971,-7737.564530,-1702.473667
5484.478688,370.102971,-7277.907231,-222.061783
5484.479013,592.164754,-6128.763984,-296.082377
5484.479337,296.082377,-7354.516781,74.020594
5484.479661,1406.391290,-6281.983084,-148.041188
5484.479986,1850.514855,-6511.811733,74.020594
5484.480310,1184.329507,-8733.488677,-740.205942
5484.480634,518.144159,-8733.488677,-222.061783
5484.480959,740.205942,-7660.954980,296.082377
5484.481283,-444.123565,-8503.660028,1258.350101
5484.481607,0.000000,-7890.783629,740.205942
5484.481932,740.205942,-7584.345430,1184.329507
5484.482256,1998.556043,-7124.688131,-370.102971
5484.482580,1628.453072,-8273.831378,74.020594
5484.482905,592.164754,-8503.660028,-740.205942
5484.483229,-444.123565,-8733.488677,1258.350101
5484.483553,-962.267725,-9116.536426,740.205942
5484.483878,-740.205942,-9806.022374,666.185348
5484.484202,0.000000,-8580.269578,444.123565
5484.484526,-444.123565,-9499.584175,74.020594
5484.484850,-1332.370696,-9346.365076,518.144159
5484.485175,-1480.411884,-8963.317327,0.000000
5484.485499,-370.102971,-8197.221829,148.041188
5484.485823,222.061783,-8044.002729,962.267725
5484.486148,444.123565,-6971.469032,592.164754
5484.486472,740.205942,-7890.783629,222.061783
5484.486796,740.205942,-7277.907231,-444.123565
5484.487121,888.247130,-8197.221829,-962.267725
5484.487445,1332.370696,-8044.002729,-444.123565
5484.487769,1258.350101,-8656.879127,0.000000
5484.488094,1110.308913,-8044.002729,74.020594
5484.488418,1258.350101,-8886.707777,296.082377
5484.488742,370.102971,-8580.269578,-814.226536
5484.489067,1406.391290,-9193.145976,-1184.329507
5484.489391,1924.535449,-8963.317327,-1776.494261
5484.489715,2368.659014,-9422.974625,-1480.411884
5484.490040,1776.494261,-8656.879127,-962.267725
5484.490364,1628.453072,-8810.098227,-666.185348
5484.490688,1702.473667,-8580.269578,-1258.350101
5484.491013,2294.638420,-9193.145976,-1110.308913
5484.491337,2072.576638,-9039.926876,-1628.453072
5484.491661,1776.494261,-8656.879127,-666.185348
5484.491985,1480.411884,-9039.926876,-666.185348
5484.492310,814.226536,-9652.803275,-444.123565
5484.492634,962.267725,-9039.926876,-1554.432478
5484.492958,1480.411884,-9652.803275,-1850.514855
5484.493283,962.267725,-8810.098227,-1702.473667
5484.493607,740.205942,-9193.145976,-1110.308913
5484.493931,0.000000,-8733.488677,-1480.411884
5484.494256,0.000000,-9039.926876,-666.185348
5484.494580,-296.082377,-8733.488677,-1628.453072
5484.494904,0.000000,-9193.145976,-888.247130
5484.495229,148.041188,-8580.269578,-888.247130
5484.495553,-296.082377,-8656.879127,-1036.288319
5484.495877,-444.123565,-8963.317327,-962.267725
5484.496202,-1554.432478,-8503.660028,-740.205942
5484.496526,-1480.411884,-9729.412825,-518.144159
5484.496850,-1480.411884,-8427.050478,-370.102971
5484.497175,-962.267725,-9422.974625,222.061783
5484.497499,-888.247130,-8044.002729,-148.041188
5484.497823,-296.082377,-8197.221829,592.164754
5484.498148,0.000000,-7584.345430,0.000000
5484.498472,962.267725,-8427.050478,518.144159
5484.498796,370.102971,-7507.735880,-74.020594
5484.499121,592.164754,-8580.269578,518.144159
5484.499445,222.061783,-7584.345430,0.000000
5484.499769,74.020594,-8427.050478,296.082377
5484.500093,0.000000,-8350.440928,370.102971
5484.500418,-666.185348,-8350.440928,740.205942
5484.500742,-592.164754,-8886.707777,296.082377
5484.501066,-370.102971,-8427.050478,148.041188
5484.501391,0.000000,-8733.488677,148.041188
5484.501715,222.061783,-8273.831378,296.082377
5484.502039,1258.350101,-8273.831378,370.102971
5484.502364,1406.391290,-7890.783629,444.123565
5484.502688,1554.432478,-8427.050478,0.000000
5484.503012,962.267725,-8120.612279,148.041188
5484.503337,1184.329507,-8656.879127,148.041188
5484.503661,518.144159,-8580.269578,296.082377
5484.503985,148.041188,-8427.050478,444.123565
5484.504310,-148.041188,-8427.050478,1184.329507
5484.504634,-666.185348,-8503.660028,370.102971
5484.504958,-962.267725,-8580.269578,0.000000
5484.505283,-740.205942,-8120.612279,0.000000
5484.505607,-444.123565,-8427.050478,-148.041188
5484.505931,-296.082377,-7660.954980,0.000000
5484.506256,222.061783,-8350.440928,-296.082377
5484.506580,222.061783,-7354.516781,-148.041188
5484.506904,740.205942,-8350.440928,-296.082377
5484.507228,370.102971,-7814.174080,-666.185348
5484.507553,666.185348,-8886.707777,0.000000
5484.507877,518.144159,-8120.612279,-296.082377
5484.508201,740.205942,-8810.098227,-74.020594
5484.508526,444.123565,-8350.440928,-740.205942
5484.508850,1406.391290,-8810.098227,-518.144159
5484.509174,1702.473667,-8427.050478,-814.226536
5484.509499,1850.514855,-8656.879127,-740.205942
5484.509823,2072.576638,-8503.660028,-666.185348
5484.510147,2516.700203,-8350.440928,-814.226536
5484.510472,2368.659014,-9116.536426,-1258.350101
5484.510796,1998.556043,-8886.707777,-962.267725
5484.511120,1850.514855,-9422.974625,-1036.288319
5484.511445,2442.679609,-9346.365076,-1554.432478
5484.511769,1998.556043,-9729.412825,-1332.370696
5484.512093,1924.535449,-9346.365076,-1332.370696
5484.512418,1554.432478,-9652.803275,-1258.350101
5484.512742,1406.391290,-8963.317327,-1480.411884
5484.513066,1406.391290,-9959.241474,-1110.308913
5484.513391,1184.329507,-8963.317327,-1332.370696
5484.513715,1036.288319,-9576.193725,-1110.308913
5484.514039,592.164754,-8810.098227,-1258.350101
5484.514363,740.205942,-9576.193725,-518.144159
5484.514688,74.020594,-8810.098227,-1480.411884
5484.515012,296.082377,-9193.145976,-888.247130
5484.515336,-296.082377,-8886.707777,-962.267725
5484.515661,-222.061783,-9652.803275,-1110.308913
5484.515985,-592.164754,-8810.098227,-814.226536
5484.516309,-1110.308913,-8810.098227,-148.041188
5484.516634,-1332.370696,-8810.098227,-740.205942
5484.516958,-1628.453072,-8886.707777,-370.102971
5484.517282,-1258.350101,-8886.707777,-296.082377
5484.517607,-1258.350101,-8273.831378,-592.164754
5484.517931,-740.205942,-8273.831378,74.020594
5484.518255,-740.205942,-7967.393179,-370.102971
5484.518580,370.102971,-8120.612279,444.123565
5484.518904,148.041188,-8120.612279,-148.041188
5484.519228,296.082377,-7890.783629,148.041188
5484.519553,666.185348,-7967.393179,0.000000
5484.519877,222.061783,-7507.735880,370.102971
5484.520201,222.061783,-8580.269578,370.102971
5484.520526,0.000000,-7967.393179,0.000000
5484.520850,296.082377,-9116.536426,74.020594
5484.521174,-222.061783,-8044.002729,518.144159
5484.521499,222.061783,-9039.926876,370.102971
5484.521823,0.000000,-7890.783629,74.020594
5484.522147,370.102971,-8810.098227,740.205942
5484.522472,518.144159,-7967.393179,0.000000
5484.522796,1776.494261,-8886.707777,222.061783
5484.523120,962.267725,-8044.002729,370.102971
5484.523445,370.102971,-8733.488677,518.144159
5484.523769,222.061783,-8580.269578,296.082377
5484.524093,740.205942,-9193.145976,370.102971
5484.524418,-222.061783,-8656.879127,370.102971
5484.524742,-518.144159,-8656.879127,518.144159
5484.525066,-666.185348,-8350.440928,444.123565
5484.525391,-518.144159,-8350.440928,592.164754
5484.525715,-222.061783,-8197.221829,296.082377
5484.526039,0.000000,-8197.221829,148.041188
5484.526364,0.000000,-7737.564530,148.041188
5484.526688,148.041188,-8197.221829,222.061783
5484.527012,222.061783,-8044.002729,-296.082377
5484.527337,444.123565,-8427.050478,-148.041188
5484.527661,296.082377,-7890.783629,-666.185348
5484.527985,740.205942,-8963.317327,-370.102971
5484.528310,444.123565,-7660.954980,-296.082377
5484.528634,1184.329507,-9116.536426,0.000000
5484.528958,1332.370696,-8044.002729,-1036.288319
5484.529283,1998.556043,-8810.098227,-962.267725
5484.529607,1924.535449,-8580.269578,-1258.350101
5484.529931,1850.514855,-8503.660028,-370.102971
5484.530256,1776.494261,-8273.831378,-1406.391290
5484.530580,1998.556043,-9116.536426,-888.247130
5484.530904,1776.494261,-8503.660028,-1258.350101
5484.531229,2072.576638,-9193.145976,-1480.411884
5484.531553,1998.556043,-9116.536426,-1184.329507
5484.531877,1628.453072,-9499.584175,-740.205942
5484.532202,1850.514855,-9652.803275,-1332.370696
5484.532526,2072.576638,-9269.755526,-1332.370696
5484.532850,1702.473667,-9576.193725,-1036.288319
5484.533175,1406.391290,-9193.145976,-1554.432478
5484.533499,962.267725,-9422.974625,-1406.391290
5484.533824,666.185348,-8886.707777,-1184.329507
5484.534148,666.185348,-9193.145976,-1110.308913
5484.534472,0.000000,-9116.536426,-1406.391290
5484.534797,296.082377,-9346.365076,-888.247130
5484.535121,370.102971,-8733.488677,-1036.288319
5484.535445,222.061783,-9269.755526,-1406.391290
5484.535770,-296.082377,-8886.707777,-962.267725
5484.536094,0.000000,-8580.269578,-740.205942
5484.536418,-592.164754,-9116.536426,-1036.288319
5484.536743,-740.205942,-8044.002729,-518.144159
5484.537067,-740.205942,-8580.269578,-370.102971
5484.537391,-1406.391290,-8503.660028,-296.082377
5484.537716,-962.267725,-8350.440928,-222.061783
5484.538040,-1184.329507,-8350.440928,-222.061783
5484.538364,-222.061783,-8503.660028,0.000000
5484.538689,-296.082377,-8044.002729,74.020594
5484.539013,370.102971,-8503.660028,74.020594
5484.539337,0.000000,-7967.393179,0.000000
5484.539662,444.123565,-9116.536426,-148.041188
5484.539986,444.123565,-8197.221829,148.041188
5484.540310,444.123565,-8197.221829,222.061783
5484.540635,148.041188,-8503.660028,74.020594
5484.540959,148.041188,-8427.050478,74.020594
5484.541283,0.000000,-8120.612279,444.123565
5484.541608,518.144159,-8580.269578,74.020594
5484.541932,222.061783,-8350.440928,370.102971
5484.542256,740.205942,-8273.831378,296.082377
5484.542581,888.247130,-8427.050478,444.123565
5484.542905,814.226536,-8273.831378,74.020594
5484.543229,888.247130,-8273.831378,444.123565
5484.543554,592.164754,-8427.050478,444.123565
5484.543878,222.061783,-8886.707777,0.000000
5484.544202,74.020594,-8350.440928,444.123565
5484.544527,-296.082377,-8197.221829,518.144159
5484.544851,-518.144159,-8350.440928,296.082377
5484.545175,-740.205942,-8120.612279,74.020594
5484.545500,-370.102971,-8197.221829,296.082377
5484.545824,-592.164754,-8120.612279,222.061783
5484.546148,-518.144159,-8120.612279,222.061783
5484.546473,-518.144159,-7890.783629,-148.041188
5484.546797,0.000000,-8810.098227,296.082377
5484.547122,222.061783,-8273.831378,-518.144159
5484.547446,74.020594,-8580.269578,-148.041188
5484.547770,0.000000,-8197.221829,-370.102971
5484.548095,370.102971,-9193.145976,0.000000
5484.548419,666.185348,-8886.707777,-666.185348
5484.548743,1332.370696,-8886.707777,-222.061783
5484.549068,1776.494261,-8273.831378,-148.041188
5484.549392,1850.514855,-8656.879127,-666.185348
5484.549716,2072.576638,-8580.269578,-592.164754
5484.550041,2072.576638,-8427.050478,-592.164754
5484.550365,2146.597232,-8810.098227,-1110.308913
5484.550689,1924.535449,-8503.660028,-962.267725
5484.551014,1850.514855,-8810.098227,-888.247130
5484.551338,1406.391290,-8656.879127,-1332.370696
5484.551662,2072.576638,-9499.584175,-962.267725
5484.551987,1702.473667,-9039.926876,-1554.432478
5484.552311,1998.556043,-9499.584175,-962.267725
5484.552635,2294.638420,-9193.145976,-1554.432478
5484.552960,2220.617826,-9729.412825,-1184.329507
5484.553284,814.226536,-8733.488677,-1554.432478
5484.553608,1258.350101,-9269.755526,-1184.329507
5484.553933,962.267725,-9116.536426,-1258.350101
5484.554257,1110.308913,-9193.145976,-1036.288319
5484.554581,444.123565,-8733.488677,-1110.308913
5484.554906,0.000000,-9269.755526,-1110.308913
5484.555230,0.000000,-9576.193725,-962.267725
5484.555554,0.000000,-9039.926876,-740.205942
5484.555879,-962.267725,-9039.926876,-814.226536
5484.556203,-962.267725,-9039.926876,-740.205942
5484.556527,-1184.329507,-9422.974625,-740.205942
5484.556852,-1406.391290,-8810.098227,-592.164754
5484.557176,-1110.308913,-9039.926876,-592.164754
5484.557500,-666.185348,-8273.831378,-444.123565
5484.557825,-888.247130,-8197.221829,-296.082377
5484.558149,-518.144159,-8580.269578,74.020594
5484.558473,-222.061783,-8197.221829,74.020594
5484.558798,-148.041188,-7967.393179,-370.102971
5484.559122,222.061783,-8273.831378,-222.061783
5484.559446,740.205942,-9193.145976,518.144159
5484.559771,0.000000,-8120.612279,0.000000
5484.560095,222.061783,-8580.269578,444.123565
5484.560420,0.000000,-7967.393179,-370.102971
5484.560744,518.144159,-9193.145976,444.123565
5484.561068,148.041188,-7660.954980,0.000000
5484.561393,222.061783,-8963.317327,666.185348
5484.561717,222.061783,-7660.954980,-148.041188
5484.562041,1332.370696,-8580.269578,518.144159
5484.562366,1406.391290,-8044.002729,0.000000
5484.562690,1184.329507,-8810.098227,666.185348
5484.563014,1258.350101,-8273.831378,222.061783
5484.563339,296.082377,-8503.660028,592.164754
5484.563663,-666.185348,-8044.002729,296.082377
5484.563987,-296.082377,-8580.269578,592.164754
5484.564312,-148.041188,-8503.660028,370.102971
5484.564636,-1110.308913,-8044.002729,148.041188
5484.564960,-888.247130,-8580.269578,518.144159
5484.565285,-296.082377,-8273.831378,0.000000
5484.565609,0.000000,-8120.612279,74.020594
5484.565933,-222.061783,-8120.612279,0.000000
5484.566258,-592.164754,-8120.612279,222.061783
5484.566582,-444.123565,-7737.564530,814.226536
5484.566906,74.020594,-8273.831378,-222.061783
5484.567231,296.082377,-8503.660028,0.000000
5484.567555,296.082377,-8120.612279,-370.102971
5484.567879,296.082377,-8810.098227,0.000000
5484.568204,296.082377,-8197.221829,-222.061783
5484.568528,962.267725,-8503.660028,-370.102971
5484.568852,1628.453072,-8350.440928,-666.185348
5484.569177,1406.391290,-8197.221829,-518.144159
5484.569501,1702.473667,-8810.098227,-444.123565
5484.569825,2220.617826,-8120.612279,-1036.288319
5484.570150,2442.679609,-9116.536426,-666.185348
5484.570474,2220.617826,-8350.440928,-1406.391290
5484.570798,2220.617826,-8963.317327,-666.185348
5484.571123,1850.514855,-9116.536426,-1184.329507
5484.571447,1998.556043,-9269.755526,-888.247130
5484.571771,1776.494261,-9193.145976,-1480.411884
5484.572096,1776.494261,-9422.974625,-666.185348
5484.572420,1776.494261,-9193.145976,-1110.308913
5484.572744,1332.370696,-9193.145976,-1406.391290
5484.573069,1998.556043,-9576.193725,-1184.329507
5484.573393,740.205942,-8733.488677,-1554.432478
5484.573718,1554.432478,-9576.193725,-1184.329507
5484.574042,74.020594,-8580.269578,-1628.453072
5484.574366,888.247130,-9346.365076,-888.247130
5484.574691,-148.041188,-8810.098227,-1480.411884
5484.575015,444.123565,-9652.803275,-740.205942
5484.575339,-666.185348,-8503.660028,-1258.350101
5484.575664,-222.061783,-9346.365076,-888.247130
5484.575988,-444.123565,-8810.098227,-1406.391290
5484.576312,-740.205942,-9039.926876,-740.205942
5484.576637,-1184.329507,-9116.536426,-666.185348
5484.576961,-1332.370696,-8580.269578,-444.123565
5484.577285,-1332.370696,-9039.926876,-444.123565
5484.577610,-1480.411884,-7967.393179,-518.144159
5484.577934,-592.164754,-9193.145976,0.000000
5484.578258,0.000000,-8044.002729,-222.061783
5484.578583,444.123565,-8503.660028,0.000000
5484.578907,0.000000,-7890.783629,-222.061783
5484.579231,1258.350101,-8503.660028,222.061783
5484.579556,148.041188,-8044.002729,-222.061783
5484.579880,592.164754,-8656.879127,222.061783
5484.580204,148.041188,-7890.783629,0.000000
5484.580529,222.061783,-8580.269578,74.020594
5484.580853,0.000000,-8503.660028,296.082377
5484.581177,0.000000,-8273.831378,296.082377
5484.581502,148.041188,-8733.488677,222.061783
5484.581826,444.123565,-7890.783629,666.185348
5484.582150,1258.350101,-8733.488677,518.144159
5484.582475,1036.288319,-8044.002729,74.020594
5484.582799,1036.288319,-8503.660028,296.082377
5484.583123,814.226536,-8427.050478,296.082377
5484.583448,444.123565,-8044.002729,740.205942
5484.583772,-222.061783,-8273.831378,370.102971
5484.584096,0.000000,-8427.050478,518.144159
5484.584421,-518.144159,-8350.440928,518.144159
5484.584745,-814.226536,-8810.098227,74.020594
5484.585069,-962.267725,-7967.393179,592.164754
5484.585394,-666.185348,-8197.221829,148.041188
5484.585718,-888.247130,-8120.612279,0.000000
5484.586042,-592.164754,-8197.221829,592.164754
5484.586367,-222.061783,-7660.954980,370.102971
5484.586691,-222.061783,-8273.831378,-370.102971
5484.587016,74.020594,-8350.440928,148.041188
5484.587340,74.020594,-8273.831378,0.000000
5484.587664,518.144159,-8197.221829,0.000000
5484.587989,370.102971,-8197.221829,0.000000
5484.588313,666.185348,-8656.879127,-222.061783
5484.588637,1184.329507,-8580.269578,-740.205942
5484.588962,1332.370696,-8427.050478,-444.123565
5484.589286,1628.453072,-8656.879127,-666.185348
5484.589610,1924.535449,-8733.488677,-592.164754
5484.589935,1776.494261,-8810.098227,-1332.370696
5484.590259,1850.514855,-8733.488677,-592.164754
5484.590583,2220.617826,-8733.488677,-1110.308913
5484.590908,1776.494261,-9346.365076,-740.205942
5484.591232,1850.514855,-8503.660028,-740.205942
5484.591556,1924.535449,-8963.317327,-1110.308913
5484.591881,2072.576638,-9193.145976,-1406.391290
5484.592205,2368.659014,-9193.145976,-1110.308913
5484.592529,1998.556043,-9116.536426,-1258.350101
5484.592854,1850.514855,-9499.584175,-1110.308913
5484.593178,1480.411884,-9116.536426,-1480.411884
5484.593502,1110.308913,-9269.755526,-1554.432478
5484.593827,518.144159,-8963.317327,-1480.411884
5484.594151,0.000000,-9116.536426,-962.267725
5484.594475,0.000000,-8963.317327,-1258.350101
5484.594800,-148.041188,-9039.926876,-1110.308913
5484.595124,0.000000,-9039.926876,-1184.329507
5484.595448,-296.082377,-8733.488677,-1110.308913
5484.595773,-444.123565,-9039.926876,-1036.288319
5484.596097,-740.205942,-8656.879127,-740.205942
5484.596421,-814.226536,-8810.098227,-888.247130
5484.596746,-1258.350101,-8427.050478,-962.267725
5484.597070,-962.267725,-9039.926876,-518.144159
5484.597394,-1332.370696,-8810.098227,-444.123565
5484.597719,-888.247130,-9039.926876,0.000000
5484.598043,-518.144159,-8503.660028,-148.041188
5484.598367,0.000000,-8197.221829,74.020594
5484.598692,74.020594,-8273.831378,-592.164754
5484.599016,888.247130,-9499.584175,222.061783
5484.599340,740.205942,-8120.612279,148.041188
5484.599665,148.041188,-8120.612279,-74.020594
5484.599989,444.123565,-8427.050478,222.061783
5484.600314,0.000000,-7660.954980,0.000000
5484.600638,444.123565,-8963.317327,444.123565
5484.600962,-296.082377,-7890.783629,222.061783
5484.601287,0.000000,-8963.317327,888.247130
5484.601611,370.102971,-8120.612279,0.000000
5484.601935,666.185348,-9116.536426,444.123565
5484.602260,1036.288319,-8197.221829,0.000000
5484.602584,1406.391290,-8427.050478,888.247130
5484.602908,962.267725,-8044.002729,0.000000
5484.603233,814.226536,-9039.926876,666.185348
5484.603557,1036.288319,-8273.831378,74.020594
5484.603881,148.041188,-8503.660028,370.102971
5484.604206,-296.082377,-8350.440928,592.164754
5484.604530,-1480.411884,-8273.831378,592.164754
5484.604854,-1184.329507,-8350.440928,666.185348
5484.605179,-1480.411884,-8044.002729,148.041188
5484.605503,-1110.308913,-8350.440928,296.082377
5484.605827,-1332.370696,-7890.783629,148.041188
5484.606152,-222.061783,-8656.879127,814.226536
5484.606476,-296.082377,-7890.783629,-296.082377
5484.606800,296.082377,-8580.269578,74.020594
5484.607125,444.123565,-7431.126331,-592.164754
5484.607449,296.082377,-8580.269578,0.000000
5484.607773,666.185348,-8044.002729,-592.164754
5484.608098,592.164754,-8733.488677,148.041188
5484.608422,740.205942,-8656.879127,-592.164754
5484.608746,962.267725,-8733.488677,-222.061783
5484.609071,1924.535449,-8963.317327,-1110.308913
5484.609395,1702.473667,-9039.926876,-740.205942
5484.609719,2368.659014,-8503.660028,-888.247130
5484.610044,1998.556043,-9039.926876,-740.205942
5484.610368,1998.556043,-8733.488677,-1036.288319
5484.610692,2442.679609,-9039.926876,-740.205942
5484.611017,2146.597232,-8886.707777,-1110.308913
5484.611341,2294.638420,-9806.022374,-962.267725
5484.611665,1850.514855,-8963.317327,-1258.350101
5484.611990,1924.535449,-9806.022374,-962.267725
5484.612314,1332.370696,-9116.536426,-1554.432478
5484.612638,1332.370696,-9729.412825,-1036.288319
5484.612963,1110.308913,-9422.974625,-1258.350101
5484.613287,1332.370696,-9499.584175,-1110.308913
5484.613612,962.267725,-9039.926876,-1332.370696
5484.613936,666.185348,-8886.707777,-1184.329507
5484.614260,962.267725,-8810.098227,-1406.391290
5484.614585,444.123565,-8733.488677,-1332.370696
5484.614909,666.185348,-8886.707777,-1184.329507
5484.615233,148.041188,-8963.317327,-1036.288319
5484.615558,-296.082377,-8886.707777,-962.267725
5484.615882,-666.185348,-8886.707777,-962.267725
5484.616206,-444.123565,-9039.926876,-962.267725
5484.616531,-1036.288319,-8810.098227,-592.164754
5484.616855,-1554.432478,-8580.269578,-666.185348
5484.617179,-1184.329507,-8886.707777,-592.164754
5484.617504,-888.247130,-8580.269578,0.000000
5484.617828,-296.082377,-8427.050478,-296.082377
5484.618152,-370.102971,-7890.783629,-296.082377
5484.618477,444.123565,-8044.002729,148.041188
5484.618801,222.061783,-8273.831378,222.061783
5484.619125,888.247130,-8503.660028,74.020594
5484.619450,592.164754,-8044.002729,-148.041188
5484.619774,444.123565,-8350.440928,0.000000
5484.620098,222.061783,-8350.440928,370.102971
5484.620423,74.020594,-8273.831378,-222.061783
5484.620747,0.000000,-9039.926876,370.102971
5484.621071,-296.082377,-7737.564530,296.082377
5484.621396,296.082377,-8963.317327,370.102971
5484.621720,666.185348,-8350.440928,0.000000
5484.622045,740.205942,-8503.660028,814.226536
5484.622369,962.267725,-7967.393179,148.041188
5484.622693,1184.329507,-8503.660028,296.082377
5484.623018,1184.329507,-8810.098227,0.000000
5484.623342,1036.288319,-8656.879127,296.082377
5484.623667,222.061783,-8350.440928,74.020594
5484.623991,0.000000,-8810.098227,222.061783
5484.624315,-666.185348,-8503.660028,370.102971
5484.624640,-666.185348,-8503.660028,296.082377
5484.624964,-666.185348,-8350.440928,444.123565
5484.625289,-1036.288319,-8350.440928,370.102971
5484.625613,-740.205942,-8197.221829,370.102971
5484.625937,-444.123565,-8427.050478,296.082377
5484.626262,-222.061783,-8120.612279,148.041188
5484.626586,148.041188,-8044.002729,-296.082377
5484.626911,222.061783,-8197.221829,0.000000
5484.627235,148.041188,-8503.660028,0.000000
5484.627559,-296.082377,-8580.269578,-370.102971
5484.627884,0.000000,-8503.660028,-296.082377
5484.628208,370.102971,-8350.440928,-370.102971
5484.628533,962.267725,-8427.050478,-592.164754
5484.628857,1628.453072,-8656.879127,-444.123565
5484.629181,1924.535449,-8273.831378,-296.082377
5484.629506,2294.638420,-8580.269578,-592.164754
5484.629830,2368.659014,-8580.269578,-1184.329507
5484.630155,2516.700203,-9116.536426,-518.144159
5484.630479,2072.576638,-8120.612279,-962.267725
5484.630804,1998.556043,-8886.707777,-1110.308913
5484.631128,1480.411884,-8733.488677,-1036.288319
5484.631452,1554.432478,-9193.145976,-962.267725
5484.631777,1702.473667,-9269.755526,-1480.411884
5484.632101,1406.391290,-9499.584175,-1036.288319
5484.632426,1850.514855,-9499.584175,-1480.411884
5484.632750,1332.370696,-8810.098227,-1184.329507
5484.633074,2072.576638,-8810.098227,-1110.308913
5484.633399,1332.370696,-9039.926876,-1406.391290
5484.633723,1332.370696,-9346.365076,-1184.329507
5484.634048,814.226536,-8580.269578,-1184.329507
5484.634372,888.247130,-9116.536426,-1406.391290
5484.634696,296.082377,-8656.879127,-1184.329507
5484.635021,148.041188,-9039.926876,-962.267725
5484.635345,-296.082377,-8733.488677,-1258.350101
5484.635670,-370.102971,-9039.926876,-666.185348
5484.635994,-666.185348,-9039.926876,-740.205942
5484.636318,-962.267725,-8580.269578,-518.144159
5484.636643,-1258.350101,-8273.831378,-888.247130
5484.636967,-1184.329507,-8886.707777,-296.082377
5484.637292,-370.102971,-8733.488677,-592.164754
5484.637616,-1036.288319,-8120.612279,0.000000
5484.637941,0.000000,-8427.050478,-148.041188
5484.638265,-148.041188,-8273.831378,0.000000
5484.638589,444.123565,-8656.879127,-222.061783
5484.638914,148.041188,-8197.221829,-148.041188
5484.639238,74.020594,-8427.050478,444.123565
5484.639563,0.000000,-8044.002729,0.000000
5484.639887,148.041188,-8580.269578,296.082377
5484.640211,74.020594,-8503.660028,-148.041188
5484.640536,0.000000,-8733.488677,0.000000
5484.640860,222.061783,-8120.612279,74.020594
5484.641185,148.041188,-8044.002729,222.061783
5484.641509,666.185348,-8120.612279,666.185348
5484.641833,666.185348,-7967.393179,0.000000
5484.642158,1184.329507,-8580.269578,0.000000
5484.642482,888.247130,-8273.831378,74.020594
5484.642807,1110.308913,-8580.269578,888.247130
5484.643131,666.185348,-8580.269578,222.061783
5484.643455,296.082377,-8350.440928,296.082377
