#time,accel_x,accel_y,accel_z
4511.512592,74.020594,-8197.221829,-296.082377
4511.512917,0.000000,-8427.050478,0.000000
4511.513242,296.082377,-8427.050478,0.000000
4511.513566,666.185348,-8656.879127,0.000000
4511.513891,592.164754,-8580.269578,0.000000
4511.514216,962.267725,-8656.879127,370.102971
4511.514541,370.102971,-8427.050478,888.247130
4511.514865,518.144159,-8733.488677,370.102971
4511.515190,370.102971,-8044.002729,222.061783
4511.515515,518.144159,-8810.098227,296.082377
4511.515839,444.123565,-8350.440928,296.082377
4511.516164,296.082377,-8197.221829,592.164754
4511.516488,296.082377,-8427.050478,444.123565
4511.516813,370.102971,-8350.440928,666.185348
4511.517137,518.144159,-8503.660028,444.123565
4511.517462,370.102971,-8580.269578,444.123565
4511.517786,222.061783,-8503.660028,814.226536
4511.518111,444.123565,-8656.879127,814.226536
4511.518435,518.144159,-8503.660028,592.164754
4511.518759,814.226536,-8580.269578,740.205942
4511.519084,518.144159,-8503.660028,592.164754
4511.519408,444.123565,-8427.050478,814.226536
4511.519733,370.102971,-8350.440928,666.185348
4511.520057,296.082377,-9193.145976,592.164754
4511.520382,444.123565,-8656.879127,370.102971
4511.520706,370.102971,-8656.879127,444.123565
4511.521031,222.061783,-8503.660028,370.102971
4511.521355,74.020594,-8733.488677,518.144159
4511.521680,74.020594,-8810.098227,592.164754
4511.522004,148.041188,-8580.269578,592.164754
4511.522328,444.123565,-8503.660028,296.082377
4511.522653,444.123565,-8810.098227,74.020594
4511.522977,296.082377,-8886.707777,962.267725
4511.523302,222.061783,-8273.831378,222.061783
4511.523626,148.041188,-8503.660028,222.061783
4511.523951,444.123565,-8503.660028,296.082377
4511.524275,370.102971,-8503.660028,0.000000
4511.524600,148.041188,-8810.098227,0.000000
4511.524924,222.061783,-8733.488677,0.000000
4511.525249,444.123565,-9039.926876,74.020594
4511.525573,222.061783,-8580.269578,0.000000
4511.525897,444.123565,-8580.269578,74.020594
4511.526222,370.102971,-8656.879127,-444.123565
4511.526546,370.102971,-8427.050478,-296.082377
4511.526871,518.144159,-8503.660028,-740.205942
4511.527195,74.020594,-8656.879127,-148.041188
4511.527520,666.185348,-8580.269578,-740.205942
4511.527844,444.123565,-8350.440928,-592.164754
4511.528169,518.144159,-8810.098227,-370.102971
4511.528493,148.041188,-8733.488677,-666.185348
4511.528818,518.144159,-8733.488677,-370.102971
4511.529142,222.061783,-8273.831378,-592.164754
4511.529466,740.205942,-8810.098227,-666.185348
4511.529791,666.185348,-8273.831378,-814.226536
4511.530115,1036.288319,-7737.564530,-666.185348
4511.530440,666.185348,-8656.879127,-888.247130
4511.530764,962.267725,-8503.660028,-740.205942
4511.531089,814.226536,-8580.269578,-1036.288319
4511.531413,370.102971,-8580.269578,-962.267725
4511.531738,592.164754,-8733.488677,-814.226536
4511.532062,148.041188,-8656.879127,-888.247130
4511.532387,370.102971,-8656.879127,-888.247130
4511.532711,444.123565,-8656.879127,-888.247130
4511.533035,888.247130,-9116.536426,-962.267725
4511.533360,666.185348,-8427.050478,-962.267725
4511.533684,740.205942,-8656.879127,-888.247130
4511.534009,740.205942,-8580.269578,-962.267725
4511.534333,1036.288319,-8963.317327,-962.267725
4511.534658,666.185348,-8810.098227,-1110.308913
4511.534982,222.061783,-8427.050478,-1184.329507
4511.535307,296.082377,-8963.317327,-962.267725
4511.535631,222.061783,-8886.707777,-814.226536
4511.535956,222.061783,-8656.879127,-962.267725
4511.536280,148.041188,-8656.879127,-1110.308913
4511.536604,222.061783,-9193.145976,-962.267725
4511.536929,148.041188,-8580.269578,-1036.288319
4511.537253,296.082377,-9116.536426,-1110.308913
4511.537578,296.082377,-8733.488677,-1110.308913
4511.537902,370.102971,-8810.098227,-1036.288319
4511.538227,518.144159,-8963.317327,-1332.370696
4511.538551,592.164754,-9346.365076,-1110.308913
4511.538876,222.061783,-8656.879127,-1406.391290
4511.539200,222.061783,-9039.926876,-888.247130
4511.539525,0.000000,-8580.269578,-814.226536
4511.539849,296.082377,-9039.926876,-740.205942
4511.540173,592.164754,-8886.707777,-888.247130
4511.540498,444.123565,-8503.660028,-444.123565
4511.540822,370.102971,-8580.269578,-592.164754
4511.541147,518.144159,-8733.488677,-296.082377
4511.541471,740.205942,-8963.317327,-592.164754
4511.541796,518.144159,-8656.879127,-814.226536
4511.542120,296.082377,-8886.707777,-666.185348
4511.542445,370.102971,-8656.879127,-370.102971
4511.542769,444.123565,-8273.831378,-148.041188
4511.543094,222.061783,-8810.098227,0.000000
4511.543418,518.144159,-8580.269578,-518.144159
4511.543742,444.123565,-8503.660028,0.000000
4511.544067,666.185348,-8427.050478,-222.061783
4511.544391,888.247130,-8580.269578,0.000000
4511.544716,962.267725,-8427.050478,-74.020594
4511.545040,814.226536,-8656.879127,0.000000
4511.545365,888.247130,-8580.269578,0.000000
4511.545689,666.185348,-8733.488677,0.000000
4511.546014,740.205942,-8656.879127,222.061783
4511.546338,814.226536,-8656.879127,222.061783
4511.546663,518.144159,-8427.050478,148.041188
4511.546987,888.247130,-8273.831378,370.102971
4511.547311,1110.308913,-8197.221829,74.020594
4511.547636,592.164754,-8580.269578,666.185348
4511.547960,370.102971,-8427.050478,444.123565
4511.548285,814.226536,-8503.660028,592.164754
4511.548609,592.164754,-8427.050478,518.144159
4511.548934,814.226536,-8656.879127,814.226536
4511.549258,370.102971,-8503.660028,666.185348
4511.549583,296.082377,-8580.269578,888.247130
4511.549907,296.082377,-9193.145976,666.185348
4511.550232,518.144159,-8963.317327,592.164754
4511.550556,296.082377,-8733.488677,814.226536
4511.550880,518.144159,-8120.612279,814.226536
4511.551205,518.144159,-8810.098227,814.226536
4511.551529,296.082377,-8350.440928,1036.288319
4511.551854,370.102971,-8120.612279,740.205942
4511.552178,148.041188,-8503.660028,592.164754
4511.552503,222.061783,-8350.440928,518.144159
4511.552827,0.000000,-8656.879127,814.226536
4511.553152,0.000000,-8273.831378,666.185348
4511.553476,222.061783,-8197.221829,592.164754
4511.553800,296.082377,-8350.440928,296.082377
4511.554125,666.185348,-8120.612279,444.123565
4511.554449,296.082377,-8120.612279,222.061783
4511.554774,148.041188,-8656.879127,370.102971
4511.555098,0.000000,-8656.879127,370.102971
4511.555423,0.000000,-8350.440928,666.185348
4511.555747,370.102971,-8503.660028,296.082377
4511.556072,148.041188,-8580.269578,888.247130
4511.556396,296.082377,-8580.269578,518.144159
4511.556721,222.061783,-8427.050478,444.123565
4511.557045,740.205942,-8197.221829,296.082377
4511.557369,296.082377,-8350.440928,370.102971
4511.557694,370.102971,-8197.221829,740.205942
4511.558018,296.082377,-8120.612279,370.102971
4511.558343,222.061783,-8963.317327,222.061783
4511.558667,370.102971,-7890.783629,444.123565
4511.558992,518.144159,-8810.098227,296.082377
4511.559316,518.144159,-8273.831378,296.082377
4511.559641,222.061783,-8580.269578,518.144159
4511.559965,0.000000,-8580.269578,74.020594
4511.560290,296.082377,-8810.098227,370.102971
4511.560614,222.061783,-8580.269578,0.000000
4511.560938,296.082377,-8886.707777,0.000000
4511.561263,592.164754,-8273.831378,0.000000
4511.561587,296.082377,-8656.879127,74.020594
4511.561912,296.082377,-8580.269578,74.020594
4511.562236,592.164754,-8656.879127,0.000000
4511.562561,592.164754,-8810.098227,-296.082377
4511.562885,740.205942,-8503.660028,74.020594
4511.563210,148.041188,-8580.269578,0.000000
4511.563534,592.164754,-8810.098227,0.000000
4511.563859,148.041188,-8427.050478,-222.061783
4511.564183,666.185348,-9039.926876,0.000000
4511.564507,444.123565,-8503.660028,0.000000
4511.564832,222.061783,-8427.050478,74.020594
4511.565156,222.061783,-8810.098227,0.000000
4511.565481,518.144159,-8886.707777,-296.082377
4511.565805,296.082377,-8580.269578,0.000000
4511.566130,74.020594,-8273.831378,-74.020594
4511.566454,370.102971,-8427.050478,0.000000
4511.566779,222.061783,-9039.926876,0.000000
4511.567103,222.061783,-8580.269578,-222.061783
4511.567428,370.102971,-8503.660028,-148.041188
4511.567752,370.102971,-8656.879127,-222.061783
4511.568076,518.144159,-8273.831378,148.041188
4511.568401,370.102971,-8273.831378,-222.061783
4511.568725,296.082377,-8427.050478,74.020594
4511.569050,592.164754,-8273.831378,0.000000
4511.569374,518.144159,-8503.660028,0.000000
4511.569699,518.144159,-8503.660028,-444.123565
4511.570023,370.102971,-8350.440928,-296.082377
4511.570348,444.123565,-8273.831378,-444.123565
4511.570672,370.102971,-8427.050478,-296.082377
4511.570997,444.123565,-8656.879127,-370.102971
4511.571321,296.082377,-8810.098227,-444.123565
4511.571645,148.041188,-8427.050478,-296.082377
4511.571970,370.102971,-8503.660028,-296.082377
4511.572294,296.082377,-8810.098227,-296.082377
4511.572619,888.247130,-8503.660028,-296.082377
4511.572943,592.164754,-8656.879127,-444.123565
4511.573268,518.144159,-8503.660028,-296.082377
4511.573592,592.164754,-8503.660028,-296.082377
4511.573917,592.164754,-8810.098227,-296.082377
4511.574241,370.102971,-8810.098227,-222.061783
4511.574566,296.082377,-8733.488677,-444.123565
4511.574890,518.144159,-8886.707777,-296.082377
4511.575214,296.082377,-8503.660028,0.000000
4511.575539,222.061783,-8810.098227,-222.061783
4511.575863,222.061783,-8733.488677,-518.144159
4511.576188,518.144159,-8427.050478,-444.123565
4511.576512,444.123565,-8427.050478,-666.185348
4511.576837,0.000000,-7967.393179,0.000000
4511.577161,148.041188,-8427.050478,-444.123565
4511.577486,370.102971,-8503.660028,-518.144159
4511.577810,444.123565,-8197.221829,-740.205942
4511.578135,518.144159,-9116.536426,-296.082377
4511.578459,592.164754,-8350.440928,-518.144159
4511.578783,444.123565,-8503.660028,-592.164754
4511.579108,296.082377,-8733.488677,-888.247130
4511.579432,222.061783,-8350.440928,-888.247130
4511.579757,0.000000,-8580.269578,-666.185348
4511.580081,148.041188,-8580.269578,-740.205942
4511.580406,370.102971,-8503.660028,-814.226536
4511.580730,148.041188,-8427.050478,-740.205942
4511.581055,518.144159,-8273.831378,-592.164754
4511.581379,74.020594,-8427.050478,-666.185348
4511.581704,222.061783,-8656.879127,-962.267725
4511.582028,444.123565,-8350.440928,-592.164754
4511.582352,296.082377,-8273.831378,-666.185348
4511.582677,0.000000,-8273.831378,-666.185348
4511.583001,296.082377,-8273.831378,-740.205942
4511.583326,370.102971,-8656.879127,-814.226536
4511.583650,740.205942,-8733.488677,-814.226536
4511.583975,1036.288319,-8580.269578,-1110.308913
4511.584299,444.123565,-8503.660028,-740.205942
4511.584624,592.164754,-8733.488677,-962.267725
4511.584948,444.123565,-8656.879127,-888.247130
4511.585273,592.164754,-8656.879127,-666.185348
4511.585597,370.102971,-8427.050478,-592.164754
4511.585921,296.082377,-8733.488677,-962.267725
4511.586246,222.061783,-8580.269578,-888.247130
4511.586570,444.123565,-8656.879127,-444.123565
4511.586895,222.061783,-8580.269578,-1036.288319
4511.587219,222.061783,-8656.879127,-666.185348
4511.587544,370.102971,-8503.660028,-962.267725
4511.587868,518.144159,-8810.098227,-888.247130
4511.588193,518.144159,-9116.536426,-962.267725
4511.588517,370.102971,-8886.707777,-666.185348
4511.588842,444.123565,-8580.269578,-666.185348
4511.589166,370.102971,-8503.660028,-740.205942
4511.589490,814.226536,-8963.317327,-666.185348
4511.589815,296.082377,-8580.269578,-592.164754
4511.590139,296.082377,-8503.660028,-666.185348
4511.590464,370.102971,-8503.660028,-592.164754
4511.590788,444.123565,-8656.879127,-370.102971
4511.591113,370.102971,-8503.660028,-296.082377
4511.591437,518.144159,-8580.269578,-592.164754
4511.591762,592.164754,-8427.050478,-518.144159
4511.592086,740.205942,-8503.660028,-592.164754
4511.592410,666.185348,-8273.831378,-222.061783
4511.592735,592.164754,-8273.831378,-148.041188
4511.593059,444.123565,-8656.879127,-222.061783
4511.593384,518.144159,-8733.488677,-148.041188
4511.593708,740.205942,-9116.536426,-296.082377
4511.594033,518.144159,-8810.098227,-296.082377
4511.594357,592.164754,-8963.317327,74.020594
4511.594682,592.164754,-8580.269578,-222.061783
4511.595006,592.164754,-8656.879127,0.000000
4511.595331,370.102971,-8810.098227,74.020594
4511.595655,444.123565,-8733.488677,0.000000
4511.595979,518.144159,-8503.660028,0.000000
4511.596304,592.164754,-8580.269578,0.000000
4511.596628,888.247130,-8733.488677,148.041188
4511.596953,666.185348,-8503.660028,0.000000
4511.597277,888.247130,-8963.317327,0.000000
4511.597602,740.205942,-8427.050478,0.000000
4511.597926,814.226536,-8886.707777,74.020594
4511.598251,666.185348,-8580.269578,-148.041188
4511.598575,666.185348,-8503.660028,-74.020594
4511.598900,962.267725,-8656.879127,-148.041188
4511.599224,814.226536,-8886.707777,-296.082377
4511.599548,888.247130,-8733.488677,0.000000
4511.599873,592.164754,-9039.926876,-148.041188
4511.600197,666.185348,-8963.317327,-296.082377
4511.600522,592.164754,-8733.488677,-222.061783
4511.600846,888.247130,-8503.660028,-148.041188
4511.601171,444.123565,-8656.879127,-370.102971
4511.601495,518.144159,-8810.098227,-592.164754
4511.601820,592.164754,-8580.269578,-814.226536
4511.602144,740.205942,-8580.269578,-814.226536
4511.602469,518.144159,-8733.488677,-1184.329507
4511.602793,518.144159,-8656.879127,-814.226536
4511.603117,444.123565,-8886.707777,-1036.288319
4511.603442,296.082377,-8886.707777,-1258.350101
4511.603766,148.041188,-8810.098227,-962.267725
4511.604091,222.061783,-8963.317327,-1258.350101
4511.604415,0.000000,-8886.707777,-962.267725
4511.604740,296.082377,-8580.269578,-1184.329507
4511.605064,888.247130,-9116.536426,-1332.370696
4511.605389,444.123565,-8580.269578,-1332.370696
4511.605713,370.102971,-8580.269578,-1332.370696
4511.606038,222.061783,-8580.269578,-1406.391290
4511.606362,444.123565,-8580.269578,-1184.329507
4511.606686,370.102971,-8810.098227,-1406.391290
4511.607011,444.123565,-8503.660028,-1554.432478
4511.607335,518.144159,-8580.269578,-1406.391290
4511.607660,740.205942,-8656.879127,-1776.494261
4511.607984,518.144159,-8963.317327,-888.247130
4511.608309,370.102971,-8580.269578,-1332.370696
4511.608633,592.164754,-8886.707777,-1554.432478
4511.608958,296.082377,-8580.269578,-1406.391290
4511.609282,370.102971,-9576.193725,-1036.288319
4511.609607,370.102971,-8503.660028,-1480.411884
4511.609931,296.082377,-8580.269578,-1258.350101
4511.610255,296.082377,-8656.879127,-1554.432478
4511.610580,518.144159,-8503.660028,-1332.370696
4511.610904,444.123565,-8503.660028,-1184.329507
4511.611229,740.205942,-8580.269578,-1480.411884
4511.611553,740.205942,-8580.269578,-1480.411884
4511.611878,592.164754,-8886.707777,-1332.370696
4511.612202,518.144159,-8120.612279,-1406.391290
4511.612527,444.123565,-8273.831378,-1258.350101
4511.612851,222.061783,-8503.660028,-1258.350101
4511.613176,370.102971,-8503.660028,-1036.288319
4511.613500,296.082377,-8427.050478,-1480.411884
4511.613824,222.061783,-8580.269578,-1110.308913
4511.614149,296.082377,-8350.440928,-1036.288319
4511.614473,296.082377,-8503.660028,-888.247130
4511.614798,222.061783,-8273.831378,-666.185348
4511.615122,148.041188,-8580.269578,-592.164754
4511.615447,74.020594,-8273.831378,-666.185348
4511.615771,222.061783,-8503.660028,-740.205942
4511.616096,296.082377,-8197.221829,-592.164754
4511.616420,148.041188,-8810.098227,0.000000
4511.616744,444.123565,-8197.221829,-444.123565
4511.617069,222.061783,-8197.221829,-296.082377
4511.617393,296.082377,-8503.660028,-370.102971
4511.617717,518.144159,-8197.221829,-222.061783
4511.618041,74.020594,-8273.831378,-444.123565
4511.618366,296.082377,-8427.050478,-296.082377
4511.618690,0.000000,-8273.831378,0.000000
4511.619014,370.102971,-8656.879127,74.020594
4511.619339,74.020594,-8273.831378,-296.082377
4511.619663,444.123565,-8503.660028,-222.061783
4511.619987,444.123565,-8580.269578,0.000000
4511.620311,296.082377,-8273.831378,0.000000
4511.620636,148.041188,-8580.269578,0.000000
4511.620960,222.061783,-8656.879127,222.061783
4511.621284,814.226536,-8503.660028,-222.061783
4511.621609,740.205942,-8656.879127,74.020594
4511.621933,444.123565,-8120.612279,222.061783
4511.622257,740.205942,-8580.269578,0.000000
4511.622582,592.164754,-8656.879127,74.020594
4511.622906,518.144159,-8656.879127,74.020594
4511.623230,666.185348,-8963.317327,0.000000
4511.623554,888.247130,-8733.488677,148.041188
4511.623879,592.164754,-8580.269578,370.102971
4511.624203,518.144159,-8886.707777,0.000000
4511.624527,370.102971,-8733.488677,222.061783
4511.624852,592.164754,-8273.831378,296.082377
4511.625176,592.164754,-8656.879127,0.000000
4511.625500,518.144159,-8886.707777,0.000000
4511.625824,592.164754,-8427.050478,0.000000
4511.626149,518.144159,-8656.879127,222.061783
4511.626473,518.144159,-8427.050478,-222.061783
4511.626797,666.185348,-8733.488677,0.000000
4511.627122,592.164754,-8580.269578,148.041188
4511.627446,370.102971,-8503.660028,148.041188
4511.627770,592.164754,-8580.269578,-148.041188
4511.628095,444.123565,-8810.098227,-370.102971
4511.628419,592.164754,-8810.098227,-370.102971
4511.628743,666.185348,-8733.488677,-370.102971
4511.629067,592.164754,-8503.660028,-370.102971
4511.629392,518.144159,-8580.269578,-296.082377
4511.629716,370.102971,-8503.660028,-518.144159
4511.630040,222.061783,-8580.269578,-444.123565
4511.630365,518.144159,-8427.050478,-814.226536
4511.630689,888.247130,-8427.050478,-518.144159
4511.631013,518.144159,-8503.660028,-666.185348
4511.631337,370.102971,-8580.269578,-814.226536
4511.631662,370.102971,-8733.488677,-592.164754
4511.631986,814.226536,-8963.317327,-666.185348
4511.632310,370.102971,-8656.879127,-740.205942
4511.632635,222.061783,-8580.269578,-444.123565
4511.632959,518.144159,-8810.098227,-592.164754
4511.633283,444.123565,-8427.050478,-592.164754
4511.633608,222.061783,-8503.660028,-518.144159
4511.633932,222.061783,-8273.831378,-296.082377
4511.634256,148.041188,-8427.050478,-74.020594
4511.634580,0.000000,-8810.098227,-592.164754
4511.634905,518.144159,-8580.269578,-666.185348
4511.635229,370.102971,-8350.440928,-444.123565
4511.635553,370.102971,-8656.879127,-370.102971
4511.635878,222.061783,-8273.831378,-370.102971
4511.636202,666.185348,-8273.831378,-370.102971
4511.636526,370.102971,-8273.831378,-518.144159
4511.636850,518.144159,-8503.660028,-444.123565
4511.637175,740.205942,-8427.050478,-592.164754
4511.637499,740.205942,-8350.440928,-296.082377
4511.637823,444.123565,-8503.660028,-666.185348
4511.638148,518.144159,-8656.879127,-814.226536
4511.638472,296.082377,-8350.440928,-592.164754
4511.638796,518.144159,-8503.660028,-518.144159
4511.639121,222.061783,-8197.221829,-518.144159
4511.639445,444.123565,-8503.660028,-518.144159
4511.639769,518.144159,-8503.660028,-592.164754
4511.640093,370.102971,-8656.879127,-370.102971
4511.640418,518.144159,-8810.098227,-666.185348
4511.640742,518.144159,-8503.660028,-370.102971
4511.641066,518.144159,-8273.831378,-222.061783
4511.641391,370.102971,-8580.269578,-592.164754
4511.641715,518.144159,-8580.269578,-296.082377
4511.642039,518.144159,-8503.660028,-222.061783
4511.642363,592.164754,-8580.269578,-518.144159
4511.642688,296.082377,-8503.660028,74.020594
4511.643012,444.123565,-8503.660028,-222.061783
4511.643336,592.164754,-8656.879127,0.000000
4511.643661,592.164754,-8427.050478,0.000000
4511.643985,666.185348,-8810.098227,0.000000
4511.644309,444.123565,-8656.879127,-148.041188
4511.644634,518.144159,-8120.612279,296.082377
4511.644958,444.123565,-8810.098227,0.000000
4511.645282,444.123565,-8503.660028,0.000000
4511.645606,814.226536,-8580.269578,0.000000
4511.645931,592.164754,-8580.269578,0.000000
4511.646255,888.247130,-8886.707777,222.061783
4511.646579,296.082377,-8580.269578,148.041188
4511.646904,592.164754,-8886.707777,0.000000
4511.647228,222.061783,-8503.660028,0.000000
4511.647552,518.144159,-8810.098227,0.000000
4511.647876,518.144159,-8580.269578,0.000000
4511.648201,222.061783,-8656.879127,0.000000
4511.648525,148.041188,-8963.317327,0.000000
4511.648849,0.000000,-8580.269578,0.000000
4511.649174,814.226536,-8580.269578,-222.061783
4511.649498,222.061783,-8350.440928,0.000000
4511.649822,666.185348,-8886.707777,0.000000
4511.650147,296.082377,-8503.660028,-148.041188
4511.650471,592.164754,-8733.488677,0.000000
4511.650795,444.123565,-8503.660028,-370.102971
4511.651119,666.185348,-8963.317327,-148.041188
4511.651444,518.144159,-8350.440928,-296.082377
4511.651768,74.020594,-8427.050478,0.000000
4511.652092,222.061783,-8733.488677,0.000000
4511.652417,370.102971,-8427.050478,0.000000
4511.652741,444.123565,-8427.050478,74.020594
4511.653065,296.082377,-8273.831378,222.061783
4511.653389,222.061783,-8503.660028,148.041188
4511.653714,296.082377,-8197.221829,148.041188
4511.654038,370.102971,-8503.660028,0.000000
4511.654362,222.061783,-8427.050478,0.000000
4511.654687,592.164754,-8427.050478,0.000000
4511.655011,592.164754,-7890.783629,74.020594
4511.655335,592.164754,-8580.269578,0.000000
4511.655660,592.164754,-8580.269578,0.000000
4511.655984,1110.308913,-9116.536426,444.123565
4511.656308,518.144159,-8656.879127,0.000000
4511.656632,518.144159,-8427.050478,296.082377
4511.656957,296.082377,-8427.050478,-148.041188
4511.657281,296.082377,-8656.879127,0.000000
4511.657605,148.041188,-8273.831378,0.000000
4511.657930,444.123565,-8810.098227,-222.061783
4511.658254,592.164754,-8733.488677,0.000000
4511.658578,444.123565,-8503.660028,74.020594
4511.658902,592.164754,-8886.707777,-148.041188
4511.659227,370.102971,-8503.660028,0.000000
4511.659551,444.123565,-8810.098227,-148.041188
4511.659875,148.041188,-8733.488677,0.000000
4511.660200,74.020594,-8886.707777,0.000000
4511.660524,222.061783,-8580.269578,0.000000
4511.660848,222.061783,-8580.269578,0.000000
4511.661173,222.061783,-8503.660028,-148.041188
4511.661497,444.123565,-8810.098227,-222.061783
4511.661821,444.123565,-8810.098227,148.041188
4511.662145,222.061783,-8503.660028,74.020594
4511.662470,222.061783,-8656.879127,0.000000
4511.662794,370.102971,-8810.098227,0.000000
4511.663118,444.123565,-8810.098227,-74.020594
4511.663443,370.102971,-8886.707777,-222.061783
4511.663767,296.082377,-8427.050478,0.000000
4511.664091,148.041188,-8810.098227,-148.041188
4511.664415,444.123565,-9116.536426,-666.185348
4511.664740,296.082377,-8580.269578,-222.061783
4511.665064,592.164754,-8580.269578,-296.082377
4511.665388,740.205942,-8503.660028,-296.082377
4511.665713,370.102971,-8656.879127,-222.061783
4511.666037,370.102971,-8886.707777,0.000000
4511.666361,222.061783,-8427.050478,0.000000
4511.666686,222.061783,-8733.488677,0.000000
4511.667010,148.041188,-8427.050478,-148.041188
4511.667334,0.000000,-9193.145976,444.123565
4511.667658,296.082377,-8963.317327,74.020594
4511.667983,74.020594,-8503.660028,0.000000
4511.668307,370.102971,-8963.317327,0.000000
4511.668631,74.020594,-8580.269578,0.000000
4511.668956,444.123565,-8580.269578,74.020594
4511.669280,222.061783,-8580.269578,-148.041188
4511.669604,592.164754,-8580.269578,74.020594
4511.669928,518.144159,-8733.488677,0.000000
4511.670253,518.144159,-8963.317327,148.041188
4511.670577,444.123565,-8503.660028,148.041188
4511.670901,444.123565,-8503.660028,0.000000
4511.671226,518.144159,-8656.879127,148.041188
4511.671550,444.123565,-7354.516781,222.061783
4511.671874,296.082377,-9039.926876,222.061783
4511.672199,592.164754,-8427.050478,74.020594
4511.672523,296.082377,-8580.269578,0.000000
4511.672847,74.020594,-9039.926876,74.020594
4511.673171,0.000000,-8733.488677,74.020594
4511.673496,444.123565,-8503.660028,-148.041188
4511.673820,296.082377,-8580.269578,0.000000
4511.674144,444.123565,-8427.050478,74.020594
4511.674469,370.102971,-8503.660028,222.061783
4511.674793,222.061783,-8427.050478,0.000000
4511.675117,222.061783,-8810.098227,74.020594
4511.675441,370.102971,-8580.269578,-296.082377
4511.675766,0.000000,-8503.660028,296.082377
4511.676090,74.020594,-8580.269578,-296.082377
4511.676414,74.020594,-8656.879127,-296.082377
4511.676739,222.061783,-8886.707777,-148.041188
4511.677063,222.061783,-9039.926876,-222.061783
4511.677387,0.000000,-8810.098227,-296.082377
4511.677712,370.102971,-8810.098227,-370.102971
4511.678036,148.041188,-8503.660028,-296.082377
4511.678360,148.041188,-8656.879127,-222.061783
4511.678684,740.205942,-8656.879127,-592.164754
4511.679009,296.082377,-8733.488677,-592.164754
4511.679333,370.102971,-8580.269578,-444.123565
4511.679657,296.082377,-8580.269578,-444.123565
4511.679982,814.226536,-8044.002729,-296.082377
4511.680306,296.082377,-8503.660028,-740.205942
4511.680630,444.123565,-8810.098227,-740.205942
4511.680954,296.082377,-8503.660028,-814.226536
4511.681279,74.020594,-8580.269578,-592.164754
4511.681603,444.123565,-8580.269578,-740.205942
4511.681927,148.041188,-8427.050478,-962.267725
4511.682252,370.102971,-9269.755526,-962.267725
4511.682576,296.082377,-8733.488677,-814.226536
4511.682900,222.061783,-8656.879127,-1184.329507
4511.683225,74.020594,-8580.269578,-814.226536
4511.683549,444.123565,-8810.098227,-888.247130
4511.683873,444.123565,-8810.098227,-1036.288319
4511.684197,888.247130,-8273.831378,-296.082377
4511.684522,518.144159,-8580.269578,-666.185348
4511.684846,444.123565,-8656.879127,-740.205942
4511.685170,370.102971,-8810.098227,-518.144159
4511.685495,0.000000,-8656.879127,-592.164754
4511.685819,592.164754,-8656.879127,-518.144159
4511.686143,296.082377,-8197.221829,-518.144159
4511.686467,518.144159,-8733.488677,-518.144159
4511.686792,296.082377,-8886.707777,-592.164754
4511.687116,740.205942,-8350.440928,-370.102971
4511.687440,148.041188,-8656.879127,-444.123565
4511.687765,296.082377,-8733.488677,-296.082377
4511.688089,222.061783,-8503.660028,-370.102971
4511.688413,592.164754,-8580.269578,0.000000
4511.688738,296.082377,-8427.050478,-296.082377
4511.689062,740.205942,-8580.269578,-444.123565
4511.689386,518.144159,-8580.269578,-370.102971
4511.689710,518.144159,-8273.831378,-148.041188
4511.690035,814.226536,-8580.269578,0.000000
4511.690359,740.205942,-8350.440928,-296.082377
4511.690683,592.164754,-8580.269578,-296.082377
4511.691008,518.144159,-8503.660028,-444.123565
4511.691332,666.185348,-8503.660028,0.000000
4511.691656,296.082377,-8580.269578,0.000000
4511.691980,444.123565,-8503.660028,-148.041188
4511.692305,370.102971,-8273.831378,74.020594
4511.692629,296.082377,-7507.735880,-222.061783
4511.692953,444.123565,-8427.050478,0.000000
4511.693278,666.185348,-8197.221829,-148.041188
4511.693602,518.144159,-8580.269578,-148.041188
4511.693926,592.164754,-8580.269578,0.000000
4511.694251,592.164754,-8427.050478,-222.061783
4511.694575,666.185348,-8963.317327,0.000000
4511.694899,370.102971,-8656.879127,-222.061783
4511.695223,444.123565,-8656.879127,0.000000
4511.695548,666.185348,-8427.050478,222.061783
4511.695872,444.123565,-8350.440928,-222.061783
4511.696196,518.144159,-8503.660028,-296.082377
4511.696521,666.185348,-8427.050478,-148.041188
4511.696845,370.102971,-8197.221829,-518.144159
4511.697169,296.082377,-8503.660028,-74.020594
4511.697494,666.185348,-8273.831378,-370.102971
4511.697818,518.144159,-8580.269578,-222.061783
4511.698142,296.082377,-8580.269578,-444.123565
4511.698466,592.164754,-8503.660028,74.020594
4511.698791,518.144159,-8350.440928,-296.082377
4511.699115,592.164754,-8580.269578,-518.144159
4511.699439,296.082377,-8120.612279,-740.205942
4511.699764,222.061783,-8427.050478,-222.061783
4511.700088,296.082377,-8427.050478,-444.123565
4511.700412,222.061783,-8656.879127,-740.205942
4511.700736,370.102971,-8656.879127,-592.164754
4511.701061,592.164754,-8580.269578,-592.164754
4511.701385,518.144159,-8810.098227,-814.226536
4511.701709,592.164754,-8656.879127,-444.123565
4511.702034,518.144159,-8350.440928,-222.061783
4511.702358,296.082377,-8810.098227,-740.205942
4511.702682,296.082377,-8580.269578,-370.102971
4511.703007,740.205942,-8503.660028,-814.226536
4511.703331,592.164754,-8580.269578,-592.164754
4511.703655,444.123565,-8044.002729,-592.164754
4511.703979,814.226536,-8733.488677,-740.205942
4511.704304,666.185348,-8503.660028,-740.205942
4511.704628,666.185348,-8503.660028,-592.164754
4511.704952,814.226536,-8580.269578,-888.247130
4511.705277,518.144159,-8733.488677,-740.205942
4511.705601,370.102971,-8427.050478,-222.061783
4511.705925,518.144159,-8503.660028,-814.226536
4511.706249,518.144159,-8810.098227,-518.144159
4511.706574,296.082377,-8503.660028,-666.185348
4511.706898,888.247130,-9116.536426,-222.061783
4511.707222,518.144159,-8427.050478,-814.226536
4511.707547,666.185348,-9039.926876,-444.123565
4511.707871,370.102971,-8350.440928,-592.164754
4511.708195,666.185348,-8963.317327,-814.226536
4511.708520,518.144159,-8503.660028,-814.226536
4511.708844,518.144159,-8503.660028,-296.082377
4511.709168,370.102971,-8427.050478,-888.247130
4511.709492,296.082377,-8580.269578,-222.061783
4511.709817,222.061783,-8350.440928,-666.185348
4511.710141,592.164754,-8810.098227,-444.123565
4511.710465,814.226536,-8350.440928,-592.164754
4511.710790,518.144159,-8580.269578,-518.144159
4511.711114,962.267725,-8273.831378,-592.164754
4511.711438,518.144159,-8503.660028,-666.185348
4511.711762,666.185348,-8886.707777,-962.267725
4511.712087,518.144159,-8580.269578,-814.226536
4511.712411,148.041188,-8580.269578,-592.164754
4511.712735,0.000000,-8886.707777,-814.226536
4511.713060,0.000000,-8273.831378,-666.185348
4511.713384,296.082377,-8810.098227,-666.185348
4511.713708,518.144159,-8503.660028,-444.123565
4511.714033,740.205942,-8886.707777,-888.247130
4511.714357,296.082377,-8350.440928,-814.226536
4511.714681,370.102971,-8350.440928,-370.102971
4511.715005,222.061783,-8427.050478,-666.185348
4511.715330,518.144159,-8886.707777,-666.185348
4511.715654,370.102971,-8350.440928,-592.164754
4511.715978,222.061783,-8810.098227,-592.164754
4511.716303,148.041188,-8656.879127,-592.164754
4511.716627,222.061783,-8656.879127,-518.144159
4511.716951,222.061783,-8810.098227,-370.102971
4511.717276,444.123565,-8427.050478,-666.185348
4511.717600,592.164754,-8427.050478,-740.205942
4511.717924,444.123565,-8503.660028,-592.164754
4511.718249,1110.308913,-9039.926876,-814.226536
4511.718573,666.185348,-8580.269578,-666.185348
4511.718897,740.205942,-8427.050478,-962.267725
4511.719222,888.247130,-8733.488677,-592.164754
4511.719546,444.123565,-8733.488677,-814.226536
4511.719870,666.185348,-8580.269578,-888.247130
4511.720195,296.082377,-8427.050478,-518.144159
4511.720519,148.041188,-8886.707777,-592.164754
4511.720843,592.164754,-8427.050478,-518.144159
4511.721168,666.185348,-8656.879127,-296.082377
4511.721492,518.144159,-8656.879127,-518.144159
4511.721816,444.123565,-8273.831378,-592.164754
4511.722141,518.144159,-8810.098227,-592.164754
4511.722465,518.144159,-8886.707777,-666.185348
4511.722790,518.144159,-8503.660028,-370.102971
4511.723114,444.123565,-8810.098227,-444.123565
4511.723438,444.123565,-8350.440928,-296.082377
4511.723763,444.123565,-9422.974625,0.000000
4511.724087,814.226536,-8656.879127,-296.082377
4511.724411,592.164754,-8427.050478,-222.061783
4511.724736,296.082377,-8580.269578,-222.061783
4511.725060,148.041188,-8427.050478,-222.061783
4511.725384,222.061783,-8120.612279,-444.123565
4511.725709,296.082377,-8427.050478,-518.144159
4511.726033,444.123565,-8350.440928,-148.041188
4511.726357,296.082377,-8427.050478,-148.041188
4511.726682,592.164754,-8273.831378,-370.102971
4511.727006,592.164754,-8350.440928,-518.144159
4511.727330,666.185348,-8273.831378,-444.123565
4511.727655,740.205942,-8656.879127,-370.102971
4511.727979,518.144159,-8273.831378,-370.102971
4511.728304,592.164754,-8350.440928,-592.164754
4511.728628,444.123565,-8503.660028,-370.102971
4511.728952,592.164754,-8503.660028,-370.102971
4511.729277,148.041188,-8427.050478,-370.102971
4511.729601,444.123565,-8503.660028,-370.102971
4511.729925,0.000000,-8656.879127,-222.061783
4511.730250,0.000000,-8580.269578,-222.061783
4511.730574,296.082377,-8503.660028,-296.082377
4511.730898,296.082377,-9193.145976,-592.164754
4511.731223,296.082377,-8503.660028,-296.082377
4511.731547,296.082377,-8350.440928,-296.082377
4511.731871,370.102971,-8810.098227,-592.164754
4511.732196,0.000000,-8810.098227,-444.123565
4511.732520,222.061783,-8810.098227,-370.102971
4511.732844,222.061783,-8503.660028,-148.041188
4511.733169,296.082377,-8733.488677,0.000000
4511.733493,296.082377,-8350.440928,-296.082377
4511.733817,518.144159,-8733.488677,148.041188
4511.734142,592.164754,-8810.098227,-370.102971
4511.734466,740.205942,-8886.707777,-592.164754
4511.734791,888.247130,-8273.831378,-296.082377
4511.735115,814.226536,-8503.660028,0.000000
4511.735439,370.102971,-8580.269578,-518.144159
4511.735764,444.123565,-8733.488677,-370.102971
4511.736088,370.102971,-8580.269578,-518.144159
4511.736412,370.102971,-8810.098227,-296.082377
4511.736737,444.123565,-8886.707777,-222.061783
4511.737061,444.123565,-8580.269578,-370.102971
4511.737385,592.164754,-8656.879127,-592.164754
4511.737710,592.164754,-8733.488677,-666.185348
4511.738034,1110.308913,-9116.536426,-444.123565
4511.738358,740.205942,-8273.831378,-444.123565
4511.738683,592.164754,-8733.488677,-814.226536
4511.739007,370.102971,-8656.879127,-518.144159
4511.739331,444.123565,-8733.488677,-518.144159
4511.739656,666.185348,-9116.536426,-592.164754
4511.739980,444.123565,-8733.488677,-74.020594
4511.740305,444.123565,-8656.879127,-370.102971
4511.740629,740.205942,-8656.879127,-296.082377
4511.740953,444.123565,-8503.660028,-296.082377
4511.741278,814.226536,-8810.098227,-518.144159
4511.741602,518.144159,-8427.050478,-518.144159
4511.741926,592.164754,-8580.269578,-518.144159
4511.742251,814.226536,-8427.050478,-518.144159
4511.742575,370.102971,-8580.269578,-518.144159
4511.742899,666.185348,-8656.879127,-518.144159
4511.743224,666.185348,-8886.707777,-592.164754
4511.743548,518.144159,-8810.098227,74.020594
4511.743872,666.185348,-8810.098227,-444.123565
4511.744197,370.102971,-8427.050478,-370.102971
4511.744521,296.082377,-8427.050478,-296.082377
4511.744845,296.082377,-9193.145976,-444.123565
4511.745170,222.061783,-8350.440928,-148.041188
4511.745494,0.000000,-8197.221829,-592.164754
4511.745818,296.082377,-8810.098227,-666.185348
4511.746143,74.020594,-8427.050478,-740.205942
4511.746467,296.082377,-8044.002729,-222.061783
4511.746792,370.102971,-8580.269578,-518.144159
4511.747116,370.102971,-8810.098227,-148.041188
4511.747440,666.185348,-8503.660028,-444.123565
4511.747765,444.123565,-8350.440928,-370.102971
4511.748089,370.102971,-8273.831378,-592.164754
4511.748413,370.102971,-8963.317327,-296.082377
4511.748738,592.164754,-8350.440928,-370.102971
4511.749062,222.061783,-8580.269578,-444.123565
4511.749386,666.185348,-8044.002729,-296.082377
4511.749711,518.144159,-8503.660028,-148.041188
4511.750035,666.185348,-8733.488677,0.000000
4511.750359,518.144159,-8503.660028,0.000000
4511.750684,962.267725,-8503.660028,0.000000
4511.751008,592.164754,-8427.050478,-222.061783
4511.751332,370.102971,-8656.879127,-148.041188
4511.751657,296.082377,-8580.269578,-370.102971
4511.751981,444.123565,-8656.879127,-148.041188
4511.752305,222.061783,-8427.050478,-148.041188
4511.752630,148.041188,-8886.707777,0.000000
4511.752954,444.123565,-8503.660028,0.000000
4511.753279,518.144159,-8503.660028,0.000000
4511.753603,740.205942,-8580.269578,0.000000
4511.753927,296.082377,-8503.660028,0.000000
4511.754252,592.164754,-8656.879127,-148.041188
4511.754576,296.082377,-8580.269578,-370.102971
4511.754900,518.144159,-8503.660028,-148.041188
4511.755225,370.102971,-8810.098227,-444.123565
4511.755549,518.144159,-8503.660028,0.000000
4511.755873,148.041188,-8427.050478,-222.061783
4511.756198,296.082377,-8580.269578,-222.061783
4511.756522,814.226536,-8503.660028,74.020594
4511.756846,666.185348,-8503.660028,-296.082377
4511.757171,740.205942,-8580.269578,-444.123565
4511.757495,592.164754,-8886.707777,0.000000
4511.757819,592.164754,-8503.660028,-592.164754
4511.758144,222.061783,-8503.660028,-370.102971
4511.758468,222.061783,-8810.098227,-444.123565
4511.758793,0.000000,-8733.488677,0.000000
4511.759117,296.082377,-8120.612279,222.061783
4511.759441,148.041188,-8580.269578,-222.061783
4511.759766,148.041188,-8580.269578,-222.061783
4511.760090,222.061783,-8503.660028,-296.082377
4511.760414,296.082377,-8580.269578,-296.082377
4511.760739,370.102971,-8656.879127,-370.102971
4511.761063,370.102971,-8810.098227,-148.041188
4511.761387,296.082377,-8886.707777,-296.082377
4511.761712,296.082377,-8656.879127,0.000000
4511.762036,666.185348,-9499.584175,-518.144159
4511.762360,444.123565,-8733.488677,-222.061783
4511.762685,518.144159,-8580.269578,-74.020594
4511.763009,296.082377,-8503.660028,-148.041188
4511.763333,444.123565,-8733.488677,-296.082377
4511.763658,518.144159,-8810.098227,-222.061783
4511.763982,296.082377,-8656.879127,-148.041188
4511.764306,148.041188,-8427.050478,-148.041188
4511.764631,370.102971,-8810.098227,-296.082377
4511.764955,222.061783,-8580.269578,0.000000
4511.765280,222.061783,-8580.269578,-296.082377
4511.765604,370.102971,-8810.098227,-444.123565
4511.765928,444.123565,-8427.050478,-370.102971
4511.766253,444.123565,-8656.879127,-370.102971
4511.766577,296.082377,-8656.879127,-444.123565
4511.766901,370.102971,-8427.050478,-444.123565
4511.767226,518.144159,-8503.660028,-296.082377
4511.767550,148.041188,-8810.098227,-148.041188
4511.767874,592.164754,-8503.660028,-148.041188
4511.768199,666.185348,-8656.879127,0.000000
4511.768523,370.102971,-8580.269578,0.000000
4511.768847,296.082377,-8580.269578,0.000000
4511.769172,370.102971,-8197.221829,-222.061783
4511.769496,518.144159,-8273.831378,74.020594
4511.769820,296.082377,-8273.831378,-222.061783
4511.770145,0.000000,-8580.269578,296.082377
4511.770469,222.061783,-8044.002729,148.041188
4511.770794,74.020594,-8273.831378,148.041188
4511.771118,148.041188,-8503.660028,148.041188
4511.771442,370.102971,-8197.221829,296.082377
4511.771767,296.082377,-8427.050478,222.061783
4511.772091,148.041188,-8044.002729,0.000000
4511.772415,296.082377,-8350.440928,222.061783
4511.772740,296.082377,-8273.831378,222.061783
4511.773064,222.061783,-8503.660028,222.061783
4511.773388,370.102971,-7814.174080,148.041188
4511.773713,518.144159,-8580.269578,222.061783
4511.774037,296.082377,-8273.831378,0.000000
4511.774361,444.123565,-8503.660028,0.000000
4511.774686,296.082377,-8503.660028,222.061783
4511.775010,444.123565,-8886.707777,0.000000
4511.775334,148.041188,-8427.050478,0.000000
4511.775659,518.144159,-8656.879127,0.000000
4511.775983,370.102971,-8886.707777,-222.061783
4511.776307,666.185348,-9039.926876,0.000000
4511.776632,444.123565,-8427.050478,-148.041188
4511.776956,370.102971,-8580.269578,-222.061783
4511.777281,370.102971,-8810.098227,0.000000
4511.777605,666.185348,-9422.974625,-296.082377
4511.777929,518.144159,-8656.879127,-148.041188
4511.778254,444.123565,-8963.317327,-222.061783
4511.778578,370.102971,-8810.098227,0.000000
4511.778902,370.102971,-8656.879127,0.000000
4511.779227,148.041188,-8427.050478,0.000000
4511.779551,444.123565,-9116.536426,-296.082377
4511.779875,296.082377,-8503.660028,-148.041188
4511.780200,370.102971,-8580.269578,0.000000
4511.780524,444.123565,-8273.831378,-222.061783
4511.780848,666.185348,-8503.660028,-370.102971
4511.781173,444.123565,-8503.660028,-370.102971
4511.781497,666.185348,-8580.269578,0.000000
4511.781821,74.020594,-8580.269578,-666.185348
4511.782146,592.164754,-8656.879127,-296.082377
4511.782470,444.123565,-8120.612279,-518.144159
4511.782794,222.061783,-8733.488677,-222.061783
4511.783119,444.123565,-8503.660028,-592.164754
4511.783443,666.185348,-8733.488677,-148.041188
4511.783768,222.061783,-8503.660028,-592.164754
4511.784092,518.144159,-8886.707777,-296.082377
4511.784416,518.144159,-8503.660028,-592.164754
4511.784741,814.226536,-9116.536426,-148.041188
4511.785065,370.102971,-8503.660028,-518.144159
4511.785389,222.061783,-8580.269578,-370.102971
4511.785714,222.061783,-8503.660028,-370.102971
4511.786038,370.102971,-8886.707777,-592.164754
4511.786362,518.144159,-9039.926876,-518.144159
4511.786687,666.185348,-8580.269578,-518.144159
4511.787011,296.082377,-8503.660028,0.000000
4511.787335,444.123565,-8656.879127,-148.041188
4511.787660,370.102971,-8886.707777,0.000000
4511.787984,592.164754,-8427.050478,0.000000
4511.788308,370.102971,-8580.269578,0.000000
4511.788633,222.061783,-8580.269578,0.000000
4511.788957,74.020594,-8963.317327,444.123565
4511.789282,0.000000,-8810.098227,0.000000
4511.789606,222.061783,-8580.269578,-296.082377
4511.789930,74.020594,-8656.879127,-148.041188
4511.790255,518.144159,-8580.269578,0.000000
4511.790579,518.144159,-8197.221829,0.000000
4511.790903,518.144159,-8580.269578,-370.102971
4511.791228,444.123565,-8273.831378,-148.041188
4511.791552,666.185348,-8580.269578,-370.102971
4511.791876,592.164754,-8963.317327,-296.082377
4511.792201,518.144159,-8503.660028,-222.061783
4511.792525,370.102971,-8963.317327,0.000000
4511.792849,0.000000,-8427.050478,-444.123565
4511.793174,1110.308913,-8656.879127,-814.226536
4511.793498,592.164754,-8733.488677,-444.123565
4511.793822,444.123565,-8503.660028,-296.082377
4511.794147,296.082377,-8580.269578,-148.041188
4511.794471,518.144159,-8503.660028,-666.185348
4511.794795,814.226536,-8733.488677,-444.123565
4511.795120,814.226536,-8580.269578,-666.185348
4511.795444,444.123565,-8810.098227,-444.123565
4511.795769,518.144159,-8580.269578,-518.144159
4511.796093,518.144159,-8503.660028,-666.185348
4511.796417,592.164754,-8656.879127,-518.144159
4511.796742,444.123565,-8580.269578,-444.123565
4511.797066,592.164754,-8580.269578,-444.123565
4511.797390,1036.288319,-8427.050478,-222.061783
4511.797715,518.144159,-8886.707777,-222.061783
4511.798039,370.102971,-8580.269578,-148.041188
4511.798363,814.226536,-8580.269578,-296.082377
4511.798688,740.205942,-8580.269578,-444.123565
4511.799012,370.102971,-8656.879127,0.000000
4511.799336,370.102971,-8656.879127,-222.061783
4511.799661,296.082377,-8810.098227,0.000000
4511.799985,444.123565,-8503.660028,-444.123565
4511.800309,888.247130,-8427.050478,-74.020594
4511.800634,740.205942,-8427.050478,0.000000
4511.800958,518.144159,-8427.050478,-222.061783
4511.801283,740.205942,-8580.269578,-296.082377
4511.801607,666.185348,-8963.317327,0.000000
4511.801931,592.164754,-8810.098227,-296.082377
4511.802256,148.041188,-8733.488677,-74.020594
4511.802580,222.061783,-8886.707777,0.000000
4511.802904,370.102971,-8503.660028,0.000000
4511.803229,666.185348,-8886.707777,-296.082377
4511.803553,222.061783,-8350.440928,-370.102971
4511.803877,370.102971,-8580.269578,-222.061783
4511.804202,592.164754,-8656.879127,0.000000
4511.804526,666.185348,-8886.707777,-444.123565
4511.804850,444.123565,-8810.098227,-222.061783
4511.805175,444.123565,-8427.050478,-518.144159
4511.805499,444.123565,-8656.879127,-222.061783
4511.805823,592.164754,-8350.440928,-148.041188
4511.806148,444.123565,-8580.269578,0.000000
4511.806472,148.041188,-8580.269578,-296.082377
4511.806796,296.082377,-8580.269578,0.000000
4511.807121,592.164754,-8656.879127,-592.164754
4511.807445,740.205942,-8886.707777,-222.061783
4511.807770,666.185348,-8427.050478,-370.102971
4511.808094,222.061783,-8733.488677,0.000000
4511.808418,518.144159,-8197.221829,-444.123565
4511.808743,740.205942,-8273.831378,-222.061783
4511.809067,222.061783,-8350.440928,-222.061783
4511.809391,222.061783,-8580.269578,-518.144159
4511.809716,370.102971,-8503.660028,-666.185348
4511.810040,518.144159,-8427.050478,-518.144159
4511.810364,370.102971,-8656.879127,-370.102971
4511.810689,666.185348,-8656.879127,-592.164754
4511.811013,592.164754,-8503.660028,-740.205942
4511.811337,370.102971,-8503.660028,-444.123565
4511.811662,222.061783,-8503.660028,-370.102971
4511.811986,296.082377,-8810.098227,-592.164754
4511.812310,370.102971,-8886.707777,-740.205942
4511.812635,148.041188,-8810.098227,-1184.329507
4511.812959,444.123565,-9193.145976,-296.082377
4511.813284,222.061783,-8733.488677,-814.226536
4511.813608,296.082377,-8656.879127,-814.226536
4511.813932,592.164754,-8503.660028,-740.205942
4511.814257,444.123565,-9116.536426,-962.267725
4511.814581,666.185348,-8427.050478,-740.205942
4511.814905,518.144159,-8503.660028,-962.267725
4511.815230,592.164754,-8427.050478,-814.226536
4511.815554,444.123565,-8580.269578,-962.267725
4511.815878,888.247130,-8810.098227,-1258.350101
4511.816203,444.123565,-8733.488677,-666.185348
4511.816527,370.102971,-8656.879127,-814.226536
4511.816851,518.144159,-8656.879127,-888.247130
4511.817176,740.205942,-8886.707777,-592.164754
4511.817500,370.102971,-8886.707777,-518.144159
4511.817824,592.164754,-8733.488677,-666.185348
4511.818149,666.185348,-8503.660028,-592.164754
4511.818473,518.144159,-8733.488677,-666.185348
4511.818797,518.144159,-8810.098227,-666.185348
4511.819122,592.164754,-8427.050478,-814.226536
4511.819446,370.102971,-8427.050478,-592.164754
4511.819771,592.164754,-8810.098227,-444.123565
4511.820095,962.267725,-8810.098227,-370.102971
4511.820419,666.185348,-8656.879127,-518.144159
4511.820744,962.267725,-8580.269578,-666.185348
4511.821068,740.205942,-8963.317327,-740.205942
4511.821392,962.267725,-8580.269578,-592.164754
4511.821717,740.205942,-8273.831378,-666.185348
4511.822041,592.164754,-8963.317327,-740.205942
4511.822365,592.164754,-8733.488677,-592.164754
4511.822690,592.164754,-8656.879127,-444.123565
4511.823014,666.185348,-8656.879127,-592.164754
4511.823338,296.082377,-8810.098227,-222.061783
4511.823663,370.102971,-8810.098227,-444.123565
4511.823987,370.102971,-8580.269578,-518.144159
4511.824311,148.041188,-8273.831378,-444.123565
4511.824636,296.082377,-8427.050478,-370.102971
4511.824960,370.102971,-8580.269578,-222.061783
4511.825284,296.082377,-8427.050478,-222.061783
4511.825609,222.061783,-8427.050478,-148.041188
4511.825933,222.061783,-8273.831378,-296.082377
4511.826257,370.102971,-8733.488677,-296.082377
4511.826582,222.061783,-8886.707777,-370.102971
4511.826906,148.041188,-8503.660028,0.000000
4511.827230,148.041188,-8350.440928,-296.082377
4511.827555,222.061783,-8810.098227,-222.061783
4511.827879,370.102971,-8580.269578,-518.144159
4511.828203,222.061783,-8580.269578,-370.102971
4511.828528,74.020594,-7584.345430,-296.082377
4511.828852,444.123565,-8580.269578,-518.144159
4511.829176,296.082377,-8427.050478,-518.144159
4511.829501,296.082377,-8733.488677,-740.205942
4511.829825,518.144159,-8580.269578,-740.205942
4511.830149,222.061783,-8273.831378,-370.102971
4511.830474,296.082377,-8350.440928,-666.185348
4511.830798,518.144159,-8580.269578,-444.123565
4511.831122,222.061783,-8427.050478,-592.164754
4511.831447,814.226536,-8963.317327,-666.185348
4511.831771,518.144159,-8503.660028,-666.185348
4511.832095,370.102971,-8427.050478,-444.123565
4511.832420,222.061783,-8886.707777,-518.144159
4511.832744,370.102971,-8273.831378,-888.247130
4511.833068,444.123565,-8733.488677,-592.164754
4511.833393,296.082377,-8503.660028,-370.102971
4511.833717,518.144159,-8733.488677,-74.020594
4511.834042,370.102971,-8656.879127,-296.082377
4511.834366,666.185348,-8656.879127,-370.102971
4511.834690,666.185348,-8580.269578,-592.164754
4511.835015,592.164754,-8656.879127,-518.144159
4511.835339,740.205942,-8427.050478,-370.102971
4511.835663,592.164754,-8197.221829,0.000000
4511.835988,666.185348,-8733.488677,-518.144159
4511.836312,666.185348,-8733.488677,-518.144159
4511.836636,592.164754,-8656.879127,-518.144159
4511.836961,518.144159,-8580.269578,-814.226536
4511.837285,444.123565,-8656.879127,-444.123565
4511.837609,296.082377,-8733.488677,-444.123565
4511.837934,370.102971,-8580.269578,-370.102971
4511.838258,444.123565,-8580.269578,-666.185348
4511.838582,370.102971,-8733.488677,-740.205942
4511.838907,444.123565,-8044.002729,-592.164754
4511.839231,592.164754,-8810.098227,-666.185348
4511.839555,222.061783,-8503.660028,-518.144159
4511.839880,814.226536,-8503.660028,-444.123565
4511.840204,518.144159,-8810.098227,-444.123565
4511.840528,518.144159,-8656.879127,-518.144159
4511.840853,370.102971,-8427.050478,-370.102971
4511.841177,518.144159,-9193.145976,-740.205942
4511.841501,666.185348,-8427.050478,-444.123565
4511.841826,814.226536,-8810.098227,-592.164754
4511.842150,592.164754,-8886.707777,-296.082377
4511.842474,592.164754,-8580.269578,-444.123565
4511.842799,592.164754,-8656.879127,-666.185348
4511.843123,222.061783,-8733.488677,-592.164754
4511.843447,222.061783,-8503.660028,-222.061783
4511.843772,444.123565,-8656.879127,-592.164754
4511.844096,370.102971,-9576.193725,148.041188
4511.844420,444.123565,-8656.879127,-370.102971
4511.844745,370.102971,-8886.707777,-296.082377
4511.845069,740.205942,-8273.831378,-444.123565
4511.845393,296.082377,-9116.536426,-370.102971
4511.845718,296.082377,-8427.050478,-444.123565
4511.846042,148.041188,-8503.660028,-222.061783
4511.846366,74.020594,-8656.879127,-370.102971
4511.846691,296.082377,-8580.269578,-444.123565
4511.847015,518.144159,-8656.879127,-666.185348
4511.847339,444.123565,-8503.660028,-592.164754
4511.847664,74.020594,-8733.488677,-296.082377
4511.847988,296.082377,-8580.269578,-518.144159
4511.848312,518.144159,-8503.660028,-444.123565
4511.848637,518.144159,-8503.660028,-740.205942
4511.848961,370.102971,-8656.879127,-370.102971
4511.849286,518.144159,-8427.050478,-370.102971
4511.849610,592.164754,-8273.831378,-444.123565
4511.849934,370.102971,-8580.269578,-666.185348
4511.850259,592.164754,-8427.050478,-518.144159
4511.850583,518.144159,-8350.440928,-444.123565
4511.850907,444.123565,-8580.269578,-444.123565
4511.851232,592.164754,-8350.440928,-666.185348
4511.851556,370.102971,-8656.879127,-518.144159
4511.851880,222.061783,-8427.050478,-370.102971
4511.852205,370.102971,-8427.050478,-370.102971
4511.852529,370.102971,-8503.660028,0.000000
4511.852853,592.164754,-8656.879127,-222.061783
4511.853178,370.102971,-8503.660028,-370.102971
4511.853502,444.123565,-8503.660028,-296.082377
4511.853826,740.205942,-8427.050478,-222.061783
4511.854151,592.164754,-8656.879127,-148.041188
4511.854475,222.061783,-8427.050478,-222.061783
4511.854799,518.144159,-8503.660028,-222.061783
4511.855124,296.082377,-8350.440928,-592.164754
4511.855448,1258.350101,-8656.879127,-296.082377
4511.855772,370.102971,-8503.660028,-444.123565
4511.856097,592.164754,-8810.098227,-148.041188
4511.856421,444.123565,-8427.050478,-370.102971
4511.856745,444.123565,-9422.974625,296.082377
4511.857070,296.082377,-8503.660028,-370.102971
4511.857394,148.041188,-8810.098227,-370.102971
4511.857718,0.000000,-8656.879127,-296.082377
4511.858043,0.000000,-8656.879127,0.000000
4511.858367,370.102971,-8580.269578,-518.144159
4511.858691,370.102971,-8963.317327,-370.102971
4511.859016,148.041188,-8197.221829,-148.041188
4511.859340,444.123565,-9039.926876,0.000000
4511.859664,1036.288319,-8580.269578,-222.061783
4511.859989,296.082377,-8963.317327,0.000000
4511.860313,148.041188,-8733.488677,74.020594
4511.860637,0.000000,-8810.098227,0.000000
4511.860962,370.102971,-8733.488677,0.000000
4511.861286,518.144159,-8886.707777,0.000000
4511.861610,370.102971,-8810.098227,-148.041188
4511.861935,296.082377,-8580.269578,0.000000
4511.862259,296.082377,-8503.660028,0.000000
4511.862583,518.144159,-8733.488677,-296.082377
4511.862908,592.164754,-8886.707777,-518.144159
4511.863232,370.102971,-8273.831378,0.000000
4511.863556,296.082377,-8656.879127,0.000000
4511.863881,814.226536,-8580.269578,74.020594
4511.864205,444.123565,-8273.831378,0.000000
4511.864529,370.102971,-8427.050478,-222.061783
4511.864854,518.144159,-8656.879127,-222.061783
4511.865178,518.144159,-8580.269578,0.000000
4511.865503,370.102971,-8503.660028,-148.041188
4511.865827,296.082377,-8427.050478,-222.061783
4511.866151,222.061783,-8503.660028,-296.082377
4511.866476,518.144159,-8733.488677,-296.082377
4511.866800,148.041188,-8044.002729,74.020594
4511.867124,592.164754,-8733.488677,-444.123565
4511.867449,296.082377,-8503.660028,-296.082377
4511.867773,592.164754,-8197.221829,-444.123565
4511.868097,592.164754,-8273.831378,74.020594
4511.868422,592.164754,-8580.269578,0.000000
4511.868746,666.185348,-8580.269578,-148.041188
4511.869070,740.205942,-8427.050478,0.000000
4511.869395,518.144159,-8810.098227,-222.061783
4511.869719,592.164754,-8350.440928,-444.123565
4511.870043,444.123565,-8427.050478,-296.082377
4511.870368,148.041188,-8273.831378,-222.061783
4511.870692,370.102971,-8810.098227,0.000000
4511.871016,814.226536,-8350.440928,-518.144159
4511.871341,370.102971,-8810.098227,-148.041188
4511.871665,296.082377,-8427.050478,-370.102971
4511.871989,518.144159,-8580.269578,-222.061783
4511.872314,592.164754,-8733.488677,-444.123565
4511.872638,370.102971,-8503.660028,-222.061783
4511.872962,296.082377,-8427.050478,-296.082377
4511.873287,444.123565,-8580.269578,-444.123565
4511.873611,666.185348,-8197.221829,-296.082377
4511.873935,296.082377,-8580.269578,-370.102971
4511.874260,296.082377,-8656.879127,-148.041188
4511.874584,370.102971,-8350.440928,-148.041188
4511.874908,444.123565,-8656.879127,-370.102971
4511.875233,666.185348,-8580.269578,-444.123565
4511.875557,296.082377,-8810.098227,-222.061783
4511.875881,222.061783,-8656.879127,-222.061783
4511.876206,444.123565,-8656.879127,-222.061783
4511.876530,666.185348,-8810.098227,0.000000
4511.876854,444.123565,-8733.488677,-296.082377
4511.877179,370.102971,-8503.660028,-148.041188
4511.877503,666.185348,-8886.707777,0.000000
4511.877827,296.082377,-8580.269578,-370.102971
4511.878152,814.226536,-8427.050478,0.000000
4511.878476,518.144159,-8733.488677,-370.102971
4511.878800,296.082377,-8427.050478,0.000000
4511.879125,222.061783,-8733.488677,0.000000
4511.879449,0.000000,-8580.269578,-518.144159
4511.879773,296.082377,-8810.098227,0.000000
4511.880098,296.082377,-8580.269578,-222.061783
4511.880422,592.164754,-8810.098227,0.000000
4511.880747,74.020594,-8044.002729,0.000000
4511.881071,222.061783,-9116.536426,0.000000
4511.881395,74.020594,-8656.879127,0.000000
4511.881720,518.144159,-8733.488677,-222.061783
4511.882044,296.082377,-8580.269578,-148.041188
4511.882368,296.082377,-8273.831378,-444.123565
4511.882693,370.102971,-8580.269578,0.000000
4511.883017,444.123565,-8503.660028,-222.061783
4511.883341,444.123565,-8273.831378,-148.041188
4511.883666,518.144159,-8120.612279,0.000000
4511.883990,592.164754,-8350.440928,148.041188
4511.884314,444.123565,-8503.660028,-222.061783
4511.884639,444.123565,-8733.488677,0.000000
4511.884963,888.247130,-8427.050478,-296.082377
4511.885287,444.123565,-8656.879127,0.000000
4511.885612,222.061783,-8427.050478,0.000000
4511.885936,370.102971,-8580.269578,-148.041188
4511.886260,666.185348,-8656.879127,-222.061783
4511.886585,740.205942,-8350.440928,0.000000
4511.886909,444.123565,-8580.269578,-370.102971
4511.887233,814.226536,-8656.879127,-296.082377
4511.887558,592.164754,-8350.440928,-296.082377
4511.887882,518.144159,-8350.440928,-370.102971
4511.888206,592.164754,-8580.269578,-444.123565
4511.888531,740.205942,-8733.488677,-222.061783
4511.888855,444.123565,-8503.660028,-518.144159
4511.889179,518.144159,-8656.879127,-148.041188
4511.889504,518.144159,-8427.050478,-296.082377
4511.889828,296.082377,-8580.269578,-296.082377
4511.890152,370.102971,-8427.050478,-444.123565
4511.890477,296.082377,-8886.707777,-370.102971
4511.890801,222.061783,-8273.831378,-148.041188
4511.891125,148.041188,-8503.660028,-296.082377
4511.891450,518.144159,-8886.707777,-444.123565
4511.891774,444.123565,-8427.050478,-370.102971
4511.892098,296.082377,-8656.879127,-370.102971
4511.892423,74.020594,-8580.269578,-296.082377
4511.892747,518.144159,-8733.488677,-148.041188
4511.893071,444.123565,-8656.879127,-148.041188
4511.893396,296.082377,-8580.269578,-296.082377
4511.893720,148.041188,-8427.050478,-444.123565
4511.894044,518.144159,-8580.269578,-148.041188
4511.894369,592.164754,-8503.660028,-222.061783
4511.894693,296.082377,-8733.488677,0.000000
4511.895017,222.061783,-8580.269578,-888.247130
4511.895342,222.061783,-8810.098227,-296.082377
4511.895666,222.061783,-8580.269578,-518.144159
4511.895990,370.102971,-8656.879127,-444.123565
4511.896315,296.082377,-8733.488677,-592.164754
4511.896639,370.102971,-8350.440928,-518.144159
4511.896964,592.164754,-8580.269578,-444.123565
4511.897288,518.144159,-8656.879127,-370.102971
4511.897612,814.226536,-8580.269578,-444.123565
4511.897937,888.247130,-8273.831378,-222.061783
4511.898261,444.123565,-8197.221829,-296.082377
4511.898585,518.144159,-8350.440928,-296.082377
4511.898910,518.144159,-8427.050478,-296.082377
4511.899234,444.123565,-9116.536426,-222.061783
4511.899558,296.082377,-8886.707777,-148.041188
4511.899883,444.123565,-8656.879127,148.041188
4511.900207,518.144159,-8656.879127,-222.061783
4511.900531,222.061783,-9116.536426,-148.041188
4511.900856,518.144159,-8886.707777,0.000000
4511.901180,592.164754,-8656.879127,-222.061783
4511.901504,740.205942,-8580.269578,-148.041188
4511.901829,518.144159,-8580.269578,-370.102971
4511.902153,444.123565,-8197.221829,-148.041188
4511.902477,666.185348,-8503.660028,0.000000
4511.902802,592.164754,-8580.269578,-222.061783
4511.903126,370.102971,-8427.050478,-222.061783
4511.903450,518.144159,-9039.926876,148.041188
4511.903775,444.123565,-8427.050478,-148.041188
4511.904099,444.123565,-8427.050478,0.000000
4511.904423,296.082377,-8580.269578,-222.061783
4511.904748,518.144159,-8273.831378,0.000000
4511.905072,666.185348,-8580.269578,0.000000
4511.905396,370.102971,-8733.488677,0.000000
4511.905721,666.185348,-8427.050478,-148.041188
4511.906045,444.123565,-8503.660028,-370.102971
4511.906369,444.123565,-8427.050478,-444.123565
4511.906694,296.082377,-8656.879127,0.000000
4511.907018,518.144159,-8656.879127,-296.082377
4511.907342,222.061783,-8580.269578,-222.061783
4511.907667,370.102971,-8580.269578,-296.082377
4511.907991,592.164754,-9039.926876,-148.041188
4511.908315,592.164754,-8273.831378,-148.041188
4511.908640,666.185348,-8810.098227,0.000000
4511.908964,666.185348,-8656.879127,-222.061783
4511.909288,518.144159,-8580.269578,-518.144159
4511.909613,518.144159,-8503.660028,-666.185348
4511.909937,296.082377,-8810.098227,-222.061783
4511.910261,370.102971,-8963.317327,-148.041188
4511.910586,518.144159,-8886.707777,-444.123565
4511.910910,74.020594,-8580.269578,-296.082377
4511.911234,148.041188,-8963.317327,-518.144159
4511.911559,518.144159,-8503.660028,-518.144159
4511.911883,296.082377,-8886.707777,74.020594
4511.912208,296.082377,-8350.440928,-592.164754
4511.912532,444.123565,-8886.707777,-518.144159
4511.912856,444.123565,-8656.879127,-592.164754
4511.913181,222.061783,-8580.269578,-666.185348
4511.913505,148.041188,-8273.831378,-518.144159
4511.913829,74.020594,-8886.707777,-444.123565
4511.914154,148.041188,-8427.050478,-814.226536
4511.914478,0.000000,-8503.660028,-518.144159
4511.914802,518.144159,-8273.831378,-888.247130
4511.915127,666.185348,-8427.050478,-592.164754
4511.915451,518.144159,-8656.879127,-592.164754
4511.915775,518.144159,-8197.221829,-592.164754
4511.916100,518.144159,-8350.440928,-740.205942
4511.916424,592.164754,-8810.098227,-740.205942
4511.916748,444.123565,-8427.050478,-962.267725
4511.917073,518.144159,-8273.831378,-592.164754
4511.917397,444.123565,-8656.879127,-592.164754
4511.917721,814.226536,-8810.098227,-814.226536
4511.918046,518.144159,-8503.660028,-666.185348
4511.918370,518.144159,-8503.660028,-740.205942
4511.918694,444.123565,-8350.440928,-740.205942
4511.919019,518.144159,-9422.974625,-962.267725
4511.919343,444.123565,-8197.221829,-666.185348
4511.919667,518.144159,-8273.831378,-888.247130
4511.919992,296.082377,-8733.488677,-814.226536
4511.920316,296.082377,-8580.269578,-592.164754
4511.920640,444.123565,-8503.660028,-888.247130
4511.920965,222.061783,-8427.050478,-592.164754
4511.921289,592.164754,-8503.660028,-740.205942
4511.921613,740.205942,-8350.440928,-1036.288319
4511.921938,444.123565,-8733.488677,-518.144159
4511.922262,814.226536,-8044.002729,-592.164754
4511.922586,592.164754,-8427.050478,-814.226536
4511.922910,370.102971,-8350.440928,-666.185348
4511.923235,814.226536,-9039.926876,-592.164754
4511.923559,666.185348,-8427.050478,-666.185348
4511.923883,518.144159,-8580.269578,-592.164754
4511.924208,444.123565,-8656.879127,-518.144159
4511.924532,296.082377,-8733.488677,-370.102971
4511.924856,518.144159,-8733.488677,-370.102971
4511.925180,296.082377,-8580.269578,-222.061783
4511.925505,444.123565,-8427.050478,-296.082377
4511.925829,222.061783,-8503.660028,-222.061783
4511.926153,296.082377,-8427.050478,0.000000
4511.926478,296.082377,-8503.660028,-370.102971
4511.926802,370.102971,-8656.879127,-222.061783
4511.927126,148.041188,-8503.660028,0.000000
4511.927450,148.041188,-8427.050478,0.000000
4511.927775,296.082377,-8656.879127,-296.082377
4511.928099,296.082377,-8427.050478,-222.061783
4511.928423,444.123565,-8733.488677,-370.102971
4511.928747,518.144159,-8580.269578,-444.123565
4511.929072,814.226536,-8656.879127,-592.164754
4511.929396,444.123565,-8503.660028,-592.164754
4511.929720,148.041188,-8656.879127,-666.185348
4511.930045,296.082377,-8886.707777,-222.061783
4511.930369,666.185348,-8810.098227,-666.185348
4511.930693,370.102971,-8733.488677,0.000000
4511.931017,518.144159,-8197.221829,-370.102971
4511.931342,444.123565,-8733.488677,-296.082377
4511.931666,592.164754,-8886.707777,-296.082377
4511.931990,666.185348,-8810.098227,-370.102971
4511.932315,740.205942,-8503.660028,-296.082377
4511.932639,592.164754,-8350.440928,-148.041188
4511.932963,370.102971,-8580.269578,0.000000
4511.933287,444.123565,-8656.879127,0.000000
4511.933612,518.144159,-8886.707777,74.020594
4511.933936,444.123565,-8580.269578,0.000000
4511.934260,74.020594,-8580.269578,222.061783
4511.934585,222.061783,-8886.707777,592.164754
4511.934909,296.082377,-8580.269578,0.000000
4511.935233,296.082377,-8503.660028,0.000000
4511.935557,444.123565,-8656.879127,-296.082377
4511.935882,740.205942,-8503.660028,-222.061783
4511.936206,518.144159,-8580.269578,-222.061783
4511.936530,444.123565,-8656.879127,-518.144159
4511.936855,222.061783,-8503.660028,-296.082377
4511.937179,814.226536,-8273.831378,-444.123565
4511.937503,1110.308913,-8810.098227,-296.082377
4511.937827,518.144159,-8580.269578,-296.082377
4511.938152,814.226536,-8733.488677,-296.082377
4511.938476,296.082377,-8580.269578,-666.185348
4511.938800,518.144159,-9269.755526,-370.102971
4511.939125,370.102971,-8733.488677,-740.205942
4511.939449,296.082377,-8656.879127,-592.164754
4511.939773,222.061783,-8427.050478,-1036.288319
4511.940097,370.102971,-8886.707777,-814.226536
4511.940422,370.102971,-8886.707777,-592.164754
4511.940746,444.123565,-8963.317327,-1036.288319
4511.941070,370.102971,-8350.440928,-962.267725
4511.941395,370.102971,-8580.269578,-666.185348
4511.941719,296.082377,-9346.365076,-296.082377
4511.942043,296.082377,-8580.269578,-888.247130
4511.942367,222.061783,-8580.269578,-666.185348
4511.942692,370.102971,-8656.879127,-666.185348
4511.943016,592.164754,-8733.488677,-592.164754
4511.943340,370.102971,-8886.707777,-740.205942
4511.943665,222.061783,-8503.660028,-666.185348
4511.943989,444.123565,-7967.393179,-666.185348
4511.944313,666.185348,-8580.269578,-1110.308913
4511.944637,222.061783,-8427.050478,-740.205942
4511.944962,222.061783,-8350.440928,-740.205942
4511.945286,296.082377,-8656.879127,-888.247130
4511.945610,444.123565,-8120.612279,-962.267725
4511.945934,814.226536,-8886.707777,-1258.350101
4511.946259,518.144159,-8810.098227,-1036.288319
4511.946583,518.144159,-8273.831378,-814.226536
4511.946907,296.082377,-8503.660028,-888.247130
4511.947232,444.123565,-8427.050478,-666.185348
4511.947556,518.144159,-8580.269578,-518.144159
4511.947880,592.164754,-8733.488677,-666.185348
4511.948204,444.123565,-8580.269578,-518.144159
4511.948529,666.185348,-8963.317327,-518.144159
4511.948853,444.123565,-8733.488677,-370.102971
4511.949177,370.102971,-8810.098227,-296.082377
4511.949502,296.082377,-8810.098227,-518.144159
4511.949826,518.144159,-8350.440928,-296.082377
4511.950150,962.267725,-8427.050478,-296.082377
4511.950474,444.123565,-8656.879127,-370.102971
4511.950799,740.205942,-8427.050478,-296.082377
4511.951123,592.164754,-8656.879127,0.000000
4511.951447,592.164754,-8503.660028,0.000000
4511.951772,592.164754,-8427.050478,148.041188
4511.952096,296.082377,-8733.488677,0.000000
4511.952420,296.082377,-8656.879127,0.000000
4511.952744,296.082377,-8656.879127,-222.061783
4511.953069,740.205942,-8733.488677,148.041188
4511.953393,592.164754,-8350.440928,0.000000
4511.953717,370.102971,-8886.707777,0.000000
4511.954042,370.102971,-8733.488677,0.000000
4511.954366,222.061783,-7967.393179,74.020594
4511.954690,814.226536,-8503.660028,-444.123565
4511.955014,370.102971,-8427.050478,-370.102971
4511.955339,444.123565,-8656.879127,0.000000
4511.955663,296.082377,-8733.488677,-444.123565
4511.955987,518.144159,-8580.269578,0.000000
4511.956312,444.123565,-8886.707777,-370.102971
4511.956636,592.164754,-9039.926876,-444.123565
4511.956960,666.185348,-8197.221829,-296.082377
4511.957284,814.226536,-8273.831378,-444.123565
4511.957609,666.185348,-8810.098227,-592.164754
4511.957933,444.123565,-8656.879127,-592.164754
4511.958257,148.041188,-8963.317327,-296.082377
4511.958582,666.185348,-8886.707777,-296.082377
4511.958906,0.000000,-8810.098227,-370.102971
4511.959230,74.020594,-8733.488677,-370.102971
4511.959554,0.000000,-8656.879127,-296.082377
4511.959879,222.061783,-8656.879127,-296.082377
4511.960203,592.164754,-8886.707777,-148.041188
4511.960527,370.102971,-8427.050478,-296.082377
4511.960852,518.144159,-8886.707777,0.000000
4511.961176,444.123565,-8656.879127,-296.082377
4511.961500,888.247130,-8733.488677,-666.185348
4511.961824,444.123565,-8503.660028,-148.041188
4511.962149,296.082377,-8580.269578,0.000000
4511.962473,222.061783,-8656.879127,-370.102971
4511.962797,148.041188,-7814.174080,-296.082377
4511.963122,518.144159,-8580.269578,-222.061783
4511.963446,370.102971,-8886.707777,-592.164754
4511.963770,444.123565,-8656.879127,0.000000
4511.964094,370.102971,-8273.831378,-518.144159
4511.964419,592.164754,-8350.440928,-740.205942
4511.964743,518.144159,-8350.440928,-740.205942
4511.965067,592.164754,-8810.098227,-740.205942
4511.965391,444.123565,-8350.440928,-444.123565
4511.965716,740.205942,-9269.755526,-592.164754
4511.966040,592.164754,-8580.269578,-740.205942
4511.966364,518.144159,-8503.660028,-444.123565
4511.966689,592.164754,-8733.488677,-740.205942
4511.967013,518.144159,-8580.269578,-370.102971
4511.967337,222.061783,-8503.660028,-444.123565
4511.967661,518.144159,-8580.269578,-296.082377
4511.967986,370.102971,-8580.269578,-592.164754
4511.968310,592.164754,-8656.879127,-444.123565
4511.968634,592.164754,-8580.269578,-444.123565
4511.968959,222.061783,-8427.050478,-148.041188
4511.969283,518.144159,-8733.488677,-296.082377
4511.969607,444.123565,-8503.660028,-518.144159
4511.969931,444.123565,-9039.926876,-592.164754
4511.970256,370.102971,-8503.660028,-222.061783
4511.970580,666.185348,-8350.440928,-296.082377
4511.970904,666.185348,-8273.831378,-222.061783
4511.971229,518.144159,-8580.269578,-222.061783
4511.971553,592.164754,-8503.660028,-444.123565
4511.971877,592.164754,-8656.879127,-222.061783
4511.972201,518.144159,-8580.269578,-444.123565
4511.972526,518.144159,-8656.879127,-296.082377
4511.972850,296.082377,-9116.536426,0.000000
4511.973174,148.041188,-8656.879127,0.000000
4511.973499,444.123565,-8656.879127,-296.082377
4511.973823,518.144159,-8580.269578,-666.185348
4511.974147,592.164754,-8810.098227,-148.041188
4511.974471,370.102971,-8427.050478,0.000000
4511.974796,222.061783,-8503.660028,-296.082377
4511.975120,592.164754,-8503.660028,-370.102971
4511.975444,518.144159,-8733.488677,-296.082377
4511.975769,444.123565,-8656.879127,0.000000
4511.976093,444.123565,-8580.269578,-148.041188
4511.976417,740.205942,-8580.269578,-222.061783
4511.976741,222.061783,-8580.269578,0.000000
4511.977066,0.000000,-8503.660028,0.000000
4511.977390,518.144159,-9039.926876,0.000000
4511.977714,222.061783,-8120.612279,0.000000
4511.978039,296.082377,-8963.317327,-518.144159
4511.978363,370.102971,-8350.440928,0.000000
4511.978687,518.144159,-8580.269578,-148.041188
4511.979011,444.123565,-8580.269578,0.000000
4511.979336,370.102971,-8427.050478,0.000000
4511.979660,518.144159,-8427.050478,0.000000
4511.979984,296.082377,-8580.269578,222.061783
4511.980309,370.102971,-8580.269578,74.020594
4511.980633,518.144159,-8733.488677,0.000000
4511.980957,592.164754,-8733.488677,222.061783
4511.981281,592.164754,-9193.145976,222.061783
4511.981606,222.061783,-8963.317327,0.000000
4511.981930,444.123565,-8656.879127,-148.041188
4511.982254,518.144159,-8656.879127,0.000000
4511.982578,296.082377,-9193.145976,148.041188
4511.982903,0.000000,-8580.269578,222.061783
4511.983227,296.082377,-8963.317327,148.041188
4511.983551,296.082377,-8656.879127,0.000000
4511.983876,444.123565,-8503.660028,-222.061783
4511.984200,666.185348,-8733.488677,-296.082377
4511.984524,888.247130,-8044.002729,-222.061783
4511.984848,370.102971,-8503.660028,-222.061783
4511.985173,592.164754,-8810.098227,0.000000
4511.985497,370.102971,-9039.926876,222.061783
4511.985821,370.102971,-8503.660028,0.000000
4511.986146,296.082377,-8656.879127,-296.082377
4511.986470,222.061783,-8656.879127,-222.061783
4511.986794,296.082377,-8503.660028,-222.061783
4511.987118,296.082377,-8503.660028,-222.061783
4511.987443,740.205942,-8656.879127,-370.102971
4511.987767,370.102971,-8427.050478,-518.144159
4511.988091,666.185348,-8886.707777,0.000000
4511.988416,222.061783,-8503.660028,0.000000
4511.988740,518.144159,-8656.879127,-444.123565
4511.989064,592.164754,-8580.269578,-370.102971
4511.989388,444.123565,-8580.269578,-296.082377
4511.989713,148.041188,-8427.050478,-370.102971
4511.990037,370.102971,-8273.831378,-370.102971
4511.990361,370.102971,-8580.269578,-370.102971
4511.990686,222.061783,-8427.050478,-518.144159
4511.991010,444.123565,-8733.488677,-592.164754
4511.991334,518.144159,-8810.098227,-296.082377
4511.991658,444.123565,-8273.831378,-518.144159
4511.991983,370.102971,-8503.660028,-814.226536
4511.992307,444.123565,-8580.269578,-592.164754
4511.992631,0.000000,-8273.831378,-296.082377
4511.992956,370.102971,-8886.707777,-666.185348
4511.993280,74.020594,-8427.050478,-740.205942
4511.993604,296.082377,-8656.879127,-592.164754
4511.993928,370.102971,-8886.707777,0.000000
4511.994253,370.102971,-8427.050478,-592.164754
4511.994577,296.082377,-8733.488677,-518.144159
4511.994901,666.185348,-8427.050478,-296.082377
4511.995226,222.061783,-8503.660028,-370.102971
4511.995550,222.061783,-8810.098227,0.000000
4511.995874,444.123565,-8656.879127,-370.102971
4511.996198,518.144159,-8580.269578,-74.020594
4511.996523,370.102971,-8810.098227,-444.123565
4511.996847,74.020594,-8886.707777,148.041188
4511.997171,148.041188,-8656.879127,0.000000
4511.997496,296.082377,-8580.269578,0.000000
4511.997820,148.041188,-8350.440928,-222.061783
4511.998144,444.123565,-8580.269578,222.061783
4511.998468,370.102971,-8273.831378,0.000000
4511.998793,444.123565,-8273.831378,-222.061783
4511.999117,370.102971,-8580.269578,-370.102971
4511.999441,888.247130,-8044.002729,-148.041188
4511.999766,814.226536,-8273.831378,-370.102971
4512.000090,592.164754,-8580.269578,0.000000
4512.000414,444.123565,-8427.050478,0.000000
4512.000738,296.082377,-8273.831378,148.041188
4512.001063,814.226536,-8733.488677,222.061783
4512.001387,370.102971,-8733.488677,-296.082377
4512.001711,592.164754,-8656.879127,0.000000
4512.002035,444.123565,-8197.221829,74.020594
4512.002360,222.061783,-8886.707777,0.000000
4512.002684,518.144159,-8427.050478,74.020594
4512.003008,444.123565,-8503.660028,0.000000
4512.003333,518.144159,-8273.831378,0.000000
4512.003657,592.164754,-8733.488677,0.000000
4512.003981,296.082377,-8120.612279,222.061783
4512.004305,370.102971,-8273.831378,0.000000
4512.004630,518.144159,-8350.440928,74.020594
4512.004954,518.144159,-8733.488677,0.000000
4512.005278,0.000000,-7814.174080,370.102971
4512.005603,0.000000,-8656.879127,-148.041188
4512.005927,222.061783,-8656.879127,0.000000
4512.006251,444.123565,-8733.488677,0.000000
4512.006575,740.205942,-8733.488677,-370.102971
4512.006900,444.123565,-8810.098227,0.000000
4512.007224,74.020594,-8656.879127,0.000000
4512.007548,296.082377,-8580.269578,0.000000
4512.007873,222.061783,-8580.269578,0.000000
4512.008197,444.123565,-8427.050478,-518.144159
4512.008521,592.164754,-8503.660028,-592.164754
4512.008845,370.102971,-8427.050478,-370.102971
4512.009170,148.041188,-8427.050478,-296.082377
4512.009494,518.144159,-8427.050478,-222.061783
4512.009818,444.123565,-8350.440928,-666.185348
4512.010143,222.061783,-8963.317327,-370.102971
4512.010467,370.102971,-8656.879127,-370.102971
4512.010791,148.041188,-8810.098227,-518.144159
4512.011115,740.205942,-8810.098227,-666.185348
4512.011440,370.102971,-8733.488677,-296.082377
4512.011764,370.102971,-8810.098227,-592.164754
4512.012088,444.123565,-8656.879127,-518.144159
4512.012413,666.185348,-8733.488677,-518.144159
4512.012737,296.082377,-8886.707777,-592.164754
4512.013061,444.123565,-8503.660028,-592.164754
4512.013385,592.164754,-8580.269578,-518.144159
4512.013710,962.267725,-8427.050478,-666.185348
4512.014034,666.185348,-8580.269578,-592.164754
4512.014358,222.061783,-8350.440928,-370.102971
4512.014683,444.123565,-8427.050478,-222.061783
4512.015007,222.061783,-8273.831378,-222.061783
4512.015331,740.205942,-9193.145976,-370.102971
4512.015655,592.164754,-8197.221829,-296.082377
4512.015980,518.144159,-8503.660028,-148.041188
4512.016304,592.164754,-8733.488677,-592.164754
4512.016628,814.226536,-9422.974625,-296.082377
4512.016953,666.185348,-8580.269578,-740.205942
4512.017277,296.082377,-8580.269578,-444.123565
4512.017601,518.144159,-8350.440928,-666.185348
4512.017925,444.123565,-8733.488677,-518.144159
4512.018250,740.205942,-8350.440928,-666.185348
4512.018574,740.205942,-8350.440928,-888.247130
4512.018898,592.164754,-8656.879127,-666.185348
4512.019222,518.144159,-8273.831378,-666.185348
4512.019547,0.000000,-8273.831378,-518.144159
4512.019871,370.102971,-8733.488677,-444.123565
4512.020195,296.082377,-8120.612279,-666.185348
4512.020520,296.082377,-8886.707777,-518.144159
4512.020844,518.144159,-8810.098227,-370.102971
4512.021168,222.061783,-8580.269578,-148.041188
4512.021492,444.123565,-8656.879127,-370.102971
4512.021817,296.082377,-8503.660028,0.000000
4512.022141,444.123565,-8656.879127,-370.102971
4512.022466,518.144159,-8503.660028,0.000000
4512.022790,148.041188,-8350.440928,-222.061783
4512.023114,296.082377,-8733.488677,0.000000
4512.023439,296.082377,-8503.660028,-370.102971
4512.023763,518.144159,-9193.145976,-296.082377
4512.024087,592.164754,-8810.098227,-222.061783
4512.024412,296.082377,-8810.098227,0.000000
4512.024736,370.102971,-8656.879127,-296.082377
4512.025061,370.102971,-9499.584175,0.000000
4512.025385,148.041188,-8810.098227,-296.082377
4512.025709,222.061783,-8810.098227,-222.061783
4512.026034,666.185348,-8733.488677,-592.164754
4512.026358,370.102971,-8427.050478,-370.102971
4512.026682,222.061783,-8810.098227,-296.082377
4512.027007,296.082377,-8580.269578,-444.123565
4512.027331,296.082377,-8656.879127,-666.185348
4512.027655,370.102971,-8733.488677,-666.185348
4512.027980,-148.041188,-9193.145976,-148.041188
4512.028304,370.102971,-8733.488677,-592.164754
4512.028629,296.082377,-8350.440928,-148.041188
4512.028953,222.061783,-8503.660028,-518.144159
4512.029277,666.185348,-8886.707777,-666.185348
4512.029602,518.144159,-8120.612279,-148.041188
4512.029926,370.102971,-8503.660028,-74.020594
4512.030250,296.082377,-8810.098227,-148.041188
4512.030575,296.082377,-8656.879127,0.000000
4512.030899,370.102971,-8810.098227,-370.102971
4512.031223,296.082377,-8580.269578,-222.061783
4512.031548,0.000000,-8810.098227,0.000000
4512.031872,222.061783,-8810.098227,0.000000
4512.032197,222.061783,-8197.221829,-444.123565
4512.032521,370.102971,-8886.707777,-444.123565
4512.032845,814.226536,-8656.879127,-370.102971
4512.033170,518.144159,-8427.050478,0.000000
4512.033494,740.205942,-8810.098227,-222.061783
4512.033818,296.082377,-8427.050478,0.000000
4512.034143,370.102971,-8503.660028,0.000000
4512.034467,148.041188,-8427.050478,-592.164754
4512.034791,222.061783,-8503.660028,-148.041188
4512.035116,148.041188,-8503.660028,0.000000
4512.035440,296.082377,-8580.269578,0.000000
4512.035765,222.061783,-8580.269578,-518.144159
4512.036089,592.164754,-8503.660028,-296.082377
4512.036413,592.164754,-8963.317327,74.020594
4512.036738,592.164754,-8350.440928,-222.061783
4512.037062,592.164754,-8503.660028,-666.185348
4512.037386,444.123565,-8273.831378,-444.123565
4512.037711,370.102971,-8580.269578,-666.185348
4512.038035,148.041188,-8656.879127,-296.082377
4512.038360,518.144159,-8580.269578,-592.164754
4512.038684,296.082377,-8733.488677,-370.102971
4512.039008,592.164754,-8427.050478,-518.144159
4512.039333,592.164754,-8427.050478,-222.061783
4512.039657,740.205942,-8733.488677,-370.102971
4512.039981,740.205942,-8273.831378,-592.164754
4512.040306,518.144159,-8580.269578,-296.082377
4512.040630,0.000000,-8963.317327,-444.123565
4512.040954,518.144159,-8580.269578,-370.102971
4512.041279,370.102971,-8733.488677,-444.123565
4512.041603,74.020594,-8503.660028,-592.164754
4512.041928,592.164754,-8656.879127,-296.082377
4512.042252,370.102971,-8580.269578,-740.205942
4512.042576,370.102971,-8886.707777,-370.102971
4512.042901,666.185348,-8427.050478,-740.205942
4512.043225,592.164754,-8656.879127,-444.123565
4512.043549,592.164754,-8733.488677,-296.082377
4512.043874,666.185348,-8580.269578,-740.205942
4512.044198,296.082377,-8350.440928,-962.267725
4512.044522,296.082377,-8810.098227,-518.144159
4512.044847,444.123565,-8427.050478,-592.164754
4512.045171,222.061783,-8656.879127,-370.102971
4512.045496,370.102971,-8656.879127,-518.144159
4512.045820,666.185348,-8810.098227,-592.164754
4512.046144,518.144159,-8580.269578,-592.164754
4512.046469,370.102971,-8886.707777,-444.123565
4512.046793,592.164754,-8733.488677,-740.205942
4512.047117,518.144159,-8656.879127,-370.102971
4512.047442,518.144159,-8427.050478,-592.164754
4512.047766,592.164754,-7890.783629,-296.082377
4512.048090,518.144159,-8503.660028,-666.185348
4512.048415,592.164754,-8963.317327,-444.123565
4512.048739,444.123565,-8580.269578,-444.123565
4512.049064,444.123565,-8886.707777,-148.041188
4512.049388,592.164754,-8886.707777,-222.061783
4512.049712,518.144159,-8656.879127,-592.164754
4512.050037,592.164754,-8810.098227,-518.144159
4512.050361,592.164754,-8273.831378,-296.082377
4512.050685,222.061783,-8886.707777,148.041188
4512.051010,222.061783,-8427.050478,-148.041188
4512.051334,222.061783,-8656.879127,-444.123565
4512.051659,444.123565,-8427.050478,-518.144159
4512.051983,148.041188,-8886.707777,148.041188
4512.052307,444.123565,-8810.098227,-370.102971
4512.052632,518.144159,-8273.831378,-518.144159
4512.052956,444.123565,-8350.440928,-296.082377
4512.053280,370.102971,-8656.879127,-222.061783
4512.053605,296.082377,-8733.488677,-222.061783
4512.053929,296.082377,-8197.221829,0.000000
4512.054253,296.082377,-8580.269578,0.000000
4512.054578,148.041188,-8886.707777,0.000000
4512.054902,370.102971,-8273.831378,0.000000
4512.055227,444.123565,-8733.488677,-518.144159
4512.055551,148.041188,-8580.269578,-148.041188
4512.055875,370.102971,-8810.098227,-370.102971
4512.056200,888.247130,-8427.050478,-592.164754
4512.056524,370.102971,-8733.488677,-444.123565
4512.056848,666.185348,-8810.098227,-370.102971
4512.057173,666.185348,-8273.831378,-370.102971
4512.057497,444.123565,-8350.440928,-296.082377
4512.057821,148.041188,-8886.707777,-296.082377
4512.058146,370.102971,-8580.269578,-296.082377
4512.058470,444.123565,-8503.660028,-444.123565
4512.058795,222.061783,-8503.660028,-370.102971
4512.059119,370.102971,-8733.488677,0.000000
4512.059443,518.144159,-8733.488677,-370.102971
4512.059768,370.102971,-8580.269578,-296.082377
4512.060092,296.082377,-8350.440928,-296.082377
4512.060416,444.123565,-8580.269578,-370.102971
4512.060741,518.144159,-8733.488677,0.000000
4512.061065,444.123565,-8427.050478,-444.123565
4512.061389,370.102971,-8733.488677,-444.123565
4512.061714,592.164754,-8427.050478,-444.123565
4512.062038,518.144159,-8120.612279,-444.123565
4512.062363,666.185348,-8810.098227,-370.102971
4512.062687,444.123565,-8350.440928,-444.123565
4512.063011,592.164754,-8963.317327,-222.061783
4512.063336,592.164754,-8120.612279,0.000000
4512.063660,666.185348,-8503.660028,-518.144159
4512.063984,370.102971,-8733.488677,-444.123565
4512.064309,518.144159,-8580.269578,-592.164754
4512.064633,370.102971,-8810.098227,0.000000
4512.064958,222.061783,-8886.707777,-370.102971
4512.065282,666.185348,-8656.879127,-592.164754
4512.065606,518.144159,-8810.098227,-592.164754
4512.065931,296.082377,-8427.050478,-74.020594
4512.066255,296.082377,-8350.440928,-444.123565
4512.066579,518.144159,-8503.660028,-592.164754
4512.066904,444.123565,-8427.050478,-370.102971
4512.067228,296.082377,-8503.660028,-296.082377
4512.067552,814.226536,-8656.879127,0.000000
4512.067877,444.123565,-8350.440928,-370.102971
4512.068201,370.102971,-8656.879127,-222.061783
4512.068526,444.123565,-8656.879127,-222.061783
4512.068850,444.123565,-8580.269578,-518.144159
4512.069174,370.102971,-8656.879127,-444.123565
4512.069499,444.123565,-8810.098227,-148.041188
4512.069823,296.082377,-8580.269578,-222.061783
4512.070147,222.061783,-8580.269578,0.000000
4512.070472,518.144159,-8503.660028,-296.082377
4512.070796,444.123565,-8810.098227,-592.164754
4512.071120,518.144159,-8503.660028,-148.041188
4512.071445,74.020594,-8350.440928,-148.041188
4512.071769,740.205942,-8810.098227,-222.061783
4512.072094,518.144159,-8427.050478,-370.102971
4512.072418,370.102971,-8810.098227,-296.082377
4512.072742,518.144159,-8120.612279,-444.123565
4512.073067,444.123565,-8656.879127,0.000000
4512.073391,592.164754,-8580.269578,-296.082377
4512.073715,444.123565,-8427.050478,-370.102971
4512.074040,370.102971,-8427.050478,-518.144159
4512.074364,148.041188,-8810.098227,-370.102971
4512.074688,814.226536,-8733.488677,-592.164754
4512.075013,74.020594,-8580.269578,-148.041188
4512.075337,296.082377,-8810.098227,-444.123565
4512.075662,296.082377,-8273.831378,-74.020594
4512.075986,518.144159,-8963.317327,-296.082377
4512.076310,444.123565,-8503.660028,0.000000
4512.076635,518.144159,-8733.488677,-148.041188
4512.076959,592.164754,-8656.879127,-296.082377
4512.077283,518.144159,-8427.050478,-370.102971
4512.077608,444.123565,-8350.440928,-296.082377
4512.077932,814.226536,-8580.269578,-296.082377
4512.078257,370.102971,-8273.831378,0.000000
4512.078581,444.123565,-8810.098227,0.000000
4512.078905,296.082377,-8503.660028,-296.082377
4512.079230,518.144159,-8810.098227,0.000000
4512.079554,592.164754,-8580.269578,0.000000
4512.079878,518.144159,-8580.269578,222.061783
4512.080203,296.082377,-9039.926876,0.000000
4512.080527,592.164754,-8656.879127,-296.082377
4512.080851,222.061783,-8503.660028,-222.061783
4512.081176,370.102971,-8963.317327,-222.061783
4512.081500,370.102971,-8427.050478,0.000000
4512.081825,518.144159,-8810.098227,-148.041188
4512.082149,444.123565,-8886.707777,-370.102971
4512.082473,592.164754,-8733.488677,-444.123565
4512.082798,518.144159,-8350.440928,-74.020594
4512.083122,814.226536,-9652.803275,74.020594
4512.083446,592.164754,-8886.707777,0.000000
4512.083771,444.123565,-8656.879127,-296.082377
4512.084095,296.082377,-8810.098227,-370.102971
4512.084419,296.082377,-8886.707777,-444.123565
4512.084744,444.123565,-9269.755526,-666.185348
4512.085068,444.123565,-8427.050478,-370.102971
4512.085393,148.041188,-8503.660028,-296.082377
4512.085717,296.082377,-8810.098227,-444.123565
4512.086041,222.061783,-8350.440928,-296.082377
4512.086366,592.164754,-8733.488677,-518.144159
4512.086690,592.164754,-8503.660028,-222.061783
4512.087014,444.123565,-8580.269578,-148.041188
4512.087339,592.164754,-8427.050478,0.000000
4512.087663,444.123565,-8427.050478,0.000000
4512.087988,148.041188,-8503.660028,-370.102971
4512.088312,296.082377,-8810.098227,-148.041188
4512.088636,148.041188,-8503.660028,0.000000
4512.088961,296.082377,-8810.098227,-74.020594
4512.089285,222.061783,-8656.879127,0.000000
4512.089609,222.061783,-8580.269578,-296.082377
4512.089934,518.144159,-8503.660028,-296.082377
4512.090258,296.082377,-8886.707777,0.000000
4512.090582,518.144159,-8580.269578,-518.144159
4512.090907,518.144159,-8580.269578,-222.061783
4512.091231,740.205942,-8733.488677,-444.123565
4512.091556,814.226536,-9193.145976,-518.144159
4512.091880,592.164754,-8733.488677,-592.164754
4512.092204,666.185348,-8273.831378,-592.164754
4512.092529,222.061783,-8656.879127,-444.123565
4512.092853,222.061783,-8503.660028,-444.123565
4512.093177,444.123565,-8427.050478,-666.185348
4512.093502,518.144159,-8810.098227,-666.185348
4512.093826,370.102971,-8273.831378,-222.061783
4512.094150,592.164754,-8427.050478,-296.082377
4512.094475,592.164754,-8733.488677,-296.082377
4512.094799,370.102971,-8350.440928,-222.061783
4512.095124,370.102971,-8656.879127,-592.164754
4512.095448,444.123565,-8810.098227,0.000000
4512.095772,444.123565,-8810.098227,-296.082377
4512.096097,74.020594,-8503.660028,-518.144159
4512.096421,148.041188,-8503.660028,-370.102971
4512.096745,518.144159,-8810.098227,-370.102971
4512.097070,592.164754,-8350.440928,-592.164754
4512.097394,592.164754,-8350.440928,-222.061783
4512.097718,888.247130,-8197.221829,-222.061783
4512.098043,518.144159,-8656.879127,-222.061783
4512.098367,518.144159,-8733.488677,-444.123565
4512.098692,296.082377,-8503.660028,-888.247130
4512.099016,518.144159,-8427.050478,-148.041188
4512.099340,222.061783,-8350.440928,-370.102971
4512.099665,222.061783,-8580.269578,-222.061783
4512.099989,370.102971,-8427.050478,-148.041188
4512.100313,518.144159,-8580.269578,-370.102971
4512.100638,370.102971,-9039.926876,-222.061783
4512.100962,296.082377,-8427.050478,-296.082377
4512.101287,518.144159,-8810.098227,-370.102971
4512.101611,148.041188,-8656.879127,0.000000
4512.101935,222.061783,-8886.707777,-296.082377
4512.102260,444.123565,-8810.098227,0.000000
4512.102584,296.082377,-8197.221829,0.000000
4512.102908,0.000000,-9039.926876,74.020594
4512.103233,0.000000,-8350.440928,-296.082377
4512.103557,518.144159,-8810.098227,0.000000
4512.103881,592.164754,-8656.879127,-148.041188
4512.104206,222.061783,-8427.050478,0.000000
4512.104530,296.082377,-8427.050478,74.020594
4512.104855,444.123565,-8427.050478,0.000000
4512.105179,222.061783,-8656.879127,0.000000
4512.105503,370.102971,-8886.707777,74.020594
4512.105828,962.267725,-8580.269578,-444.123565
4512.106152,74.020594,-8350.440928,0.000000
4512.106476,518.144159,-8810.098227,0.000000
4512.106801,370.102971,-8580.269578,0.000000
4512.107125,666.185348,-8733.488677,0.000000
4512.107449,518.144159,-8810.098227,148.041188
4512.107774,444.123565,-8503.660028,0.000000
4512.108098,222.061783,-8733.488677,0.000000
4512.108423,444.123565,-8656.879127,0.000000
4512.108747,592.164754,-8656.879127,-222.061783
4512.109071,370.102971,-8733.488677,0.000000
4512.109396,444.123565,-8197.221829,0.000000
4512.109720,296.082377,-8580.269578,0.000000
4512.110044,666.185348,-8503.660028,-296.082377
4512.110369,444.123565,-8120.612279,-444.123565
4512.110693,518.144159,-8350.440928,-592.164754
4512.111017,518.144159,-8427.050478,-370.102971
4512.111342,740.205942,-7584.345430,-148.041188
4512.111666,666.185348,-8273.831378,-444.123565
4512.111991,666.185348,-8427.050478,-518.144159
4512.112315,518.144159,-8656.879127,-518.144159
4512.112639,666.185348,-9116.536426,-518.144159
4512.112964,666.185348,-8427.050478,-370.102971
4512.113288,222.061783,-8886.707777,-370.102971
4512.113612,444.123565,-8733.488677,-592.164754
4512.113937,370.102971,-8580.269578,-148.041188
4512.114261,962.267725,-8656.879127,-592.164754
4512.114586,296.082377,-8810.098227,0.000000
4512.114910,518.144159,-8580.269578,-296.082377
4512.115234,592.164754,-8580.269578,-370.102971
4512.115559,666.185348,-8503.660028,-370.102971
4512.115883,444.123565,-8886.707777,-296.082377
4512.116207,444.123565,-8503.660028,-296.082377
4512.116532,296.082377,-8350.440928,-444.123565
4512.116856,370.102971,-8503.660028,-296.082377
4512.117180,296.082377,-8733.488677,-592.164754
4512.117505,444.123565,-8810.098227,-666.185348
4512.117829,444.123565,-8580.269578,-740.205942
4512.118154,222.061783,-8580.269578,-444.123565
4512.118478,592.164754,-8886.707777,-370.102971
4512.118802,518.144159,-8580.269578,-518.144159
4512.119126,222.061783,-8886.707777,-518.144159
4512.119450,222.061783,-8656.879127,-962.267725
4512.119775,370.102971,-7814.174080,-518.144159
4512.120099,0.000000,-8044.002729,-666.185348
4512.120423,518.144159,-8733.488677,-666.185348
4512.120748,518.144159,-8273.831378,-1036.288319
4512.121072,518.144159,-8733.488677,-666.185348
4512.121396,370.102971,-8503.660028,-740.205942
4512.121721,444.123565,-8810.098227,-666.185348
4512.122045,518.144159,-8580.269578,-592.164754
4512.122370,296.082377,-8427.050478,-592.164754
4512.122694,370.102971,-8350.440928,-518.144159
4512.123018,518.144159,-8733.488677,-518.144159
4512.123343,296.082377,-8503.660028,-296.082377
4512.123667,296.082377,-8733.488677,-370.102971
4512.123991,148.041188,-8656.879127,-444.123565
4512.124316,518.144159,-8503.660028,0.000000
4512.124640,444.123565,-8656.879127,-592.164754
4512.124965,444.123565,-8580.269578,-222.061783
4512.125289,518.144159,-8580.269578,-444.123565
4512.125613,592.164754,-8733.488677,-518.144159
4512.125938,370.102971,-8427.050478,-444.123565
4512.126262,370.102971,-8733.488677,-222.061783
4512.126586,666.185348,-8733.488677,-222.061783
4512.126911,740.205942,-9422.974625,-296.082377
4512.127235,444.123565,-8656.879127,-444.123565
4512.127560,444.123565,-8656.879127,0.000000
4512.127884,370.102971,-8503.660028,-370.102971
4512.128208,370.102971,-8886.707777,0.000000
4512.128533,370.102971,-8273.831378,0.000000
4512.128857,148.041188,-8733.488677,-222.061783
4512.129181,296.082377,-8427.050478,-518.144159
4512.129506,740.205942,-8197.221829,-370.102971
4512.129830,592.164754,-8810.098227,-222.061783
4512.130154,518.144159,-8120.612279,-148.041188
4512.130479,222.061783,-8350.440928,0.000000
4512.130803,444.123565,-8886.707777,-444.123565
4512.131128,296.082377,-8963.317327,0.000000
4512.131452,296.082377,-8427.050478,0.000000
4512.131776,148.041188,-8350.440928,0.000000
4512.132101,148.041188,-8580.269578,0.000000
4512.132425,370.102971,-8886.707777,0.000000
4512.132749,222.061783,-8427.050478,-370.102971
4512.133074,222.061783,-8503.660028,-370.102971
4512.133398,444.123565,-8733.488677,-222.061783
4512.133723,148.041188,-8427.050478,74.020594
4512.134047,592.164754,-9116.536426,148.041188
4512.134371,222.061783,-8810.098227,0.000000
4512.134696,666.185348,-8886.707777,-518.144159
4512.135020,444.123565,-8733.488677,-370.102971
4512.135344,444.123565,-9039.926876,-222.061783
4512.135669,444.123565,-8733.488677,-370.102971
4512.135993,370.102971,-8427.050478,-518.144159
4512.136318,296.082377,-8656.879127,-592.164754
4512.136642,296.082377,-8350.440928,-370.102971
4512.136966,222.061783,-8810.098227,0.000000
4512.137291,296.082377,-8503.660028,-518.144159
4512.137615,370.102971,-8963.317327,-444.123565
4512.137939,222.061783,-8427.050478,-296.082377
4512.138264,222.061783,-9269.755526,0.000000
4512.138588,444.123565,-8733.488677,-592.164754
4512.138913,592.164754,-8580.269578,-222.061783
4512.139237,222.061783,-8580.269578,-444.123565
4512.139561,444.123565,-8810.098227,-592.164754
4512.139886,148.041188,-8427.050478,-592.164754
4512.140210,518.144159,-8886.707777,-592.164754
4512.140534,444.123565,-8427.050478,-592.164754
4512.140859,148.041188,-8656.879127,-370.102971
4512.141183,222.061783,-8810.098227,-666.185348
4512.141508,444.123565,-8656.879127,-518.144159
4512.141832,518.144159,-8503.660028,-592.164754
4512.142156,444.123565,-8656.879127,-518.144159
4512.142481,518.144159,-8580.269578,-888.247130
4512.142805,518.144159,-8733.488677,-370.102971
4512.143129,296.082377,-8427.050478,-518.144159
4512.143454,370.102971,-8503.660028,-518.144159
4512.143778,370.102971,-8427.050478,-888.247130
4512.144103,592.164754,-8580.269578,-444.123565
4512.144427,222.061783,-8427.050478,-666.185348
4512.144751,370.102971,-8503.660028,0.000000
4512.145076,666.185348,-8197.221829,-740.205942
4512.145400,518.144159,-8886.707777,0.000000
4512.145724,666.185348,-8350.440928,-666.185348
4512.146049,592.164754,-8580.269578,-370.102971
4512.146373,592.164754,-8427.050478,-666.185348
4512.146698,148.041188,-8656.879127,370.102971
4512.147022,518.144159,-8963.317327,-592.164754
4512.147346,518.144159,-8580.269578,-148.041188
4512.147671,370.102971,-8197.221829,-222.061783
4512.147995,222.061783,-8580.269578,-296.082377
4512.148319,222.061783,-8580.269578,-518.144159
4512.148644,444.123565,-8427.050478,-296.082377
4512.148968,592.164754,-8733.488677,-518.144159
4512.149293,296.082377,-8503.660028,-370.102971
4512.149617,444.123565,-7890.783629,-296.082377
4512.149941,518.144159,-8427.050478,-222.061783
4512.150266,814.226536,-8273.831378,-296.082377
4512.150590,666.185348,-8810.098227,-370.102971
4512.150914,444.123565,-8656.879127,0.000000
4512.151239,222.061783,-8580.269578,-148.041188
4512.151563,222.061783,-8886.707777,-222.061783
4512.151888,444.123565,-8427.050478,-370.102971
4512.152212,444.123565,-8886.707777,-444.123565
4512.152536,592.164754,-8886.707777,-518.144159
4512.152861,370.102971,-8656.879127,-296.082377
4512.153185,444.123565,-8656.879127,-444.123565
4512.153509,222.061783,-8733.488677,-444.123565
4512.153834,962.267725,-8733.488677,-666.185348
4512.154158,444.123565,-8580.269578,-592.164754
4512.154483,592.164754,-8350.440928,-518.144159
4512.154807,370.102971,-8810.098227,-518.144159
4512.155131,296.082377,-8580.269578,-370.102971
4512.155456,518.144159,-8886.707777,-666.185348
4512.155780,296.082377,-8656.879127,-740.205942
4512.156104,592.164754,-8810.098227,-296.082377
4512.156429,370.102971,-8580.269578,-296.082377
4512.156753,518.144159,-8656.879127,0.000000
4512.157078,222.061783,-8350.440928,-518.144159
4512.157402,222.061783,-9039.926876,-592.164754
4512.157726,296.082377,-8733.488677,-518.144159
4512.158051,888.247130,-8733.488677,-518.144159
4512.158375,370.102971,-8503.660028,-740.205942
4512.158699,444.123565,-8886.707777,-666.185348
4512.159024,592.164754,-8427.050478,-518.144159
4512.159348,592.164754,-8886.707777,-740.205942
4512.159672,592.164754,-8656.879127,-592.164754
4512.159997,518.144159,-8503.660028,-370.102971
4512.160321,666.185348,-8427.050478,-518.144159
4512.160646,296.082377,-8503.660028,-518.144159
4512.160970,740.205942,-8733.488677,-518.144159
4512.161294,222.061783,-8503.660028,-592.164754
4512.161619,74.020594,-8580.269578,-222.061783
4512.161943,148.041188,-8733.488677,-518.144159
4512.162267,666.185348,-8503.660028,-222.061783
4512.162592,444.123565,-8656.879127,-518.144159
4512.162916,296.082377,-8273.831378,-444.123565
4512.163241,518.144159,-8273.831378,-370.102971
4512.163565,444.123565,-8273.831378,-222.061783
4512.163889,888.247130,-8427.050478,-592.164754
4512.164214,666.185348,-8273.831378,-592.164754
4512.164538,740.205942,-8580.269578,-222.061783
4512.164862,592.164754,-8427.050478,-296.082377
4512.165187,888.247130,-8886.707777,-370.102971
4512.165511,148.041188,-8427.050478,-444.123565
4512.165836,666.185348,-8656.879127,-148.041188
4512.166160,222.061783,-8503.660028,-370.102971
4512.166484,962.267725,-8044.002729,0.000000
4512.166809,444.123565,-8580.269578,-370.102971
4512.167133,518.144159,-8656.879127,-222.061783
4512.167457,444.123565,-8427.050478,-296.082377
4512.167782,592.164754,-8810.098227,-444.123565
4512.168106,666.185348,-8350.440928,-592.164754
4512.168431,370.102971,-8503.660028,-296.082377
4512.168755,444.123565,-8503.660028,-518.144159
4512.169079,296.082377,-8503.660028,-370.102971
4512.169404,296.082377,-8044.002729,-740.205942
4512.169728,666.185348,-8580.269578,-518.144159
4512.170052,444.123565,-8656.879127,-370.102971
4512.170377,370.102971,-8810.098227,-296.082377
4512.170701,296.082377,-7967.393179,0.000000
4512.171026,444.123565,-8350.440928,-148.041188
4512.171350,370.102971,-8656.879127,-296.082377
4512.171674,592.164754,-8503.660028,-296.082377
4512.171999,370.102971,-8273.831378,-148.041188
4512.172323,518.144159,-9269.755526,-370.102971
4512.172647,296.082377,-8580.269578,-444.123565
4512.172972,592.164754,-8580.269578,-370.102971
4512.173296,592.164754,-8656.879127,-518.144159
4512.173621,666.185348,-9729.412825,0.000000
4512.173945,296.082377,-8503.660028,-296.082377
4512.174269,370.102971,-8656.879127,74.020594
4512.174594,518.144159,-8580.269578,-518.144159
4512.174918,444.123565,-8656.879127,-370.102971
4512.175242,296.082377,-8503.660028,-296.082377
4512.175567,370.102971,-8427.050478,-296.082377
4512.175891,518.144159,-8733.488677,-444.123565
4512.176216,592.164754,-8656.879127,-296.082377
4512.176540,74.020594,-8810.098227,-296.082377
4512.176864,296.082377,-8963.317327,-296.082377
4512.177189,296.082377,-8427.050478,-370.102971
4512.177513,370.102971,-8656.879127,-444.123565
4512.177837,518.144159,-8197.221829,-518.144159
4512.178162,296.082377,-9039.926876,-370.102971
4512.178486,444.123565,-8810.098227,-740.205942
4512.178811,592.164754,-8350.440928,0.000000
4512.179135,518.144159,-8886.707777,-222.061783
4512.179459,740.205942,-8656.879127,-444.123565
4512.179784,518.144159,-8503.660028,0.000000
4512.180108,370.102971,-8503.660028,-222.061783
4512.180432,666.185348,-8656.879127,0.000000
4512.180757,74.020594,-8886.707777,0.000000
4512.181081,518.144159,-8580.269578,-296.082377
4512.181406,148.041188,-8350.440928,-222.061783
4512.181730,592.164754,-8810.098227,0.000000
4512.182054,592.164754,-8656.879127,-222.061783
4512.182379,370.102971,-8503.660028,0.000000
4512.182703,370.102971,-8503.660028,-370.102971
4512.183027,444.123565,-8350.440928,-296.082377
4512.183352,296.082377,-8503.660028,-296.082377
4512.183676,148.041188,-8580.269578,0.000000
4512.184001,370.102971,-8580.269578,-296.082377
4512.184325,222.061783,-8273.831378,-296.082377
4512.184649,222.061783,-8503.660028,-296.082377
4512.184974,74.020594,-8197.221829,148.041188
4512.185298,518.144159,-8580.269578,-296.082377
4512.185622,296.082377,-8273.831378,-222.061783
4512.185947,592.164754,-8427.050478,-370.102971
4512.186271,148.041188,-9346.365076,0.000000
4512.186596,370.102971,-8580.269578,-370.102971
4512.186920,296.082377,-8733.488677,-592.164754
4512.187244,222.061783,-8656.879127,-296.082377
4512.187569,148.041188,-8733.488677,-296.082377
4512.187893,518.144159,-8350.440928,-666.185348
4512.188217,370.102971,-8580.269578,-518.144159
4512.188542,444.123565,-8427.050478,-296.082377
4512.188866,740.205942,-8580.269578,-148.041188
4512.189190,666.185348,-8656.879127,-370.102971
4512.189515,592.164754,-8733.488677,-444.123565
4512.189839,666.185348,-8350.440928,-592.164754
4512.190164,518.144159,-8656.879127,-444.123565
4512.190488,296.082377,-9193.145976,-592.164754
4512.190812,222.061783,-8810.098227,-296.082377
4512.191137,370.102971,-8656.879127,-518.144159
4512.191461,222.061783,-8886.707777,-370.102971
4512.191785,222.061783,-8503.660028,-444.123565
4512.192110,370.102971,-8886.707777,-370.102971
4512.192434,888.247130,-8656.879127,-444.123565
4512.192759,666.185348,-8273.831378,-296.082377
4512.193083,444.123565,-8656.879127,-518.144159
4512.193407,370.102971,-8810.098227,0.000000
4512.193732,296.082377,-8580.269578,-592.164754
4512.194056,444.123565,-8810.098227,-666.185348
4512.194380,0.000000,-8580.269578,-222.061783
4512.194705,222.061783,-8427.050478,-370.102971
4512.195029,222.061783,-8427.050478,-296.082377
4512.195354,370.102971,-8656.879127,-296.082377
4512.195678,740.205942,-8733.488677,-518.144159
4512.196002,518.144159,-8350.440928,-222.061783
4512.196327,1110.308913,-8427.050478,-888.247130
4512.196651,518.144159,-8733.488677,-370.102971
4512.196975,518.144159,-8503.660028,-518.144159
4512.197300,518.144159,-8733.488677,-666.185348
4512.197624,518.144159,-8580.269578,-370.102971
4512.197949,222.061783,-8810.098227,-148.041188
4512.198273,444.123565,-8350.440928,-444.123565
4512.198597,296.082377,-8273.831378,-296.082377
4512.198922,370.102971,-8427.050478,-296.082377
4512.199246,740.205942,-8810.098227,0.000000
4512.199570,592.164754,-8197.221829,-222.061783
4512.199895,222.061783,-8427.050478,-222.061783
4512.200219,74.020594,-8656.879127,-148.041188
4512.200544,888.247130,-8197.221829,148.041188
4512.200868,370.102971,-8656.879127,0.000000
4512.201192,148.041188,-8810.098227,-148.041188
4512.201517,0.000000,-8580.269578,148.041188
4512.201841,0.000000,-8963.317327,74.020594
4512.202165,222.061783,-8580.269578,74.020594
4512.202490,444.123565,-8427.050478,0.000000
4512.202814,518.144159,-8580.269578,0.000000
4512.203139,296.082377,-8273.831378,0.000000
4512.203463,518.144159,-8963.317327,0.000000
4512.203787,518.144159,-8273.831378,-296.082377
4512.204112,444.123565,-8580.269578,74.020594
4512.204436,370.102971,-8733.488677,-296.082377
4512.204760,444.123565,-8197.221829,222.061783
4512.205085,296.082377,-8733.488677,0.000000
4512.205409,296.082377,-9039.926876,0.000000
4512.205734,74.020594,-8656.879127,0.000000
4512.206058,296.082377,-8810.098227,444.123565
4512.206382,222.061783,-8350.440928,0.000000
4512.206707,296.082377,-8427.050478,-148.041188
4512.207031,296.082377,-8810.098227,-296.082377
4512.207355,592.164754,-8350.440928,-444.123565
4512.207680,444.123565,-8120.612279,-518.144159
4512.208004,444.123565,-8656.879127,-296.082377
4512.208329,592.164754,-8503.660028,-222.061783
4512.208653,370.102971,-8503.660028,-518.144159
4512.208977,518.144159,-8197.221829,148.041188
4512.209302,518.144159,-8120.612279,-518.144159
4512.209626,666.185348,-9039.926876,-222.061783
4512.209950,370.102971,-8197.221829,-444.123565
4512.210275,370.102971,-8886.707777,-370.102971
4512.210599,444.123565,-8580.269578,-592.164754
4512.210924,296.082377,-8503.660028,-444.123565
4512.211248,518.144159,-8656.879127,-814.226536
4512.211572,370.102971,-8733.488677,-666.185348
4512.211897,148.041188,-8427.050478,-296.082377
4512.212221,444.123565,-8656.879127,-666.185348
4512.212545,592.164754,-8580.269578,-592.164754
4512.212870,444.123565,-8503.660028,-740.205942
4512.213194,592.164754,-8273.831378,-222.061783
4512.213519,370.102971,-8273.831378,-370.102971
4512.213843,0.000000,-8656.879127,-370.102971
4512.214167,296.082377,-8656.879127,-518.144159
4512.214492,518.144159,-8580.269578,-444.123565
4512.214816,444.123565,-8580.269578,-370.102971
4512.215140,370.102971,-8580.269578,-296.082377
4512.215465,370.102971,-8810.098227,-222.061783
4512.215789,370.102971,-8503.660028,-370.102971
4512.216114,444.123565,-8350.440928,-740.205942
4512.216438,518.144159,-8580.269578,-666.185348
4512.216762,222.061783,-8503.660028,-296.082377
4512.217087,592.164754,-8427.050478,-444.123565
4512.217411,444.123565,-8120.612279,-222.061783
4512.217735,740.205942,-8503.660028,-444.123565
4512.218060,444.123565,-8580.269578,-370.102971
4512.218384,444.123565,-8733.488677,-222.061783
4512.218708,592.164754,-8503.660028,0.000000
4512.219033,370.102971,-8273.831378,0.000000
4512.219357,296.082377,-8427.050478,-222.061783
4512.219682,370.102971,-8656.879127,0.000000
4512.220006,148.041188,-8580.269578,-148.041188
4512.220330,740.205942,-8427.050478,-222.061783
4512.220655,444.123565,-8427.050478,-74.020594
4512.220979,74.020594,-8656.879127,0.000000
4512.221303,222.061783,-8580.269578,-370.102971
4512.221628,370.102971,-8963.317327,0.000000
4512.221952,518.144159,-8197.221829,0.000000
4512.222276,444.123565,-8427.050478,-148.041188
4512.222601,444.123565,-8733.488677,-370.102971
4512.222925,444.123565,-8350.440928,-222.061783
4512.223250,592.164754,-8733.488677,-444.123565
4512.223574,370.102971,-8580.269578,-222.061783
4512.223898,814.226536,-8350.440928,-296.082377
4512.224223,444.123565,-8580.269578,-370.102971
4512.224547,592.164754,-8656.879127,-518.144159
4512.224871,666.185348,-8580.269578,-370.102971
4512.225196,592.164754,-8886.707777,-296.082377
4512.225520,444.123565,-8886.707777,-296.082377
4512.225844,370.102971,-8733.488677,-370.102971
4512.226169,74.020594,-8656.879127,0.000000
4512.226493,296.082377,-8350.440928,-444.123565
4512.226818,592.164754,-8886.707777,-444.123565
4512.227142,592.164754,-8733.488677,-296.082377
4512.227466,444.123565,-8580.269578,-444.123565
4512.227791,222.061783,-8963.317327,-296.082377
4512.228115,444.123565,-8733.488677,-370.102971
4512.228439,370.102971,-8427.050478,-296.082377
4512.228764,444.123565,-9039.926876,-740.205942
4512.229088,296.082377,-8656.879127,-370.102971
4512.229412,296.082377,-8656.879127,-296.082377
4512.229737,370.102971,-8886.707777,-740.205942
4512.230061,370.102971,-8733.488677,-370.102971
4512.230385,518.144159,-8580.269578,-814.226536
4512.230710,444.123565,-8503.660028,-222.061783
4512.231034,148.041188,-8503.660028,-296.082377
4512.231359,370.102971,-8886.707777,-592.164754
4512.231683,1110.308913,-8733.488677,-1036.288319
4512.232007,518.144159,-8810.098227,-666.185348
4512.232332,666.185348,-8503.660028,-888.247130
4512.232656,518.144159,-8810.098227,-370.102971
4512.232980,370.102971,-9269.755526,-592.164754
4512.233305,370.102971,-8503.660028,-370.102971
4512.233629,370.102971,-8197.221829,-666.185348
4512.233953,518.144159,-8656.879127,-444.123565
4512.234278,444.123565,-8350.440928,-370.102971
4512.234602,518.144159,-8810.098227,-666.185348
4512.234927,222.061783,-8503.660028,-592.164754
4512.235251,222.061783,-8427.050478,-444.123565
4512.235575,222.061783,-8656.879127,-518.144159
4512.235900,740.205942,-8350.440928,-666.185348
4512.236224,444.123565,-8350.440928,-592.164754
4512.236548,370.102971,-8427.050478,-444.123565
4512.236873,296.082377,-8503.660028,-444.123565
4512.237197,592.164754,-9499.584175,-592.164754
4512.237521,592.164754,-8273.831378,-296.082377
4512.237846,444.123565,-8197.221829,0.000000
4512.238170,444.123565,-8350.440928,0.000000
4512.238494,444.123565,-8427.050478,-444.123565
4512.238819,592.164754,-9039.926876,-444.123565
4512.239143,592.164754,-8580.269578,-296.082377
4512.239468,296.082377,-8580.269578,0.000000
4512.239792,222.061783,-8350.440928,0.000000
4512.240116,222.061783,-8963.317327,-444.123565
4512.240441,222.061783,-8580.269578,-148.041188
4512.240765,296.082377,-8580.269578,-296.082377
4512.241089,444.123565,-8350.440928,0.000000
4512.241414,296.082377,-9039.926876,-296.082377
4512.241738,370.102971,-8350.440928,-148.041188
4512.242062,518.144159,-8427.050478,-370.102971
4512.242387,370.102971,-8503.660028,-370.102971
4512.242711,296.082377,-8503.660028,-518.144159
4512.243036,296.082377,-8886.707777,-222.061783
4512.243360,370.102971,-8503.660028,-296.082377
4512.243684,518.144159,-8350.440928,-296.082377
4512.244009,444.123565,-8656.879127,-222.061783
4512.244333,370.102971,-8810.098227,-518.144159
4512.244657,296.082377,-8580.269578,0.000000
4512.244982,296.082377,-8656.879127,-296.082377
4512.245306,74.020594,-8427.050478,0.000000
4512.245630,296.082377,-8197.221829,-296.082377
4512.245955,592.164754,-8580.269578,-518.144159
4512.246279,222.061783,-8503.660028,-518.144159
4512.246603,296.082377,-8656.879127,-444.123565
4512.246928,666.185348,-8733.488677,-444.123565
4512.247252,1110.308913,-8580.269578,-814.226536
4512.247577,518.144159,-9039.926876,-148.041188
4512.247901,518.144159,-8733.488677,-296.082377
4512.248225,370.102971,-8810.098227,-148.041188
4512.248550,814.226536,-8886.707777,-444.123565
4512.248874,370.102971,-8733.488677,-296.082377
4512.249198,222.061783,-8733.488677,-444.123565
4512.249523,518.144159,-8580.269578,-444.123565
4512.249847,444.123565,-8963.317327,-370.102971
4512.250171,518.144159,-8886.707777,-296.082377
4512.250496,518.144159,-8733.488677,-370.102971
4512.250820,666.185348,-8427.050478,-740.205942
4512.251145,518.144159,-8810.098227,-444.123565
4512.251469,444.123565,-8120.612279,0.000000
4512.251793,666.185348,-8580.269578,-518.144159
4512.252118,444.123565,-8963.317327,-370.102971
4512.252442,592.164754,-8733.488677,-296.082377
4512.252766,444.123565,-8810.098227,0.000000
4512.253091,296.082377,-8886.707777,0.000000
4512.253415,444.123565,-8503.660028,-222.061783
4512.253739,444.123565,-8810.098227,-148.041188
4512.254064,444.123565,-8656.879127,-222.061783
4512.254388,296.082377,-8427.050478,0.000000
4512.254712,444.123565,-9039.926876,-370.102971
4512.255037,296.082377,-8120.612279,-370.102971
4512.255361,518.144159,-8427.050478,-222.061783
4512.255686,74.020594,-7967.393179,-296.082377
4512.256010,370.102971,-8580.269578,-444.123565
4512.256334,296.082377,-8120.612279,-370.102971
4512.256659,666.185348,-8273.831378,-296.082377
4512.256983,370.102971,-7967.393179,-148.041188
4512.257307,222.061783,-8427.050478,-296.082377
4512.257632,444.123565,-8350.440928,-444.123565
4512.257956,518.144159,-8733.488677,-444.123565
4512.258280,296.082377,-8273.831378,-296.082377
4512.258605,222.061783,-8197.221829,-370.102971
4512.258929,74.020594,-8580.269578,-222.061783
4512.259254,0.000000,-8656.879127,-296.082377
4512.259578,296.082377,-8350.440928,-148.041188
4512.259902,444.123565,-7967.393179,0.000000
4512.260227,296.082377,-8656.879127,-296.082377
4512.260551,444.123565,-8350.440928,-370.102971
4512.260875,296.082377,-8580.269578,-592.164754
4512.261200,518.144159,-8350.440928,-518.144159
4512.261524,444.123565,-8886.707777,-666.185348
4512.261848,296.082377,-8503.660028,-370.102971
4512.262173,296.082377,-8656.879127,-592.164754
4512.262497,370.102971,-8656.879127,-592.164754
4512.262821,518.144159,-8810.098227,-666.185348
4512.263146,444.123565,-8810.098227,-370.102971
4512.263470,518.144159,-8886.707777,-518.144159
4512.263795,296.082377,-8733.488677,-518.144159
4512.264119,1184.329507,-8656.879127,-740.205942
4512.264443,444.123565,-8503.660028,-370.102971
4512.264768,296.082377,-8503.660028,-592.164754
4512.265092,370.102971,-8733.488677,-814.226536
4512.265416,370.102971,-8427.050478,-296.082377
4512.265741,148.041188,-8733.488677,-222.061783
4512.266065,296.082377,-8580.269578,-666.185348
4512.266389,666.185348,-8427.050478,-296.082377
4512.266714,444.123565,-8810.098227,-592.164754
4512.267038,518.144159,-8503.660028,-814.226536
4512.267363,518.144159,-8580.269578,-296.082377
4512.267687,518.144159,-8656.879127,-370.102971
4512.268011,592.164754,-8733.488677,-740.205942
4512.268336,592.164754,-8273.831378,-592.164754
4512.268660,518.144159,-9116.536426,-666.185348
4512.268984,740.205942,-8120.612279,-740.205942
4512.269309,740.205942,-8656.879127,-444.123565
4512.269633,518.144159,-8580.269578,-518.144159
4512.269957,962.267725,-8580.269578,-592.164754
4512.270282,814.226536,-8503.660028,-740.205942
4512.270606,666.185348,-8503.660028,-222.061783
4512.270930,370.102971,-8656.879127,-296.082377
4512.271255,1036.288319,-8963.317327,-444.123565
4512.271579,518.144159,-8810.098227,-370.102971
4512.271904,296.082377,-8733.488677,-296.082377
4512.272228,666.185348,-8580.269578,-222.061783
4512.272552,740.205942,-8503.660028,0.000000
4512.272877,592.164754,-9116.536426,0.000000
4512.273201,444.123565,-8733.488677,-148.041188
4512.273525,592.164754,-8963.317327,148.041188
4512.273850,148.041188,-8580.269578,-148.041188
4512.274174,666.185348,-8810.098227,148.041188
4512.274498,0.000000,-8503.660028,-222.061783
4512.274823,0.000000,-8427.050478,74.020594
4512.275147,444.123565,-8197.221829,-296.082377
4512.275472,740.205942,-8886.707777,0.000000
4512.275796,814.226536,-8197.221829,0.000000
4512.276120,814.226536,-7967.393179,-370.102971
4512.276445,444.123565,-8580.269578,0.000000
4512.276769,444.123565,-8427.050478,0.000000
4512.277093,592.164754,-8656.879127,0.000000
4512.277418,222.061783,-8810.098227,0.000000
4512.277742,74.020594,-8733.488677,0.000000
4512.278066,0.000000,-8886.707777,-222.061783
4512.278391,74.020594,-8273.831378,-222.061783
4512.278715,74.020594,-8733.488677,0.000000
4512.279039,74.020594,-8503.660028,0.000000
4512.279364,370.102971,-8197.221829,0.000000
4512.279688,814.226536,-8733.488677,-740.205942
4512.280013,518.144159,-8273.831378,-444.123565
4512.280337,518.144159,-8427.050478,-296.082377
4512.280661,444.123565,-8580.269578,-444.123565
4512.280986,74.020594,-8427.050478,-444.123565
4512.281310,148.041188,-8733.488677,-296.082377
4512.281634,148.041188,-8580.269578,-592.164754
4512.281959,148.041188,-8503.660028,0.000000
4512.282283,444.123565,-8580.269578,-370.102971
4512.282607,740.205942,-8886.707777,-740.205942
4512.282932,592.164754,-8656.879127,-148.041188
4512.283256,740.205942,-8656.879127,-592.164754
4512.283581,666.185348,-8580.269578,-444.123565
4512.283905,666.185348,-8503.660028,-592.164754
4512.284229,592.164754,-8503.660028,-592.164754
4512.284554,370.102971,-8273.831378,-444.123565
4512.284878,296.082377,-8733.488677,-666.185348
4512.285202,444.123565,-8350.440928,-518.144159
4512.285527,592.164754,-8580.269578,-592.164754
4512.285851,666.185348,-8733.488677,-592.164754
4512.286175,814.226536,-8350.440928,-296.082377
4512.286500,666.185348,-8580.269578,-296.082377
4512.286824,592.164754,-8886.707777,-148.041188
4512.287148,666.185348,-8427.050478,-666.185348
4512.287473,518.144159,-8810.098227,-518.144159
4512.287797,296.082377,-9039.926876,-222.061783
4512.288122,222.061783,-9193.145976,-296.082377
4512.288446,74.020594,-8810.098227,-296.082377
4512.288770,518.144159,-8427.050478,-518.144159
4512.289095,222.061783,-8733.488677,-370.102971
4512.289419,740.205942,-8810.098227,-444.123565
4512.289743,888.247130,-8273.831378,-296.082377
4512.290068,666.185348,-8503.660028,-444.123565
4512.290392,592.164754,-8427.050478,-592.164754
4512.290716,592.164754,-8427.050478,-370.102971
4512.291041,518.144159,-8810.098227,-814.226536
4512.291365,740.205942,-8656.879127,-370.102971
4512.291690,518.144159,-8733.488677,-444.123565
4512.292014,296.082377,-8733.488677,-148.041188
4512.292338,0.000000,-9346.365076,0.000000
4512.292663,444.123565,-8886.707777,-222.061783
4512.292987,518.144159,-8503.660028,-370.102971
4512.293311,814.226536,-8350.440928,0.000000
4512.293636,222.061783,-8810.098227,-296.082377
4512.293960,666.185348,-8810.098227,-444.123565
4512.294284,592.164754,-8580.269578,-666.185348
4512.294609,518.144159,-8810.098227,-370.102971
4512.294933,444.123565,-8580.269578,0.000000
4512.295257,444.123565,-9193.145976,-518.144159
4512.295582,296.082377,-8503.660028,-222.061783
4512.295906,296.082377,-8273.831378,-148.041188
4512.296231,148.041188,-9039.926876,-148.041188
4512.296555,370.102971,-8120.612279,0.000000
4512.296879,518.144159,-8656.879127,-296.082377
4512.297204,222.061783,-8963.317327,-296.082377
4512.297528,444.123565,-8580.269578,0.000000
4512.297852,370.102971,-8733.488677,-296.082377
4512.298177,74.020594,-9039.926876,74.020594
4512.298501,296.082377,-8580.269578,-370.102971
4512.298825,222.061783,-8963.317327,-370.102971
4512.299150,148.041188,-8503.660028,-296.082377
4512.299474,-296.082377,-8963.317327,0.000000
4512.299799,370.102971,-8503.660028,-444.123565
4512.300123,444.123565,-8350.440928,-148.041188
4512.300447,518.144159,-8427.050478,-222.061783
4512.300772,370.102971,-8886.707777,-592.164754
4512.301096,740.205942,-8350.440928,-592.164754
4512.301420,814.226536,-8427.050478,-518.144159
4512.301745,370.102971,-9039.926876,-222.061783
4512.302069,370.102971,-8810.098227,-518.144159
4512.302393,740.205942,-8656.879127,0.000000
4512.302718,444.123565,-8580.269578,0.000000
4512.303042,518.144159,-8580.269578,-370.102971
4512.303366,666.185348,-8580.269578,-222.061783
4512.303691,592.164754,-8044.002729,0.000000
4512.304015,518.144159,-8810.098227,-370.102971
4512.304340,444.123565,-8427.050478,-296.082377
4512.304664,740.205942,-8350.440928,-444.123565
4512.304988,666.185348,-8656.879127,-222.061783
4512.305313,740.205942,-8580.269578,-222.061783
4512.305637,296.082377,-8656.879127,-222.061783
4512.305961,296.082377,-8733.488677,0.000000
4512.306286,296.082377,-8350.440928,-148.041188
4512.306610,296.082377,-8886.707777,-666.185348
4512.306934,962.267725,-8656.879127,-148.041188
4512.307259,444.123565,-8580.269578,-444.123565
4512.307583,444.123565,-9039.926876,-296.082377
4512.307908,296.082377,-8733.488677,-296.082377
4512.308232,592.164754,-8733.488677,-222.061783
4512.308556,148.041188,-8810.098227,-444.123565
4512.308881,296.082377,-8580.269578,-444.123565
4512.309205,444.123565,-8656.879127,-370.102971
4512.309529,592.164754,-8580.269578,-518.144159
4512.309854,370.102971,-8580.269578,-666.185348
4512.310178,740.205942,-8733.488677,-592.164754
4512.310502,592.164754,-8273.831378,-592.164754
4512.310827,518.144159,-8886.707777,74.020594
4512.311151,148.041188,-8273.831378,-296.082377
4512.311475,148.041188,-8733.488677,-370.102971
4512.311800,74.020594,-8733.488677,-296.082377
4512.312124,74.020594,-9116.536426,-296.082377
4512.312449,222.061783,-8963.317327,-222.061783
4512.312773,74.020594,-8810.098227,-370.102971
4512.313097,148.041188,-8503.660028,-148.041188
4512.313422,74.020594,-8503.660028,-370.102971
4512.313746,444.123565,-9116.536426,0.000000
4512.314070,296.082377,-8580.269578,-444.123565
4512.314395,296.082377,-8656.879127,-296.082377
4512.314719,518.144159,-8580.269578,-370.102971
4512.315043,370.102971,-8810.098227,0.000000
4512.315368,592.164754,-8580.269578,-222.061783
4512.315692,518.144159,-8503.660028,0.000000
4512.316016,518.144159,-8733.488677,0.000000
4512.316341,296.082377,-8427.050478,-370.102971
4512.316665,444.123565,-8580.269578,-296.082377
4512.316990,296.082377,-8580.269578,-370.102971
4512.317314,518.144159,-8503.660028,0.000000
4512.317638,370.102971,-8197.221829,-370.102971
4512.317963,962.267725,-8810.098227,0.000000
4512.318287,888.247130,-8350.440928,0.000000
4512.318611,518.144159,-8350.440928,-444.123565
4512.318936,518.144159,-8656.879127,-370.102971
4512.319260,518.144159,-8963.317327,518.144159
4512.319584,444.123565,-8350.440928,-148.041188
4512.319909,296.082377,-8580.269578,0.000000
4512.320233,296.082377,-8580.269578,-296.082377
4512.320558,296.082377,-8886.707777,0.000000
4512.320882,296.082377,-8273.831378,0.000000
4512.321206,296.082377,-8656.879127,0.000000
4512.321531,444.123565,-8733.488677,-148.041188
4512.321855,592.164754,-8810.098227,148.041188
4512.322180,888.247130,-8886.707777,-370.102971
4512.322504,666.185348,-8733.488677,-148.041188
4512.322829,444.123565,-8733.488677,-296.082377
4512.323153,370.102971,-8733.488677,-296.082377
4512.323477,518.144159,-8810.098227,-370.102971
4512.323802,444.123565,-8580.269578,-666.185348
4512.324126,740.205942,-8733.488677,-518.144159
4512.324451,666.185348,-8273.831378,-222.061783
4512.324775,666.185348,-8810.098227,-370.102971
4512.325099,888.247130,-8656.879127,-592.164754
4512.325424,666.185348,-8503.660028,-592.164754
4512.325748,518.144159,-8810.098227,-518.144159
4512.326073,296.082377,-8503.660028,-222.061783
4512.326397,1036.288319,-8580.269578,-370.102971
4512.326721,222.061783,-8733.488677,-666.185348
4512.327046,74.020594,-8656.879127,-518.144159
4512.327370,296.082377,-8580.269578,-814.226536
4512.327695,370.102971,-8886.707777,-592.164754
4512.328019,74.020594,-8580.269578,-296.082377
4512.328343,148.041188,-8503.660028,-518.144159
4512.328668,296.082377,-8273.831378,-814.226536
4512.328992,518.144159,-8733.488677,-592.164754
4512.329317,888.247130,-8733.488677,-666.185348
4512.329641,222.061783,-8733.488677,-444.123565
4512.329966,148.041188,-8656.879127,-444.123565
4512.330290,296.082377,-8810.098227,-370.102971
4512.330614,444.123565,-8810.098227,-370.102971
4512.330939,222.061783,-8886.707777,-370.102971
4512.331263,666.185348,-8580.269578,-296.082377
4512.331588,518.144159,-8580.269578,0.000000
4512.331912,444.123565,-8733.488677,-518.144159
4512.332236,148.041188,-8656.879127,0.000000
4512.332561,518.144159,-8273.831378,-370.102971
4512.332885,370.102971,-8350.440928,-222.061783
4512.333210,518.144159,-8350.440928,-592.164754
4512.333534,444.123565,-8580.269578,-518.144159
4512.333858,296.082377,-8656.879127,-370.102971
