#time,accel_x,accel_y,accel_z
4182.742160,1480.411884,-8044.002729,-962.267725
4182.742484,740.205942,-8886.707777,-1036.288319
4182.742809,0.000000,-9806.022374,-1406.391290
4182.743134,-592.164754,-9729.412825,-1776.494261
4182.743458,-1332.370696,-10035.851024,-1480.411884
4182.743783,-2146.597232,-9882.631924,-1184.329507
4182.744107,-2294.638420,-9576.193725,-1110.308913
4182.744432,-1332.370696,-9193.145976,-1110.308913
4182.744756,-1332.370696,-8580.269578,-444.123565
4182.745081,-740.205942,-8273.831378,-740.205942
4182.745405,-370.102971,-8810.098227,-666.185348
4182.745730,-592.164754,-8503.660028,-444.123565
4182.746055,-1332.370696,-8963.317327,-444.123565
4182.746379,-444.123565,-9269.755526,-814.226536
4182.746704,-3775.050304,-8963.317327,-1110.308913
4182.747028,-2886.803174,-10342.289223,-740.205942
4182.747353,-3923.091493,-9422.974625,-1258.350101
4182.747677,-4737.318029,-10725.336972,0.000000
4182.748002,-3775.050304,-9193.145976,-888.247130
4182.748326,-3552.988522,-9116.536426,148.041188
4182.748651,-2368.659014,-8963.317327,-518.144159
4182.748975,-1184.329507,-8273.831378,-370.102971
4182.749300,-1480.411884,-8120.612279,0.000000
4182.749625,-1776.494261,-8044.002729,-444.123565
4182.749949,-2590.720797,-8044.002729,-370.102971
4182.750274,-3552.988522,-8503.660028,-296.082377
4182.750598,-4663.297435,-8503.660028,-148.041188
4182.750923,-5107.421000,-8197.221829,-296.082377
4182.751247,-5625.565159,-8810.098227,-148.041188
4182.751572,-4589.276840,-9039.926876,222.061783
4182.751896,-3923.091493,-8580.269578,0.000000
4182.752221,-3182.885551,-8656.879127,148.041188
4182.752546,-1776.494261,-7737.564530,518.144159
4182.752870,-1480.411884,-8503.660028,1110.308913
4182.753195,-1480.411884,-8197.221829,296.082377
4182.753519,-1406.391290,-8120.612279,592.164754
4182.753844,-2146.597232,-8044.002729,666.185348
4182.754168,-2664.741391,-8427.050478,592.164754
4182.754493,-2812.782580,-8656.879127,518.144159
4182.754817,-3627.009116,-8810.098227,222.061783
4182.755142,-3849.070898,-8503.660028,222.061783
4182.755466,-3256.906145,-8656.879127,-148.041188
4182.755790,-2516.700203,-9193.145976,592.164754
4182.756115,-1850.514855,-8427.050478,222.061783
4182.756439,-1184.329507,-8044.002729,-222.061783
4182.756763,-518.144159,-8503.660028,-74.020594
4182.757088,296.082377,-7967.393179,0.000000
4182.757412,444.123565,-8273.831378,0.000000
4182.757736,296.082377,-8197.221829,148.041188
4182.758061,0.000000,-8503.660028,-518.144159
4182.758385,-518.144159,-8886.707777,-444.123565
4182.758709,-814.226536,-8733.488677,-370.102971
4182.759034,-592.164754,-9039.926876,-1036.288319
4182.759358,-740.205942,-8810.098227,-1036.288319
4182.759682,0.000000,-8656.879127,-1184.329507
4182.760007,444.123565,-8656.879127,-814.226536
4182.760331,370.102971,-8350.440928,-1702.473667
4182.760655,148.041188,-8503.660028,-1110.308913
4182.760980,222.061783,-8503.660028,-1110.308913
4182.761304,0.000000,-8733.488677,-740.205942
4182.761628,-518.144159,-8580.269578,-1924.535449
4182.761953,-1036.288319,-9116.536426,-1406.391290
4182.762277,-1628.453072,-8733.488677,-1702.473667
4182.762601,-1554.432478,-9422.974625,-1850.514855
4182.762926,-1258.350101,-9039.926876,-1554.432478
4182.763250,-1628.453072,-8886.707777,-962.267725
4182.763574,-1480.411884,-9116.536426,-1184.329507
4182.763899,-962.267725,-8656.879127,-1554.432478
4182.764223,-296.082377,-8580.269578,-666.185348
4182.764548,-592.164754,-8810.098227,-592.164754
4182.764872,-962.267725,-9116.536426,-962.267725
4182.765196,-1184.329507,-9039.926876,-1110.308913
4182.765521,-1332.370696,-9193.145976,-740.205942
4182.765845,-1628.453072,-8197.221829,-1036.288319
4182.766169,-1554.432478,-9499.584175,-814.226536
4182.766494,0.000000,-9576.193725,-296.082377
4182.766818,-592.164754,-9039.926876,-296.082377
4182.767142,-592.164754,-9422.974625,0.000000
4182.767467,-74.020594,-9039.926876,-296.082377
4182.767791,-592.164754,-9346.365076,74.020594
4182.768115,-814.226536,-9193.145976,0.000000
4182.768440,-1258.350101,-9039.926876,74.020594
4182.768764,-3182.885551,-8886.707777,296.082377
4182.769088,-3849.070898,-8733.488677,296.082377
4182.769413,-4737.318029,-8503.660028,222.061783
4182.769737,-4663.297435,-8427.050478,0.000000
4182.770061,-4367.215058,-7814.174080,370.102971
4182.770386,-3404.947333,-7967.393179,296.082377
4182.770710,-3404.947333,-7814.174080,0.000000
4182.771034,-1628.453072,-8350.440928,740.205942
4182.771359,-962.267725,-8044.002729,0.000000
4182.771683,-1554.432478,-8656.879127,592.164754
4182.772007,-2072.576638,-8044.002729,370.102971
4182.772332,-2516.700203,-8427.050478,814.226536
4182.772656,-2664.741391,-8503.660028,518.144159
4182.772981,-2368.659014,-8503.660028,148.041188
4182.773305,-2516.700203,-8503.660028,740.205942
4182.773629,-2368.659014,-7431.126331,-222.061783
4182.773954,-1998.556043,-8733.488677,-148.041188
4182.774278,-814.226536,-7814.174080,-518.144159
4182.774602,-1628.453072,-7890.783629,-444.123565
4182.774927,-1998.556043,-8350.440928,-148.041188
4182.775251,-1702.473667,-8350.440928,222.061783
4182.775575,-2516.700203,-7660.954980,-296.082377
4182.775900,-2368.659014,-8810.098227,0.000000
4182.776224,-2146.597232,-8427.050478,-148.041188
4182.776548,-1184.329507,-8963.317327,0.000000
4182.776873,-148.041188,-7737.564530,0.000000
4182.777197,814.226536,-8656.879127,0.000000
4182.777521,1036.288319,-8273.831378,-814.226536
4182.777846,1924.535449,-8580.269578,-888.247130
4182.778170,1332.370696,-9039.926876,-666.185348
4182.778494,222.061783,-8273.831378,-444.123565
4182.778819,-1480.411884,-9422.974625,-666.185348
4182.779143,-2590.720797,-9499.584175,-1184.329507
4182.779467,-4589.276840,-9422.974625,-962.267725
4182.779792,-4959.379811,-8733.488677,-1480.411884
4182.780116,-4811.338623,-9346.365076,-1406.391290
4182.780440,-3701.029710,-8810.098227,-1110.308913
4182.780765,-2146.597232,-8503.660028,-1258.350101
4182.781089,444.123565,-8503.660028,-1332.370696
4182.781414,2886.803174,-7890.783629,-1110.308913
4182.781738,3701.029710,-8120.612279,-1184.329507
4182.782062,4219.173869,-8886.707777,-740.205942
4182.782387,3552.988522,-9269.755526,-740.205942
4182.782711,1480.411884,-9499.584175,-518.144159
4182.783035,-222.061783,-9422.974625,-888.247130
4182.783360,-3034.844362,-9959.241474,-1258.350101
4182.783684,-5625.565159,-9729.412825,-1480.411884
4182.784008,-6217.729913,-8886.707777,-2294.638420
4182.784333,-6735.874072,-8427.050478,-2146.597232
4182.784657,-5921.647536,-8120.612279,-1924.535449
4182.784981,-3627.009116,-7354.516781,-1702.473667
4182.785306,0.000000,-7124.688131,-1184.329507
4182.785630,3627.009116,-7890.783629,-1036.288319
4182.785954,4885.359217,-8503.660028,-296.082377
4182.786279,5995.668130,-9346.365076,444.123565
4182.786603,3997.112087,-9499.584175,444.123565
4182.786927,1036.288319,-11108.384721,74.020594
4182.787252,-1702.473667,-9806.022374,-370.102971
4182.787576,-5699.585753,-10189.070123,222.061783
4182.787900,-9918.759623,-9039.926876,0.000000
4182.788225,-9770.718434,-8273.831378,0.000000
4182.788549,-7920.203579,-8350.440928,0.000000
4182.788873,-5921.647536,-7354.516781,-370.102971
4182.789198,-1628.453072,-6665.030833,148.041188
4182.789522,2738.761985,-6511.811733,0.000000
4182.789847,7328.038826,-7354.516781,1480.411884
4182.790171,6735.874072,-8197.221829,592.164754
4182.790495,4885.359217,-9729.412825,1406.391290
4182.790820,1110.308913,-9269.755526,-518.144159
4182.791144,-4367.215058,-11797.870669,1998.556043
4182.791468,-7031.956449,-9806.022374,-1184.329507
4182.791793,-10881.027347,-10418.898773,888.247130
4182.792117,-13249.686362,-8197.221829,222.061783
4182.792441,-10658.965565,-6435.202183,0.000000
4182.792766,-5699.585753,-6281.983084,74.020594
4182.793090,0.000000,-5669.106685,-370.102971
4182.793414,5255.462188,-4749.792088,814.226536
4182.793739,9104.533087,-6358.592633,74.020594
4182.794063,10807.006753,-7354.516781,814.226536
4182.794387,7476.080014,-7201.297681,444.123565
4182.794712,2738.761985,-10189.070123,1702.473667
4182.795036,-2590.720797,-10035.851024,0.000000
4182.795360,-6069.688724,-11644.651570,518.144159
4182.795685,-8956.491898,-11184.994271,370.102971
4182.796009,-7328.038826,-9806.022374,-370.102971
4182.796333,-3552.988522,-7967.393179,-1480.411884
4182.796658,962.267725,-8273.831378,-740.205942
4182.796982,4885.359217,-5898.935335,-1850.514855
4182.797306,6365.771101,-7354.516781,-1110.308913
4182.797631,6661.853478,-5592.497135,-296.082377
4182.797955,6069.688724,-6665.030833,518.144159
4182.798279,3849.070898,-7660.954980,-740.205942
4182.798604,592.164754,-10495.508323,444.123565
4182.798928,-2294.638420,-9806.022374,-740.205942
4182.799253,-3182.885551,-11108.384721,-962.267725
4182.799577,-3034.844362,-10189.070123,0.000000
4182.799901,-814.226536,-10495.508323,-1110.308913
4182.800226,1850.514855,-8963.317327,-2146.597232
4182.800550,4367.215058,-8044.002729,-1702.473667
4182.800874,5699.585753,-7354.516781,-2072.576638
4182.801199,5699.585753,-6741.640382,-1406.391290
4182.801523,3775.050304,-6741.640382,0.000000
4182.801847,1628.453072,-7431.126331,-148.041188
4182.802172,1628.453072,-7660.954980,962.267725
4182.802496,1554.432478,-8963.317327,-962.267725
4182.802820,592.164754,-10572.117872,-1184.329507
4182.803145,1998.556043,-10035.851024,-1776.494261
4182.803469,2220.617826,-10648.727422,-2812.782580
4182.803793,2812.782580,-10725.336972,-1850.514855
4182.804118,1258.350101,-9882.631924,-2368.659014
4182.804442,-296.082377,-8963.317327,-1110.308913
4182.804766,-1554.432478,-7890.783629,-518.144159
4182.805091,-1480.411884,-7431.126331,74.020594
4182.805415,0.000000,-7967.393179,1036.288319
4182.805739,-222.061783,-5592.497135,1110.308913
4182.806064,2220.617826,-7737.564530,1628.453072
4182.806388,4145.153275,-6205.373534,0.000000
4182.806712,5329.482782,-8197.221829,-666.185348
4182.807037,4737.318029,-9193.145976,-2220.617826
4182.807361,3182.885551,-9882.631924,-2368.659014
4182.807686,-222.061783,-10035.851024,-962.267725
4182.808010,-2664.741391,-10265.679673,-296.082377
4182.808334,-4663.297435,-9959.241474,740.205942
4182.808659,-6439.791695,-9729.412825,592.164754
4182.808983,-3923.091493,-8886.707777,1480.411884
4182.809307,-2072.576638,-7354.516781,370.102971
4182.809632,888.247130,-7890.783629,1480.411884
4182.809956,4071.132681,-6281.983084,0.000000
4182.810280,3997.112087,-8120.612279,148.041188
4182.810605,3108.864956,-6205.373534,-1554.432478
4182.810929,740.205942,-8963.317327,-1332.370696
4182.811253,-1850.514855,-8963.317327,-1110.308913
4182.811578,-4811.338623,-9039.926876,-518.144159
4182.811902,-7402.059420,-10418.898773,1850.514855
4182.812226,-7105.977043,-9882.631924,1406.391290
4182.812551,-5107.421000,-8886.707777,2368.659014
4182.812875,-666.185348,-7890.783629,1406.391290
4182.813199,3034.844362,-7507.735880,888.247130
4182.813524,4737.318029,-7201.297681,-148.041188
4182.813848,5773.606348,-6894.859482,-1554.432478
4182.814172,3627.009116,-7431.126331,-888.247130
4182.814497,1258.350101,-7814.174080,-1258.350101
4182.814821,-1998.556043,-8810.098227,0.000000
4182.815145,-3775.050304,-9499.584175,-444.123565
4182.815470,-5699.585753,-10035.851024,962.267725
4182.815794,-3849.070898,-9806.022374,1258.350101
4182.816119,-1184.329507,-9959.241474,740.205942
4182.816443,1628.453072,-8963.317327,370.102971
4182.816767,3182.885551,-8427.050478,-148.041188
4182.817092,5551.544565,-7584.345430,-592.164754
4182.817416,4293.194464,-6665.030833,-1850.514855
4182.817740,4589.276840,-7584.345430,-1184.329507
4182.818065,666.185348,-7124.688131,-2590.720797
4182.818389,-1184.329507,-9269.755526,592.164754
4182.818713,-1702.473667,-7584.345430,-370.102971
4182.819038,-2294.638420,-10112.460574,296.082377
4182.819362,0.000000,-10112.460574,-296.082377
4182.819686,1110.308913,-9959.241474,0.000000
4182.820011,2812.782580,-9959.241474,-888.247130
4182.820335,4589.276840,-8580.269578,-1480.411884
4182.820659,3701.029710,-8886.707777,-1036.288319
4182.820984,2886.803174,-8197.221829,-1628.453072
4182.821308,2072.576638,-7737.564530,-2072.576638
4182.821632,1332.370696,-8963.317327,-1406.391290
4182.821957,518.144159,-7584.345430,-1110.308913
4182.822281,-444.123565,-8503.660028,222.061783
4182.822605,814.226536,-8656.879127,0.000000
4182.822930,1628.453072,-8810.098227,-370.102971
4182.823254,3034.844362,-9269.755526,-740.205942
4182.823578,2664.741391,-8733.488677,-1406.391290
4182.823903,2664.741391,-9499.584175,-962.267725
4182.824227,1628.453072,-9422.974625,-1850.514855
4182.824551,74.020594,-9576.193725,-888.247130
4182.824876,-1924.535449,-8656.879127,-1480.411884
4182.825200,-1480.411884,-8427.050478,518.144159
4182.825525,0.000000,-7584.345430,-222.061783
4182.825849,2072.576638,-8503.660028,0.000000
4182.826173,2886.803174,-7737.564530,-222.061783
4182.826498,3478.967927,-7660.954980,-888.247130
4182.826822,2368.659014,-8810.098227,0.000000
4182.827146,592.164754,-9039.926876,-666.185348
4182.827471,370.102971,-10342.289223,-370.102971
4182.827795,-3034.844362,-8810.098227,-1554.432478
4182.828119,-4219.173869,-10418.898773,222.061783
4182.828444,-3627.009116,-9269.755526,-444.123565
4182.828768,-2960.823768,-9806.022374,592.164754
4182.829092,-888.247130,-6894.859482,962.267725
4182.829417,1924.535449,-6818.249932,0.000000
4182.829741,3404.947333,-8656.879127,0.000000
4182.830065,4589.276840,-6665.030833,-296.082377
4182.830390,1406.391290,-8273.831378,0.000000
4182.830714,-1480.411884,-8350.440928,-222.061783
4182.831038,-3330.926739,-8963.317327,-222.061783
4182.831363,-6587.832884,-9269.755526,666.185348
4182.831687,-5255.462188,-9422.974625,962.267725
4182.832011,-4219.173869,-8656.879127,370.102971
4182.832336,-2072.576638,-8580.269578,296.082377
4182.832660,740.205942,-7584.345430,296.082377
4182.832984,3775.050304,-8427.050478,148.041188
4182.833309,4737.318029,-7277.907231,-814.226536
4182.833633,4293.194464,-8197.221829,-148.041188
4182.833958,2664.741391,-7277.907231,-740.205942
4182.834282,814.226536,-8656.879127,74.020594
4182.834606,-2368.659014,-8733.488677,74.020594
4182.834931,-3849.070898,-10035.851024,1406.391290
4182.835255,-4737.318029,-8580.269578,0.000000
4182.835579,-1924.535449,-9652.803275,740.205942
4182.835904,0.000000,-8656.879127,-148.041188
4182.836228,1998.556043,-8656.879127,-666.185348
4182.836552,2368.659014,-8656.879127,-444.123565
4182.836877,3256.906145,-7354.516781,-592.164754
4182.837201,3330.926739,-8197.221829,-148.041188
4182.837525,1036.288319,-7507.735880,-1850.514855
4182.837850,148.041188,-9116.536426,74.020594
4182.838174,-2738.761985,-8273.831378,74.020594
4182.838498,-1924.535449,-9346.365076,1036.288319
4182.838823,0.000000,-8733.488677,0.000000
4182.839147,888.247130,-9882.631924,-666.185348
4182.839471,2590.720797,-8810.098227,-962.267725
4182.839796,3034.844362,-8503.660028,-2368.659014
4182.840120,3701.029710,-9499.584175,-1332.370696
4182.840444,2664.741391,-7967.393179,-2442.679609
4182.840769,1406.391290,-9269.755526,-1406.391290
4182.841093,1924.535449,-9193.145976,-888.247130
4182.841417,-1184.329507,-8044.002729,-888.247130
4182.841742,222.061783,-9039.926876,-444.123565
4182.842066,666.185348,-7660.954980,0.000000
4182.842391,888.247130,-9346.365076,-962.267725
4182.842715,5773.606348,-8273.831378,-1332.370696
4182.843039,4145.153275,-8733.488677,-1628.453072
4182.843364,2960.823768,-10418.898773,-1184.329507
4182.843688,1110.308913,-8810.098227,-1628.453072
4182.844012,-2664.741391,-9882.631924,-1924.535449
4182.844337,-3182.885551,-8656.879127,-1480.411884
4182.844661,-3034.844362,-8656.879127,0.000000
4182.844985,-2812.782580,-8733.488677,296.082377
4182.845310,0.000000,-8503.660028,0.000000
4182.845634,2516.700203,-8197.221829,0.000000
4182.845958,4663.297435,-9652.803275,-1332.370696
4182.846283,5551.544565,-8580.269578,-666.185348
4182.846607,3997.112087,-8656.879127,-962.267725
4182.846931,296.082377,-8503.660028,-1480.411884
4182.847256,-1332.370696,-9422.974625,-814.226536
4182.847580,-3627.009116,-10418.898773,-148.041188
4182.847904,-4737.318029,-9116.536426,-666.185348
4182.848229,-3775.050304,-9806.022374,666.185348
4182.848553,-3034.844362,-8580.269578,444.123565
4182.848877,-222.061783,-8733.488677,1258.350101
4182.849202,2590.720797,-6894.859482,0.000000
4182.849526,2812.782580,-8580.269578,518.144159
4182.849850,3478.967927,-6818.249932,-518.144159
4182.850175,2738.761985,-8197.221829,-296.082377
4182.850499,-814.226536,-7354.516781,-888.247130
4182.850823,-3108.864956,-8503.660028,370.102971
4182.851148,-4145.153275,-8733.488677,1036.288319
4182.851472,-4811.338623,-8810.098227,962.267725
4182.851797,-4071.132681,-8427.050478,592.164754
4182.852121,-1554.432478,-8963.317327,370.102971
4182.852445,2516.700203,-8427.050478,0.000000
4182.852770,3552.988522,-7967.393179,0.000000
4182.853094,3849.070898,-7890.783629,-370.102971
4182.853418,1406.391290,-7277.907231,-148.041188
4182.853743,740.205942,-8963.317327,-888.247130
4182.854067,-2072.576638,-7967.393179,370.102971
4182.854391,-1998.556043,-8503.660028,-148.041188
4182.854716,-2738.761985,-9806.022374,1184.329507
4182.855040,-2368.659014,-8273.831378,0.000000
4182.855364,592.164754,-9116.536426,592.164754
4182.855688,888.247130,-8503.660028,296.082377
4182.856012,3404.947333,-9499.584175,-444.123565
4182.856336,2664.741391,-7814.174080,-1184.329507
4182.856661,1924.535449,-8886.707777,-518.144159
4182.856985,962.267725,-7737.564530,-888.247130
4182.857309,-444.123565,-8120.612279,-296.082377
4182.857633,-2294.638420,-8503.660028,666.185348
4182.857957,-1628.453072,-8580.269578,0.000000
4182.858281,296.082377,-8580.269578,-444.123565
4182.858605,1924.535449,-8350.440928,-518.144159
4182.858929,4219.173869,-8733.488677,0.000000
4182.859254,4515.256246,-8503.660028,-2146.597232
4182.859578,4071.132681,-9652.803275,-1998.556043
4182.859902,3478.967927,-8656.879127,-1850.514855
4182.860226,1332.370696,-9652.803275,-1184.329507
4182.860550,-1702.473667,-9576.193725,-1480.411884
4182.860874,-2072.576638,-9652.803275,-666.185348
4182.861198,-2368.659014,-8656.879127,0.000000
4182.861522,-1036.288319,-9039.926876,74.020594
4182.861847,1406.391290,-9039.926876,-370.102971
4182.862171,4663.297435,-8044.002729,-740.205942
4182.862495,4737.318029,-8427.050478,-962.267725
4182.862819,4811.338623,-8197.221829,-2220.617826
4182.863143,3701.029710,-9652.803275,-962.267725
4182.863467,74.020594,-8503.660028,-1332.370696
4182.863791,-1332.370696,-9422.974625,-1036.288319
4182.864115,-3701.029710,-9269.755526,-962.267725
4182.864439,-3701.029710,-8886.707777,0.000000
4182.864764,-1850.514855,-8963.317327,0.000000
4182.865088,814.226536,-9652.803275,0.000000
4182.865412,2072.576638,-8350.440928,-444.123565
4182.865736,4515.256246,-8273.831378,-1258.350101
4182.866060,4515.256246,-8810.098227,-296.082377
4182.866384,2294.638420,-8044.002729,-1702.473667
4182.866708,1258.350101,-9193.145976,-1480.411884
4182.867032,-1702.473667,-8580.269578,-518.144159
4182.867357,-3627.009116,-9652.803275,0.000000
4182.867681,-3478.967927,-9346.365076,0.000000
4182.868005,-3034.844362,-9116.536426,666.185348
4182.868329,-1110.308913,-8580.269578,444.123565
4182.868653,888.247130,-8120.612279,444.123565
4182.868977,1110.308913,-8810.098227,222.061783
4182.869301,2294.638420,-8120.612279,0.000000
4182.869625,2368.659014,-7660.954980,-222.061783
4182.869950,666.185348,-7890.783629,-148.041188
4182.870274,-1258.350101,-8120.612279,592.164754
4182.870598,-3404.947333,-8350.440928,296.082377
4182.870922,-3478.967927,-8656.879127,1036.288319
4182.871246,-2368.659014,-7737.564530,444.123565
4182.871570,-666.185348,-8273.831378,1480.411884
4182.871894,1406.391290,-7584.345430,888.247130
4182.872218,2664.741391,-8350.440928,148.041188
4182.872542,5181.441594,-8580.269578,-592.164754
4182.872867,2368.659014,-8044.002729,-592.164754
4182.873191,1406.391290,-7584.345430,-1258.350101
4182.873515,-1554.432478,-8733.488677,-518.144159
4182.873839,-2590.720797,-9193.145976,0.000000
4182.874163,-3701.029710,-8886.707777,296.082377
4182.874487,-2960.823768,-8580.269578,518.144159
4182.874811,-1258.350101,-8273.831378,518.144159
4182.875135,1776.494261,-8273.831378,592.164754
4182.875460,3182.885551,-8503.660028,-370.102971
4182.875784,2886.803174,-8503.660028,-814.226536
4182.876108,3404.947333,-8733.488677,-1258.350101
4182.876432,1998.556043,-8580.269578,-888.247130
4182.876756,-1332.370696,-8197.221829,-1184.329507
4182.877080,-2146.597232,-9346.365076,-296.082377
4182.877404,-2294.638420,-8810.098227,222.061783
4182.877728,-1554.432478,-9499.584175,0.000000
4182.878052,-370.102971,-8810.098227,0.000000
4182.878377,2590.720797,-8350.440928,0.000000
4182.878701,4145.153275,-8503.660028,-666.185348
4182.879025,4885.359217,-8963.317327,-1702.473667
4182.879349,4441.235652,-8886.707777,-1258.350101
4182.879673,2812.782580,-8350.440928,-2146.597232
4182.879997,370.102971,-9499.584175,-1036.288319
4182.880321,-888.247130,-9269.755526,-1258.350101
4182.880645,-1110.308913,-9729.412825,0.000000
4182.880970,-1480.411884,-8810.098227,-296.082377
4182.881294,518.144159,-9269.755526,0.000000
4182.881618,1776.494261,-8886.707777,-814.226536
4182.881942,3256.906145,-8733.488677,-666.185348
4182.882266,4145.153275,-8197.221829,-444.123565
4182.882590,4145.153275,-8963.317327,-740.205942
4182.882914,2072.576638,-7660.954980,-1554.432478
4182.883238,-666.185348,-8427.050478,-1406.391290
4182.883563,-1776.494261,-8886.707777,0.000000
4182.883887,-2664.741391,-8963.317327,0.000000
4182.884211,-1998.556043,-9346.365076,296.082377
4182.884535,-666.185348,-9193.145976,370.102971
4182.884859,2220.617826,-9116.536426,148.041188
4182.885183,3552.988522,-8197.221829,-1036.288319
4182.885507,4367.215058,-9499.584175,-888.247130
4182.885831,3404.947333,-8580.269578,-370.102971
4182.886155,1406.391290,-9039.926876,-666.185348
4182.886480,-370.102971,-8503.660028,-370.102971
4182.886804,-3256.906145,-8810.098227,0.000000
4182.887128,-3701.029710,-9422.974625,0.000000
4182.887452,-3034.844362,-8656.879127,0.000000
4182.887776,-1924.535449,-8733.488677,1036.288319
4182.888100,296.082377,-7507.735880,740.205942
4182.888424,2220.617826,-8197.221829,888.247130
4182.888748,3330.926739,-8886.707777,0.000000
4182.889073,2516.700203,-8120.612279,148.041188
4182.889397,0.000000,-7737.564530,-888.247130
4182.889721,-888.247130,-8120.612279,-814.226536
4182.890045,-3701.029710,-8273.831378,814.226536
4182.890369,-4663.297435,-8580.269578,1036.288319
4182.890693,-4145.153275,-8350.440928,1036.288319
4182.891017,-2294.638420,-7431.126331,296.082377
4182.891341,148.041188,-8273.831378,1184.329507
4182.891666,2812.782580,-7124.688131,-1036.288319
4182.891990,3256.906145,-9039.926876,74.020594
4182.892314,4071.132681,-7584.345430,-1184.329507
4182.892638,2516.700203,-9039.926876,-148.041188
4182.892962,-370.102971,-8656.879127,-592.164754
4182.893286,-2294.638420,-9193.145976,-592.164754
4182.893610,-3182.885551,-9193.145976,222.061783
4182.893934,-3923.091493,-8350.440928,-148.041188
4182.894258,-2146.597232,-9193.145976,888.247130
4182.894583,592.164754,-8120.612279,518.144159
4182.894907,2590.720797,-8350.440928,148.041188
4182.895231,3997.112087,-8197.221829,-740.205942
4182.895555,3330.926739,-8120.612279,-1258.350101
4182.895879,3701.029710,-8503.660028,-1184.329507
4182.896203,0.000000,-7967.393179,-1110.308913
4182.896527,-1480.411884,-9499.584175,148.041188
4182.896851,-2664.741391,-8580.269578,296.082377
4182.897176,-1554.432478,-9806.022374,592.164754
4182.897500,-592.164754,-8733.488677,-370.102971
4182.897824,1776.494261,-8963.317327,-444.123565
4182.898148,3997.112087,-8886.707777,-888.247130
4182.898472,3627.009116,-8810.098227,-1998.556043
4182.898796,3478.967927,-9652.803275,-1776.494261
4182.899120,2368.659014,-8273.831378,-1554.432478
4182.899444,814.226536,-9346.365076,-1258.350101
4182.899769,-370.102971,-8886.707777,-1480.411884
4182.900093,-1332.370696,-9499.584175,-148.041188
4182.900417,-1036.288319,-9039.926876,-666.185348
4182.900741,148.041188,-9346.365076,-296.082377
4182.901065,2812.782580,-8580.269578,-370.102971
4182.901389,4145.153275,-8656.879127,-296.082377
4182.901713,3923.091493,-7660.954980,-1258.350101
4182.902037,4219.173869,-8656.879127,-518.144159
4182.902361,2072.576638,-7967.393179,-1406.391290
4182.902686,148.041188,-8350.440928,-592.164754
4182.903010,-1850.514855,-8350.440928,-1036.288319
4182.903334,-3256.906145,-9269.755526,444.123565
4182.903658,-2664.741391,-8350.440928,666.185348
4182.903982,-1628.453072,-8733.488677,518.144159
4182.904306,666.185348,-8350.440928,-592.164754
4182.904630,3775.050304,-9039.926876,-592.164754
4182.904954,4293.194464,-8350.440928,-1036.288319
4182.905279,4367.215058,-8810.098227,-1184.329507
4182.905603,2812.782580,-8810.098227,-296.082377
4182.905927,74.020594,-8120.612279,-962.267725
4182.906251,-1554.432478,-9269.755526,74.020594
4182.906575,-3627.009116,-8733.488677,-222.061783
4182.906899,-3775.050304,-8886.707777,740.205942
4182.907223,-1924.535449,-8733.488677,814.226536
4182.907547,666.185348,-8350.440928,666.185348
4182.907872,3182.885551,-7737.564530,518.144159
4182.908196,3552.988522,-8273.831378,0.000000
4182.908520,3552.988522,-8120.612279,74.020594
4182.908844,1924.535449,-7507.735880,-888.247130
4182.909168,0.000000,-8656.879127,-296.082377
4182.909492,-2664.741391,-8427.050478,148.041188
4182.909816,-4293.194464,-9193.145976,1036.288319
4182.910140,-4515.256246,-8427.050478,444.123565
4182.910464,-2368.659014,-8580.269578,222.061783
4182.910789,0.000000,-9116.536426,444.123565
4182.911113,2146.597232,-8427.050478,148.041188
4182.911437,2294.638420,-7890.783629,-962.267725
4182.911761,3108.864956,-8733.488677,-148.041188
4182.912085,2886.803174,-7890.783629,-592.164754
4182.912409,518.144159,-9193.145976,-888.247130
4182.912733,-518.144159,-8120.612279,-592.164754
4182.913057,-3627.009116,-9269.755526,-148.041188
4182.913382,-3034.844362,-9269.755526,370.102971
4182.913706,-1702.473667,-8656.879127,592.164754
4182.914030,-222.061783,-8580.269578,0.000000
4182.914354,2146.597232,-7814.174080,666.185348
4182.914678,3701.029710,-8580.269578,-888.247130
4182.915002,3849.070898,-8733.488677,-1332.370696
4182.915326,2664.741391,-7967.393179,-888.247130
4182.915650,518.144159,-7967.393179,-666.185348
4182.915975,-2220.617826,-8733.488677,-1036.288319
4182.916299,-2960.823768,-9576.193725,-1258.350101
4182.916623,-2590.720797,-10801.946522,74.020594
4182.916947,-3627.009116,-6971.469032,-222.061783
4182.917271,1702.473667,-9193.145976,-296.082377
4182.917595,3034.844362,-9269.755526,-740.205942
4182.917919,5033.400406,-8580.269578,-1554.432478
4182.918243,5551.544565,-8427.050478,-1258.350101
4182.918567,2886.803174,-8580.269578,-1924.535449
4182.918892,1480.411884,-9806.022374,-1332.370696
4182.919216,0.000000,-8503.660028,-1628.453072
4182.919540,-1850.514855,-9346.365076,-666.185348
4182.919864,-1554.432478,-9346.365076,296.082377
4182.920188,-1628.453072,-8120.612279,-222.061783
4182.920512,518.144159,-9422.974625,222.061783
4182.920836,1554.432478,-8273.831378,-962.267725
4182.921160,4071.132681,-8886.707777,-666.185348
4182.921485,3034.844362,-8427.050478,-666.185348
4182.921809,2590.720797,-8044.002729,-1258.350101
4182.922133,1258.350101,-7967.393179,-1850.514855
4182.922457,-1776.494261,-9346.365076,-444.123565
4182.922781,-3256.906145,-8810.098227,-666.185348
4182.923105,-2886.803174,-9269.755526,444.123565
4182.923429,-1850.514855,-8273.831378,0.000000
4182.923753,814.226536,-8580.269578,814.226536
4182.924078,3552.988522,-8503.660028,518.144159
4182.924402,4737.318029,-7814.174080,-814.226536
4182.924726,4589.276840,-9039.926876,-1554.432478
4182.925050,3404.947333,-8810.098227,-1628.453072
4182.925374,222.061783,-8810.098227,-962.267725
4182.925698,-1776.494261,-9193.145976,-518.144159
4182.926022,-1998.556043,-9193.145976,148.041188
4182.926346,-4367.215058,-8350.440928,148.041188
4182.926670,-2294.638420,-9193.145976,814.226536
4182.926995,-370.102971,-8580.269578,0.000000
4182.927319,1702.473667,-8656.879127,370.102971
4182.927643,3108.864956,-7814.174080,-370.102971
4182.927967,4441.235652,-8197.221829,74.020594
4182.928291,2442.679609,-8273.831378,-666.185348
4182.928615,1406.391290,-7507.735880,0.000000
4182.928939,-1258.350101,-8810.098227,-814.226536
4182.929263,-5107.421000,-8350.440928,-444.123565
4182.929588,-4515.256246,-9652.803275,888.247130
4182.929912,-3034.844362,-8503.660028,666.185348
4182.930236,-2220.617826,-8503.660028,1036.288319
4182.930560,2294.638420,-7431.126331,0.000000
4182.930884,3256.906145,-8427.050478,74.020594
4182.931208,5033.400406,-8350.440928,-1924.535449
4182.931532,3404.947333,-8580.269578,-1110.308913
4182.931856,962.267725,-8350.440928,-962.267725
4182.932181,-740.205942,-8580.269578,-444.123565
4182.932505,-1036.288319,-9346.365076,-592.164754
4182.932829,-2516.700203,-9422.974625,0.000000
4182.933153,-2516.700203,-8810.098227,0.000000
4182.933477,-1480.411884,-9499.584175,222.061783
4182.933801,1332.370696,-8886.707777,-370.102971
4182.934125,1554.432478,-8503.660028,-296.082377
4182.934449,2738.761985,-8963.317327,148.041188
4182.934773,1628.453072,-7048.078582,-888.247130
4182.935098,1036.288319,-8427.050478,-1110.308913
4182.935422,-370.102971,-8120.612279,-814.226536
4182.935746,-1480.411884,-8886.707777,0.000000
4182.936070,-2960.823768,-8120.612279,0.000000
4182.936394,-370.102971,-9116.536426,666.185348
4182.936718,-444.123565,-10112.460574,-370.102971
4182.937042,1776.494261,-9193.145976,-222.061783
4182.937366,3552.988522,-8886.707777,-370.102971
4182.937691,3478.967927,-8580.269578,-1406.391290
4182.938015,2368.659014,-8503.660028,-1554.432478
4182.938339,1110.308913,-8273.831378,-1998.556043
4182.938663,-962.267725,-9576.193725,-444.123565
4182.938987,-1258.350101,-8273.831378,-666.185348
4182.939311,-2146.597232,-9269.755526,-222.061783
4182.939635,-296.082377,-7737.564530,0.000000
4182.939959,518.144159,-8044.002729,-296.082377
4182.940283,3108.864956,-8580.269578,0.000000
4182.940608,4367.215058,-8197.221829,-444.123565
4182.940932,4071.132681,-9193.145976,-666.185348
4182.941256,3701.029710,-8120.612279,-1184.329507
4182.941580,740.205942,-8580.269578,-888.247130
4182.941904,-2072.576638,-8273.831378,-370.102971
4182.942228,-3182.885551,-8273.831378,0.000000
4182.942552,-3627.009116,-8503.660028,740.205942
4182.942876,-2146.597232,-8503.660028,-444.123565
4182.943201,518.144159,-7660.954980,296.082377
4182.943525,2072.576638,-8044.002729,-222.061783
4182.943849,5033.400406,-8197.221829,-1332.370696
4182.944173,5255.462188,-8044.002729,-1110.308913
4182.944497,3478.967927,-8656.879127,-1480.411884
4182.944821,1702.473667,-8810.098227,-962.267725
4182.945145,-222.061783,-9346.365076,-1110.308913
4182.945469,-2812.782580,-9882.631924,-222.061783
4182.945794,-3775.050304,-9039.926876,-222.061783
4182.946118,-2812.782580,-9499.584175,444.123565
4182.946442,-1480.411884,-8427.050478,74.020594
4182.946766,2146.597232,-8120.612279,962.267725
4182.947090,3182.885551,-7431.126331,0.000000
4182.947414,4663.297435,-8810.098227,-148.041188
4182.947738,2886.803174,-7431.126331,-1406.391290
4182.948062,814.226536,-8733.488677,-296.082377
4182.948386,-1702.473667,-8350.440928,-592.164754
4182.948711,-3701.029710,-9193.145976,-296.082377
4182.949035,-4663.297435,-9346.365076,444.123565
4182.949359,-4293.194464,-8810.098227,1480.411884
4182.949683,-2146.597232,-8886.707777,0.000000
4182.950007,0.000000,-8656.879127,74.020594
4182.950331,2294.638420,-8197.221829,-666.185348
4182.950655,4071.132681,-8733.488677,-1036.288319
4182.950979,3404.947333,-7814.174080,-1406.391290
4182.951304,2294.638420,-8886.707777,-1110.308913
4182.951628,0.000000,-8273.831378,-592.164754
4182.951952,-2072.576638,-9269.755526,-296.082377
4182.952276,-3108.864956,-9652.803275,296.082377
4182.952600,-3330.926739,-8886.707777,74.020594
4182.952924,-1480.411884,-9346.365076,740.205942
4182.953248,-296.082377,-8197.221829,-148.041188
4182.953572,2738.761985,-8810.098227,592.164754
4182.953897,3404.947333,-7890.783629,-1036.288319
4182.954221,2590.720797,-8044.002729,-888.247130
4182.954545,1332.370696,-7660.954980,-1036.288319
4182.954869,74.020594,-8733.488677,-962.267725
4182.955193,-1776.494261,-8350.440928,-148.041188
4182.955517,-3923.091493,-9116.536426,518.144159
4182.955841,-3478.967927,-8044.002729,0.000000
4182.956166,-2146.597232,-8273.831378,74.020594
4182.956490,740.205942,-8810.098227,296.082377
4182.956814,3701.029710,-8350.440928,-518.144159
4182.957138,3997.112087,-8197.221829,-740.205942
4182.957463,4367.215058,-8580.269578,-1702.473667
4182.957787,3330.926739,-8503.660028,-1184.329507
4182.958111,2072.576638,-8580.269578,-1702.473667
4182.958435,-370.102971,-9346.365076,-444.123565
4182.958760,-1184.329507,-9116.536426,148.041188
4182.959084,-2294.638420,-8580.269578,222.061783
4182.959408,-370.102971,-9039.926876,444.123565
4182.959732,1110.308913,-8197.221829,444.123565
4182.960057,2886.803174,-8886.707777,-296.082377
4182.960381,3478.967927,-8580.269578,-592.164754
4182.960705,3627.009116,-9039.926876,-814.226536
4182.961029,222.061783,-8273.831378,-1850.514855
4182.961353,-222.061783,-8503.660028,0.000000
4182.961678,-2072.576638,-8044.002729,-740.205942
4182.962002,-3034.844362,-9652.803275,0.000000
4182.962326,-1110.308913,-8044.002729,222.061783
4182.962650,-296.082377,-8810.098227,666.185348
4182.962975,2146.597232,-8197.221829,74.020594
4182.963299,4589.276840,-7737.564530,-296.082377
4182.963623,6217.729913,-9346.365076,-962.267725
4182.963947,4811.338623,-7737.564530,-1258.350101
4182.964272,3330.926739,-8656.879127,-1110.308913
4182.964596,1924.535449,-9269.755526,-1702.473667
4182.964920,-2146.597232,-9269.755526,-1184.329507
4182.965244,-1776.494261,-9652.803275,-592.164754
4182.965569,-4959.379811,-8273.831378,222.061783
4182.965893,-3627.009116,-8810.098227,518.144159
4182.966217,-1110.308913,-8656.879127,148.041188
4182.966541,1480.411884,-8427.050478,296.082377
4182.966866,2960.823768,-8273.831378,-1110.308913
4182.967190,3552.988522,-8427.050478,-1184.329507
4182.967514,2294.638420,-8120.612279,-814.226536
4182.967838,1036.288319,-8963.317327,-1406.391290
4182.968163,-1406.391290,-8427.050478,-444.123565
4182.968487,-4219.173869,-8580.269578,-222.061783
4182.968811,-4515.256246,-9193.145976,1036.288319
4182.969135,-2368.659014,-8810.098227,370.102971
4182.969459,-592.164754,-8733.488677,370.102971
4182.969784,2368.659014,-8197.221829,0.000000
4182.970108,3923.091493,-8197.221829,-962.267725
4182.970432,4737.318029,-8733.488677,-1110.308913
4182.970756,5107.421000,-8886.707777,-1110.308913
4182.971081,2220.617826,-8733.488677,-1184.329507
4182.971405,-1850.514855,-9269.755526,-1036.288319
4182.971729,-3256.906145,-9499.584175,222.061783
4182.972053,-3775.050304,-8810.098227,-296.082377
4182.972378,-4293.194464,-9652.803275,592.164754
4182.972702,-2368.659014,-8963.317327,592.164754
4182.973026,-740.205942,-8656.879127,-148.041188
4182.973350,1554.432478,-9422.974625,518.144159
4182.973675,2590.720797,-7660.954980,-1406.391290
4182.973999,2812.782580,-8427.050478,0.000000
4182.974323,1924.535449,-7967.393179,-888.247130
4182.974647,74.020594,-7737.564530,-592.164754
4182.974972,-1480.411884,-8580.269578,592.164754
4182.975296,-1332.370696,-8273.831378,666.185348
4182.975620,-1480.411884,-8503.660028,740.205942
4182.975944,814.226536,-8120.612279,888.247130
4182.976269,2294.638420,-8656.879127,740.205942
4182.976593,3849.070898,-8273.831378,-1332.370696
4182.976917,4293.194464,-9422.974625,-666.185348
4182.977241,2664.741391,-7814.174080,-1776.494261
4182.977566,1110.308913,-8810.098227,-962.267725
4182.977890,-1110.308913,-8044.002729,-1332.370696
4182.978214,-1776.494261,-9422.974625,222.061783
4182.978538,-3997.112087,-7660.954980,-888.247130
4182.978862,-1110.308913,-9116.536426,1184.329507
4182.979187,-148.041188,-7584.345430,0.000000
4182.979511,1110.308913,-7814.174080,296.082377
4182.979835,4145.153275,-9806.022374,-962.267725
4182.980159,1554.432478,-8503.660028,-962.267725
4182.980484,4515.256246,-8503.660028,-1776.494261
4182.980808,2516.700203,-8503.660028,-592.164754
4182.981132,-888.247130,-7277.907231,-1554.432478
4182.981456,-1110.308913,-9652.803275,740.205942
4182.981781,-3108.864956,-8963.317327,296.082377
4182.982105,-1628.453072,-9346.365076,592.164754
4182.982429,222.061783,-7354.516781,444.123565
4182.982753,2072.576638,-8503.660028,-444.123565
4182.983078,5551.544565,-8427.050478,-666.185348
4182.983402,4293.194464,-7737.564530,-1332.370696
4182.983726,4293.194464,-9193.145976,-1554.432478
4182.984050,962.267725,-8273.831378,-1258.350101
4182.984375,-148.041188,-9193.145976,-1332.370696
4182.984699,-2442.679609,-9729.412825,-518.144159
4182.985023,-2368.659014,-9116.536426,0.000000
4182.985347,-3182.885551,-9499.584175,-518.144159
4182.985672,-2368.659014,-9269.755526,444.123565
4182.985996,148.041188,-8503.660028,222.061783
4182.986320,1628.453072,-7967.393179,-1258.350101
4182.986644,2442.679609,-8810.098227,444.123565
4182.986969,3108.864956,-7431.126331,-1480.411884
4182.987293,1776.494261,-8810.098227,-888.247130
4182.987617,-222.061783,-7354.516781,-814.226536
4182.987941,-1702.473667,-8733.488677,74.020594
4182.988265,-3923.091493,-8273.831378,888.247130
4182.988590,-2664.741391,-9116.536426,1184.329507
4182.988914,-1406.391290,-8733.488677,222.061783
4182.989238,814.226536,-8350.440928,666.185348
4182.989562,2886.803174,-7890.783629,-1332.370696
4182.989887,4441.235652,-9269.755526,-962.267725
4182.990211,2738.761985,-7967.393179,-1110.308913
4182.990535,1850.514855,-8886.707777,-814.226536
4182.990859,-592.164754,-8503.660028,-814.226536
4182.991184,-2960.823768,-8503.660028,0.000000
4182.991508,-3330.926739,-9422.974625,592.164754
4182.991832,-1924.535449,-7660.954980,-296.082377
4182.992156,-1628.453072,-9729.412825,888.247130
4182.992481,666.185348,-7507.735880,0.000000
4182.992805,2368.659014,-8580.269578,1036.288319
4182.993129,2516.700203,-8044.002729,0.000000
4182.993453,3108.864956,-7660.954980,0.000000
4182.993778,1480.411884,-7584.345430,-296.082377
4182.994102,-370.102971,-8656.879127,-1406.391290
4182.994426,-1332.370696,-8503.660028,370.102971
4182.994750,-2442.679609,-8044.002729,592.164754
4182.995075,-2960.823768,-8656.879127,592.164754
4182.995399,-1480.411884,-8120.612279,814.226536
4182.995723,1554.432478,-8580.269578,518.144159
4182.996047,2960.823768,-7660.954980,-592.164754
4182.996372,3108.864956,-8580.269578,-740.205942
4182.996696,2886.803174,-8120.612279,-888.247130
4182.997020,1924.535449,-8350.440928,-962.267725
4182.997344,1702.473667,-9499.584175,-1332.370696
4182.997668,-444.123565,-9039.926876,-1480.411884
4182.997993,-2368.659014,-9422.974625,0.000000
4182.998317,-1998.556043,-8580.269578,-740.205942
4182.998641,-1554.432478,-8580.269578,1110.308913
4182.998965,296.082377,-7584.345430,444.123565
4182.999290,2812.782580,-8273.831378,74.020594
4182.999614,3775.050304,-7890.783629,-1258.350101
4182.999938,4293.194464,-9039.926876,-1036.288319
4183.000262,2590.720797,-8503.660028,-2368.659014
4183.000587,0.000000,-8963.317327,-666.185348
4183.000911,-2590.720797,-8427.050478,-370.102971
4183.001235,-2812.782580,-8580.269578,-296.082377
4183.001559,-2664.741391,-9269.755526,518.144159
4183.001884,-814.226536,-8350.440928,-444.123565
4183.002208,1924.535449,-8733.488677,0.000000
4183.002532,3701.029710,-8197.221829,-1480.411884
4183.002856,4589.276840,-9116.536426,-1184.329507
4183.003181,4219.173869,-8120.612279,-2072.576638
4183.003505,3108.864956,-9959.241474,-888.247130
4183.003829,666.185348,-8427.050478,-1850.514855
4183.004153,-2368.659014,-9806.022374,0.000000
4183.004478,-2442.679609,-8733.488677,-1480.411884
4183.004802,-2664.741391,-9806.022374,148.041188
4183.005126,-1110.308913,-9193.145976,-370.102971
4183.005450,74.020594,-8656.879127,370.102971
4183.005774,2590.720797,-8273.831378,74.020594
4183.006099,2516.700203,-9269.755526,-592.164754
4183.006423,3034.844362,-8120.612279,-1184.329507
4183.006747,2886.803174,-8350.440928,-1554.432478
4183.007071,0.000000,-8733.488677,-888.247130
4183.007396,-1628.453072,-8120.612279,0.000000
4183.007720,-2960.823768,-8810.098227,814.226536
4183.008044,-4219.173869,-8656.879127,518.144159
4183.008368,-2368.659014,-7967.393179,518.144159
4183.008693,0.000000,-8580.269578,0.000000
4183.009017,1850.514855,-8656.879127,0.000000
4183.009341,3849.070898,-8120.612279,-296.082377
4183.009665,3923.091493,-8120.612279,-814.226536
4183.009990,3182.885551,-8810.098227,-296.082377
4183.010314,1554.432478,-9499.584175,-1332.370696
4183.010638,-888.247130,-9039.926876,-888.247130
4183.010962,-2294.638420,-9499.584175,148.041188
4183.011287,-3330.926739,-9039.926876,962.267725
4183.011611,-3182.885551,-9116.536426,1036.288319
4183.011935,-814.226536,-7890.783629,888.247130
4183.012259,1036.288319,-8350.440928,370.102971
4183.012584,2368.659014,-8197.221829,0.000000
4183.012908,2294.638420,-8273.831378,-370.102971
4183.013232,1406.391290,-7584.345430,-888.247130
4183.013556,666.185348,-8427.050478,-444.123565
4183.013881,-1554.432478,-7814.174080,-518.144159
4183.014205,-2368.659014,-9039.926876,1406.391290
4183.014529,-2368.659014,-8886.707777,740.205942
4183.014853,-1776.494261,-8427.050478,1036.288319
4183.015177,1110.308913,-7890.783629,74.020594
4183.015502,2960.823768,-8120.612279,-518.144159
4183.015826,4145.153275,-8503.660028,-222.061783
4183.016150,4959.379811,-8044.002729,-1258.350101
4183.016474,2590.720797,-9039.926876,-518.144159
4183.016799,222.061783,-8810.098227,-2220.617826
4183.017123,-1628.453072,-8656.879127,-666.185348
4183.017447,-3034.844362,-9422.974625,0.000000
4183.017771,-1924.535449,-8963.317327,-222.061783
4183.018096,-962.267725,-9269.755526,444.123565
4183.018420,666.185348,-8503.660028,222.061783
4183.018744,1850.514855,-9576.193725,-222.061783
4183.019068,3701.029710,-8810.098227,-1110.308913
4183.019393,4145.153275,-8273.831378,-592.164754
4183.019717,2368.659014,-7967.393179,-1480.411884
4183.020041,888.247130,-9039.926876,-1184.329507
4183.020365,-2442.679609,-8503.660028,-1036.288319
4183.020690,-3034.844362,-9116.536426,0.000000
4183.021014,-2960.823768,-9039.926876,0.000000
4183.021338,-1036.288319,-8580.269578,518.144159
4183.021662,1924.535449,-8273.831378,-222.061783
4183.021987,3256.906145,-8350.440928,0.000000
4183.022311,4441.235652,-8044.002729,-888.247130
4183.022635,4737.318029,-8886.707777,-1998.556043
4183.022959,3849.070898,-8733.488677,-1776.494261
4183.023284,2072.576638,-8963.317327,-1036.288319
4183.023608,-888.247130,-9269.755526,-1554.432478
4183.023932,-2738.761985,-9576.193725,-518.144159
4183.024256,-4367.215058,-9422.974625,-370.102971
4183.024580,-2886.803174,-8810.098227,74.020594
4183.024905,-1554.432478,-9193.145976,-148.041188
4183.025229,370.102971,-7967.393179,-222.061783
4183.025553,4293.194464,-8886.707777,-370.102971
4183.025877,5329.482782,-8273.831378,-1184.329507
4183.026202,2886.803174,-8810.098227,-888.247130
4183.026526,1184.329507,-7354.516781,-962.267725
4183.026850,-888.247130,-8886.707777,-296.082377
4183.027174,-2738.761985,-8963.317327,0.000000
4183.027499,-3701.029710,-8503.660028,444.123565
4183.027823,-1332.370696,-8810.098227,1184.329507
4183.028147,-1850.514855,-7890.783629,222.061783
4183.028471,1702.473667,-8580.269578,74.020594
4183.028796,2442.679609,-7814.174080,-370.102971
4183.029120,3256.906145,-9269.755526,-1184.329507
4183.029444,3478.967927,-8350.440928,-1110.308913
4183.029768,1998.556043,-7967.393179,-592.164754
4183.030093,0.000000,-9039.926876,-148.041188
4183.030417,-2812.782580,-9116.536426,-592.164754
4183.030741,-3478.967927,-9422.974625,74.020594
4183.031065,-2886.803174,-8810.098227,74.020594
4183.031390,-1554.432478,-8810.098227,0.000000
4183.031714,148.041188,-8273.831378,888.247130
4183.032038,2368.659014,-8273.831378,148.041188
4183.032362,1998.556043,-7814.174080,-1110.308913
4183.032687,1924.535449,-9039.926876,0.000000
4183.033011,592.164754,-7967.393179,-592.164754
4183.033335,0.000000,-8273.831378,-370.102971
4183.033659,-2368.659014,-8963.317327,370.102971
4183.033983,-2960.823768,-9346.365076,1036.288319
4183.034308,-962.267725,-8350.440928,74.020594
4183.034632,814.226536,-8656.879127,888.247130
4183.034956,1110.308913,-7967.393179,74.020594
4183.035280,3552.988522,-7967.393179,-370.102971
4183.035605,4293.194464,-8810.098227,-1258.350101
4183.035929,3701.029710,-8427.050478,-1184.329507
4183.036253,2812.782580,-8503.660028,-962.267725
4183.036577,-370.102971,-9346.365076,-1184.329507
4183.036902,-2220.617826,-9039.926876,-518.144159
4183.037226,-3997.112087,-8350.440928,-74.020594
4183.037550,-2072.576638,-9039.926876,370.102971
4183.037874,-666.185348,-7967.393179,518.144159
4183.038199,1332.370696,-8350.440928,-592.164754
4183.038523,2442.679609,-8580.269578,-666.185348
4183.038847,2812.782580,-8503.660028,-1332.370696
4183.039171,2220.617826,-8733.488677,-1480.411884
4183.039496,1702.473667,-8503.660028,-1258.350101
4183.039820,-740.205942,-8656.879127,-592.164754
4183.040144,-2220.617826,-8963.317327,-740.205942
4183.040468,-2368.659014,-8886.707777,666.185348
4183.040793,-1628.453072,-8963.317327,518.144159
4183.041117,0.000000,-7814.174080,370.102971
4183.041441,3330.926739,-7967.393179,296.082377
4183.041765,4885.359217,-8350.440928,-1554.432478
4183.042089,5255.462188,-9116.536426,-1184.329507
4183.042414,4737.318029,-8503.660028,-2072.576638
4183.042738,2220.617826,-9652.803275,-1850.514855
4183.043062,0.000000,-9039.926876,-1184.329507
4183.043386,-2664.741391,-9882.631924,-370.102971
4183.043711,-2664.741391,-9806.022374,74.020594
4183.044035,-3256.906145,-8503.660028,222.061783
4183.044359,-2664.741391,-8963.317327,518.144159
4183.044683,370.102971,-8197.221829,-814.226536
4183.045008,3330.926739,-8197.221829,296.082377
4183.045332,3404.947333,-8120.612279,-814.226536
4183.045656,4515.256246,-7507.735880,-1036.288319
4183.045980,2516.700203,-8503.660028,-370.102971
4183.046305,888.247130,-8580.269578,-1332.370696
4183.046629,-1110.308913,-9422.974625,-222.061783
4183.046953,-3182.885551,-7967.393179,0.000000
4183.047277,-2590.720797,-8733.488677,962.267725
4183.047602,-1554.432478,-8350.440928,1332.370696
4183.047926,888.247130,-7967.393179,-222.061783
4183.048250,3404.947333,-8350.440928,0.000000
4183.048574,3182.885551,-9116.536426,-1554.432478
4183.048899,4071.132681,-8580.269578,-1554.432478
4183.049223,3256.906145,-8427.050478,-962.267725
4183.049547,1036.288319,-9116.536426,-296.082377
4183.049871,-5181.441594,-8733.488677,-1332.370696
4183.050196,-1702.473667,-9499.584175,592.164754
4183.050520,-5255.462188,-7660.954980,0.000000
4183.050844,-2664.741391,-8580.269578,1258.350101
4183.051168,-1480.411884,-7890.783629,-962.267725
4183.051492,962.267725,-9576.193725,74.020594
4183.051817,2738.761985,-8044.002729,0.000000
4183.052141,2886.803174,-8197.221829,-1702.473667
4183.052465,1702.473667,-9422.974625,518.144159
4183.052789,370.102971,-7124.688131,-1776.494261
4183.053114,-1332.370696,-9499.584175,592.164754
4183.053438,-2886.803174,-7507.735880,-296.082377
4183.053762,-2886.803174,-9269.755526,1998.556043
4183.054086,-1406.391290,-7660.954980,0.000000
4183.054411,1258.350101,-8427.050478,1332.370696
4183.054735,2516.700203,-7431.126331,-592.164754
4183.055059,3701.029710,-8580.269578,-666.185348
4183.055383,3775.050304,-8273.831378,-1702.473667
4183.055708,3627.009116,-9193.145976,-814.226536
4183.056032,962.267725,-8580.269578,-1110.308913
4183.056356,-1332.370696,-9729.412825,-296.082377
4183.056681,-2368.659014,-8810.098227,-222.061783
4183.057005,-3775.050304,-8886.707777,222.061783
4183.057329,-1258.350101,-9116.536426,148.041188
4183.057654,74.020594,-7660.954980,296.082377
4183.057978,1480.411884,-8810.098227,-148.041188
4183.058302,2516.700203,-9652.803275,-888.247130
4183.058627,3330.926739,-7967.393179,-740.205942
4183.058951,1776.494261,-8427.050478,-666.185348
4183.059275,2664.741391,-8733.488677,-888.247130
4183.059600,-518.144159,-8580.269578,-666.185348
4183.059924,-2960.823768,-9269.755526,74.020594
4183.060248,-1924.535449,-8580.269578,814.226536
4183.060573,-814.226536,-7890.783629,296.082377
4183.060897,2442.679609,-8503.660028,370.102971
4183.061221,3775.050304,-8120.612279,-222.061783
4183.061546,3997.112087,-8886.707777,-888.247130
4183.061870,4663.297435,-8120.612279,-1628.453072
4183.062195,3552.988522,-8733.488677,-1184.329507
4183.062519,2220.617826,-9499.584175,-1184.329507
4183.062843,-1332.370696,-9193.145976,-888.247130
4183.063168,-2368.659014,-8810.098227,-888.247130
4183.063492,-3404.947333,-9116.536426,148.041188
4183.063816,-2960.823768,-8427.050478,0.000000
4183.064141,-1258.350101,-9039.926876,0.000000
4183.064465,2146.597232,-8580.269578,0.000000
4183.064789,3034.844362,-8273.831378,-1036.288319
4183.065114,4071.132681,-8886.707777,-962.267725
4183.065438,2960.823768,-9039.926876,-962.267725
4183.065762,592.164754,-8427.050478,-1036.288319
4183.066087,-1036.288319,-8963.317327,-814.226536
4183.066411,-2442.679609,-8886.707777,296.082377
4183.066735,-2886.803174,-8580.269578,1184.329507
4183.067060,-2516.700203,-7584.345430,592.164754
4183.067384,-444.123565,-8427.050478,370.102971
4183.067708,2220.617826,-7814.174080,0.000000
4183.068033,4293.194464,-7890.783629,-962.267725
4183.068357,4145.153275,-8273.831378,-1110.308913
4183.068682,3701.029710,-8580.269578,-296.082377
4183.069006,1628.453072,-9116.536426,-1184.329507
4183.069330,-148.041188,-9806.022374,-1110.308913
4183.069655,-2590.720797,-8733.488677,-444.123565
4183.069979,-3404.947333,-9193.145976,518.144159
4183.070303,-3256.906145,-8963.317327,0.000000
4183.070628,-1554.432478,-8503.660028,1036.288319
4183.070952,-148.041188,-8197.221829,222.061783
4183.071276,2368.659014,-8503.660028,-444.123565
4183.071601,2072.576638,-8350.440928,-370.102971
4183.071925,1850.514855,-8197.221829,-1036.288319
4183.072249,1258.350101,-8197.221829,-666.185348
4183.072574,-1036.288319,-8503.660028,0.000000
4183.072898,-2220.617826,-9039.926876,888.247130
4183.073222,-2146.597232,-7737.564530,148.041188
4183.073547,-2368.659014,-8810.098227,2146.597232
4183.073871,444.123565,-8503.660028,74.020594
4183.074196,1924.535449,-8580.269578,518.144159
4183.074520,2812.782580,-8273.831378,-814.226536
4183.074844,3701.029710,-8656.879127,-592.164754
4183.075169,2664.741391,-8044.002729,-962.267725
4183.075493,1332.370696,-8963.317327,-666.185348
4183.075817,0.000000,-8273.831378,-740.205942
4183.076142,-2368.659014,-8963.317327,-148.041188
4183.076466,-2442.679609,-9039.926876,0.000000
4183.076790,-2516.700203,-8503.660028,444.123565
4183.077115,0.000000,-9039.926876,592.164754
4183.077439,1110.308913,-7890.783629,-222.061783
4183.077763,2812.782580,-9193.145976,-296.082377
4183.078088,3330.926739,-9039.926876,-1332.370696
4183.078412,3108.864956,-8886.707777,-1184.329507
4183.078736,666.185348,-8503.660028,-1184.329507
4183.079061,-740.205942,-8733.488677,-666.185348
4183.079385,-1924.535449,-8503.660028,0.000000
4183.079709,-2812.782580,-8197.221829,0.000000
4183.080034,-2368.659014,-8044.002729,222.061783
4183.080358,-592.164754,-8044.002729,-370.102971
4183.080683,1776.494261,-8810.098227,0.000000
4183.081007,4811.338623,-8656.879127,-1110.308913
4183.081331,4959.379811,-8810.098227,-1480.411884
4183.081656,4737.318029,-9039.926876,-1406.391290
4183.081980,2664.741391,-8963.317327,-1850.514855
4183.082304,1184.329507,-9806.022374,-814.226536
4183.082629,-1702.473667,-9269.755526,0.000000
4183.082953,-1628.453072,-9039.926876,-518.144159
4183.083277,-2738.761985,-8963.317327,-222.061783
4183.083602,-1184.329507,-9039.926876,592.164754
4183.083926,888.247130,-8273.831378,0.000000
4183.084250,1554.432478,-8580.269578,-370.102971
4183.084575,3034.844362,-8120.612279,-1184.329507
4183.084899,3552.988522,-8580.269578,-1702.473667
4183.085223,2516.700203,-9346.365076,-740.205942
4183.085548,592.164754,-8350.440928,-1110.308913
4183.085872,-2072.576638,-8886.707777,222.061783
4183.086196,-2442.679609,-8580.269578,0.000000
4183.086521,-2368.659014,-9039.926876,1110.308913
4183.086845,518.144159,-8503.660028,-666.185348
4183.087170,592.164754,-8963.317327,148.041188
4183.087494,2294.638420,-7890.783629,-592.164754
4183.087818,4367.215058,-8886.707777,-1184.329507
4183.088143,4737.318029,-8273.831378,-1702.473667
4183.088467,2812.782580,-9269.755526,-962.267725
4183.088791,962.267725,-8656.879127,-1332.370696
4183.089116,-2072.576638,-8963.317327,74.020594
4183.089440,-3108.864956,-9499.584175,0.000000
4183.089764,-4441.235652,-9499.584175,74.020594
4183.090089,-2664.741391,-9499.584175,518.144159
4183.090413,-222.061783,-8120.612279,148.041188
4183.090737,518.144159,-8656.879127,148.041188
4183.091062,1924.535449,-9116.536426,-592.164754
4183.091386,1924.535449,-8427.050478,-888.247130
4183.091710,2590.720797,-8044.002729,-592.164754
4183.092035,740.205942,-8580.269578,0.000000
4183.092359,-148.041188,-7660.954980,740.205942
4183.092684,-1776.494261,-8273.831378,888.247130
4183.093008,-2442.679609,-8273.831378,962.267725
4183.093332,-1184.329507,-7967.393179,296.082377
4183.093657,740.205942,-8810.098227,1110.308913
4183.093981,2072.576638,-8656.879127,0.000000
4183.094305,3108.864956,-8733.488677,-888.247130
4183.094630,3330.926739,-8273.831378,-444.123565
4183.094954,1776.494261,-8656.879127,-1258.350101
4183.095278,962.267725,-9039.926876,-962.267725
4183.095603,-1406.391290,-8733.488677,-444.123565
4183.095927,-2220.617826,-9039.926876,74.020594
4183.096251,-3627.009116,-8273.831378,0.000000
4183.096576,-1998.556043,-8886.707777,1702.473667
4183.096900,-962.267725,-7737.564530,-296.082377
4183.097224,2072.576638,-8503.660028,-148.041188
4183.097549,2664.741391,-8733.488677,-740.205942
4183.097873,2960.823768,-8580.269578,-1480.411884
4183.098197,2072.576638,-8503.660028,-1258.350101
4183.098522,-148.041188,-8197.221829,-296.082377
4183.098846,-740.205942,-9193.145976,296.082377
4183.099171,-1702.473667,-8503.660028,0.000000
4183.099495,-592.164754,-8427.050478,1036.288319
4183.099819,0.000000,-7354.516781,74.020594
4183.100144,1406.391290,-8044.002729,0.000000
4183.100468,4367.215058,-8427.050478,-370.102971
4183.100792,4589.276840,-8733.488677,-148.041188
4183.101117,4071.132681,-8810.098227,-1554.432478
4183.101441,3182.885551,-9422.974625,-1258.350101
4183.101765,-444.123565,-8886.707777,-1258.350101
4183.102090,-1554.432478,-9116.536426,-1776.494261
4183.102414,-2590.720797,-9039.926876,-592.164754
4183.102738,-3627.009116,-8427.050478,0.000000
4183.103063,-1998.556043,-8810.098227,0.000000
4183.103387,0.000000,-8273.831378,-222.061783
4183.103711,1702.473667,-7584.345430,-666.185348
4183.104036,3775.050304,-8810.098227,-1036.288319
4183.104360,4737.318029,-8503.660028,-2146.597232
4183.104684,3923.091493,-8963.317327,-1554.432478
4183.105009,1036.288319,-8427.050478,-1480.411884
4183.105333,-1036.288319,-9269.755526,-296.082377
4183.105658,-3330.926739,-9039.926876,222.061783
4183.105982,-3627.009116,-9039.926876,740.205942
4183.106306,-1850.514855,-8503.660028,666.185348
4183.106631,0.000000,-8273.831378,296.082377
4183.106955,2146.597232,-8350.440928,-666.185348
4183.107279,3478.967927,-7814.174080,-1110.308913
4183.107604,4071.132681,-9116.536426,-740.205942
4183.107928,3256.906145,-8656.879127,-1776.494261
4183.108252,1850.514855,-9116.536426,-1332.370696
4183.108577,-814.226536,-8886.707777,-1036.288319
4183.108901,-2516.700203,-8963.317327,-666.185348
4183.109225,-3849.070898,-9269.755526,0.000000
4183.109550,-1998.556043,-8886.707777,518.144159
4183.109874,-1184.329507,-8273.831378,0.000000
4183.110198,0.000000,-8580.269578,0.000000
4183.110523,1924.535449,-8733.488677,0.000000
4183.110847,2960.823768,-8350.440928,-740.205942
4183.111172,1628.453072,-8273.831378,-1110.308913
4183.111496,740.205942,-8503.660028,-740.205942
4183.111820,-1110.308913,-8197.221829,0.000000
4183.112145,-1776.494261,-8273.831378,370.102971
4183.112469,-2294.638420,-8427.050478,740.205942
4183.112793,-1332.370696,-8120.612279,1110.308913
4183.113118,0.000000,-7584.345430,740.205942
4183.113442,1850.514855,-8656.879127,444.123565
4183.113766,2960.823768,-8427.050478,222.061783
4183.114091,3330.926739,-8503.660028,-1110.308913
4183.114415,2664.741391,-9039.926876,-592.164754
4183.114739,1110.308913,-9039.926876,-1332.370696
4183.115064,-2146.597232,-9576.193725,-740.205942
4183.115388,-2368.659014,-9116.536426,-518.144159
4183.115712,-2960.823768,-9806.022374,1036.288319
4183.116037,-4145.153275,-5592.497135,148.041188
4183.116361,2368.659014,-8503.660028,1480.411884
4183.116685,1036.288319,-8350.440928,-666.185348
4183.117010,3552.988522,-8810.098227,0.000000
4183.117334,4663.297435,-7124.688131,-814.226536
4183.117659,2368.659014,-8503.660028,-666.185348
4183.117983,1036.288319,-8886.707777,-296.082377
4183.118307,-296.082377,-8120.612279,-962.267725
4183.118632,-2664.741391,-9499.584175,740.205942
4183.118956,-3404.947333,-8120.612279,518.144159
4183.119280,-1924.535449,-8197.221829,1036.288319
4183.119605,-518.144159,-7890.783629,0.000000
4183.119929,3256.906145,-8580.269578,444.123565
4183.120253,4589.276840,-7814.174080,-1332.370696
4183.120578,4663.297435,-7507.735880,-1184.329507
4183.120902,4515.256246,-8273.831378,-888.247130
4183.121226,2442.679609,-8580.269578,-1850.514855
4183.121551,0.000000,-9806.022374,-1110.308913
4183.121875,-1702.473667,-9193.145976,-1184.329507
4183.122199,-2738.761985,-9346.365076,518.144159
4183.122524,-2738.761985,-8810.098227,-296.082377
4183.122848,-370.102971,-8733.488677,-222.061783
4183.123172,0.000000,-8273.831378,-370.102971
4183.123497,2442.679609,-8197.221829,-296.082377
4183.123821,3997.112087,-8427.050478,-962.267725
4183.124146,3849.070898,-8350.440928,-1776.494261
4183.124470,2294.638420,-8810.098227,-1258.350101
4183.124794,0.000000,-8350.440928,-1702.473667
4183.125119,-2368.659014,-9499.584175,0.000000
4183.125443,-2368.659014,-8733.488677,74.020594
4183.125767,-2442.679609,-8886.707777,296.082377
4183.126092,-962.267725,-8350.440928,-148.041188
4183.126416,2442.679609,-8503.660028,0.000000
4183.126740,2590.720797,-8273.831378,-888.247130
4183.127065,3775.050304,-8580.269578,-740.205942
4183.127389,4219.173869,-8120.612279,-1776.494261
4183.127713,2294.638420,-9193.145976,-1258.350101
4183.128038,592.164754,-9269.755526,-592.164754
4183.128362,-1406.391290,-9652.803275,-592.164754
4183.128686,-2072.576638,-9116.536426,0.000000
4183.129011,-3478.967927,-8810.098227,296.082377
4183.129335,-1702.473667,-9576.193725,74.020594
4183.129660,-370.102971,-7584.345430,74.020594
4183.129984,1850.514855,-8503.660028,-518.144159
4183.130308,2220.617826,-8886.707777,-444.123565
4183.130633,2072.576638,-7890.783629,-296.082377
4183.130957,370.102971,-8427.050478,0.000000
4183.131281,-296.082377,-8120.612279,-370.102971
4183.131606,-1480.411884,-9116.536426,370.102971
4183.131930,-1776.494261,-8503.660028,370.102971
4183.132254,-2220.617826,-8503.660028,370.102971
4183.132579,-1258.350101,-7660.954980,592.164754
4183.132903,2072.576638,-8810.098227,1258.350101
4183.133227,2590.720797,-7201.297681,-1036.288319
4183.133552,3997.112087,-8886.707777,0.000000
4183.133876,2886.803174,-7277.907231,-1554.432478
4183.134200,1702.473667,-9269.755526,-740.205942
4183.134525,592.164754,-8427.050478,-814.226536
4183.134849,-1628.453072,-9499.584175,370.102971
4183.135173,-2442.679609,-8886.707777,-518.144159
4183.135498,-3034.844362,-8656.879127,444.123565
4183.135822,-2516.700203,-8733.488677,666.185348
4183.136147,-148.041188,-7967.393179,74.020594
4183.136471,1702.473667,-8503.660028,-518.144159
4183.136795,2516.700203,-8427.050478,-666.185348
4183.137120,3182.885551,-7584.345430,-1480.411884
4183.137444,1850.514855,-8197.221829,-592.164754
4183.137768,962.267725,-8733.488677,-814.226536
4183.138093,-1036.288319,-8580.269578,-222.061783
4183.138417,-2072.576638,-8886.707777,666.185348
4183.138741,-2220.617826,-8810.098227,962.267725
4183.139066,-592.164754,-7814.174080,-222.061783
4183.139390,1406.391290,-8427.050478,296.082377
4183.139714,3256.906145,-7584.345430,-1110.308913
4183.140039,4589.276840,-8580.269578,-666.185348
4183.140363,4663.297435,-7814.174080,-1850.514855
4183.140687,3849.070898,-8733.488677,-1554.432478
4183.141012,1998.556043,-9269.755526,-1036.288319
4183.141336,-888.247130,-9729.412825,-1110.308913
4183.141660,-1776.494261,-9499.584175,370.102971
4183.141985,-3108.864956,-8963.317327,-666.185348
4183.142309,-1924.535449,-9882.631924,148.041188
4183.142634,0.000000,-8350.440928,-814.226536
4183.142958,2220.617826,-9116.536426,-740.205942
4183.143282,2886.803174,-8656.879127,-1702.473667
4183.143607,3552.988522,-8120.612279,-1036.288319
4183.143931,2442.679609,-8886.707777,-1406.391290
4183.144255,592.164754,-8120.612279,-888.247130
4183.144580,-888.247130,-8427.050478,-222.061783
4183.144904,-2442.679609,-9346.365076,0.000000
4183.145228,-2072.576638,-9039.926876,888.247130
4183.145553,-740.205942,-8503.660028,222.061783
4183.145877,1036.288319,-8886.707777,592.164754
4183.146201,3775.050304,-8273.831378,-666.185348
4183.146526,3701.029710,-8886.707777,-962.267725
4183.146850,3997.112087,-7967.393179,-1036.288319
4183.147174,2886.803174,-8427.050478,-1332.370696
4183.147499,1480.411884,-9652.803275,-740.205942
4183.147823,-888.247130,-8886.707777,0.000000
4183.148148,-2960.823768,-9346.365076,-222.061783
4183.148472,-3627.009116,-9346.365076,592.164754
4183.148796,-2960.823768,-8656.879127,222.061783
4183.149121,-1332.370696,-8810.098227,0.000000
4183.149445,296.082377,-8503.660028,-518.144159
4183.149769,3182.885551,-8427.050478,-222.061783
4183.150094,2294.638420,-7967.393179,-814.226536
4183.150418,2220.617826,-8273.831378,-518.144159
4183.150742,0.000000,-8120.612279,-592.164754
4183.151067,-1258.350101,-8810.098227,0.000000
4183.151391,-2442.679609,-8580.269578,666.185348
4183.151715,-2368.659014,-10112.460574,740.205942
4183.152040,-1628.453072,-8503.660028,962.267725
4183.152364,-888.247130,-7354.516781,148.041188
4183.152688,2442.679609,-8273.831378,740.205942
4183.153013,3034.844362,-7507.735880,-518.144159
4183.153337,3701.029710,-8503.660028,-1110.308913
4183.153661,3330.926739,-8044.002729,-740.205942
4183.153986,592.164754,-8963.317327,-962.267725
4183.154310,-740.205942,-9422.974625,-518.144159
4183.154635,-2146.597232,-8810.098227,0.000000
4183.154959,-3404.947333,-9422.974625,518.144159
4183.155283,-3404.947333,-8580.269578,148.041188
4183.155608,-1554.432478,-8656.879127,296.082377
4183.155932,-370.102971,-9116.536426,-740.205942
4183.156256,1776.494261,-8503.660028,-740.205942
4183.156581,1998.556043,-8197.221829,-740.205942
4183.156905,2220.617826,-8273.831378,-592.164754
4183.157229,1480.411884,-8273.831378,-518.144159
4183.157554,0.000000,-8733.488677,-444.123565
4183.157878,-444.123565,-9346.365076,148.041188
4183.158202,-2146.597232,-8120.612279,74.020594
4183.158527,-1110.308913,-9193.145976,666.185348
4183.158851,296.082377,-7584.345430,-148.041188
4183.159175,2812.782580,-8350.440928,222.061783
4183.159500,2960.823768,-7967.393179,-888.247130
4183.159824,3404.947333,-8580.269578,-1628.453072
4183.160149,2886.803174,-8963.317327,-1036.288319
4183.160473,2738.761985,-8427.050478,-1406.391290
4183.160797,222.061783,-9193.145976,-1110.308913
4183.161122,-962.267725,-8963.317327,-518.144159
4183.161446,-1628.453072,-9729.412825,370.102971
4183.161770,-1406.391290,-8503.660028,-962.267725
4183.162095,666.185348,-9652.803275,-222.061783
4183.162419,1184.329507,-7737.564530,-518.144159
4183.162743,2146.597232,-8656.879127,-1110.308913
4183.163068,3404.947333,-8580.269578,-888.247130
4183.163392,1776.494261,-7737.564530,-1702.473667
4183.163716,2664.741391,-8810.098227,0.000000
4183.164041,-4589.276840,-8044.002729,-740.205942
4183.164365,-2072.576638,-9652.803275,-148.041188
4183.164689,-1850.514855,-7431.126331,-814.226536
4183.165014,-592.164754,-9346.365076,1480.411884
4183.165338,592.164754,-8120.612279,-962.267725
4183.165663,2812.782580,-9193.145976,-1036.288319
4183.165987,3182.885551,-8733.488677,-148.041188
4183.166311,4293.194464,-8273.831378,-2294.638420
4183.166636,2368.659014,-9806.022374,-370.102971
4183.166960,962.267725,-8197.221829,-1110.308913
4183.167284,-814.226536,-9346.365076,-1036.288319
4183.167609,-3256.906145,-8963.317327,-1184.329507
4183.167933,-2886.803174,-9499.584175,-444.123565
4183.168257,-1850.514855,-8503.660028,-148.041188
4183.168582,-1184.329507,-8733.488677,148.041188
4183.168906,1554.432478,-8886.707777,-296.082377
4183.169230,2738.761985,-8197.221829,-370.102971
4183.169555,3034.844362,-8656.879127,-148.041188
4183.169879,2812.782580,-8427.050478,-962.267725
4183.170204,888.247130,-8733.488677,-1036.288319
4183.170528,-888.247130,-8886.707777,0.000000
4183.170852,-2590.720797,-8963.317327,370.102971
4183.171177,-3775.050304,-8656.879127,222.061783
4183.171501,-2960.823768,-8580.269578,666.185348
4183.171825,-2442.679609,-7814.174080,518.144159
4183.172150,962.267725,-7890.783629,0.000000
4183.172474,1776.494261,-8427.050478,-296.082377
4183.172798,3108.864956,-8044.002729,-592.164754
4183.173123,3034.844362,-8273.831378,-592.164754
4183.173447,1702.473667,-8810.098227,-296.082377
4183.173771,74.020594,-9193.145976,-444.123565
4183.174096,-1184.329507,-8886.707777,-518.144159
4183.174420,-2516.700203,-9269.755526,1036.288319
4183.174744,-3256.906145,-8427.050478,-296.082377
4183.175069,-962.267725,-9422.974625,222.061783
4183.175393,-444.123565,-7507.735880,518.144159
4183.175718,1554.432478,-8503.660028,0.000000
4183.176042,2442.679609,-7737.564530,-666.185348
4183.176366,2516.700203,-8503.660028,0.000000
4183.176691,2368.659014,-7660.954980,-666.185348
4183.177015,1998.556043,-8427.050478,-296.082377
4183.177339,-1258.350101,-7584.345430,-592.164754
4183.177664,-2072.576638,-10342.289223,1036.288319
4183.177988,-2590.720797,-7967.393179,962.267725
4183.178312,296.082377,-8273.831378,-222.061783
4183.178637,2072.576638,-9806.022374,-296.082377
4183.178961,2220.617826,-7354.516781,-1110.308913
4183.179285,3108.864956,-8810.098227,-222.061783
4183.179610,2072.576638,-8350.440928,-1036.288319
4183.179934,1998.556043,-8197.221829,-296.082377
4183.180258,666.185348,-8197.221829,-888.247130
4183.180583,-1184.329507,-9346.365076,-592.164754
4183.180907,-1406.391290,-9116.536426,-592.164754
4183.181232,-370.102971,-8810.098227,-814.226536
4183.181556,-592.164754,-8656.879127,148.041188
4183.181880,1554.432478,-8197.221829,-888.247130
4183.182205,3849.070898,-8503.660028,-666.185348
4183.182529,3997.112087,-8580.269578,-296.082377
4183.182853,3108.864956,-9269.755526,-444.123565
4183.183178,1702.473667,-8120.612279,-1776.494261
4183.183502,-296.082377,-9039.926876,-222.061783
4183.183826,-666.185348,-9193.145976,-1332.370696
4183.184151,-3849.070898,-9039.926876,0.000000
4183.184475,-3997.112087,-9039.926876,666.185348
4183.184799,-1554.432478,-8197.221829,-444.123565
4183.185124,888.247130,-9039.926876,-1036.288319
4183.185448,3849.070898,-8580.269578,-1924.535449
4183.185773,4663.297435,-9499.584175,-444.123565
4183.186097,3478.967927,-8427.050478,-1480.411884
4183.186421,2368.659014,-9346.365076,-740.205942
4183.186746,740.205942,-8733.488677,-962.267725
4183.187070,-888.247130,-10495.508323,-666.185348
4183.187394,-2146.597232,-9039.926876,-1406.391290
4183.187719,-2812.782580,-10035.851024,74.020594
4183.188043,-2812.782580,-7507.735880,-222.061783
4183.188367,1258.350101,-8810.098227,-666.185348
4183.188692,740.205942,-8733.488677,-148.041188
4183.189016,2220.617826,-8503.660028,-222.061783
4183.189340,2664.741391,-8044.002729,-666.185348
4183.189665,1776.494261,-8350.440928,-1110.308913
4183.189989,296.082377,-8503.660028,-370.102971
4183.190313,-888.247130,-8656.879127,222.061783
4183.190638,-3108.864956,-9269.755526,222.061783
4183.190962,-2738.761985,-9576.193725,592.164754
4183.191287,-1850.514855,-8963.317327,148.041188
4183.191611,-962.267725,-8810.098227,74.020594
4183.191935,1776.494261,-7584.345430,-148.041188
4183.192260,3182.885551,-8197.221829,-296.082377
4183.192584,2516.700203,-8273.831378,-592.164754
4183.192908,2368.659014,-8427.050478,222.061783
4183.193233,814.226536,-8350.440928,-666.185348
4183.193557,-2146.597232,-8580.269578,0.000000
4183.193881,-1554.432478,-9039.926876,0.000000
4183.194206,-3034.844362,-8580.269578,0.000000
4183.194530,-1184.329507,-8733.488677,666.185348
4183.194854,296.082377,-7967.393179,444.123565
4183.195179,1998.556043,-8656.879127,222.061783
4183.195503,3182.885551,-8044.002729,0.000000
4183.195827,3627.009116,-8197.221829,-296.082377
4183.196152,2664.741391,-7967.393179,-740.205942
4183.196476,-1036.288319,-8503.660028,666.185348
4183.196801,-1332.370696,-8733.488677,-592.164754
4183.197125,-2368.659014,-8963.317327,1554.432478
4183.197449,-3627.009116,-7814.174080,148.041188
4183.197774,-1258.350101,-9346.365076,740.205942
4183.198098,-296.082377,-7354.516781,-370.102971
4183.198422,3182.885551,-9269.755526,814.226536
4183.198747,4219.173869,-7660.954980,-592.164754
4183.199071,4663.297435,-8886.707777,-1110.308913
4183.199395,2812.782580,-7967.393179,-814.226536
4183.199720,1480.411884,-8427.050478,518.144159
4183.200044,-740.205942,-8886.707777,-1332.370696
4183.200368,-1850.514855,-9422.974625,-518.144159
4183.200693,-1702.473667,-8886.707777,-296.082377
4183.201017,-2146.597232,-8580.269578,-962.267725
4183.201342,518.144159,-8273.831378,222.061783
4183.201666,1702.473667,-7737.564530,-518.144159
4183.201990,3997.112087,-9499.584175,-370.102971
4183.202315,2738.761985,-7814.174080,-2294.638420
4183.202639,2812.782580,-9116.536426,-666.185348
4183.202963,370.102971,-7814.174080,-888.247130
4183.203288,-1036.288319,-9269.755526,-296.082377
4183.203612,-2516.700203,-9499.584175,-592.164754
4183.203936,-2368.659014,-8733.488677,0.000000
4183.204261,-1480.411884,-8886.707777,-444.123565
4183.204585,444.123565,-8273.831378,-1036.288319
4183.204909,2886.803174,-9116.536426,0.000000
4183.205234,3256.906145,-7660.954980,-962.267725
4183.205558,3923.091493,-9193.145976,-296.082377
4183.205882,3849.070898,-8503.660028,-740.205942
4183.206207,2072.576638,-8810.098227,-1110.308913
4183.206531,-1036.288319,-8580.269578,-962.267725
4183.206856,-1258.350101,-10112.460574,-592.164754
4183.207180,-2590.720797,-8580.269578,-518.144159
4183.207504,-2368.659014,-8886.707777,0.000000
4183.207829,-444.123565,-8427.050478,-222.061783
4183.208153,1406.391290,-8120.612279,0.000000
4183.208477,3108.864956,-8580.269578,-814.226536
4183.208802,4071.132681,-9193.145976,-1480.411884
4183.209126,2886.803174,-8810.098227,-888.247130
4183.209450,1036.288319,-8044.002729,-1184.329507
4183.209775,-740.205942,-10112.460574,-296.082377
4183.210099,-3182.885551,-8427.050478,444.123565
4183.210423,-4515.256246,-8963.317327,592.164754
4183.210748,-2960.823768,-8656.879127,296.082377
4183.211072,-1184.329507,-8503.660028,0.000000
4183.211397,962.267725,-8427.050478,0.000000
4183.211721,2738.761985,-7660.954980,-666.185348
4183.212045,2886.803174,-8044.002729,-962.267725
4183.212370,3552.988522,-8503.660028,-148.041188
4183.212694,1480.411884,-8427.050478,0.000000
4183.213018,1332.370696,-9116.536426,-888.247130
4183.213343,-1480.411884,-8886.707777,0.000000
4183.213667,-1702.473667,-8580.269578,296.082377
4183.213991,-1924.535449,-8963.317327,814.226536
4183.214316,-888.247130,-8197.221829,0.000000
4183.214640,444.123565,-8427.050478,592.164754
4183.214964,1480.411884,-7660.954980,-222.061783
4183.215289,1998.556043,-8427.050478,0.000000
4183.215613,1776.494261,-7737.564530,-740.205942
4183.215937,740.205942,-8656.879127,-222.061783
4183.216262,-666.185348,-8273.831378,-666.185348
4183.216586,-1850.514855,-9729.412825,1036.288319
4183.216911,-3849.070898,-7507.735880,-148.041188
4183.217235,-592.164754,-9652.803275,1332.370696
4183.217559,-740.205942,-7737.564530,-592.164754
4183.217884,1776.494261,-8810.098227,370.102971
4183.218208,2812.782580,-7814.174080,-370.102971
4183.218532,3478.967927,-9193.145976,-592.164754
4183.218857,3108.864956,-8427.050478,-888.247130
4183.219181,2072.576638,-8503.660028,0.000000
4183.219505,444.123565,-8656.879127,-666.185348
4183.219830,-1776.494261,-8886.707777,-444.123565
4183.220154,-2072.576638,-8886.707777,0.000000
4183.220478,-2072.576638,-8733.488677,-370.102971
4183.220803,0.000000,-8886.707777,0.000000
4183.221127,888.247130,-8886.707777,222.061783
4183.221451,3108.864956,-8427.050478,-962.267725
4183.221776,3552.988522,-8273.831378,-962.267725
4183.222100,2812.782580,-8427.050478,-962.267725
4183.222425,1480.411884,-8197.221829,-962.267725
4183.222749,0.000000,-9116.536426,444.123565
4183.223073,-1776.494261,-8503.660028,-1110.308913
4183.223398,-2516.700203,-9652.803275,444.123565
4183.223722,-2146.597232,-8120.612279,-148.041188
4183.224046,0.000000,-8273.831378,0.000000
4183.224371,1924.535449,-8120.612279,-592.164754
4183.224695,3849.070898,-8580.269578,-592.164754
4183.225019,4145.153275,-8580.269578,-1406.391290
4183.225344,3627.009116,-8810.098227,-1184.329507
4183.225668,2368.659014,-8503.660028,-1184.329507
4183.225992,1036.288319,-9422.974625,-888.247130
4183.226317,-888.247130,-9193.145976,-1110.308913
4183.226641,-2812.782580,-9346.365076,0.000000
4183.226966,-3404.947333,-8580.269578,-962.267725
4183.227290,-1406.391290,-9116.536426,222.061783
4183.227614,0.000000,-8273.831378,-148.041188
4183.227939,1702.473667,-8273.831378,-370.102971
4183.228263,2886.803174,-7354.516781,-888.247130
4183.228587,2590.720797,-8044.002729,-296.082377
4183.228912,2368.659014,-8120.612279,-814.226536
4183.229236,148.041188,-8120.612279,-222.061783
4183.229560,-1332.370696,-9422.974625,444.123565
4183.229885,-2516.700203,-8810.098227,74.020594
4183.230209,-2516.700203,-9193.145976,-296.082377
4183.230533,-888.247130,-8886.707777,74.020594
4183.230858,1702.473667,-7890.783629,74.020594
4183.231182,2960.823768,-8120.612279,296.082377
4183.231506,2220.617826,-8273.831378,-592.164754
4183.231831,2590.720797,-8350.440928,-666.185348
4183.232155,1036.288319,-8273.831378,-888.247130
4183.232480,-370.102971,-9193.145976,-740.205942
4183.232804,-1924.535449,-8503.660028,-666.185348
4183.233128,-2442.679609,-9652.803275,0.000000
4183.233453,-3775.050304,-9039.926876,-370.102971
4183.233777,-2738.761985,-9422.974625,74.020594
4183.234101,-148.041188,-8273.831378,666.185348
4183.234426,666.185348,-7967.393179,-296.082377
4183.234750,2442.679609,-8886.707777,-740.205942
4183.235074,1258.350101,-9116.536426,74.020594
4183.235399,-222.061783,-6435.202183,-222.061783
4183.235723,2590.720797,-7890.783629,-1110.308913
4183.236047,-2664.741391,-10955.165621,-296.082377
4183.236372,-2368.659014,-7890.783629,0.000000
4183.236696,-2590.720797,-8427.050478,1480.411884
4183.237020,-1776.494261,-8656.879127,-370.102971
4183.237345,1406.391290,-7814.174080,1110.308913
4183.237669,1998.556043,-7431.126331,-444.123565
4183.237994,3701.029710,-9193.145976,-370.102971
4183.238318,4589.276840,-7737.564530,-1850.514855
4183.238642,2072.576638,-9269.755526,0.000000
4183.238967,1776.494261,-8120.612279,-1036.288319
4183.239291,-296.082377,-8963.317327,-666.185348
4183.239615,-1924.535449,-9959.241474,-444.123565
4183.239940,-2368.659014,-8580.269578,-296.082377
4183.240264,-1850.514855,-8963.317327,0.000000
4183.240588,148.041188,-8427.050478,-370.102971
4183.240913,3108.864956,-8580.269578,-370.102971
4183.241237,3108.864956,-8733.488677,-740.205942
4183.241561,2590.720797,-8197.221829,-740.205942
4183.241886,3552.988522,-8120.612279,-444.123565
4183.242210,740.205942,-9346.365076,0.000000
4183.242535,-740.205942,-9499.584175,-592.164754
4183.242859,-1480.411884,-8733.488677,0.000000
4183.243183,-1998.556043,-8963.317327,148.041188
4183.243508,-962.267725,-8350.440928,-222.061783
4183.243832,814.226536,-8503.660028,-370.102971
4183.244156,2368.659014,-8580.269578,-740.205942
4183.244481,4219.173869,-8810.098227,-148.041188
4183.244805,4293.194464,-8580.269578,-1480.411884
4183.245129,2368.659014,-9652.803275,-444.123565
4183.245454,1258.350101,-8197.221829,-962.267725
4183.245778,-888.247130,-9269.755526,-888.247130
4183.246102,-1332.370696,-9652.803275,-666.185348
4183.246427,-2368.659014,-9193.145976,-666.185348
4183.246751,-2220.617826,-9039.926876,-518.144159
4183.247075,-222.061783,-8810.098227,0.000000
4183.247400,1258.350101,-7890.783629,-370.102971
4183.247724,3034.844362,-8886.707777,-592.164754
4183.248049,3775.050304,-7967.393179,-222.061783
4183.248373,4219.173869,-8427.050478,-814.226536
4183.248697,1036.288319,-8580.269578,-296.082377
4183.249022,-888.247130,-8886.707777,-740.205942
4183.249346,-2442.679609,-9193.145976,592.164754
4183.249670,-2960.823768,-9269.755526,222.061783
4183.249995,-2960.823768,-8886.707777,0.000000
4183.250319,-666.185348,-8350.440928,666.185348
4183.250643,592.164754,-7584.345430,-666.185348
4183.250968,1924.535449,-9116.536426,74.020594
4183.251292,3108.864956,-8197.221829,-1554.432478
4183.251616,2590.720797,-9116.536426,-370.102971
4183.251941,814.226536,-8427.050478,-1258.350101
4183.252265,-518.144159,-8886.707777,-296.082377
4183.252589,-1776.494261,-8810.098227,0.000000
4183.252914,-2738.761985,-8810.098227,-518.144159
4183.253238,-1998.556043,-8886.707777,74.020594
4183.253563,-592.164754,-8886.707777,518.144159
4183.253887,518.144159,-8273.831378,0.000000
4183.254211,2220.617826,-8197.221829,0.000000
4183.254536,2294.638420,-8044.002729,-370.102971
4183.254860,2072.576638,-8120.612279,-666.185348
4183.255184,518.144159,-8197.221829,222.061783
4183.255509,-1702.473667,-8810.098227,0.000000
4183.255833,-2442.679609,-8273.831378,74.020594
4183.256157,-3404.947333,-8120.612279,444.123565
4183.256482,-1406.391290,-8273.831378,0.000000
4183.256806,0.000000,-7431.126331,0.000000
4183.257130,2220.617826,-8580.269578,592.164754
4183.257455,2886.803174,-8044.002729,-518.144159
4183.257779,2812.782580,-8810.098227,-518.144159
4183.258103,2812.782580,-9193.145976,-888.247130
4183.258427,1258.350101,-8044.002729,-296.082377
4183.258752,0.000000,-8810.098227,-148.041188
4183.259076,-1850.514855,-8963.317327,-296.082377
4183.259400,-2368.659014,-8963.317327,-370.102971
4183.259724,-1406.391290,-8427.050478,-962.267725
4183.260049,888.247130,-8733.488677,-222.061783
4183.260373,962.267725,-7737.564530,370.102971
4183.260697,3997.112087,-8273.831378,0.000000
4183.261021,3256.906145,-7814.174080,-592.164754
4183.261346,3182.885551,-8733.488677,0.000000
4183.261670,1702.473667,-8273.831378,-1702.473667
4183.261994,-962.267725,-8580.269578,-962.267725
4183.262318,-2442.679609,-9346.365076,0.000000
4183.262642,-2738.761985,-8886.707777,0.000000
4183.262967,-2220.617826,-8580.269578,148.041188
4183.263291,-1554.432478,-7967.393179,-518.144159
4183.263615,2368.659014,-8350.440928,-222.061783
4183.263939,2368.659014,-8120.612279,-1036.288319
4183.264264,4293.194464,-9039.926876,-814.226536
4183.264588,3849.070898,-7890.783629,-962.267725
4183.264912,3478.967927,-8580.269578,-1110.308913
4183.265236,1776.494261,-9499.584175,-1184.329507
4183.265561,-222.061783,-9039.926876,-962.267725
4183.265885,-814.226536,-9499.584175,0.000000
4183.266209,-1998.556043,-9039.926876,-444.123565
4183.266533,0.000000,-9039.926876,-370.102971
4183.266858,888.247130,-7814.174080,-666.185348
4183.267182,2368.659014,-8503.660028,-148.041188
4183.267506,3478.967927,-8273.831378,-592.164754
4183.267830,3923.091493,-8197.221829,-1258.350101
4183.268154,1480.411884,-8350.440928,-888.247130
4183.268479,-296.082377,-8733.488677,-962.267725
4183.268803,-2146.597232,-9039.926876,0.000000
4183.269127,-3182.885551,-8503.660028,0.000000
4183.269451,-2516.700203,-9576.193725,296.082377
4183.269776,-1702.473667,-8580.269578,-1184.329507
4183.270100,814.226536,-8503.660028,-444.123565
4183.270424,2220.617826,-8350.440928,-592.164754
4183.270748,2368.659014,-8810.098227,-148.041188
4183.271073,2146.597232,-8427.050478,-444.123565
4183.271397,1998.556043,-8120.612279,-962.267725
4183.271721,222.061783,-9499.584175,-444.123565
4183.272045,-1184.329507,-8810.098227,-444.123565
4183.272370,-2072.576638,-8886.707777,296.082377
4183.272694,-2812.782580,-8810.098227,-518.144159
4183.273018,-1406.391290,-9193.145976,148.041188
4183.273342,518.144159,-8273.831378,518.144159
4183.273666,2146.597232,-8197.221829,0.000000
4183.273991,1998.556043,-8044.002729,0.000000
4183.274315,2294.638420,-8427.050478,0.000000
4183.274639,1628.453072,-8044.002729,-222.061783
4183.274963,-518.144159,-8197.221829,-370.102971
4183.275288,-2812.782580,-9116.536426,74.020594
4183.275612,-3627.009116,-8273.831378,814.226536
4183.275936,-3256.906145,-8580.269578,888.247130
4183.276260,-1184.329507,-8427.050478,222.061783
4183.276585,1110.308913,-8273.831378,0.000000
4183.276909,2368.659014,-7890.783629,-148.041188
4183.277233,3256.906145,-8427.050478,0.000000
4183.277557,2960.823768,-8350.440928,296.082377
4183.277882,1850.514855,-8273.831378,-740.205942
4183.278206,518.144159,-8656.879127,74.020594
4183.278530,-518.144159,-8656.879127,-740.205942
4183.278854,-1924.535449,-9039.926876,222.061783
4183.279178,-1628.453072,-7890.783629,0.000000
4183.279503,0.000000,-8427.050478,74.020594
4183.279827,666.185348,-8503.660028,0.000000
4183.280151,2294.638420,-8044.002729,222.061783
4183.280475,3997.112087,-7507.735880,518.144159
4183.280800,2590.720797,-8427.050478,-962.267725
4183.281124,2590.720797,-9193.145976,-666.185348
4183.281448,-296.082377,-8044.002729,-592.164754
4183.281772,-1776.494261,-9422.974625,-74.020594
4183.282097,-296.082377,-8810.098227,666.185348
4183.282421,-5773.606348,-8427.050478,-518.144159
4183.282745,-740.205942,-8886.707777,592.164754
4183.283069,-1480.411884,-7660.954980,-740.205942
4183.283394,2738.761985,-9193.145976,296.082377
4183.283718,3701.029710,-7507.735880,-518.144159
4183.284042,4737.318029,-8503.660028,-1554.432478
4183.284366,2812.782580,-8733.488677,-444.123565
4183.284690,2442.679609,-8044.002729,-1406.391290
4183.285015,0.000000,-10418.898773,-148.041188
4183.285339,-1554.432478,-8197.221829,-1628.453072
4183.285663,-1702.473667,-9806.022374,-444.123565
4183.285987,-2072.576638,-7890.783629,-1110.308913
4183.286312,888.247130,-9039.926876,296.082377
4183.286636,2738.761985,-8350.440928,-962.267725
4183.286960,2590.720797,-8580.269578,-814.226536
4183.287284,2960.823768,-7890.783629,-1332.370696
4183.287609,2146.597232,-8350.440928,-666.185348
4183.287933,222.061783,-8580.269578,-888.247130
4183.288257,-666.185348,-9193.145976,-814.226536
4183.288581,-2368.659014,-9882.631924,0.000000
4183.288906,-3552.988522,-9269.755526,444.123565
4183.289230,0.000000,-8427.050478,-1258.350101
4183.289554,444.123565,-9806.022374,-518.144159
4183.289878,2886.803174,-8503.660028,-814.226536
4183.290202,3478.967927,-8427.050478,-370.102971
4183.290527,2886.803174,-9039.926876,-1036.288319
4183.290851,2960.823768,-8963.317327,-518.144159
4183.291175,444.123565,-8733.488677,-1258.350101
4183.291499,-1776.494261,-8963.317327,-444.123565
4183.291824,-962.267725,-9652.803275,-740.205942
4183.292148,-2368.659014,-8503.660028,-1258.350101
4183.292472,-2220.617826,-9116.536426,0.000000
4183.292796,-740.205942,-8350.440928,0.000000
4183.293121,444.123565,-8733.488677,148.041188
4183.293445,1998.556043,-8656.879127,0.000000
4183.293769,2812.782580,-8810.098227,-370.102971
4183.294093,1776.494261,-8427.050478,-1036.288319
4183.294418,296.082377,-8580.269578,-444.123565
4183.294742,-1036.288319,-9116.536426,0.000000
4183.295066,-3552.988522,-9039.926876,518.144159
4183.295390,-4441.235652,-8656.879127,444.123565
4183.295714,-2960.823768,-8886.707777,148.041188
4183.296039,-296.082377,-8120.612279,370.102971
4183.296363,2220.617826,-7967.393179,296.082377
4183.296687,3034.844362,-7277.907231,-370.102971
4183.297011,3404.947333,-8963.317327,222.061783
4183.297336,2886.803174,-7967.393179,-666.185348
4183.297660,2220.617826,-9346.365076,0.000000
4183.297984,-444.123565,-8427.050478,-222.061783
4183.298308,-1850.514855,-8963.317327,962.267725
4183.298633,-2738.761985,-8580.269578,-370.102971
4183.298957,-2220.617826,-9576.193725,222.061783
4183.299281,-370.102971,-8044.002729,0.000000
4183.299605,74.020594,-7890.783629,370.102971
4183.299930,2294.638420,-8427.050478,148.041188
4183.300254,3627.009116,-7584.345430,0.000000
4183.300578,2664.741391,-8197.221829,-148.041188
4183.300902,1036.288319,-7737.564530,-740.205942
4183.301226,148.041188,-8350.440928,222.061783
4183.301551,-1480.411884,-8120.612279,0.000000
4183.301875,-2294.638420,-9576.193725,222.061783
4183.302199,-1406.391290,-8427.050478,-222.061783
4183.302523,0.000000,-8810.098227,962.267725
4183.302848,2294.638420,-7431.126331,-814.226536
4183.303172,3182.885551,-8044.002729,0.000000
4183.303496,3923.091493,-8733.488677,-592.164754
4183.303820,1702.473667,-7354.516781,-1110.308913
4183.304145,1998.556043,-9269.755526,-1036.288319
4183.304469,666.185348,-9116.536426,-666.185348
4183.304793,-592.164754,-8810.098227,-518.144159
4183.305117,-962.267725,-8580.269578,-1480.411884
4183.305442,-592.164754,-9729.412825,-666.185348
4183.305766,1258.350101,-8656.879127,-962.267725
4183.306090,2442.679609,-8580.269578,222.061783
4183.306414,3627.009116,-8963.317327,-518.144159
4183.306738,3478.967927,-8427.050478,-1184.329507
4183.307063,2220.617826,-8580.269578,-1332.370696
4183.307387,1036.288319,-9576.193725,-222.061783
4183.307711,-592.164754,-9039.926876,-518.144159
4183.308035,-2664.741391,-8810.098227,0.000000
4183.308360,-3256.906145,-8503.660028,-444.123565
4183.308684,-2072.576638,-9039.926876,-518.144159
4183.309008,74.020594,-8503.660028,-814.226536
4183.309332,2960.823768,-9193.145976,-222.061783
4183.309657,3775.050304,-8044.002729,-1406.391290
4183.309981,3478.967927,-8886.707777,-1036.288319
4183.310305,2590.720797,-8886.707777,-814.226536
4183.310629,1110.308913,-9039.926876,-888.247130
4183.310954,-962.267725,-9116.536426,-962.267725
4183.311278,-2960.823768,-9193.145976,-444.123565
4183.311602,-2368.659014,-9806.022374,-592.164754
4183.311926,-3034.844362,-8197.221829,-1258.350101
4183.312250,-1480.411884,-8963.317327,-148.041188
4183.312575,222.061783,-7507.735880,-222.061783
4183.312899,2886.803174,-8656.879127,0.000000
4183.313223,3182.885551,-8120.612279,-518.144159
4183.313547,3034.844362,-9193.145976,-444.123565
4183.313872,518.144159,-8350.440928,-1184.329507
4183.314196,-740.205942,-9193.145976,-148.041188
4183.314520,-2368.659014,-8886.707777,-222.061783
4183.314844,-3849.070898,-8886.707777,0.000000
4183.315169,-3404.947333,-8427.050478,370.102971
4183.315493,-1480.411884,-8427.050478,148.041188
4183.315817,0.000000,-7890.783629,74.020594
4183.316141,1850.514855,-7660.954980,222.061783
4183.316466,3256.906145,-8503.660028,222.061783
4183.316790,2368.659014,-7354.516781,-592.164754
4183.317114,2664.741391,-9193.145976,0.000000
4183.317438,666.185348,-7890.783629,-222.061783
4183.317763,-888.247130,-9346.365076,518.144159
4183.318087,-2294.638420,-8580.269578,-296.082377
4183.318411,-666.185348,-9806.022374,518.144159
4183.318735,-1776.494261,-7967.393179,-296.082377
4183.319059,0.000000,-8886.707777,962.267725
4183.319384,1110.308913,-7201.297681,0.000000
4183.319708,1702.473667,-8656.879127,666.185348
4183.320032,1702.473667,-7354.516781,-222.061783
4183.320356,1258.350101,-8810.098227,222.061783
4183.320681,-148.041188,-7737.564530,-296.082377
4183.321005,-1554.432478,-8810.098227,666.185348
4183.321329,-1998.556043,-8120.612279,-222.061783
4183.321653,-1998.556043,-8963.317327,814.226536
4183.321978,74.020594,-8197.221829,74.020594
4183.322302,1480.411884,-8427.050478,-222.061783
4183.322626,2960.823768,-8963.317327,222.061783
4183.322950,3997.112087,-7660.954980,-370.102971
4183.323275,3404.947333,-8733.488677,-296.082377
4183.323599,1702.473667,-8273.831378,-666.185348
4183.323923,888.247130,-8810.098227,-962.267725
4183.324247,-1258.350101,-8350.440928,-444.123565
4183.324571,-2072.576638,-8580.269578,-814.226536
4183.324896,-1258.350101,-9269.755526,-518.144159
4183.325220,0.000000,-7890.783629,-814.226536
4183.325544,1554.432478,-8580.269578,-296.082377
4183.325868,3997.112087,-8044.002729,-962.267725
4183.326193,4367.215058,-8963.317327,-370.102971
4183.326517,3034.844362,-8044.002729,-1628.453072
4183.326841,2516.700203,-9729.412825,-666.185348
4183.327165,-592.164754,-8197.221829,-814.226536
4183.327490,-1702.473667,-10035.851024,74.020594
4183.327814,-2590.720797,-7890.783629,-1258.350101
4183.328138,-2590.720797,-9729.412825,370.102971
4183.328462,-1924.535449,-8273.831378,-1184.329507
4183.328787,296.082377,-8427.050478,-666.185348
4183.329111,3108.864956,-8580.269578,-1036.288319
4183.329435,4515.256246,-8886.707777,-592.164754
4183.329759,4885.359217,-8427.050478,-1554.432478
4183.330083,3997.112087,-8886.707777,-1332.370696
4183.330408,1850.514855,-9193.145976,-1776.494261
4183.330732,-296.082377,-10572.117872,-666.185348
4183.331056,-2590.720797,-9652.803275,-1406.391290
4183.331380,-3034.844362,-9269.755526,444.123565
4183.331705,-2886.803174,-8580.269578,-666.185348
4183.332029,-1258.350101,-8580.269578,0.000000
4183.332353,444.123565,-7354.516781,0.000000
4183.332677,2220.617826,-8350.440928,74.020594
4183.333002,2146.597232,-8427.050478,-1110.308913
4183.333326,1036.288319,-7660.954980,-814.226536
4183.333650,0.000000,-8503.660028,-148.041188
4183.333974,-888.247130,-8656.879127,-666.185348
4183.334299,-2664.741391,-9422.974625,-444.123565
4183.334623,-2442.679609,-8503.660028,444.123565
4183.334947,-2220.617826,-8503.660028,-444.123565
4183.335271,-148.041188,-8656.879127,370.102971
4183.335595,1110.308913,-7584.345430,0.000000
4183.335920,2812.782580,-7354.516781,0.000000
4183.336244,3404.947333,-8503.660028,0.000000
4183.336568,2368.659014,-7890.783629,-592.164754
4183.336892,1554.432478,-8197.221829,592.164754
4183.337217,740.205942,-7967.393179,-222.061783
4183.337541,-1480.411884,-9729.412825,-296.082377
4183.337865,-1480.411884,-8427.050478,-1258.350101
4183.338189,-1850.514855,-9422.974625,1554.432478
4183.338514,-1110.308913,-7431.126331,-296.082377
4183.338838,1776.494261,-8580.269578,1036.288319
4183.339162,2664.741391,-8273.831378,296.082377
4183.339486,1258.350101,-8120.612279,148.041188
4183.339811,2146.597232,-7584.345430,-296.082377
4183.340135,296.082377,-8197.221829,222.061783
4183.340459,-2368.659014,-8656.879127,74.020594
4183.340783,-2294.638420,-8427.050478,0.000000
4183.341107,-2294.638420,-8810.098227,1110.308913
4183.341432,-370.102971,-8656.879127,-296.082377
4183.341756,1258.350101,-8120.612279,740.205942
4183.342080,2516.700203,-8197.221829,-444.123565
4183.342404,3478.967927,-8580.269578,-740.205942
4183.342729,4219.173869,-8963.317327,-296.082377
4183.343053,2738.761985,-9499.584175,222.061783
4183.343377,962.267725,-8810.098227,-518.144159
4183.343701,-222.061783,-9346.365076,0.000000
4183.344026,-1480.411884,-9193.145976,-888.247130
4183.344350,-1702.473667,-8810.098227,-1184.329507
4183.344674,-1480.411884,-8656.879127,-740.205942
4183.344998,-296.082377,-8580.269578,0.000000
4183.345323,1850.514855,-8044.002729,222.061783
4183.345647,3108.864956,-8810.098227,-370.102971
4183.345971,4145.153275,-8656.879127,-888.247130
4183.346295,2886.803174,-8120.612279,-1258.350101
4183.346619,666.185348,-8427.050478,-1554.432478
4183.346944,-592.164754,-8733.488677,-1110.308913
4183.347268,-2368.659014,-9499.584175,-444.123565
4183.347592,-2960.823768,-9346.365076,-444.123565
4183.347916,-2368.659014,-9269.755526,-666.185348
4183.348241,-2220.617826,-7277.907231,-74.020594
4183.348565,3478.967927,-8273.831378,-740.205942
4183.348889,2368.659014,-9039.926876,-814.226536
4183.349213,4367.215058,-9039.926876,-1628.453072
4183.349538,3552.988522,-8044.002729,-1406.391290
4183.349862,1702.473667,-9116.536426,-1776.494261
4183.350186,518.144159,-9806.022374,-962.267725
4183.350510,-2442.679609,-8810.098227,-888.247130
4183.350835,-3034.844362,-10648.727422,-962.267725
4183.351159,-2590.720797,-7890.783629,-962.267725
4183.351483,-592.164754,-8580.269578,-74.020594
4183.351807,1332.370696,-7737.564530,-1110.308913
4183.352131,2886.803174,-9116.536426,74.020594
4183.352456,1554.432478,-7890.783629,-1184.329507
4183.352780,1258.350101,-8886.707777,0.000000
4183.353104,148.041188,-8044.002729,-666.185348
4183.353428,-518.144159,-9346.365076,-592.164754
4183.353753,-1406.391290,-8503.660028,-222.061783
4183.354077,-2590.720797,-9346.365076,370.102971
4183.354401,-2590.720797,-8656.879127,-296.082377
4183.354725,-592.164754,-8503.660028,444.123565
4183.355050,1702.473667,-8427.050478,370.102971
4183.355374,1924.535449,-8350.440928,-74.020594
4183.355698,3034.844362,-8503.660028,-444.123565
4183.356022,2738.761985,-8197.221829,-370.102971
4183.356347,592.164754,-9193.145976,0.000000
4183.356671,-1628.453072,-8503.660028,-740.205942
4183.356995,-2368.659014,-9499.584175,-666.185348
4183.357319,-3108.864956,-8810.098227,0.000000
4183.357643,-1776.494261,-8503.660028,370.102971
4183.357968,-814.226536,-8503.660028,0.000000
4183.358292,1258.350101,-8963.317327,814.226536
4183.358616,3182.885551,-7584.345430,-148.041188
4183.358940,3552.988522,-8580.269578,296.082377
4183.359265,2812.782580,-7431.126331,-222.061783
4183.359589,666.185348,-8810.098227,370.102971
4183.359913,-1480.411884,-8273.831378,-518.144159
4183.360237,-2220.617826,-9039.926876,888.247130
4183.360561,-3997.112087,-8427.050478,-296.082377
4183.360886,-2590.720797,-8886.707777,370.102971
4183.361210,-814.226536,-8197.221829,74.020594
4183.361534,666.185348,-7967.393179,444.123565
4183.361858,4293.194464,-7660.954980,-814.226536
4183.362183,3034.844362,-9116.536426,-222.061783
4183.362507,4441.235652,-9269.755526,0.000000
4183.362831,2738.761985,-7890.783629,-518.144159
4183.363155,740.205942,-9269.755526,-740.205942
4183.363479,-1184.329507,-8810.098227,-592.164754
4183.363804,-2368.659014,-9116.536426,-592.164754
4183.364128,-1406.391290,-9346.365076,-518.144159
4183.364452,-740.205942,-8580.269578,0.000000
4183.364776,1036.288319,-8273.831378,0.000000
4183.365101,2294.638420,-8044.002729,74.020594
4183.365425,3627.009116,-8044.002729,-666.185348
4183.365749,2886.803174,-8656.879127,-1036.288319
4183.366073,1702.473667,-8197.221829,-1332.370696
4183.366397,0.000000,-9116.536426,74.020594
4183.366722,-1110.308913,-9422.974625,-888.247130
4183.367046,-1628.453072,-9806.022374,-444.123565
4183.367370,-1036.288319,-9422.974625,0.000000
4183.367694,518.144159,-8886.707777,-814.226536
4183.368019,1776.494261,-8810.098227,-888.247130
4183.368343,2738.761985,-8963.317327,-222.061783
4183.368667,3701.029710,-8580.269578,-1036.288319
4183.368991,2886.803174,-9116.536426,-1110.308913
4183.369315,1554.432478,-9039.926876,-1036.288319
4183.369640,0.000000,-8273.831378,-962.267725
4183.369964,-2294.638420,-8886.707777,-1110.308913
4183.370288,-2664.741391,-9652.803275,-962.267725
4183.370612,-3034.844362,-8044.002729,-1554.432478
4183.370937,-592.164754,-9576.193725,0.000000
4183.371261,296.082377,-7431.126331,-592.164754
4183.371585,3701.029710,-8810.098227,148.041188
4183.371909,3775.050304,-7890.783629,-592.164754
4183.372233,3404.947333,-8810.098227,-740.205942
4183.372558,1554.432478,-7967.393179,-1332.370696
4183.372882,-296.082377,-8810.098227,-222.061783
4183.373206,-1998.556043,-8810.098227,74.020594
4183.373530,-4071.132681,-8963.317327,-592.164754
4183.373855,-3404.947333,-8350.440928,296.082377
4183.374179,-2368.659014,-8197.221829,0.000000
4183.374503,-370.102971,-8580.269578,-666.185348
4183.374827,1776.494261,-8350.440928,296.082377
4183.375151,3034.844362,-8120.612279,74.020594
4183.375476,2368.659014,-7967.393179,-592.164754
4183.375800,2590.720797,-8427.050478,-592.164754
4183.376124,1702.473667,-8963.317327,-296.082377
4183.376448,-962.267725,-8886.707777,-296.082377
4183.376773,-2368.659014,-8656.879127,-444.123565
4183.377097,-2220.617826,-9116.536426,148.041188
4183.377421,-1850.514855,-7890.783629,370.102971
4183.377745,0.000000,-7890.783629,1184.329507
4183.378069,740.205942,-7507.735880,0.000000
4183.378394,2812.782580,-8350.440928,962.267725
4183.378718,2072.576638,-7737.564530,0.000000
4183.379042,1628.453072,-8810.098227,-444.123565
4183.379366,-148.041188,-8503.660028,-296.082377
4183.379690,-2368.659014,-9193.145976,0.000000
4183.380015,-3627.009116,-8503.660028,-222.061783
4183.380339,-2516.700203,-8886.707777,1258.350101
4183.380663,-1184.329507,-8197.221829,222.061783
4183.380987,-222.061783,-8350.440928,0.000000
4183.381312,2294.638420,-8886.707777,0.000000
4183.381636,2812.782580,-8350.440928,0.000000
4183.381960,2886.803174,-8503.660028,-888.247130
4183.382284,2738.761985,-8580.269578,74.020594
4183.382608,0.000000,-8427.050478,-814.226536
4183.382933,-962.267725,-8273.831378,-740.205942
4183.383257,-1184.329507,-8733.488677,-296.082377
4183.383581,-1480.411884,-8580.269578,0.000000
4183.383905,0.000000,-8350.440928,-296.082377
4183.384230,1258.350101,-8273.831378,0.000000
4183.384554,1776.494261,-8120.612279,-444.123565
4183.384878,4071.132681,-7967.393179,-370.102971
4183.385202,4885.359217,-8656.879127,0.000000
4183.385526,518.144159,-8197.221829,-888.247130
4183.385851,1110.308913,-8886.707777,-518.144159
4183.386175,-1850.514855,-8580.269578,-1406.391290
4183.386499,-2146.597232,-11031.775171,-1110.308913
4183.386823,-2516.700203,-8350.440928,-740.205942
4183.387148,-1776.494261,-9652.803275,296.082377
4183.387472,296.082377,-7967.393179,-1406.391290
4183.387796,5477.523971,-9422.974625,0.000000
4183.388120,2442.679609,-7354.516781,-1628.453072
4183.388444,3923.091493,-10035.851024,-148.041188
4183.388769,3404.947333,-7660.954980,-2590.720797
4183.389093,2590.720797,-10035.851024,0.000000
4183.389417,0.000000,-7814.174080,-1554.432478
4183.389741,-1480.411884,-10035.851024,-592.164754
4183.390066,-1924.535449,-8656.879127,-1332.370696
4183.390390,0.000000,-8886.707777,-518.144159
4183.390714,1258.350101,-8503.660028,-444.123565
4183.391038,1406.391290,-8044.002729,-666.185348
4183.391362,3182.885551,-9193.145976,-222.061783
4183.391687,1702.473667,-8427.050478,-1332.370696
4183.392011,1480.411884,-9422.974625,-592.164754
4183.392335,0.000000,-8886.707777,-518.144159
4183.392659,-2368.659014,-8886.707777,-814.226536
4183.392984,-2590.720797,-8886.707777,0.000000
4183.393308,-1702.473667,-9422.974625,-296.082377
4183.393632,-1776.494261,-9116.536426,518.144159
4183.393956,444.123565,-7890.783629,-444.123565
4183.394280,2220.617826,-8580.269578,814.226536
4183.394605,3478.967927,-8350.440928,-444.123565
4183.394929,3923.091493,-8044.002729,-444.123565
4183.395253,3182.885551,-9422.974625,-592.164754
4183.395577,222.061783,-8273.831378,-666.185348
4183.395902,-1554.432478,-8963.317327,-444.123565
4183.396226,-3552.988522,-8886.707777,0.000000
4183.396550,-3108.864956,-8733.488677,444.123565
4183.396874,-3923.091493,-8044.002729,0.000000
4183.397198,-1258.350101,-8427.050478,592.164754
4183.397523,814.226536,-7201.297681,0.000000
4183.397847,2960.823768,-8886.707777,0.000000
4183.398171,4219.173869,-8273.831378,-518.144159
4183.398495,3478.967927,-8120.612279,-222.061783
4183.398820,1110.308913,-8963.317327,0.000000
4183.399144,-2220.617826,-8044.002729,0.000000
4183.399468,-2294.638420,-9959.241474,592.164754
4183.399792,-4737.318029,-8197.221829,-222.061783
4183.400116,-3478.967927,-9193.145976,1554.432478
4183.400441,-1628.453072,-7354.516781,296.082377
4183.400765,814.226536,-8733.488677,592.164754
4183.401089,3182.885551,-7507.735880,-148.041188
4183.401413,3923.091493,-7967.393179,74.020594
4183.401738,4071.132681,-7967.393179,-814.226536
4183.402062,2664.741391,-8580.269578,74.020594
4183.402386,1480.411884,-9193.145976,-740.205942
4183.402710,-740.205942,-9193.145976,-592.164754
4183.403034,-1480.411884,-9269.755526,-296.082377
4183.403359,-1998.556043,-8810.098227,0.000000
4183.403683,-1702.473667,-8656.879127,370.102971
4183.404007,-148.041188,-7967.393179,0.000000
4183.404331,2072.576638,-8427.050478,74.020594
4183.404656,2146.597232,-8427.050478,-296.082377
4183.404980,2146.597232,-8580.269578,-370.102971
4183.405304,1776.494261,-8120.612279,-666.185348
4183.405628,296.082377,-8503.660028,0.000000
4183.405952,-370.102971,-8810.098227,-518.144159
4183.406277,-1184.329507,-9652.803275,-666.185348
4183.406601,-740.205942,-9116.536426,-296.082377
4183.406925,740.205942,-8733.488677,-814.226536
4183.407249,1776.494261,-8656.879127,-592.164754
4183.407573,3108.864956,-8963.317327,0.000000
4183.407898,2220.617826,-8656.879127,-1110.308913
4183.408222,1924.535449,-9346.365076,-1406.391290
4183.408546,962.267725,-8044.002729,-1554.432478
4183.408870,-518.144159,-9499.584175,-1184.329507
4183.409195,-2294.638420,-9729.412825,-1184.329507
4183.409519,-1850.514855,-9269.755526,0.000000
4183.409843,-814.226536,-8733.488677,-592.164754
4183.410167,740.205942,-8273.831378,-1110.308913
4183.410491,2812.782580,-8733.488677,-592.164754
4183.410816,3182.885551,-8886.707777,-592.164754
4183.411140,3552.988522,-8350.440928,-1258.350101
4183.411464,3552.988522,-8656.879127,-1702.473667
4183.411788,2294.638420,-9652.803275,-740.205942
4183.412113,-1480.411884,-9422.974625,-222.061783
4183.412437,-3627.009116,-9346.365076,-370.102971
4183.412761,-4441.235652,-9193.145976,-666.185348
4183.413085,-3627.009116,-8503.660028,-444.123565
4183.413409,-1258.350101,-8503.660028,-592.164754
4183.413734,1480.411884,-7890.783629,-148.041188
4183.414058,3404.947333,-8273.831378,-222.061783
4183.414382,3701.029710,-8044.002729,-592.164754
4183.414706,4515.256246,-9116.536426,-518.144159
4183.415031,2516.700203,-8503.660028,-666.185348
4183.415355,1036.288319,-9576.193725,-740.205942
4183.415679,-1776.494261,-8656.879127,-1036.288319
4183.416003,-2220.617826,-9882.631924,0.000000
4183.416327,-3627.009116,-8120.612279,-1036.288319
4183.416652,-2442.679609,-9193.145976,444.123565
4183.416976,-222.061783,-9346.365076,888.247130
4183.417300,0.000000,-7737.564530,444.123565
4183.417624,2220.617826,-8197.221829,-1554.432478
4183.417949,2368.659014,-9193.145976,222.061783
4183.418273,1702.473667,-6894.859482,74.020594
4183.418597,0.000000,-8503.660028,370.102971
4183.418921,-1554.432478,-8503.660028,222.061783
4183.419245,-2442.679609,-9576.193725,740.205942
4183.419570,-3034.844362,-8427.050478,148.041188
4183.419894,-1850.514855,-9652.803275,1184.329507
4183.420218,0.000000,-7584.345430,0.000000
4183.420542,1406.391290,-8503.660028,740.205942
4183.420867,1924.535449,-7277.907231,0.000000
4183.421191,3256.906145,-8963.317327,-296.082377
4183.421515,222.061783,-7124.688131,0.000000
4183.421839,-148.041188,-9193.145976,1184.329507
4183.422163,-1628.453072,-7660.954980,-740.205942
4183.422488,-1776.494261,-9882.631924,-296.082377
4183.422812,-1924.535449,-7814.174080,-740.205942
4183.423136,-1036.288319,-9193.145976,518.144159
4183.423460,1110.308913,-7814.174080,-444.123565
4183.423785,3775.050304,-8427.050478,1110.308913
4183.424109,4145.153275,-7507.735880,-148.041188
4183.424433,3256.906145,-8886.707777,-370.102971
4183.424757,1628.453072,-8427.050478,0.000000
4183.425081,814.226536,-9116.536426,666.185348
4183.425406,-2146.597232,-8273.831378,-740.205942
4183.425730,-3108.864956,-9269.755526,-148.041188
4183.426054,-2146.597232,-8886.707777,-666.185348
4183.426378,-1776.494261,-8580.269578,-444.123565
4183.426703,1702.473667,-8580.269578,-370.102971
4183.427027,3404.947333,-7890.783629,-370.102971
4183.427351,3923.091493,-8350.440928,-518.144159
4183.427675,4071.132681,-8656.879127,-1480.411884
4183.427999,3034.844362,-8810.098227,-1406.391290
4183.428324,1554.432478,-8886.707777,-888.247130
4183.428648,0.000000,-9346.365076,-1184.329507
4183.428972,-2220.617826,-10035.851024,-592.164754
4183.429296,-2368.659014,-9269.755526,-814.226536
4183.429621,-962.267725,-8733.488677,-592.164754
4183.429945,592.164754,-9193.145976,-296.082377
4183.430269,1776.494261,-8273.831378,-814.226536
4183.430593,3552.988522,-8733.488677,-148.041188
4183.430917,2590.720797,-7967.393179,-1554.432478
4183.431242,2294.638420,-8810.098227,-2072.576638
4183.431566,1480.411884,-8810.098227,-518.144159
4183.431890,-1258.350101,-8427.050478,-444.123565
4183.432214,-2146.597232,-9422.974625,-370.102971
4183.432539,-2368.659014,-8580.269578,-370.102971
4183.432863,0.000000,-9576.193725,0.000000
4183.433187,222.061783,-8886.707777,-740.205942
4183.433511,2368.659014,-8656.879127,74.020594
4183.433835,2738.761985,-8197.221829,0.000000
4183.434160,1998.556043,-7967.393179,-814.226536
4183.434484,814.226536,-8273.831378,-518.144159
4183.434808,-296.082377,-8427.050478,-444.123565
4183.435132,-1480.411884,-8886.707777,-1184.329507
4183.435456,-1924.535449,-8733.488677,-222.061783
4183.435781,-1480.411884,-8963.317327,-888.247130
4183.436105,0.000000,-8810.098227,666.185348
4183.436429,1702.473667,-7890.783629,222.061783
4183.436753,3034.844362,-7814.174080,444.123565
4183.437078,2886.803174,-8350.440928,296.082377
4183.437402,2886.803174,-8886.707777,-296.082377
4183.437726,1850.514855,-9039.926876,-370.102971
4183.438050,-444.123565,-8427.050478,-814.226536
4183.438374,-2664.741391,-8580.269578,-518.144159
4183.438699,-4219.173869,-8427.050478,444.123565
4183.439023,-3923.091493,-7890.783629,74.020594
4183.439347,-3849.070898,-9422.974625,962.267725
4183.439671,-1036.288319,-7737.564530,148.041188
4183.439996,1258.350101,-8273.831378,1258.350101
4183.440320,3330.926739,-7584.345430,74.020594
4183.440644,3404.947333,-8580.269578,148.041188
4183.440968,2590.720797,-7354.516781,-1110.308913
4183.441292,2960.823768,-9729.412825,592.164754
4183.441617,-296.082377,-8656.879127,-1850.514855
4183.441941,-1776.494261,-10342.289223,1998.556043
4183.442265,-3330.926739,-6971.469032,-1406.391290
4183.442589,-1850.514855,-9346.365076,1406.391290
4183.442914,518.144159,-8503.660028,0.000000
4183.443238,1702.473667,-8197.221829,1554.432478
4183.443562,4959.379811,-7354.516781,0.000000
4183.443886,1702.473667,-9576.193725,0.000000
4183.444210,1702.473667,-7277.907231,-1406.391290
4183.444535,74.020594,-9346.365076,1258.350101
4183.444859,-1110.308913,-7431.126331,-1036.288319
4183.445183,-2220.617826,-9806.022374,222.061783
4183.445507,-1998.556043,-8427.050478,-1036.288319
4183.445832,-1776.494261,-9193.145976,1110.308913
4183.446156,296.082377,-7507.735880,-1850.514855
4183.446480,1850.514855,-9959.241474,814.226536
4183.446804,3923.091493,-7431.126331,0.000000
4183.447128,4071.132681,-9346.365076,-1332.370696
4183.447453,3552.988522,-8656.879127,-1850.514855
4183.447777,1110.308913,-9116.536426,0.000000
4183.448101,814.226536,-8580.269578,-1036.288319
4183.448425,-2220.617826,-9039.926876,-962.267725
4183.448750,-1332.370696,-9116.536426,-1332.370696
4183.449074,0.000000,-8503.660028,-740.205942
4183.449398,666.185348,-8350.440928,-888.247130
4183.449722,3034.844362,-9193.145976,0.000000
4183.450046,3775.050304,-7814.174080,-1110.308913
4183.450371,3182.885551,-9116.536426,-518.144159
4183.450695,3034.844362,-8810.098227,-1480.411884
4183.451019,1258.350101,-8810.098227,-666.185348
4183.451343,-296.082377,-8656.879127,-962.267725
4183.451668,-814.226536,-9193.145976,-666.185348
4183.451992,-2886.803174,-8733.488677,-592.164754
4183.452316,-2738.761985,-8733.488677,-370.102971
4183.452640,-518.144159,-8120.612279,-370.102971
4183.452964,1332.370696,-7967.393179,0.000000
4183.453289,4145.153275,-8963.317327,-592.164754
4183.453613,3256.906145,-7507.735880,-1406.391290
4183.453937,3775.050304,-9269.755526,-518.144159
4183.454261,1628.453072,-8197.221829,-1776.494261
4183.454586,1110.308913,-10342.289223,0.000000
4183.454910,-1258.350101,-8580.269578,-888.247130
4183.455234,-2664.741391,-9729.412825,74.020594
4183.455558,-1924.535449,-8656.879127,-1036.288319
4183.455882,0.000000,-9039.926876,0.000000
4183.456207,518.144159,-7890.783629,148.041188
4183.456531,1554.432478,-7660.954980,0.000000
4183.456855,1998.556043,-8427.050478,74.020594
4183.457179,1332.370696,-8197.221829,74.020594
4183.457504,1184.329507,-8963.317327,-518.144159
4183.457828,-814.226536,-8963.317327,-296.082377
4183.458152,-2072.576638,-9116.536426,296.082377
4183.458476,-3256.906145,-8273.831378,-666.185348
4183.458800,-2294.638420,-9499.584175,370.102971
4183.459125,-1110.308913,-7814.174080,0.000000
4183.459449,370.102971,-9039.926876,148.041188
4183.459773,1850.514855,-7660.954980,0.000000
4183.460097,2368.659014,-7048.078582,1110.308913
4183.460422,2146.597232,-7584.345430,-148.041188
4183.460746,814.226536,-8044.002729,-888.247130
4183.461070,-592.164754,-9116.536426,0.000000
4183.461394,-1998.556043,-8503.660028,-444.123565
4183.461719,-2146.597232,-9193.145976,-148.041188
4183.462043,-2516.700203,-8810.098227,148.041188
4183.462367,-222.061783,-8580.269578,814.226536
4183.462691,962.267725,-7507.735880,222.061783
4183.463015,3478.967927,-8197.221829,444.123565
4183.463340,2738.761985,-7507.735880,-296.082377
4183.463664,2812.782580,-8350.440928,444.123565
4183.463988,1702.473667,-8580.269578,-1110.308913
4183.464312,-592.164754,-8733.488677,0.000000
4183.464637,-1628.453072,-9652.803275,0.000000
4183.464961,-3256.906145,-8810.098227,-222.061783
4183.465285,-2368.659014,-9652.803275,444.123565
4183.465609,-814.226536,-8044.002729,-370.102971
4183.465934,888.247130,-9193.145976,74.020594
4183.466258,2664.741391,-7584.345430,-888.247130
4183.466582,4145.153275,-8273.831378,0.000000
4183.466906,3701.029710,-7660.954980,-444.123565
4183.467230,1850.514855,-8580.269578,-1554.432478
4183.467555,1480.411884,-9269.755526,-1406.391290
4183.467879,-740.205942,-9806.022374,-888.247130
4183.468203,-1924.535449,-8580.269578,-296.082377
4183.468527,-1406.391290,-8197.221829,-1258.350101
4183.468852,-1184.329507,-10648.727422,592.164754
4183.469176,1480.411884,-7890.783629,-444.123565
4183.469500,2738.761985,-8350.440928,-296.082377
4183.469824,3627.009116,-8580.269578,-444.123565
4183.470149,3552.988522,-8580.269578,-740.205942
4183.470473,2368.659014,-8733.488677,-740.205942
4183.470797,370.102971,-9269.755526,-1332.370696
4183.471121,-1554.432478,-9269.755526,-1554.432478
4183.471445,-1776.494261,-9346.365076,-1110.308913
4183.471770,-1924.535449,-8810.098227,-444.123565
4183.472094,-962.267725,-9116.536426,74.020594
4183.472418,222.061783,-8656.879127,-222.061783
4183.472742,2294.638420,-7967.393179,0.000000
4183.473067,2664.741391,-8810.098227,-222.061783
4183.473391,3701.029710,-8197.221829,-1776.494261
4183.473715,2146.597232,-8044.002729,-1184.329507
4183.474039,1036.288319,-9269.755526,-740.205942
4183.474364,0.000000,-8580.269578,-1036.288319
4183.474688,-444.123565,-8963.317327,-296.082377
4183.475012,-1480.411884,-8886.707777,-518.144159
4183.475336,-222.061783,-9116.536426,-592.164754
4183.475660,1332.370696,-8810.098227,74.020594
4183.475985,1850.514855,-8350.440928,-444.123565
4183.476309,2664.741391,-8503.660028,-370.102971
4183.476633,1406.391290,-8273.831378,-1036.288319
4183.476957,666.185348,-9346.365076,-518.144159
4183.477282,-1332.370696,-8733.488677,-1036.288319
4183.477606,-2738.761985,-9422.974625,-444.123565
4183.477930,-3108.864956,-8810.098227,-592.164754
4183.478254,-3034.844362,-8810.098227,-148.041188
4183.478579,-1554.432478,-8810.098227,370.102971
4183.478903,-592.164754,-8197.221829,0.000000
4183.479227,814.226536,-8427.050478,296.082377
4183.479551,2664.741391,-7814.174080,444.123565
4183.479875,3849.070898,-7660.954980,0.000000
4183.480200,1110.308913,-8044.002729,-666.185348
4183.480524,814.226536,-8427.050478,-222.061783
4183.480848,-1258.350101,-8044.002729,-666.185348
4183.481172,-2516.700203,-9269.755526,444.123565
4183.481497,-2960.823768,-8044.002729,-518.144159
4183.481821,-2220.617826,-8580.269578,740.205942
4183.482145,148.041188,-8580.269578,222.061783
4183.482469,2220.617826,-7584.345430,518.144159
4183.482794,2368.659014,-7584.345430,222.061783
4183.483118,2590.720797,-7660.954980,888.247130
4183.483442,2368.659014,-8273.831378,-518.144159
4183.483766,-370.102971,-9116.536426,-148.041188
4183.484090,-1332.370696,-7660.954980,592.164754
4183.484415,-1998.556043,-8810.098227,592.164754
4183.484739,-2812.782580,-8503.660028,-814.226536
4183.485063,370.102971,-9116.536426,-296.082377
4183.485387,888.247130,-7967.393179,370.102971
4183.485712,1850.514855,-8120.612279,444.123565
4183.486036,3404.947333,-7890.783629,518.144159
4183.486360,3552.988522,-7967.393179,-444.123565
4183.486684,3034.844362,-8963.317327,-592.164754
4183.487009,1776.494261,-7890.783629,-888.247130
4183.487333,222.061783,-9576.193725,-666.185348
4183.487657,-2072.576638,-8886.707777,-962.267725
4183.487981,-2960.823768,-9729.412825,0.000000
4183.488306,-1554.432478,-8886.707777,-148.041188
4183.488630,814.226536,-8963.317327,296.082377
4183.488954,2294.638420,-9039.926876,0.000000
4183.489278,3182.885551,-8120.612279,-592.164754
4183.489602,3923.091493,-8963.317327,-592.164754
4183.489927,3034.844362,-8427.050478,-1480.411884
4183.490251,1258.350101,-9116.536426,-1258.350101
4183.490575,-222.061783,-9193.145976,-1036.288319
4183.490899,-2368.659014,-9039.926876,0.000000
4183.491224,-3256.906145,-8427.050478,-296.082377
4183.491548,-2146.597232,-8810.098227,-740.205942
4183.491872,296.082377,-8503.660028,-962.267725
4183.492196,2220.617826,-8273.831378,-296.082377
4183.492521,3552.988522,-8197.221829,148.041188
4183.492845,3701.029710,-8810.098227,-518.144159
4183.493169,2590.720797,-8656.879127,-1554.432478
4183.493493,2368.659014,-8963.317327,-1554.432478
4183.493817,0.000000,-9116.536426,-1554.432478
4183.494142,-962.267725,-9116.536426,-740.205942
4183.494466,-2738.761985,-9346.365076,-740.205942
4183.494790,-2886.803174,-8963.317327,-814.226536
4183.495114,-740.205942,-9116.536426,222.061783
4183.495439,296.082377,-8273.831378,0.000000
4183.495763,2368.659014,-9116.536426,-666.185348
4183.496087,2886.803174,-7890.783629,-740.205942
4183.496411,2442.679609,-8427.050478,-740.205942
4183.496736,1776.494261,-8963.317327,-296.082377
4183.497060,-296.082377,-8120.612279,-1036.288319
4183.497384,-2220.617826,-10112.460574,444.123565
4183.497708,-2442.679609,-7967.393179,-1184.329507
4183.498032,-2368.659014,-9269.755526,518.144159
4183.498357,-444.123565,-8197.221829,222.061783
4183.498681,814.226536,-8044.002729,370.102971
4183.499005,2072.576638,-7967.393179,0.000000
4183.499329,1702.473667,-7814.174080,-296.082377
4183.499654,2664.741391,-8120.612279,0.000000
4183.499978,-222.061783,-8273.831378,-888.247130
4183.500302,-1184.329507,-9039.926876,-222.061783
4183.500626,-2812.782580,-8044.002729,0.000000
4183.500951,-3404.947333,-8273.831378,-518.144159
4183.501275,-2294.638420,-9039.926876,148.041188
4183.501599,-1184.329507,-7354.516781,444.123565
4183.501923,1628.453072,-8350.440928,888.247130
4183.502247,2442.679609,-7277.907231,0.000000
4183.502572,4737.318029,-8886.707777,888.247130
4183.502896,2960.823768,-8120.612279,-296.082377
4183.503220,666.185348,-8656.879127,-740.205942
4183.503544,-148.041188,-9039.926876,222.061783
4183.503869,-3256.906145,-8273.831378,0.000000
4183.504193,-4589.276840,-9039.926876,370.102971
4183.504517,-2738.761985,-8350.440928,222.061783
4183.504841,-592.164754,-7660.954980,888.247130
4183.505166,1036.288319,-7584.345430,222.061783
4183.505490,3478.967927,-8580.269578,74.020594
4183.505814,5255.462188,-7737.564530,-148.041188
4183.506138,5107.421000,-8273.831378,148.041188
4183.506462,4737.318029,-7584.345430,-1998.556043
4183.506787,1702.473667,-9959.241474,222.061783
4183.507111,518.144159,-8963.317327,-1332.370696
4183.507435,-2294.638420,-9039.926876,-222.061783
4183.507759,-3923.091493,-9269.755526,-666.185348
4183.508084,-1258.350101,-8810.098227,296.082377
4183.508408,1110.308913,-8197.221829,-962.267725
4183.508732,2960.823768,-9346.365076,-740.205942
4183.509056,3478.967927,-8273.831378,-888.247130
4183.509381,3034.844362,-8044.002729,-1184.329507
4183.509705,2664.741391,-9729.412825,-1184.329507
4183.510029,1184.329507,-8120.612279,-592.164754
4183.510353,74.020594,-9806.022374,0.000000
4183.510677,-2294.638420,-8580.269578,-1554.432478
4183.511002,-666.185348,-10112.460574,-370.102971
4183.511326,74.020594,-7967.393179,-1258.350101
4183.511650,740.205942,-9346.365076,-666.185348
4183.511974,2368.659014,-7814.174080,-740.205942
4183.512299,3404.947333,-9116.536426,0.000000
4183.512623,2590.720797,-8197.221829,-1332.370696
4183.512947,3182.885551,-8886.707777,-1258.350101
4183.513271,740.205942,-9346.365076,-1480.411884
4183.513596,-1554.432478,-9882.631924,-888.247130
4183.513920,-1702.473667,-8733.488677,-1776.494261
4183.514244,-1184.329507,-9576.193725,-444.123565
4183.514568,-962.267725,-8733.488677,-518.144159
4183.514892,1184.329507,-8580.269578,-148.041188
4183.515217,2590.720797,-8810.098227,222.061783
4183.515541,3701.029710,-8503.660028,-370.102971
4183.515865,2960.823768,-8963.317327,-1554.432478
4183.516189,1332.370696,-8350.440928,-370.102971
4183.516514,222.061783,-8733.488677,-592.164754
4183.516838,-2590.720797,-9499.584175,0.000000
4183.517162,-3478.967927,-8810.098227,-444.123565
4183.517486,-4367.215058,-8273.831378,370.102971
4183.517811,-3182.885551,-8120.612279,-222.061783
4183.518135,-740.205942,-8886.707777,0.000000
4183.518459,2294.638420,-8044.002729,222.061783
4183.518783,2664.741391,-7660.954980,-444.123565
4183.519108,3849.070898,-8273.831378,-370.102971
4183.519432,3849.070898,-8273.831378,-444.123565
4183.519756,1776.494261,-8656.879127,-592.164754
4183.520080,-296.082377,-9193.145976,74.020594
4183.520404,-2146.597232,-8733.488677,0.000000
4183.520729,-3701.029710,-9116.536426,740.205942
4183.521053,-3108.864956,-8350.440928,666.185348
4183.521377,-1184.329507,-8580.269578,814.226536
4183.521701,518.144159,-7507.735880,0.000000
4183.522026,2516.700203,-7814.174080,814.226536
4183.522350,2590.720797,-7890.783629,-444.123565
4183.522674,2590.720797,-8963.317327,222.061783
4183.522998,740.205942,-7431.126331,-148.041188
4183.523323,-740.205942,-9193.145976,592.164754
4183.523647,-1924.535449,-8350.440928,0.000000
4183.523971,-3034.844362,-8886.707777,666.185348
4183.524295,-1628.453072,-7967.393179,-148.041188
4183.524619,1184.329507,-8810.098227,0.000000
4183.524944,3182.885551,-7890.783629,222.061783
4183.525268,2812.782580,-7584.345430,296.082377
4183.525592,2664.741391,-7584.345430,148.041188
4183.525916,1332.370696,-8273.831378,-222.061783
4183.526241,518.144159,-8733.488677,-1258.350101
4183.526565,-888.247130,-8503.660028,-370.102971
4183.526889,-2220.617826,-8120.612279,-1036.288319
4183.527213,-2072.576638,-9269.755526,-222.061783
4183.527538,-740.205942,-8656.879127,-296.082377
4183.527862,0.000000,-8963.317327,296.082377
4183.528186,2368.659014,-9039.926876,-666.185348
4183.528510,4145.153275,-9193.145976,-962.267725
4183.528834,4219.173869,-9729.412825,-1406.391290
4183.529159,2590.720797,-7584.345430,-296.082377
4183.529483,888.247130,-8120.612279,-2590.720797
4183.529807,-1554.432478,-10801.946522,0.000000
4183.530131,-3256.906145,-7431.126331,-666.185348
4183.530456,-3108.864956,-9269.755526,-148.041188
4183.530780,-2368.659014,-8044.002729,-814.226536
4183.531104,296.082377,-9193.145976,-74.020594
4183.531428,2368.659014,-7354.516781,-962.267725
4183.531753,4515.256246,-8580.269578,-222.061783
4183.532077,4145.153275,-8120.612279,-1258.350101
4183.532401,4737.318029,-8886.707777,-444.123565
4183.532725,3701.029710,-8044.002729,-1850.514855
4183.533049,1258.350101,-10342.289223,-1036.288319
4183.533374,-888.247130,-8656.879127,-814.226536
4183.533698,-2146.597232,-9116.536426,-296.082377
4183.534022,-2442.679609,-8810.098227,-1110.308913
4183.534346,296.082377,-9499.584175,0.000000
4183.534671,888.247130,-7584.345430,-1258.350101
4183.534995,2738.761985,-8656.879127,148.041188
4183.535319,2664.741391,-7354.516781,-1110.308913
4183.535643,2368.659014,-9346.365076,-74.020594
4183.535968,296.082377,-8120.612279,-1258.350101
4183.536292,-666.185348,-9729.412825,0.000000
4183.536616,-2072.576638,-8810.098227,-370.102971
4183.536940,-2072.576638,-9269.755526,0.000000
4183.537264,-2220.617826,-9039.926876,74.020594
4183.537589,-370.102971,-8427.050478,370.102971
4183.537913,370.102971,-7814.174080,-1554.432478
4183.538237,1480.411884,-8273.831378,518.144159
4183.538561,2960.823768,-7737.564530,444.123565
4183.538886,2516.700203,-8810.098227,-518.144159
4183.539210,0.000000,-8350.440928,-592.164754
4183.539534,-222.061783,-8427.050478,-444.123565
4183.539858,-3552.988522,-8273.831378,-518.144159
