#time,accel_x,accel_y,accel_z
5565.564888,370.102971,-8733.488677,-296.082377
5565.565213,296.082377,-8273.831378,0.000000
5565.565537,518.144159,-8733.488677,-370.102971
5565.565861,592.164754,-8886.707777,-518.144159
5565.566185,370.102971,-8350.440928,0.000000
5565.566509,222.061783,-8656.879127,0.000000
5565.566834,222.061783,-8427.050478,-222.061783
5565.567158,592.164754,-8503.660028,-666.185348
5565.567482,370.102971,-8503.660028,-370.102971
5565.567806,444.123565,-8350.440928,-222.061783
5565.568131,518.144159,-8503.660028,-518.144159
5565.568455,444.123565,-8733.488677,-370.102971
5565.568779,444.123565,-8427.050478,-148.041188
5565.569103,444.123565,-8733.488677,-444.123565
5565.569427,592.164754,-9729.412825,-444.123565
5565.569752,592.164754,-8503.660028,-222.061783
5565.570076,444.123565,-8580.269578,-370.102971
5565.570400,444.123565,-8503.660028,-370.102971
5565.570724,666.185348,-8580.269578,-296.082377
5565.571049,444.123565,-8427.050478,-370.102971
5565.571373,296.082377,-8580.269578,-518.144159
5565.571697,222.061783,-8427.050478,-296.082377
5565.572021,296.082377,-8810.098227,-222.061783
5565.572345,74.020594,-8733.488677,0.000000
5565.572670,222.061783,-8810.098227,-296.082377
5565.572994,592.164754,-8427.050478,0.000000
5565.573318,222.061783,-8810.098227,-370.102971
5565.573642,370.102971,-9039.926876,-222.061783
5565.573967,518.144159,-8733.488677,-222.061783
5565.574291,296.082377,-8886.707777,-222.061783
5565.574615,444.123565,-8350.440928,-592.164754
5565.574939,148.041188,-8656.879127,-222.061783
5565.575263,74.020594,-8427.050478,-444.123565
5565.575588,444.123565,-8503.660028,-444.123565
5565.575912,370.102971,-8503.660028,-370.102971
5565.576236,444.123565,-8656.879127,-296.082377
5565.576560,518.144159,-7967.393179,-666.185348
5565.576885,370.102971,-8810.098227,-444.123565
5565.577209,592.164754,-8427.050478,-444.123565
5565.577533,518.144159,-8427.050478,-444.123565
5565.577857,518.144159,-8503.660028,-444.123565
5565.578181,370.102971,-8656.879127,-370.102971
5565.578506,222.061783,-8427.050478,-518.144159
5565.578830,296.082377,-8427.050478,-592.164754
5565.579154,444.123565,-8810.098227,-74.020594
5565.579478,814.226536,-8886.707777,-370.102971
5565.579803,444.123565,-8656.879127,-370.102971
5565.580127,444.123565,-8350.440928,-222.061783
5565.580451,296.082377,-8580.269578,-370.102971
5565.580775,740.205942,-9193.145976,-592.164754
5565.581099,518.144159,-8580.269578,-370.102971
5565.581424,518.144159,-8580.269578,-370.102971
5565.581748,370.102971,-8503.660028,-370.102971
5565.582072,74.020594,-8656.879127,-222.061783
5565.582396,592.164754,-8350.440928,-740.205942
5565.582721,222.061783,-8503.660028,-444.123565
5565.583045,518.144159,-8810.098227,-370.102971
5565.583369,592.164754,-8197.221829,-296.082377
5565.583693,222.061783,-8810.098227,0.000000
5565.584017,444.123565,-8503.660028,-444.123565
5565.584342,370.102971,-8503.660028,-518.144159
5565.584666,296.082377,-8886.707777,-296.082377
5565.584990,592.164754,-8580.269578,-148.041188
5565.585314,518.144159,-8503.660028,-444.123565
5565.585639,444.123565,-8580.269578,-592.164754
5565.585963,222.061783,-8656.879127,-222.061783
5565.586287,444.123565,-8580.269578,-666.185348
5565.586611,-962.267725,-8810.098227,-296.082377
5565.586935,-962.267725,-8656.879127,-222.061783
5565.587260,-1480.411884,-8120.612279,-962.267725
5565.587584,-2368.659014,-8963.317327,-518.144159
5565.587908,-2072.576638,-8044.002729,222.061783
5565.588232,-2072.576638,-9193.145976,74.020594
5565.588557,-1332.370696,-8503.660028,-592.164754
5565.588881,-1184.329507,-8273.831378,-370.102971
5565.589205,-962.267725,-9269.755526,0.000000
5565.589529,-1776.494261,-8580.269578,-296.082377
5565.589853,-1850.514855,-8350.440928,-814.226536
5565.590178,-2294.638420,-8886.707777,-444.123565
5565.590502,-2960.823768,-8656.879127,-296.082377
5565.590826,-3775.050304,-8733.488677,-444.123565
5565.591150,-3330.926739,-9116.536426,-296.082377
5565.591475,-3404.947333,-8273.831378,-444.123565
5565.591799,-2442.679609,-8733.488677,-296.082377
5565.592123,-1924.535449,-8503.660028,-740.205942
5565.592447,-1702.473667,-9193.145976,-296.082377
5565.592771,-1850.514855,-8503.660028,-370.102971
5565.593096,-1998.556043,-8963.317327,0.000000
5565.593420,-2294.638420,-9193.145976,-592.164754
5565.593744,-3034.844362,-9422.974625,0.000000
5565.594068,-3552.988522,-8733.488677,74.020594
5565.594393,-3404.947333,-9269.755526,-148.041188
5565.594717,-3627.009116,-8886.707777,-222.061783
5565.595041,-3182.885551,-9039.926876,296.082377
5565.595365,-2738.761985,-8656.879127,0.000000
5565.595689,-2294.638420,-8810.098227,-444.123565
5565.596014,-1628.453072,-8733.488677,-518.144159
5565.596338,-1406.391290,-8886.707777,0.000000
5565.596662,-1776.494261,-8503.660028,-296.082377
5565.596986,-2072.576638,-8963.317327,-222.061783
5565.597311,-2072.576638,-8273.831378,-222.061783
5565.597635,-2590.720797,-9116.536426,296.082377
5565.597959,-2738.761985,-8580.269578,-222.061783
5565.598283,-2738.761985,-8886.707777,0.000000
5565.598607,-2294.638420,-8656.879127,-518.144159
5565.598932,-1776.494261,-8580.269578,-370.102971
5565.599256,-1924.535449,-8427.050478,-444.123565
5565.599580,-1332.370696,-8427.050478,-444.123565
5565.599904,-1258.350101,-7660.954980,-370.102971
5565.600229,-1332.370696,-8044.002729,-666.185348
5565.600553,-1702.473667,-8503.660028,0.000000
5565.600877,-2220.617826,-7890.783629,-148.041188
5565.601201,-2294.638420,-8197.221829,-444.123565
5565.601525,-1554.432478,-8656.879127,-296.082377
5565.601850,-1628.453072,-8273.831378,-888.247130
5565.602174,-1036.288319,-8120.612279,-370.102971
5565.602498,-814.226536,-7737.564530,-740.205942
5565.602822,0.000000,-8120.612279,-296.082377
5565.603147,370.102971,-8120.612279,-888.247130
5565.603471,518.144159,-8197.221829,-518.144159
5565.603795,370.102971,-8810.098227,-666.185348
5565.604119,148.041188,-8886.707777,-370.102971
5565.604443,0.000000,-8427.050478,-444.123565
5565.604768,-444.123565,-8963.317327,74.020594
5565.605092,370.102971,-8963.317327,-518.144159
5565.605416,444.123565,-8810.098227,-592.164754
5565.605740,740.205942,-8963.317327,-592.164754
5565.606065,888.247130,-8810.098227,-518.144159
5565.606389,962.267725,-9039.926876,-1036.288319
5565.606713,444.123565,-9193.145976,-592.164754
5565.607037,-592.164754,-8656.879127,-1036.288319
5565.607361,-1480.411884,-9652.803275,-370.102971
5565.607686,-1776.494261,-8044.002729,0.000000
5565.608010,-2812.782580,-8886.707777,-222.061783
5565.608334,-3404.947333,-8427.050478,-592.164754
5565.608658,-3330.926739,-8886.707777,0.000000
5565.608983,-2886.803174,-8120.612279,-518.144159
5565.609307,-2442.679609,-8810.098227,-370.102971
5565.609631,-1702.473667,-8120.612279,-444.123565
5565.609955,-1332.370696,-8886.707777,-740.205942
5565.610279,-1332.370696,-8733.488677,-666.185348
5565.610604,-1406.391290,-9039.926876,-740.205942
5565.610928,-1998.556043,-9269.755526,-592.164754
5565.611252,-2294.638420,-8503.660028,-148.041188
5565.611576,-2072.576638,-8963.317327,-222.061783
5565.611901,-1184.329507,-8886.707777,-370.102971
5565.612225,-1332.370696,-8733.488677,0.000000
5565.612549,-888.247130,-8656.879127,-222.061783
5565.612873,0.000000,-8427.050478,-370.102971
5565.613197,0.000000,-8427.050478,-666.185348
5565.613522,0.000000,-8580.269578,-370.102971
5565.613846,-1554.432478,-8733.488677,-444.123565
5565.614170,-2220.617826,-9039.926876,-296.082377
5565.614494,-3923.091493,-8810.098227,0.000000
5565.614819,-4885.359217,-8503.660028,370.102971
5565.615143,-5255.462188,-8656.879127,148.041188
5565.615467,-4663.297435,-8503.660028,74.020594
5565.615791,-4071.132681,-8273.831378,370.102971
5565.616115,-2590.720797,-7660.954980,370.102971
5565.616440,-1332.370696,-8273.831378,296.082377
5565.616764,-1184.329507,-7660.954980,-444.123565
5565.617088,0.000000,-8810.098227,444.123565
5565.617412,-222.061783,-8580.269578,0.000000
5565.617736,-1110.308913,-9882.631924,148.041188
5565.618061,-2146.597232,-8886.707777,222.061783
5565.618385,-2960.823768,-9652.803275,370.102971
5565.618709,-4811.338623,-8273.831378,0.000000
5565.619033,-3552.988522,-9806.022374,-666.185348
5565.619358,-4737.318029,-8886.707777,-444.123565
5565.619682,-3849.070898,-8197.221829,-74.020594
5565.620006,-2812.782580,-7890.783629,-888.247130
5565.620330,-1332.370696,-7201.297681,-740.205942
5565.620654,444.123565,-7967.393179,0.000000
5565.620979,2072.576638,-7048.078582,-666.185348
5565.621303,2368.659014,-8580.269578,222.061783
5565.621627,2368.659014,-7737.564530,0.000000
5565.621951,2664.741391,-8963.317327,222.061783
5565.622276,1110.308913,-8810.098227,-370.102971
5565.622600,592.164754,-9499.584175,-518.144159
5565.622924,-1998.556043,-8810.098227,-1036.288319
5565.623248,-4071.132681,-9346.365076,-888.247130
5565.623572,-5181.441594,-8810.098227,-1924.535449
5565.623897,-4811.338623,-8503.660028,-1998.556043
5565.624221,-5477.523971,-7660.954980,-1480.411884
5565.624545,-3923.091493,-7124.688131,-1554.432478
5565.624869,-1776.494261,-7660.954980,-592.164754
5565.625194,1480.411884,-7890.783629,-518.144159
5565.625518,3923.091493,-8810.098227,148.041188
5565.625842,4071.132681,-7814.174080,-222.061783
5565.626166,4811.338623,-10265.679673,666.185348
5565.626490,3923.091493,-9729.412825,-962.267725
5565.626815,518.144159,-10725.336972,-370.102971
5565.627139,-2220.617826,-9116.536426,-962.267725
5565.627463,-5921.647536,-10035.851024,-1258.350101
5565.627787,-7624.121203,-9269.755526,-1628.453072
5565.628112,-6809.894666,-8886.707777,-1110.308913
5565.628436,-6069.688724,-7277.907231,-814.226536
5565.628760,-3330.926739,-6665.030833,-1036.288319
5565.629084,518.144159,-6971.469032,-888.247130
5565.629408,3923.091493,-6971.469032,-1184.329507
5565.629733,7846.182985,-8580.269578,-370.102971
5565.630057,7105.977043,-8810.098227,-1036.288319
5565.630381,5329.482782,-10265.679673,-1332.370696
5565.630705,1036.288319,-10648.727422,-962.267725
5565.631029,-3701.029710,-11184.994271,-1332.370696
5565.631354,-9844.739029,-10801.946522,-888.247130
5565.631678,-12287.418637,-10265.679673,0.000000
5565.632002,-12139.377449,-8273.831378,-518.144159
5565.632326,-9696.697840,-8197.221829,-592.164754
5565.632650,-4293.194464,-6435.202183,-222.061783
5565.632975,-222.061783,-4903.011187,-740.205942
5565.633299,5403.503377,-6128.763984,0.000000
5565.633623,7402.059420,-6971.469032,-222.061783
5565.633947,6513.812290,-9576.193725,1184.329507
5565.634271,6143.709319,-8503.660028,-962.267725
5565.634596,-1036.288319,-11261.603821,888.247130
5565.634920,-5403.503377,-10035.851024,0.000000
5565.635244,-7698.141797,-12717.185267,1110.308913
5565.635568,-10881.027347,-11261.603821,444.123565
5565.635892,-10436.903782,-10265.679673,-666.185348
5565.636217,-7550.100608,-8044.002729,0.000000
5565.636541,-3256.906145,-7354.516781,-592.164754
5565.636865,814.226536,-6128.763984,-1554.432478
5565.637189,4145.153275,-6128.763984,-888.247130
5565.637513,3404.947333,-6205.373534,-814.226536
5565.637838,1628.453072,-6741.640382,518.144159
5565.638162,-518.144159,-7354.516781,740.205942
5565.638486,-4293.194464,-10112.460574,1702.473667
5565.638810,-5699.585753,-10495.508323,444.123565
5565.639134,-6143.709319,-10801.946522,0.000000
5565.639459,-6069.688724,-10955.165621,888.247130
5565.639783,-2886.803174,-9346.365076,-370.102971
5565.640107,-2368.659014,-8886.707777,-1184.329507
5565.640431,296.082377,-7277.907231,-1110.308913
5565.640755,1554.432478,-6894.859482,0.000000
5565.641080,1924.535449,-6052.154434,-814.226536
5565.641404,2738.761985,-6818.249932,222.061783
5565.641728,1702.473667,-6205.373534,1110.308913
5565.642052,666.185348,-8503.660028,592.164754
5565.642376,444.123565,-9652.803275,444.123565
5565.642700,-2294.638420,-11414.822920,222.061783
5565.643025,-3182.885551,-11031.775171,-1850.514855
5565.643349,-3775.050304,-10342.289223,-2738.761985
5565.643673,-4071.132681,-10648.727422,-1480.411884
5565.643997,-5477.523971,-7737.564530,-2146.597232
5565.644321,-296.082377,-9346.365076,148.041188
5565.644646,518.144159,-6741.640382,-592.164754
5565.644970,1258.350101,-7507.735880,1258.350101
5565.645294,3701.029710,-6281.983084,-666.185348
5565.645618,3182.885551,-7967.393179,74.020594
5565.645942,2738.761985,-7354.516781,-148.041188
5565.646267,518.144159,-9806.022374,-1480.411884
5565.646591,-3627.009116,-10112.460574,-1776.494261
5565.646915,-5847.626942,-10035.851024,-1628.453072
5565.647239,-4737.318029,-11491.432470,-1776.494261
5565.647563,-3108.864956,-10725.336972,-2368.659014
5565.647888,-2738.761985,-9806.022374,-1406.391290
5565.648212,-2368.659014,-9422.974625,-1998.556043
5565.648536,-1554.432478,-7814.174080,-1258.350101
5565.648860,-444.123565,-8350.440928,222.061783
5565.649184,1998.556043,-6281.983084,814.226536
5565.649509,3182.885551,-6741.640382,814.226536
5565.649833,3775.050304,-7660.954980,370.102971
5565.650157,4367.215058,-8197.221829,-518.144159
5565.650481,1998.556043,-9652.803275,-962.267725
5565.650805,1258.350101,-9576.193725,-2072.576638
5565.651130,-962.267725,-10189.070123,-962.267725
5565.651454,-3552.988522,-9806.022374,-1332.370696
5565.651778,-2294.638420,-10495.508323,-222.061783
5565.652102,-888.247130,-9193.145976,-518.144159
5565.652426,-148.041188,-8503.660028,222.061783
5565.652751,2220.617826,-6665.030833,444.123565
5565.653075,2886.803174,-8350.440928,370.102971
5565.653399,2664.741391,-7124.688131,-296.082377
5565.653723,1110.308913,-6281.983084,-1036.288319
5565.654047,296.082377,-7737.564530,-740.205942
5565.654372,-888.247130,-8120.612279,-296.082377
5565.654696,-2072.576638,-9193.145976,-592.164754
5565.655020,-2072.576638,-10265.679673,444.123565
5565.655344,-1184.329507,-9116.536426,-370.102971
5565.655668,-444.123565,-10955.165621,444.123565
5565.655993,666.185348,-8350.440928,222.061783
5565.656317,1702.473667,-8350.440928,1036.288319
5565.656641,1850.514855,-7048.078582,814.226536
5565.656965,3478.967927,-6665.030833,1184.329507
5565.657289,2368.659014,-6741.640382,0.000000
5565.657614,3775.050304,-7507.735880,222.061783
5565.657938,3552.988522,-7354.516781,-370.102971
5565.658262,1332.370696,-8886.707777,-1110.308913
5565.658586,370.102971,-9499.584175,-518.144159
5565.658910,-1036.288319,-8503.660028,-814.226536
5565.659235,-2812.782580,-9652.803275,962.267725
5565.659559,-148.041188,-9806.022374,0.000000
5565.659883,296.082377,-9116.536426,666.185348
5565.660207,2368.659014,-9806.022374,814.226536
5565.660531,3478.967927,-8427.050478,-222.061783
5565.660855,4589.276840,-8120.612279,-814.226536
5565.661180,3627.009116,-6665.030833,-296.082377
5565.661504,3256.906145,-6894.859482,0.000000
5565.661828,1924.535449,-7967.393179,-1184.329507
5565.662152,518.144159,-8427.050478,-370.102971
5565.662476,666.185348,-8503.660028,-814.226536
5565.662801,-370.102971,-9806.022374,-444.123565
5565.663125,-2368.659014,-10342.289223,-1258.350101
5565.663449,-2368.659014,-10725.336972,0.000000
5565.663773,-4145.153275,-9882.631924,-222.061783
5565.664097,-2442.679609,-10418.898773,0.000000
5565.664422,-1628.453072,-8886.707777,-444.123565
5565.664746,-666.185348,-8963.317327,-296.082377
5565.665070,2220.617826,-8044.002729,-1036.288319
5565.665394,1998.556043,-8886.707777,-592.164754
5565.665718,0.000000,-7354.516781,-962.267725
5565.666043,1258.350101,-8503.660028,518.144159
5565.666367,0.000000,-6511.811733,-2590.720797
5565.666691,-1258.350101,-9806.022374,1406.391290
5565.667015,-962.267725,-8273.831378,-370.102971
5565.667339,-2516.700203,-10035.851024,1332.370696
5565.667664,-740.205942,-8273.831378,-814.226536
5565.667988,518.144159,-10035.851024,-592.164754
5565.668312,296.082377,-9039.926876,-814.226536
5565.668636,2220.617826,-8580.269578,-1184.329507
5565.668960,666.185348,-7354.516781,-296.082377
5565.669285,0.000000,-6971.469032,-1258.350101
5565.669609,444.123565,-9039.926876,-222.061783
5565.669933,518.144159,-8503.660028,-1184.329507
5565.670257,-370.102971,-8733.488677,222.061783
5565.670581,-666.185348,-9193.145976,-1406.391290
5565.670906,1406.391290,-9729.412825,0.000000
5565.671230,-1332.370696,-7660.954980,-962.267725
5565.671554,-592.164754,-10112.460574,1554.432478
5565.671878,-518.144159,-6588.421283,-296.082377
5565.672202,0.000000,-10418.898773,1110.308913
5565.672527,1258.350101,-7354.516781,-1110.308913
5565.672851,1258.350101,-9269.755526,-148.041188
5565.673175,740.205942,-7737.564530,-740.205942
5565.673499,-444.123565,-7814.174080,0.000000
5565.673823,-962.267725,-8350.440928,0.000000
5565.674148,-1258.350101,-8197.221829,-1332.370696
5565.674472,-1850.514855,-7507.735880,0.000000
5565.674796,-1110.308913,-7890.783629,1110.308913
5565.675120,-370.102971,-8503.660028,1850.514855
5565.675444,888.247130,-8886.707777,222.061783
5565.675769,3108.864956,-9422.974625,-740.205942
5565.676093,2220.617826,-9959.241474,0.000000
5565.676417,370.102971,-5822.325785,-814.226536
5565.676741,1406.391290,-7890.783629,0.000000
5565.677065,444.123565,-6511.811733,-296.082377
5565.677390,1850.514855,-8273.831378,1850.514855
5565.677714,5699.585753,-7967.393179,-1258.350101
5565.678038,1110.308913,-8197.221829,-296.082377
5565.678362,1924.535449,-7890.783629,-1332.370696
5565.678686,1554.432478,-10112.460574,-1332.370696
5565.679010,-740.205942,-9039.926876,-370.102971
5565.679335,-740.205942,-8197.221829,-148.041188
5565.679659,-518.144159,-8580.269578,148.041188
5565.679983,-1258.350101,-8886.707777,-518.144159
5565.680307,2664.741391,-9346.365076,-666.185348
5565.680631,3775.050304,-9422.974625,-592.164754
5565.680956,2516.700203,-9422.974625,-148.041188
5565.681280,1850.514855,-7431.126331,-888.247130
5565.681604,2294.638420,-8350.440928,-592.164754
5565.681928,814.226536,-7967.393179,-592.164754
5565.682252,518.144159,-9499.584175,0.000000
5565.682577,444.123565,-8810.098227,-518.144159
5565.682901,-296.082377,-8427.050478,-296.082377
5565.683225,1406.391290,-9576.193725,0.000000
5565.683549,592.164754,-9193.145976,-1480.411884
5565.683873,-1406.391290,-9193.145976,-1110.308913
5565.684198,-296.082377,-9806.022374,-666.185348
5565.684522,-1332.370696,-9116.536426,-740.205942
5565.684846,-296.082377,-7890.783629,-1110.308913
5565.685170,740.205942,-8886.707777,370.102971
5565.685494,666.185348,-8503.660028,222.061783
5565.685819,2664.741391,-9193.145976,-148.041188
5565.686143,2664.741391,-8733.488677,-814.226536
5565.686467,1406.391290,-8120.612279,-962.267725
5565.686791,0.000000,-8503.660028,592.164754
5565.687115,-888.247130,-9116.536426,0.000000
5565.687440,-1036.288319,-8810.098227,0.000000
5565.687764,-1480.411884,-9039.926876,-814.226536
5565.688088,-296.082377,-9882.631924,222.061783
5565.688412,-518.144159,-7354.516781,-888.247130
5565.688736,-592.164754,-9806.022374,370.102971
5565.689061,-444.123565,-7201.297681,0.000000
5565.689385,-888.247130,-7890.783629,222.061783
5565.689709,-296.082377,-7660.954980,1776.494261
5565.690033,-1184.329507,-6818.249932,0.000000
5565.690357,1184.329507,-9039.926876,370.102971
5565.690682,2294.638420,-8427.050478,444.123565
5565.691006,1702.473667,-9499.584175,592.164754
5565.691330,1480.411884,-9269.755526,-444.123565
5565.691654,-1924.535449,-8273.831378,-444.123565
5565.691978,-814.226536,-8503.660028,518.144159
5565.692303,-1036.288319,-7507.735880,0.000000
5565.692627,-740.205942,-9269.755526,666.185348
5565.692951,444.123565,-7201.297681,0.000000
5565.693275,-444.123565,-8427.050478,740.205942
5565.693599,222.061783,-7814.174080,-740.205942
5565.693924,666.185348,-8733.488677,-1110.308913
5565.694248,0.000000,-8197.221829,518.144159
5565.694572,444.123565,-7124.688131,0.000000
5565.694896,1480.411884,-8733.488677,740.205942
5565.695220,2960.823768,-7967.393179,-296.082377
5565.695545,1332.370696,-9039.926876,592.164754
5565.695869,814.226536,-8580.269578,-296.082377
5565.696193,1480.411884,-9116.536426,0.000000
5565.696517,518.144159,-7814.174080,-740.205942
5565.696841,1628.453072,-8427.050478,222.061783
5565.697165,-666.185348,-6971.469032,-1036.288319
5565.697490,1258.350101,-8273.831378,74.020594
5565.697814,1480.411884,-7124.688131,-814.226536
5565.698138,2516.700203,-8273.831378,666.185348
5565.698462,1850.514855,-7814.174080,-518.144159
5565.698786,1332.370696,-9269.755526,-1480.411884
5565.699111,666.185348,-7814.174080,-814.226536
5565.699435,-222.061783,-8810.098227,-962.267725
5565.699759,-518.144159,-9806.022374,-444.123565
5565.700083,222.061783,-8503.660028,-296.082377
5565.700407,370.102971,-9499.584175,518.144159
5565.700732,814.226536,-8886.707777,-740.205942
5565.701056,2072.576638,-8810.098227,-1036.288319
5565.701380,2886.803174,-8656.879127,-1554.432478
5565.701704,1036.288319,-8273.831378,-2072.576638
5565.702028,-2960.823768,-7277.907231,-2368.659014
5565.702353,-592.164754,-8810.098227,444.123565
5565.702677,370.102971,-8427.050478,-814.226536
5565.703001,518.144159,-9729.412825,-1036.288319
5565.703325,2442.679609,-10342.289223,-666.185348
5565.703649,-518.144159,-8886.707777,-2146.597232
5565.703974,-592.164754,-9882.631924,-740.205942
5565.704298,-666.185348,-6971.469032,-740.205942
5565.704622,-1554.432478,-9346.365076,0.000000
5565.704946,-296.082377,-7354.516781,444.123565
5565.705270,1406.391290,-8963.317327,-666.185348
5565.705595,2294.638420,-9269.755526,-1332.370696
5565.705919,2590.720797,-8580.269578,0.000000
5565.706243,2442.679609,-8810.098227,-740.205942
5565.706567,1480.411884,-8120.612279,-962.267725
5565.706891,888.247130,-8656.879127,-370.102971
5565.707216,-296.082377,-8350.440928,370.102971
5565.707540,-1628.453072,-8503.660028,222.061783
5565.707864,-962.267725,-8733.488677,0.000000
5565.708188,-962.267725,-9882.631924,0.000000
5565.708512,-148.041188,-9422.974625,-1110.308913
5565.708837,-2294.638420,-9959.241474,-888.247130
5565.709161,-3552.988522,-7277.907231,-444.123565
5565.709485,-1850.514855,-8886.707777,740.205942
5565.709809,-2368.659014,-7507.735880,0.000000
5565.710133,148.041188,-7737.564530,1184.329507
5565.710458,962.267725,-8120.612279,296.082377
5565.710782,3404.947333,-8886.707777,518.144159
5565.711106,2368.659014,-8197.221829,0.000000
5565.711430,1480.411884,-8503.660028,148.041188
5565.711754,148.041188,-8044.002729,1480.411884
5565.712079,-148.041188,-7584.345430,740.205942
5565.712403,-1184.329507,-9039.926876,814.226536
5565.712727,-592.164754,-7890.783629,74.020594
5565.713051,518.144159,-9499.584175,592.164754
5565.713375,-666.185348,-7507.735880,222.061783
5565.713699,814.226536,-8810.098227,518.144159
5565.714024,518.144159,-7277.907231,0.000000
5565.714348,74.020594,-7737.564530,74.020594
5565.714672,666.185348,-7201.297681,-518.144159
5565.714996,-370.102971,-7737.564530,740.205942
5565.715320,592.164754,-8273.831378,0.000000
5565.715645,962.267725,-8503.660028,-592.164754
5565.715969,592.164754,-9346.365076,370.102971
5565.716293,3108.864956,-8273.831378,-296.082377
5565.716617,-1036.288319,-7431.126331,-888.247130
5565.716941,2442.679609,-8886.707777,222.061783
5565.717266,1036.288319,-7354.516781,-444.123565
5565.717590,1332.370696,-9652.803275,222.061783
5565.717914,1924.535449,-6741.640382,-962.267725
5565.718238,2368.659014,-9193.145976,370.102971
5565.718562,2738.761985,-8197.221829,0.000000
5565.718887,74.020594,-9039.926876,-1628.453072
5565.719211,370.102971,-9652.803275,-74.020594
5565.719535,-1110.308913,-7201.297681,-1850.514855
5565.719859,-1776.494261,-8963.317327,0.000000
5565.720183,-296.082377,-7890.783629,-1110.308913
5565.720508,888.247130,-10801.946522,518.144159
5565.720832,2664.741391,-8580.269578,-1184.329507
5565.721156,2738.761985,-10495.508323,-1480.411884
5565.721480,1776.494261,-9269.755526,-1332.370696
5565.721804,518.144159,-7584.345430,-1480.411884
5565.722129,1924.535449,-8350.440928,74.020594
5565.722453,1184.329507,-9116.536426,-1776.494261
5565.722777,0.000000,-7737.564530,-666.185348
5565.723101,1702.473667,-9346.365076,-666.185348
5565.723425,2146.597232,-8197.221829,-222.061783
5565.723750,1480.411884,-9422.974625,-444.123565
5565.724074,518.144159,-6741.640382,-1332.370696
5565.724398,-148.041188,-10265.679673,-296.082377
5565.724722,-518.144159,-8197.221829,-1702.473667
5565.725046,0.000000,-9882.631924,518.144159
5565.725371,222.061783,-7814.174080,-962.267725
5565.725695,0.000000,-8273.831378,0.000000
5565.726019,444.123565,-9499.584175,0.000000
5565.726343,3701.029710,-9193.145976,-1184.329507
5565.726667,2294.638420,-8350.440928,-814.226536
5565.726992,-2146.597232,-8350.440928,-1184.329507
5565.727316,-962.267725,-8350.440928,-518.144159
5565.727640,-666.185348,-8350.440928,222.061783
5565.727964,-370.102971,-9193.145976,222.061783
5565.728288,518.144159,-8120.612279,-444.123565
5565.728613,0.000000,-9652.803275,74.020594
5565.728937,0.000000,-7967.393179,-370.102971
5565.729261,0.000000,-8273.831378,592.164754
5565.729585,-592.164754,-7584.345430,-740.205942
5565.729910,-2664.741391,-8503.660028,592.164754
5565.730234,444.123565,-7660.954980,0.000000
5565.730558,370.102971,-9039.926876,444.123565
5565.730882,1036.288319,-8120.612279,740.205942
5565.731207,2220.617826,-8580.269578,74.020594
5565.731531,444.123565,-8273.831378,-592.164754
5565.731855,1110.308913,-8427.050478,-666.185348
5565.732180,-222.061783,-7967.393179,444.123565
5565.732504,-2220.617826,-7967.393179,740.205942
5565.732828,-1184.329507,-8197.221829,592.164754
5565.733153,-666.185348,-8963.317327,0.000000
5565.733477,1184.329507,-8427.050478,740.205942
5565.733801,0.000000,-8733.488677,-592.164754
5565.734126,888.247130,-8886.707777,-740.205942
5565.734450,-148.041188,-6818.249932,0.000000
5565.734774,-2664.741391,-7431.126331,-222.061783
5565.735098,148.041188,-8350.440928,666.185348
5565.735423,-370.102971,-7967.393179,222.061783
5565.735747,1776.494261,-9576.193725,-518.144159
5565.736071,3256.906145,-8656.879127,1258.350101
5565.736396,1036.288319,-9193.145976,-814.226536
5565.736720,1776.494261,-9269.755526,-1258.350101
5565.737044,1036.288319,-9193.145976,-296.082377
5565.737369,148.041188,-8810.098227,-592.164754
5565.737693,592.164754,-8886.707777,814.226536
5565.738017,814.226536,-8273.831378,-1776.494261
5565.738342,740.205942,-9806.022374,0.000000
5565.738666,1702.473667,-7890.783629,-1702.473667
5565.738990,1258.350101,-9269.755526,-1480.411884
5565.739314,444.123565,-7814.174080,-296.082377
5565.739639,666.185348,-8656.879127,-370.102971
5565.739963,-370.102971,-8810.098227,-666.185348
5565.740287,370.102971,-9039.926876,-444.123565
5565.740612,2960.823768,-9652.803275,444.123565
5565.740936,1628.453072,-8427.050478,-1406.391290
5565.741260,2886.803174,-9499.584175,0.000000
5565.741585,1406.391290,-8733.488677,-962.267725
5565.741909,148.041188,-8810.098227,-592.164754
5565.742233,666.185348,-8427.050478,-888.247130
5565.742558,-814.226536,-8427.050478,-518.144159
5565.742882,-296.082377,-8044.002729,-740.205942
5565.743206,1480.411884,-9116.536426,0.000000
5565.743530,2368.659014,-8503.660028,0.000000
5565.743855,740.205942,-8733.488677,-1110.308913
5565.744179,814.226536,-9882.631924,-888.247130
5565.744503,-2294.638420,-7967.393179,-740.205942
5565.744828,-2072.576638,-9729.412825,0.000000
5565.745152,-222.061783,-8197.221829,814.226536
5565.745476,-962.267725,-9039.926876,1110.308913
5565.745801,1850.514855,-8350.440928,-296.082377
5565.746125,2960.823768,-9269.755526,222.061783
5565.746449,962.267725,-8503.660028,-1332.370696
5565.746773,1776.494261,-7814.174080,-222.061783
5565.747098,-1110.308913,-7814.174080,-666.185348
5565.747422,-148.041188,-9193.145976,444.123565
5565.747746,0.000000,-7660.954980,222.061783
5565.748071,-296.082377,-9346.365076,-148.041188
5565.748395,-296.082377,-8503.660028,-370.102971
5565.748719,444.123565,-8963.317327,0.000000
5565.749044,370.102971,-9422.974625,-740.205942
5565.749368,-888.247130,-7967.393179,0.000000
5565.749692,-592.164754,-7584.345430,962.267725
5565.750017,-2368.659014,-7737.564530,0.000000
5565.750341,148.041188,-9576.193725,222.061783
5565.750665,296.082377,-8503.660028,-444.123565
5565.750989,888.247130,-9193.145976,962.267725
5565.751314,814.226536,-7431.126331,74.020594
5565.751638,814.226536,-9116.536426,444.123565
5565.751962,-222.061783,-8197.221829,0.000000
5565.752287,-222.061783,-8963.317327,666.185348
5565.752611,-518.144159,-7814.174080,0.000000
5565.752935,-1036.288319,-8273.831378,296.082377
5565.753260,148.041188,-8810.098227,592.164754
5565.753584,1110.308913,-8503.660028,-370.102971
5565.753908,222.061783,-8503.660028,0.000000
5565.754233,370.102971,-7507.735880,-1554.432478
5565.754557,370.102971,-8120.612279,296.082377
5565.754881,-1036.288319,-7431.126331,-1036.288319
5565.755205,1184.329507,-9652.803275,74.020594
5565.755530,592.164754,-7507.735880,0.000000
5565.755854,-296.082377,-9806.022374,518.144159
5565.756178,2146.597232,-9499.584175,-962.267725
5565.756503,962.267725,-10418.898773,-888.247130
5565.756827,222.061783,-9193.145976,-1480.411884
5565.757151,-962.267725,-8044.002729,-1110.308913
5565.757476,-296.082377,-9193.145976,1332.370696
5565.757800,1184.329507,-6894.859482,-1258.350101
5565.758124,2664.741391,-9116.536426,740.205942
5565.758449,3849.070898,-7048.078582,-1776.494261
5565.758773,2294.638420,-9422.974625,-1110.308913
5565.759097,2886.803174,-9422.974625,-1776.494261
5565.759421,2146.597232,-8197.221829,-592.164754
5565.759746,0.000000,-8580.269578,0.000000
5565.760070,-888.247130,-8350.440928,-666.185348
5565.760394,-3404.947333,-10112.460574,-148.041188
5565.760719,888.247130,-9806.022374,-1850.514855
5565.761043,-1110.308913,-9806.022374,444.123565
5565.761367,1554.432478,-9346.365076,-1184.329507
5565.761692,2294.638420,-8810.098227,-518.144159
5565.762016,1480.411884,-8427.050478,-1554.432478
5565.762340,1554.432478,-8273.831378,-370.102971
5565.762665,0.000000,-7431.126331,-666.185348
5565.762989,888.247130,-8656.879127,-518.144159
5565.763313,2220.617826,-7584.345430,-370.102971
5565.763637,1850.514855,-8656.879127,74.020594
5565.763962,-1258.350101,-8886.707777,-1702.473667
5565.764286,-518.144159,-9882.631924,-1554.432478
5565.764610,-2590.720797,-9193.145976,-370.102971
5565.764935,-2590.720797,-8503.660028,-666.185348
5565.765259,0.000000,-8273.831378,-1406.391290
5565.765583,-1702.473667,-10495.508323,-222.061783
5565.765908,-962.267725,-6665.030833,1036.288319
5565.766232,3997.112087,-8656.879127,148.041188
5565.766556,1258.350101,-9116.536426,-666.185348
5565.766881,2368.659014,-7967.393179,-1258.350101
5565.767205,1850.514855,-8197.221829,518.144159
5565.767529,0.000000,-8810.098227,-518.144159
5565.767853,-888.247130,-8580.269578,370.102971
5565.768178,-370.102971,-7737.564530,962.267725
5565.768502,-1554.432478,-8656.879127,-814.226536
5565.768826,0.000000,-9269.755526,592.164754
5565.769151,-1850.514855,-8350.440928,-1776.494261
5565.769475,-962.267725,-9959.241474,1184.329507
5565.769799,-962.267725,-6818.249932,444.123565
5565.770124,-370.102971,-7048.078582,222.061783
5565.770448,-444.123565,-8503.660028,1332.370696
5565.770772,592.164754,-7967.393179,-592.164754
5565.771097,2220.617826,-9959.241474,222.061783
5565.771421,888.247130,-7737.564530,148.041188
5565.771745,2220.617826,-8120.612279,-740.205942
5565.772069,1110.308913,-8963.317327,0.000000
5565.772394,-518.144159,-8120.612279,444.123565
5565.772718,-370.102971,-9039.926876,962.267725
5565.773042,-1184.329507,-8197.221829,0.000000
5565.773367,0.000000,-8350.440928,296.082377
5565.773691,1776.494261,-7890.783629,-444.123565
5565.774015,1110.308913,-8273.831378,-444.123565
5565.774340,74.020594,-7584.345430,-222.061783
5565.774664,0.000000,-9346.365076,74.020594
5565.774988,0.000000,-8503.660028,-518.144159
5565.775313,-592.164754,-8120.612279,-1258.350101
5565.775637,-370.102971,-8580.269578,-222.061783
5565.775961,1110.308913,-9039.926876,-814.226536
5565.776285,1258.350101,-9116.536426,-370.102971
5565.776610,1110.308913,-9652.803275,-962.267725
5565.776934,1850.514855,-8427.050478,-814.226536
5565.777258,-444.123565,-8810.098227,-962.267725
5565.777583,296.082377,-8273.831378,-370.102971
5565.777907,1036.288319,-9346.365076,-444.123565
5565.778231,1702.473667,-7890.783629,-962.267725
5565.778556,1554.432478,-8350.440928,-888.247130
5565.778880,2812.782580,-8350.440928,-962.267725
5565.779204,1110.308913,-10112.460574,-1406.391290
5565.779528,518.144159,-8427.050478,-1036.288319
5565.779853,-1036.288319,-8886.707777,-888.247130
5565.780177,-1332.370696,-8733.488677,-518.144159
5565.780501,-2294.638420,-8886.707777,-814.226536
5565.780826,-592.164754,-9499.584175,-740.205942
5565.781150,1480.411884,-8810.098227,-592.164754
5565.781474,1184.329507,-8810.098227,-666.185348
5565.781799,3256.906145,-8350.440928,-1258.350101
5565.782123,2516.700203,-8427.050478,-518.144159
5565.782447,814.226536,-8503.660028,-814.226536
5565.782772,1554.432478,-8427.050478,0.000000
5565.783096,-444.123565,-7660.954980,-962.267725
5565.783420,1184.329507,-9652.803275,0.000000
5565.783744,1776.494261,-7890.783629,-444.123565
5565.784069,296.082377,-9346.365076,-222.061783
5565.784393,740.205942,-8886.707777,-592.164754
5565.784717,-2146.597232,-7890.783629,-962.267725
5565.785042,-1850.514855,-9499.584175,370.102971
5565.785366,-1850.514855,-7354.516781,-740.205942
5565.785690,-518.144159,-9116.536426,1036.288319
5565.786015,1258.350101,-7584.345430,-1036.288319
5565.786339,2368.659014,-8580.269578,592.164754
5565.786663,2368.659014,-8044.002729,-888.247130
5565.786988,1110.308913,-8886.707777,-444.123565
5565.787312,888.247130,-7737.564530,-370.102971
5565.787636,0.000000,-8656.879127,888.247130
5565.787960,-1998.556043,-7890.783629,666.185348
5565.788285,-2368.659014,-7737.564530,370.102971
5565.788609,0.000000,-9422.974625,-518.144159
5565.788933,888.247130,-8810.098227,370.102971
5565.789258,-518.144159,-9193.145976,-888.247130
5565.789582,-148.041188,-8350.440928,0.000000
5565.789906,-2146.597232,-7737.564530,0.000000
5565.790231,0.000000,-7354.516781,-666.185348
5565.790555,1554.432478,-8427.050478,0.000000
5565.790879,1036.288319,-8273.831378,296.082377
5565.791204,1924.535449,-8733.488677,0.000000
5565.791528,2442.679609,-9193.145976,444.123565
5565.791852,1406.391290,-9193.145976,-518.144159
5565.792176,740.205942,-8350.440928,0.000000
5565.792501,-444.123565,-8350.440928,222.061783
5565.792825,592.164754,-8886.707777,0.000000
5565.793149,0.000000,-8197.221829,518.144159
5565.793474,1776.494261,-7967.393179,-666.185348
5565.793798,814.226536,-8733.488677,0.000000
5565.794122,1924.535449,-9269.755526,-888.247130
5565.794447,-222.061783,-8273.831378,-1702.473667
5565.794771,0.000000,-9193.145976,444.123565
5565.795095,-1258.350101,-7354.516781,-518.144159
5565.795420,-1776.494261,-8886.707777,148.041188
5565.795744,222.061783,-9193.145976,74.020594
5565.796068,-1036.288319,-9193.145976,296.082377
5565.796392,740.205942,-9269.755526,296.082377
5565.796717,2294.638420,-8503.660028,-962.267725
5565.797041,1628.453072,-9269.755526,-1184.329507
5565.797365,296.082377,-7890.783629,-888.247130
5565.797690,888.247130,-9039.926876,222.061783
5565.798014,518.144159,-8886.707777,-666.185348
5565.798338,962.267725,-8580.269578,296.082377
5565.798663,740.205942,-9116.536426,-296.082377
5565.798987,-592.164754,-9269.755526,-1184.329507
5565.799311,-1332.370696,-9346.365076,-518.144159
5565.799636,666.185348,-9193.145976,-1110.308913
5565.799960,-296.082377,-8810.098227,-1036.288319
5565.800284,-962.267725,-8350.440928,-296.082377
5565.800608,-148.041188,-8733.488677,-222.061783
5565.800933,1850.514855,-8503.660028,-740.205942
5565.801257,3256.906145,-9576.193725,-888.247130
5565.801581,2368.659014,-8350.440928,-666.185348
5565.801906,2664.741391,-8273.831378,148.041188
5565.802230,1628.453072,-8427.050478,-1110.308913
5565.802554,2368.659014,-8656.879127,-148.041188
5565.802879,-222.061783,-7890.783629,-296.082377
5565.803203,-1184.329507,-9116.536426,-962.267725
5565.803527,444.123565,-8427.050478,-370.102971
5565.803852,-222.061783,-8503.660028,-1110.308913
5565.804176,1036.288319,-9346.365076,222.061783
5565.804500,-1036.288319,-7048.078582,-1554.432478
5565.804824,74.020594,-10112.460574,-370.102971
5565.805149,-814.226536,-7048.078582,-592.164754
5565.805473,-666.185348,-8427.050478,148.041188
5565.805797,148.041188,-8427.050478,-592.164754
5565.806122,666.185348,-8503.660028,74.020594
5565.806446,444.123565,-8120.612279,148.041188
5565.806770,1776.494261,-9422.974625,0.000000
5565.807095,0.000000,-7890.783629,-1628.453072
5565.807419,814.226536,-8733.488677,-814.226536
5565.807743,0.000000,-8427.050478,962.267725
5565.808067,-1184.329507,-7660.954980,-296.082377
5565.808392,370.102971,-8733.488677,0.000000
5565.808716,1554.432478,-8273.831378,888.247130
5565.809040,4441.235652,-9116.536426,-1036.288319
5565.809365,2368.659014,-9269.755526,-518.144159
5565.809689,1036.288319,-7660.954980,0.000000
5565.810013,-2664.741391,-7660.954980,-592.164754
5565.810338,-2812.782580,-8810.098227,296.082377
5565.810662,-592.164754,-8733.488677,0.000000
5565.810986,-1036.288319,-8656.879127,296.082377
5565.811311,0.000000,-8273.831378,-814.226536
5565.811635,1036.288319,-9269.755526,-444.123565
5565.811959,1480.411884,-8656.879127,-666.185348
5565.812283,2368.659014,-8044.002729,0.000000
5565.812608,0.000000,-8733.488677,592.164754
5565.812932,0.000000,-7201.297681,-592.164754
5565.813256,296.082377,-8963.317327,-962.267725
5565.813581,-740.205942,-10495.508323,-1110.308913
5565.813905,-888.247130,-8963.317327,0.000000
5565.814229,444.123565,-8810.098227,-592.164754
5565.814554,-2590.720797,-9346.365076,-962.267725
5565.814878,-1036.288319,-7737.564530,-1258.350101
5565.815202,-740.205942,-8733.488677,74.020594
5565.815527,-3256.906145,-8886.707777,-222.061783
5565.815851,0.000000,-8963.317327,962.267725
5565.816175,1332.370696,-8427.050478,0.000000
5565.816499,1258.350101,-9193.145976,-1406.391290
5565.816824,4811.338623,-9346.365076,74.020594
5565.817148,1702.473667,-7431.126331,-1406.391290
5565.817472,1628.453072,-9806.022374,-1258.350101
5565.817797,1110.308913,-8656.879127,148.041188
5565.818121,-1924.535449,-8580.269578,-222.061783
5565.818445,-1332.370696,-8427.050478,-666.185348
5565.818770,-592.164754,-8733.488677,-222.061783
5565.819094,444.123565,-9806.022374,-1110.308913
5565.819418,814.226536,-8427.050478,-962.267725
5565.819743,-1036.288319,-8886.707777,-2220.617826
5565.820067,-444.123565,-7584.345430,-1184.329507
5565.820391,962.267725,-8503.660028,1036.288319
5565.820715,962.267725,-8197.221829,-1184.329507
5565.821040,1184.329507,-8656.879127,0.000000
5565.821364,2220.617826,-8810.098227,-296.082377
5565.821688,3182.885551,-9729.412825,-1184.329507
5565.822013,2886.803174,-9116.536426,-888.247130
5565.822337,0.000000,-8656.879127,0.000000
5565.822661,-1406.391290,-8580.269578,-1554.432478
5565.822986,296.082377,-9652.803275,2072.576638
5565.823310,-296.082377,-7967.393179,-1554.432478
5565.823634,0.000000,-9039.926876,592.164754
5565.823959,296.082377,-7507.735880,-1628.453072
5565.824283,1258.350101,-9576.193725,-370.102971
5565.824607,1184.329507,-9039.926876,-296.082377
5565.824931,1332.370696,-7890.783629,-962.267725
5565.825256,-1036.288319,-9269.755526,444.123565
5565.825580,0.000000,-8044.002729,-296.082377
5565.825904,814.226536,-8656.879127,444.123565
5565.826229,962.267725,-8427.050478,-518.144159
5565.826553,1110.308913,-9346.365076,444.123565
5565.826877,0.000000,-8197.221829,-444.123565
5565.827202,74.020594,-8273.831378,-296.082377
5565.827526,0.000000,-7354.516781,-592.164754
5565.827850,-1258.350101,-8350.440928,444.123565
5565.828175,666.185348,-8197.221829,148.041188
5565.828499,0.000000,-7814.174080,-1036.288319
5565.828823,2368.659014,-9039.926876,222.061783
5565.829147,296.082377,-7431.126331,-1110.308913
5565.829472,1998.556043,-9422.974625,-148.041188
5565.829796,444.123565,-8503.660028,148.041188
5565.830120,-740.205942,-9039.926876,-370.102971
5565.830445,-2664.741391,-8810.098227,0.000000
5565.830769,-1924.535449,-9193.145976,222.061783
5565.831093,-2146.597232,-9193.145976,-1184.329507
5565.831418,518.144159,-8810.098227,0.000000
5565.831742,1110.308913,-9116.536426,296.082377
5565.832066,518.144159,-8427.050478,-888.247130
5565.832391,1184.329507,-7814.174080,518.144159
5565.832715,296.082377,-8197.221829,-962.267725
5565.833039,-296.082377,-9193.145976,666.185348
5565.833363,1406.391290,-7660.954980,-1110.308913
5565.833688,370.102971,-8810.098227,370.102971
5565.834012,-148.041188,-7890.783629,148.041188
5565.834336,1776.494261,-9576.193725,-370.102971
5565.834660,-888.247130,-9116.536426,-1258.350101
5565.834984,-740.205942,-8656.879127,0.000000
5565.835309,-1332.370696,-8656.879127,-1924.535449
5565.835633,-1628.453072,-8656.879127,-222.061783
5565.835957,-148.041188,-9499.584175,-296.082377
5565.836281,740.205942,-7660.954980,-740.205942
5565.836606,740.205942,-9269.755526,0.000000
5565.836930,2072.576638,-8120.612279,-2368.659014
5565.837254,1480.411884,-9039.926876,-222.061783
5565.837578,1554.432478,-7431.126331,-888.247130
5565.837903,1036.288319,-8580.269578,-518.144159
5565.838227,-888.247130,-7507.735880,-296.082377
5565.838551,962.267725,-9576.193725,962.267725
5565.838875,1332.370696,-7660.954980,-1554.432478
5565.839199,1110.308913,-8963.317327,0.000000
5565.839524,2516.700203,-8810.098227,-888.247130
5565.839848,1110.308913,-8810.098227,-1406.391290
5565.840172,148.041188,-8350.440928,-740.205942
5565.840496,-1258.350101,-7967.393179,-296.082377
5565.840821,-1258.350101,-8886.707777,222.061783
5565.841145,518.144159,-8733.488677,-370.102971
5565.841469,962.267725,-9806.022374,0.000000
5565.841793,2886.803174,-8503.660028,-814.226536
5565.842117,1850.514855,-8656.879127,-222.061783
5565.842442,1258.350101,-9116.536426,-888.247130
5565.842766,1184.329507,-8044.002729,0.000000
5565.843090,2516.700203,-9116.536426,444.123565
5565.843414,1628.453072,-8503.660028,0.000000
5565.843739,148.041188,-7201.297681,222.061783
5565.844063,1258.350101,-9576.193725,0.000000
5565.844387,1628.453072,-8580.269578,-1184.329507
5565.844711,1702.473667,-9959.241474,-962.267725
5565.845035,-222.061783,-8656.879127,-592.164754
5565.845360,-2886.803174,-8350.440928,-222.061783
5565.845684,-2590.720797,-9039.926876,0.000000
5565.846008,-1332.370696,-8963.317327,0.000000
5565.846332,-222.061783,-7890.783629,0.000000
5565.846657,518.144159,-10648.727422,74.020594
5565.846981,3182.885551,-8580.269578,-1258.350101
5565.847305,1258.350101,-9729.412825,0.000000
5565.847629,2146.597232,-8427.050478,-814.226536
5565.847954,74.020594,-8656.879127,296.082377
5565.848278,518.144159,-7967.393179,370.102971
5565.848602,0.000000,-8044.002729,1406.391290
5565.848926,1036.288319,-7354.516781,74.020594
5565.849250,1258.350101,-9269.755526,0.000000
5565.849575,1480.411884,-8427.050478,-222.061783
5565.849899,-296.082377,-9422.974625,-296.082377
5565.850223,-814.226536,-8197.221829,-888.247130
5565.850547,-1924.535449,-8350.440928,296.082377
5565.850872,-1258.350101,-9116.536426,1036.288319
5565.851196,-1184.329507,-7967.393179,592.164754
5565.851520,74.020594,-9039.926876,-370.102971
5565.851844,74.020594,-8273.831378,0.000000
5565.852168,1332.370696,-8656.879127,444.123565
5565.852493,1776.494261,-8120.612279,-1110.308913
5565.852817,666.185348,-8427.050478,148.041188
5565.853141,962.267725,-8044.002729,0.000000
5565.853465,-740.205942,-7354.516781,0.000000
5565.853790,-444.123565,-8503.660028,0.000000
5565.854114,74.020594,-8886.707777,518.144159
5565.854438,2442.679609,-8427.050478,-1110.308913
5565.854762,-222.061783,-9806.022374,-1406.391290
5565.855087,-592.164754,-8350.440928,-296.082377
5565.855411,-444.123565,-8656.879127,0.000000
5565.855735,-1628.453072,-8580.269578,222.061783
5565.856059,518.144159,-8963.317327,-1036.288319
5565.856383,2516.700203,-8656.879127,148.041188
5565.856708,74.020594,-8350.440928,-1776.494261
5565.857032,2738.761985,-9806.022374,-370.102971
5565.857356,1628.453072,-8427.050478,-1406.391290
5565.857680,2664.741391,-9806.022374,-814.226536
5565.858005,740.205942,-7354.516781,-518.144159
5565.858329,0.000000,-8503.660028,0.000000
5565.858653,-1554.432478,-8350.440928,-370.102971
5565.858977,814.226536,-8503.660028,74.020594
5565.859301,296.082377,-10112.460574,-888.247130
5565.859626,444.123565,-8580.269578,-1998.556043
5565.859950,222.061783,-8963.317327,-740.205942
5565.860274,-444.123565,-8350.440928,-1776.494261
5565.860598,74.020594,-9039.926876,0.000000
5565.860923,222.061783,-7967.393179,-740.205942
5565.861247,666.185348,-9729.412825,370.102971
5565.861571,1480.411884,-7814.174080,-1406.391290
5565.861895,2220.617826,-9039.926876,-518.144159
5565.862219,1332.370696,-8810.098227,-1036.288319
5565.862544,1406.391290,-8427.050478,0.000000
5565.862868,1110.308913,-8963.317327,-1702.473667
5565.863192,222.061783,-9576.193725,222.061783
5565.863516,-962.267725,-8810.098227,-1110.308913
5565.863841,-296.082377,-9116.536426,-296.082377
5565.864165,-740.205942,-7660.954980,-1554.432478
5565.864489,814.226536,-9806.022374,518.144159
5565.864813,1998.556043,-8810.098227,-2294.638420
5565.865138,1702.473667,-9346.365076,-148.041188
5565.865462,-148.041188,-7507.735880,-1924.535449
5565.865786,-444.123565,-9116.536426,592.164754
5565.866110,-370.102971,-8656.879127,0.000000
5565.866434,0.000000,-9193.145976,74.020594
5565.866759,888.247130,-9039.926876,814.226536
5565.867083,-222.061783,-8120.612279,-370.102971
5565.867407,666.185348,-8963.317327,0.000000
5565.867731,1406.391290,-7584.345430,-666.185348
5565.868056,814.226536,-8963.317327,592.164754
5565.868380,740.205942,-7814.174080,0.000000
5565.868704,2368.659014,-7967.393179,1406.391290
5565.869028,1480.411884,-7737.564530,-296.082377
5565.869352,2072.576638,-8197.221829,-666.185348
5565.869677,1702.473667,-8273.831378,0.000000
5565.870001,0.000000,-9652.803275,-740.205942
5565.870325,-592.164754,-8656.879127,0.000000
5565.870649,-2072.576638,-8963.317327,740.205942
5565.870974,-2294.638420,-7890.783629,518.144159
5565.871298,-1036.288319,-8273.831378,1332.370696
5565.871622,296.082377,-8427.050478,0.000000
5565.871946,740.205942,-8197.221829,370.102971
5565.872271,2442.679609,-7660.954980,296.082377
5565.872595,2516.700203,-8427.050478,-1036.288319
5565.872919,1924.535449,-7737.564530,0.000000
5565.873243,1110.308913,-8273.831378,1332.370696
5565.873567,-222.061783,-6894.859482,222.061783
5565.873892,518.144159,-8503.660028,666.185348
5565.874216,370.102971,-7967.393179,-370.102971
5565.874540,1036.288319,-9652.803275,222.061783
5565.874864,592.164754,-8810.098227,-1184.329507
5565.875189,-1554.432478,-9269.755526,74.020594
5565.875513,-962.267725,-7890.783629,0.000000
5565.875837,-1406.391290,-9039.926876,-370.102971
5565.876161,-74.020594,-8427.050478,-592.164754
5565.876485,-814.226536,-8427.050478,222.061783
5565.876810,1480.411884,-9193.145976,-1480.411884
5565.877134,1850.514855,-8963.317327,370.102971
5565.877458,2294.638420,-8810.098227,-1406.391290
5565.877782,888.247130,-9652.803275,-740.205942
5565.878107,-814.226536,-7737.564530,-1258.350101
5565.878431,0.000000,-9806.022374,1036.288319
5565.878755,222.061783,-7814.174080,-962.267725
5565.879079,1110.308913,-8810.098227,74.020594
5565.879403,1258.350101,-8810.098227,-1776.494261
5565.879728,814.226536,-9499.584175,-888.247130
5565.880052,0.000000,-8503.660028,-2146.597232
5565.880376,-518.144159,-9729.412825,-1110.308913
5565.880700,-370.102971,-8197.221829,-518.144159
5565.881025,-296.082377,-9039.926876,-814.226536
5565.881349,74.020594,-9039.926876,222.061783
5565.881673,222.061783,-8197.221829,-1184.329507
5565.881997,888.247130,-9576.193725,-666.185348
5565.882322,1850.514855,-8733.488677,-1110.308913
5565.882646,2368.659014,-8427.050478,-1332.370696
5565.882970,1554.432478,-8427.050478,-370.102971
5565.883294,1036.288319,-9806.022374,-814.226536
5565.883618,2294.638420,-8273.831378,-444.123565
5565.883943,-296.082377,-9116.536426,962.267725
5565.884267,1110.308913,-8197.221829,-1776.494261
5565.884591,740.205942,-8733.488677,296.082377
5565.884915,962.267725,-7431.126331,-1332.370696
5565.885240,962.267725,-9346.365076,-740.205942
5565.885564,-1924.535449,-7124.688131,-1110.308913
5565.885888,-2220.617826,-9422.974625,222.061783
5565.886212,-2442.679609,-8427.050478,0.000000
5565.886536,-1480.411884,-9269.755526,-444.123565
5565.886861,444.123565,-9269.755526,-296.082377
5565.887185,1554.432478,-8503.660028,-222.061783
5565.887509,2146.597232,-8886.707777,-962.267725
5565.887833,1998.556043,-8886.707777,-296.082377
5565.888158,592.164754,-7124.688131,-148.041188
5565.888482,1554.432478,-8427.050478,666.185348
5565.888806,1110.308913,-7814.174080,296.082377
5565.889130,2442.679609,-8197.221829,1184.329507
5565.889455,1628.453072,-7354.516781,-296.082377
5565.889779,666.185348,-9959.241474,296.082377
5565.890103,-666.185348,-8580.269578,-1702.473667
5565.890427,-74.020594,-9193.145976,222.061783
5565.890751,-2442.679609,-7967.393179,0.000000
5565.891076,-2294.638420,-8580.269578,814.226536
5565.891400,-962.267725,-7431.126331,592.164754
5565.891724,814.226536,-8886.707777,592.164754
5565.892048,1184.329507,-9116.536426,-1480.411884
5565.892373,2220.617826,-8120.612279,0.000000
5565.892697,1924.535449,-8427.050478,-666.185348
5565.893021,0.000000,-7890.783629,-1258.350101
5565.893345,518.144159,-8656.879127,1110.308913
5565.893669,592.164754,-8197.221829,148.041188
5565.893994,0.000000,-9269.755526,148.041188
5565.894318,296.082377,-7124.688131,148.041188
5565.894642,962.267725,-9269.755526,1110.308913
5565.894966,-222.061783,-8733.488677,-1406.391290
5565.895291,-444.123565,-9193.145976,0.000000
5565.895615,-888.247130,-8044.002729,-1332.370696
5565.895939,-1406.391290,-8886.707777,592.164754
5565.896263,370.102971,-8273.831378,0.000000
5565.896587,1036.288319,-9422.974625,444.123565
5565.896912,2664.741391,-8503.660028,-444.123565
5565.897236,1184.329507,-8886.707777,0.000000
5565.897560,3404.947333,-8656.879127,-740.205942
5565.897884,1554.432478,-8350.440928,-962.267725
5565.898209,222.061783,-8733.488677,-518.144159
5565.898533,148.041188,-8044.002729,-518.144159
5565.898857,-148.041188,-9499.584175,814.226536
5565.899181,592.164754,-8503.660028,-1332.370696
5565.899506,666.185348,-8886.707777,-592.164754
5565.899830,1110.308913,-9116.536426,-1036.288319
5565.900154,-222.061783,-9193.145976,-1480.411884
5565.900478,1036.288319,-8503.660028,-1036.288319
5565.900802,-1036.288319,-9193.145976,0.000000
5565.901127,0.000000,-8580.269578,-1110.308913
5565.901451,-148.041188,-9652.803275,-592.164754
5565.901775,-444.123565,-8427.050478,-592.164754
5565.902099,888.247130,-9193.145976,444.123565
5565.902424,2368.659014,-8733.488677,-1258.350101
5565.902748,1258.350101,-9729.412825,-740.205942
5565.903072,1110.308913,-7431.126331,-1406.391290
5565.903396,-148.041188,-9116.536426,-592.164754
5565.903720,-222.061783,-8733.488677,592.164754
5565.904045,1110.308913,-7890.783629,-74.020594
5565.904369,666.185348,-8580.269578,-666.185348
5565.904693,1850.514855,-8733.488677,740.205942
5565.905017,814.226536,-7814.174080,-1406.391290
5565.905342,518.144159,-9269.755526,-1184.329507
5565.905666,-370.102971,-7354.516781,-592.164754
5565.905990,148.041188,-8886.707777,740.205942
5565.906314,-1036.288319,-7660.954980,222.061783
5565.906638,-370.102971,-8810.098227,888.247130
5565.906963,1258.350101,-9116.536426,-370.102971
5565.907287,1258.350101,-9499.584175,-370.102971
5565.907611,2220.617826,-7814.174080,-1480.411884
5565.907935,1036.288319,-8656.879127,296.082377
5565.908260,222.061783,-6971.469032,-666.185348
5565.908584,888.247130,-8886.707777,888.247130
5565.908908,444.123565,-7584.345430,0.000000
5565.909232,370.102971,-8273.831378,592.164754
5565.909557,1258.350101,-8350.440928,-888.247130
5565.909881,1850.514855,-9116.536426,0.000000
5565.910205,148.041188,-8427.050478,-1480.411884
5565.910529,74.020594,-9499.584175,-888.247130
5565.910853,-2738.761985,-7890.783629,-370.102971
5565.911178,-1850.514855,-8656.879127,-296.082377
5565.911502,-962.267725,-8197.221829,666.185348
5565.911826,1036.288319,-7967.393179,0.000000
5565.912150,2072.576638,-9193.145976,74.020594
5565.912475,2886.803174,-8503.660028,-592.164754
5565.912799,1998.556043,-8427.050478,0.000000
5565.913123,1110.308913,-7354.516781,-518.144159
5565.913447,740.205942,-8963.317327,-444.123565
5565.913771,296.082377,-8350.440928,-222.061783
5565.914096,962.267725,-8580.269578,740.205942
5565.914420,444.123565,-8044.002729,-444.123565
5565.914744,444.123565,-8733.488677,222.061783
5565.915068,-592.164754,-7890.783629,-814.226536
5565.915393,74.020594,-9729.412825,-2368.659014
5565.915717,-148.041188,-8733.488677,-1628.453072
5565.916041,-222.061783,-8120.612279,444.123565
5565.916365,-740.205942,-8886.707777,74.020594
5565.916690,592.164754,-8886.707777,-148.041188
5565.917014,-148.041188,-9499.584175,296.082377
5565.917338,1036.288319,-8733.488677,-666.185348
5565.917662,1332.370696,-8503.660028,-1332.370696
5565.917986,740.205942,-9039.926876,-592.164754
5565.918311,962.267725,-8580.269578,-518.144159
5565.918635,-148.041188,-8044.002729,-148.041188
5565.918959,74.020594,-9039.926876,740.205942
5565.919283,444.123565,-7354.516781,-740.205942
5565.919608,1184.329507,-8656.879127,0.000000
5565.919932,2738.761985,-8810.098227,-1554.432478
5565.920256,2368.659014,-8733.488677,-2368.659014
5565.920580,-370.102971,-8733.488677,-1406.391290
5565.920904,-1628.453072,-8963.317327,-518.144159
5565.921229,-3775.050304,-8580.269578,0.000000
5565.921553,-666.185348,-8197.221829,518.144159
5565.921877,-222.061783,-8810.098227,444.123565
5565.922201,888.247130,-9116.536426,-1036.288319
5565.922526,2886.803174,-8273.831378,-888.247130
5565.922850,1554.432478,-8810.098227,-296.082377
5565.923174,1850.514855,-8044.002729,-1036.288319
5565.923498,1258.350101,-8886.707777,222.061783
5565.923822,0.000000,-8197.221829,444.123565
5565.924147,-370.102971,-8427.050478,148.041188
5565.924471,666.185348,-8656.879127,-444.123565
5565.924795,1406.391290,-8810.098227,-962.267725
5565.925119,666.185348,-8350.440928,-592.164754
5565.925444,222.061783,-8427.050478,-444.123565
5565.925768,-518.144159,-8350.440928,296.082377
5565.926092,370.102971,-8580.269578,0.000000
5565.926416,0.000000,-8886.707777,222.061783
5565.926741,1110.308913,-7814.174080,0.000000
5565.927065,740.205942,-8427.050478,296.082377
5565.927389,1702.473667,-8197.221829,-740.205942
5565.927713,2590.720797,-9269.755526,0.000000
5565.928037,74.020594,-8503.660028,-592.164754
5565.928362,0.000000,-8580.269578,518.144159
5565.928686,-1110.308913,-7737.564530,0.000000
5565.929010,-1184.329507,-8963.317327,666.185348
5565.929334,222.061783,-7277.907231,74.020594
5565.929659,444.123565,-8810.098227,-518.144159
5565.929983,1332.370696,-8503.660028,0.000000
5565.930307,296.082377,-7890.783629,-1480.411884
5565.930631,-444.123565,-9039.926876,-444.123565
5565.930955,-1554.432478,-7277.907231,-740.205942
5565.931280,-444.123565,-8273.831378,592.164754
5565.931604,-222.061783,-8044.002729,0.000000
5565.931928,1406.391290,-9116.536426,444.123565
5565.932252,2442.679609,-8044.002729,0.000000
5565.932577,1628.453072,-8503.660028,-370.102971
5565.932901,2442.679609,-8656.879127,-592.164754
5565.933225,1850.514855,-7277.907231,-1110.308913
5565.933549,1924.535449,-8120.612279,518.144159
5565.933874,888.247130,-8120.612279,0.000000
5565.934198,370.102971,-8273.831378,0.000000
5565.934522,1406.391290,-8963.317327,-962.267725
5565.934846,1036.288319,-8656.879127,-962.267725
5565.935170,-1258.350101,-9269.755526,-592.164754
5565.935495,-814.226536,-8733.488677,-1628.453072
5565.935819,-962.267725,-8810.098227,-518.144159
5565.936143,-1702.473667,-8503.660028,-296.082377
5565.936467,-666.185348,-9039.926876,74.020594
5565.936792,296.082377,-8580.269578,-592.164754
5565.937116,1110.308913,-8963.317327,0.000000
5565.937440,1406.391290,-8120.612279,-1110.308913
5565.937764,666.185348,-8273.831378,-1110.308913
5565.938089,2220.617826,-8733.488677,-888.247130
5565.938413,666.185348,-8580.269578,-740.205942
5565.938737,296.082377,-8810.098227,888.247130
5565.939061,-444.123565,-9346.365076,-148.041188
5565.939385,-1258.350101,-8733.488677,-222.061783
5565.939710,-1332.370696,-8273.831378,-518.144159
5565.940034,0.000000,-8273.831378,222.061783
5565.940358,518.144159,-8273.831378,-1332.370696
5565.940682,444.123565,-9576.193725,-962.267725
5565.941007,-1332.370696,-8044.002729,-1332.370696
5565.941331,-1850.514855,-8503.660028,370.102971
5565.941655,-296.082377,-8886.707777,-518.144159
5565.941979,0.000000,-8810.098227,74.020594
5565.942304,1332.370696,-9039.926876,-666.185348
5565.942628,2812.782580,-9346.365076,-296.082377
5565.942952,1776.494261,-8886.707777,-296.082377
5565.943276,888.247130,-7507.735880,-74.020594
5565.943601,1110.308913,-7967.393179,1036.288319
5565.943925,444.123565,-8350.440928,444.123565
5565.944249,1850.514855,-7890.783629,0.000000
5565.944573,1332.370696,-7890.783629,-888.247130
5565.944897,222.061783,-7814.174080,-296.082377
5565.945222,1110.308913,-9346.365076,-148.041188
5565.945546,-370.102971,-7507.735880,-2146.597232
5565.945870,592.164754,-9499.584175,814.226536
5565.946194,-1850.514855,-7584.345430,-370.102971
5565.946519,-1332.370696,-9652.803275,1036.288319
5565.946843,-370.102971,-7584.345430,296.082377
5565.947167,1776.494261,-8963.317327,444.123565
5565.947491,518.144159,-7814.174080,-1480.411884
5565.947816,1406.391290,-8580.269578,-296.082377
5565.948140,296.082377,-8044.002729,74.020594
5565.948464,666.185348,-7584.345430,-444.123565
5565.948788,1036.288319,-8120.612279,962.267725
5565.949113,-222.061783,-8273.831378,814.226536
5565.949437,1702.473667,-8350.440928,0.000000
5565.949761,1036.288319,-8044.002729,-518.144159
5565.950085,2220.617826,-8886.707777,0.000000
5565.950409,1036.288319,-7890.783629,-666.185348
5565.950734,74.020594,-8580.269578,0.000000
5565.951058,-1184.329507,-8580.269578,-222.061783
5565.951382,-1036.288319,-8656.879127,0.000000
5565.951706,-1258.350101,-9116.536426,444.123565
5565.952031,-1258.350101,-8427.050478,148.041188
5565.952355,1776.494261,-8656.879127,-740.205942
5565.952679,2294.638420,-8886.707777,0.000000
5565.953003,2220.617826,-9116.536426,-1036.288319
5565.953328,3034.844362,-8197.221829,-592.164754
5565.953652,1036.288319,-7660.954980,-444.123565
5565.953976,296.082377,-9499.584175,-1184.329507
5565.954300,-740.205942,-11031.775171,1036.288319
5565.954625,-3330.926739,-7584.345430,-592.164754
5565.954949,2664.741391,-8427.050478,-962.267725
5565.955273,-148.041188,-10418.898773,-1332.370696
5565.955597,-2072.576638,-9269.755526,-2146.597232
5565.955921,-518.144159,-8350.440928,-666.185348
5565.956246,-1850.514855,-9039.926876,-962.267725
5565.956570,-2072.576638,-9039.926876,518.144159
5565.956894,-1110.308913,-6741.640382,222.061783
5565.957218,1480.411884,-10342.289223,-222.061783
5565.957543,2368.659014,-7737.564530,-2146.597232
5565.957867,3701.029710,-9039.926876,-370.102971
5565.958191,740.205942,-8810.098227,-1480.411884
5565.958515,1998.556043,-8886.707777,-1036.288319
5565.958840,0.000000,-7660.954980,-962.267725
5565.959164,-666.185348,-10265.679673,1554.432478
5565.959488,-518.144159,-7814.174080,-888.247130
5565.959812,-1258.350101,-8963.317327,-444.123565
5565.960136,518.144159,-8963.317327,-296.082377
5565.960461,888.247130,-7660.954980,-1776.494261
5565.960785,1110.308913,-10648.727422,-1258.350101
5565.961109,-296.082377,-7737.564530,-740.205942
5565.961433,444.123565,-8044.002729,666.185348
5565.961758,-1110.308913,-8197.221829,-1776.494261
5565.962082,1406.391290,-9806.022374,1110.308913
5565.962406,1110.308913,-6894.859482,-1406.391290
5565.962730,1480.411884,-10189.070123,74.020594
5565.963055,2072.576638,-8963.317327,-1998.556043
5565.963379,1110.308913,-9576.193725,-444.123565
5565.963703,-1554.432478,-6971.469032,-74.020594
5565.964027,-592.164754,-9269.755526,296.082377
5565.964352,0.000000,-7890.783629,-222.061783
5565.964676,0.000000,-8044.002729,814.226536
5565.965000,3034.844362,-8656.879127,-592.164754
5565.965324,2146.597232,-8503.660028,-1258.350101
5565.965648,518.144159,-9269.755526,-740.205942
5565.965973,-148.041188,-8580.269578,-1184.329507
5565.966297,-1406.391290,-8503.660028,592.164754
5565.966621,-2738.761985,-8580.269578,222.061783
5565.966945,-518.144159,-9039.926876,370.102971
5565.967270,592.164754,-8580.269578,0.000000
5565.967594,666.185348,-8427.050478,-740.205942
5565.967918,1332.370696,-8273.831378,0.000000
5565.968242,962.267725,-8273.831378,-962.267725
5565.968567,1258.350101,-8197.221829,-296.082377
5565.968891,1258.350101,-8197.221829,592.164754
5565.969215,0.000000,-8810.098227,0.000000
5565.969539,0.000000,-8120.612279,-222.061783
5565.969864,1480.411884,-7507.735880,-666.185348
5565.970188,888.247130,-9346.365076,-370.102971
5565.970512,814.226536,-8963.317327,-1036.288319
5565.970836,296.082377,-9499.584175,-592.164754
5565.971160,-1480.411884,-9269.755526,-1036.288319
5565.971485,-814.226536,-8963.317327,148.041188
5565.971809,-1184.329507,-8580.269578,-370.102971
5565.972133,-2516.700203,-8656.879127,222.061783
5565.972457,962.267725,-8273.831378,-444.123565
5565.972782,2072.576638,-8886.707777,-148.041188
5565.973106,1924.535449,-9499.584175,-1406.391290
5565.973430,1998.556043,-7967.393179,-1110.308913
5565.973754,370.102971,-8810.098227,-74.020594
5565.974079,296.082377,-8886.707777,296.082377
5565.974403,1776.494261,-9193.145976,0.000000
5565.974727,-666.185348,-8733.488677,-1036.288319
5565.975051,1110.308913,-9193.145976,296.082377
5565.975376,1184.329507,-9269.755526,-1480.411884
5565.975700,-296.082377,-9652.803275,-296.082377
5565.976024,-666.185348,-8044.002729,-1628.453072
5565.976348,-74.020594,-9806.022374,-666.185348
5565.976672,-2590.720797,-8810.098227,0.000000
5565.976997,0.000000,-9039.926876,74.020594
5565.977321,-296.082377,-8733.488677,-666.185348
5565.977645,370.102971,-8886.707777,-370.102971
5565.977969,2368.659014,-9576.193725,-1036.288319
5565.978294,3404.947333,-8427.050478,-370.102971
5565.978618,1924.535449,-8580.269578,-444.123565
5565.978942,1702.473667,-8503.660028,0.000000
5565.979266,444.123565,-8197.221829,-222.061783
5565.979591,-518.144159,-8503.660028,-370.102971
5565.979915,74.020594,-8350.440928,0.000000
5565.980239,888.247130,-7737.564530,-518.144159
5565.980563,-666.185348,-9576.193725,0.000000
5565.980887,-666.185348,-7737.564530,-1554.432478
5565.981212,-518.144159,-8963.317327,-666.185348
5565.981536,222.061783,-8733.488677,74.020594
5565.981860,0.000000,-8197.221829,-296.082377
5565.982184,1406.391290,-8580.269578,666.185348
5565.982509,148.041188,-8273.831378,-1554.432478
5565.982833,1850.514855,-8886.707777,222.061783
5565.983157,1036.288319,-8197.221829,-1480.411884
5565.983481,1184.329507,-9346.365076,0.000000
5565.983806,222.061783,-7967.393179,74.020594
5565.984130,0.000000,-8733.488677,740.205942
5565.984454,0.000000,-8503.660028,74.020594
5565.984778,0.000000,-7660.954980,-518.144159
5565.985103,1036.288319,-8733.488677,0.000000
5565.985427,2960.823768,-8503.660028,-666.185348
5565.985751,666.185348,-8580.269578,-1332.370696
5565.986075,-296.082377,-8886.707777,0.000000
5565.986399,-3849.070898,-7584.345430,-666.185348
5565.986724,-1702.473667,-9806.022374,0.000000
5565.987048,-1480.411884,-7737.564530,-888.247130
5565.987372,1554.432478,-9959.241474,888.247130
5565.987696,888.247130,-7354.516781,-1110.308913
5565.988021,2072.576638,-9652.803275,1480.411884
5565.988345,3404.947333,-7584.345430,-1110.308913
5565.988669,2442.679609,-8656.879127,-888.247130
5565.988993,1998.556043,-7277.907231,-370.102971
5565.989318,1628.453072,-9039.926876,518.144159
5565.989642,1776.494261,-8350.440928,-444.123565
5565.989966,592.164754,-8580.269578,222.061783
5565.990290,-370.102971,-8273.831378,-740.205942
5565.990615,-222.061783,-9193.145976,-666.185348
5565.990939,-1480.411884,-8810.098227,-740.205942
5565.991263,-2072.576638,-9269.755526,-1258.350101
5565.991587,-814.226536,-8580.269578,296.082377
5565.991911,-814.226536,-8427.050478,0.000000
5565.992236,0.000000,-9116.536426,-296.082377
5565.992560,1480.411884,-8733.488677,-1258.350101
5565.992884,888.247130,-8656.879127,-518.144159
5565.993208,296.082377,-8656.879127,-1258.350101
5565.993533,2516.700203,-9116.536426,-518.144159
5565.993857,222.061783,-8427.050478,-740.205942
5565.994181,1258.350101,-8733.488677,666.185348
5565.994505,814.226536,-8120.612279,-444.123565
5565.994830,-518.144159,-8580.269578,0.000000
5565.995154,888.247130,-8350.440928,-518.144159
5565.995478,2590.720797,-8886.707777,-962.267725
5565.995802,-444.123565,-8810.098227,-666.185348
5565.996126,370.102971,-9039.926876,-1036.288319
5565.996451,-444.123565,-7584.345430,-814.226536
5565.996775,-1258.350101,-8044.002729,370.102971
5565.997099,814.226536,-8427.050478,-518.144159
5565.997423,962.267725,-8273.831378,444.123565
5565.997748,1554.432478,-9806.022374,-296.082377
5565.998072,1332.370696,-9499.584175,-1702.473667
5565.998396,888.247130,-10112.460574,0.000000
5565.998720,-2146.597232,-7354.516781,-296.082377
5565.999045,1110.308913,-7967.393179,-1184.329507
5565.999369,-1258.350101,-9193.145976,74.020594
5565.999693,0.000000,-7967.393179,0.000000
5566.000017,2516.700203,-7814.174080,666.185348
5566.000342,444.123565,-8273.831378,-148.041188
5566.000666,814.226536,-9422.974625,-888.247130
5566.000990,1850.514855,-8044.002729,-666.185348
5566.001314,-444.123565,-10265.679673,-888.247130
5566.001638,-370.102971,-9193.145976,0.000000
5566.001963,-740.205942,-8197.221829,0.000000
5566.002287,-888.247130,-8273.831378,740.205942
5566.002611,0.000000,-8350.440928,444.123565
5566.002935,74.020594,-7967.393179,-962.267725
5566.003260,814.226536,-9269.755526,444.123565
5566.003584,2294.638420,-7354.516781,74.020594
5566.003908,962.267725,-8580.269578,-1036.288319
5566.004232,962.267725,-8503.660028,0.000000
5566.004557,-444.123565,-8350.440928,592.164754
5566.004881,2072.576638,-9193.145976,148.041188
5566.005205,518.144159,-7967.393179,-370.102971
5566.005529,1480.411884,-9422.974625,592.164754
5566.005854,-888.247130,-8197.221829,-1776.494261
5566.006178,-1110.308913,-8886.707777,-518.144159
5566.006502,-1406.391290,-8503.660028,444.123565
5566.006826,-2516.700203,-8886.707777,0.000000
5566.007150,-222.061783,-8656.879127,0.000000
5566.007475,-592.164754,-8350.440928,-148.041188
5566.007799,296.082377,-8503.660028,-444.123565
5566.008123,2368.659014,-8810.098227,74.020594
5566.008447,2664.741391,-8733.488677,-1036.288319
5566.008772,2368.659014,-8580.269578,-444.123565
5566.009096,666.185348,-7967.393179,-296.082377
5566.009420,0.000000,-9422.974625,0.000000
5566.009744,0.000000,-8044.002729,-814.226536
5566.010069,444.123565,-9039.926876,-296.082377
5566.010393,1554.432478,-8120.612279,-1184.329507
5566.010717,-518.144159,-8427.050478,0.000000
5566.011041,-1184.329507,-9729.412825,-666.185348
5566.011366,-222.061783,-8580.269578,-888.247130
5566.011690,-1110.308913,-8810.098227,-148.041188
5566.012014,-1036.288319,-8886.707777,0.000000
5566.012338,148.041188,-7584.345430,74.020594
5566.012662,444.123565,-8656.879127,0.000000
5566.012987,2516.700203,-8580.269578,-592.164754
5566.013311,3034.844362,-8733.488677,-1036.288319
5566.013635,1110.308913,-7967.393179,-1258.350101
5566.013959,1628.453072,-9039.926876,0.000000
5566.014284,444.123565,-8197.221829,0.000000
5566.014608,370.102971,-9116.536426,222.061783
5566.014932,888.247130,-8580.269578,-444.123565
5566.015256,148.041188,-9039.926876,-296.082377
5566.015581,814.226536,-8733.488677,-814.226536
5566.015905,592.164754,-8120.612279,-1406.391290
5566.016229,0.000000,-9729.412825,-444.123565
5566.016553,-1702.473667,-7737.564530,-1628.453072
5566.016877,-814.226536,-9652.803275,370.102971
5566.017202,-1776.494261,-7814.174080,-1036.288319
5566.017526,-1702.473667,-8733.488677,814.226536
5566.017850,1998.556043,-7737.564530,-962.267725
5566.018174,1628.453072,-9039.926876,-444.123565
5566.018499,2294.638420,-8810.098227,-592.164754
5566.018823,592.164754,-7814.174080,-888.247130
5566.019147,1184.329507,-8810.098227,-666.185348
5566.019471,0.000000,-7890.783629,888.247130
5566.019796,888.247130,-8733.488677,74.020594
5566.020120,962.267725,-7890.783629,0.000000
5566.020444,1258.350101,-8503.660028,222.061783
5566.020768,2072.576638,-8044.002729,-962.267725
5566.021093,962.267725,-9729.412825,-740.205942
5566.021417,-1628.453072,-8044.002729,-1480.411884
5566.021741,-444.123565,-8580.269578,740.205942
5566.022065,-814.226536,-7660.954980,-444.123565
5566.022389,-296.082377,-9806.022374,444.123565
5566.022714,0.000000,-7124.688131,-74.020594
5566.023038,296.082377,-9652.803275,0.000000
5566.023362,1110.308913,-8273.831378,-888.247130
5566.023686,1998.556043,-8886.707777,-444.123565
5566.024011,2294.638420,-7890.783629,-1110.308913
5566.024335,2368.659014,-9346.365076,1332.370696
5566.024659,148.041188,-7584.345430,-814.226536
5566.024983,-444.123565,-9269.755526,1036.288319
5566.025308,222.061783,-7890.783629,-592.164754
5566.025632,222.061783,-9116.536426,-666.185348
5566.025956,-296.082377,-8656.879127,-1110.308913
5566.026280,-814.226536,-7967.393179,-296.082377
5566.026605,-666.185348,-8427.050478,-1036.288319
5566.026929,518.144159,-8963.317327,0.000000
5566.027253,740.205942,-8044.002729,0.000000
5566.027577,0.000000,-8350.440928,222.061783
5566.027901,814.226536,-9193.145976,-814.226536
5566.028226,2220.617826,-9039.926876,-370.102971
5566.028550,2368.659014,-8427.050478,-1036.288319
5566.028874,1110.308913,-9193.145976,-1036.288319
5566.029198,296.082377,-7431.126331,-814.226536
5566.029523,-296.082377,-9729.412825,1258.350101
5566.029847,-888.247130,-8427.050478,-444.123565
5566.030171,814.226536,-9499.584175,1258.350101
5566.030495,1332.370696,-7277.907231,-888.247130
5566.030820,888.247130,-9576.193725,-666.185348
5566.031144,592.164754,-8120.612279,-2368.659014
5566.031468,592.164754,-9729.412825,148.041188
5566.031792,-592.164754,-8044.002729,-1628.453072
5566.032117,-1850.514855,-9116.536426,296.082377
5566.032441,-1184.329507,-9039.926876,-222.061783
5566.032765,0.000000,-8810.098227,74.020594
5566.033089,1184.329507,-7660.954980,-148.041188
5566.033413,1998.556043,-9116.536426,148.041188
5566.033738,2960.823768,-8656.879127,-1332.370696
5566.034062,518.144159,-8273.831378,-814.226536
5566.034386,962.267725,-8503.660028,-518.144159
5566.034710,444.123565,-8580.269578,296.082377
5566.035035,74.020594,-8503.660028,-370.102971
5566.035359,74.020594,-8503.660028,-222.061783
5566.035683,3478.967927,-7890.783629,1406.391290
5566.036007,-3404.947333,-9806.022374,-2664.741391
5566.036332,148.041188,-8350.440928,-1110.308913
5566.036656,-2442.679609,-8656.879127,-444.123565
5566.036980,-518.144159,-7890.783629,-1110.308913
5566.037304,-518.144159,-9116.536426,1776.494261
5566.037629,-1036.288319,-7814.174080,-1036.288319
5566.037953,888.247130,-9806.022374,444.123565
5566.038277,1332.370696,-7354.516781,-1406.391290
5566.038601,3404.947333,-10189.070123,-148.041188
5566.038926,-666.185348,-6818.249932,-2072.576638
5566.039250,-1480.411884,-8580.269578,518.144159
5566.039574,-296.082377,-7814.174080,222.061783
5566.039898,888.247130,-8044.002729,222.061783
5566.040223,2368.659014,-8810.098227,222.061783
5566.040547,1702.473667,-8044.002729,-814.226536
5566.040871,2368.659014,-8273.831378,74.020594
5566.041195,962.267725,-8733.488677,-1628.453072
5566.041520,1332.370696,-9576.193725,-444.123565
5566.041844,222.061783,-8197.221829,-592.164754
5566.042168,-962.267725,-8810.098227,-666.185348
5566.042492,0.000000,-8810.098227,814.226536
5566.042817,1554.432478,-8044.002729,-296.082377
5566.043141,666.185348,-9499.584175,-518.144159
5566.043465,296.082377,-8197.221829,0.000000
5566.043789,518.144159,-7967.393179,-592.164754
5566.044114,814.226536,-7737.564530,-888.247130
5566.044438,222.061783,-8580.269578,296.082377
5566.044762,814.226536,-8886.707777,0.000000
5566.045086,-222.061783,-8427.050478,148.041188
5566.045410,-148.041188,-8427.050478,-370.102971
5566.045735,888.247130,-8350.440928,-444.123565
5566.046059,-444.123565,-9346.365076,-1332.370696
5566.046383,666.185348,-10189.070123,-1480.411884
5566.046707,-888.247130,-9499.584175,-370.102971
5566.047032,-3108.864956,-7584.345430,222.061783
5566.047356,444.123565,-7967.393179,-740.205942
5566.047680,-1554.432478,-9959.241474,74.020594
5566.048004,0.000000,-7814.174080,-1036.288319
5566.048329,2072.576638,-8580.269578,0.000000
5566.048653,148.041188,-8580.269578,-1036.288319
5566.048977,2442.679609,-8963.317327,-444.123565
5566.049301,370.102971,-7660.954980,-148.041188
5566.049626,-222.061783,-9806.022374,296.082377
5566.049950,666.185348,-8044.002729,-592.164754
5566.050274,296.082377,-8580.269578,222.061783
5566.050598,962.267725,-8427.050478,-222.061783
5566.050923,1406.391290,-9193.145976,-444.123565
5566.051247,-592.164754,-8197.221829,-1184.329507
5566.051571,-148.041188,-9116.536426,-444.123565
5566.051895,-1184.329507,-7967.393179,-962.267725
5566.052220,-518.144159,-9652.803275,370.102971
5566.052544,-888.247130,-7354.516781,0.000000
5566.052868,740.205942,-9116.536426,518.144159
5566.053192,1998.556043,-7967.393179,-814.226536
5566.053517,1702.473667,-9652.803275,74.020594
5566.053841,2368.659014,-8350.440928,-1628.453072
5566.054165,0.000000,-9193.145976,-518.144159
5566.054489,296.082377,-9116.536426,-222.061783
5566.054814,-888.247130,-9039.926876,444.123565
5566.055138,-1998.556043,-8656.879127,-296.082377
5566.055462,1258.350101,-8733.488677,222.061783
5566.055786,962.267725,-8044.002729,-1036.288319
5566.056111,-296.082377,-8733.488677,-518.144159
5566.056435,370.102971,-8273.831378,-592.164754
5566.056759,-296.082377,-9039.926876,0.000000
5566.057083,0.000000,-8503.660028,-444.123565
5566.057408,-444.123565,-8503.660028,-1110.308913
5566.057732,-592.164754,-9193.145976,1036.288319
5566.058056,0.000000,-7737.564530,444.123565
5566.058380,2590.720797,-8273.831378,0.000000
5566.058705,1776.494261,-8810.098227,-444.123565
5566.059029,1332.370696,-8197.221829,-1406.391290
5566.059353,666.185348,-7737.564530,-888.247130
5566.059677,666.185348,-9116.536426,888.247130
5566.060002,-148.041188,-8197.221829,370.102971
5566.060326,962.267725,-8810.098227,888.247130
5566.060650,-148.041188,-7354.516781,-962.267725
5566.060974,814.226536,-9729.412825,444.123565
5566.061299,0.000000,-7584.345430,-1998.556043
5566.061623,1924.535449,-9422.974625,0.000000
5566.061947,-1184.329507,-6741.640382,-1036.288319
5566.062271,74.020594,-9806.022374,0.000000
5566.062595,-1628.453072,-7124.688131,-740.205942
5566.062920,1702.473667,-9652.803275,1406.391290
5566.063244,592.164754,-6358.592633,-1998.556043
5566.063568,2072.576638,-10648.727422,370.102971
5566.063892,1258.350101,-7507.735880,-1998.556043
5566.064217,1554.432478,-9193.145976,518.144159
5566.064541,0.000000,-6741.640382,-666.185348
5566.064865,296.082377,-9499.584175,962.267725
5566.065189,-740.205942,-7277.907231,-222.061783
5566.065514,0.000000,-9116.536426,518.144159
5566.065838,1554.432478,-7584.345430,-2220.617826
5566.066162,74.020594,-9499.584175,-518.144159
5566.066486,740.205942,-8273.831378,-1554.432478
5566.066811,222.061783,-8656.879127,-740.205942
5566.067135,296.082377,-9039.926876,-592.164754
5566.067459,666.185348,-8656.879127,444.123565
5566.067783,-148.041188,-9193.145976,-370.102971
5566.068108,888.247130,-8886.707777,-296.082377
5566.068432,1036.288319,-8810.098227,-740.205942
5566.068756,0.000000,-8963.317327,-222.061783
5566.069080,962.267725,-9576.193725,-370.102971
5566.069405,74.020594,-7507.735880,-592.164754
5566.069729,-518.144159,-9422.974625,74.020594
5566.070053,0.000000,-8963.317327,-962.267725
5566.070377,592.164754,-8503.660028,592.164754
5566.070702,1702.473667,-8044.002729,-370.102971
5566.071026,1628.453072,-9039.926876,-666.185348
5566.071350,962.267725,-8733.488677,-1406.391290
5566.071674,592.164754,-9499.584175,-1850.514855
5566.071999,74.020594,-8886.707777,-592.164754
5566.072323,-1924.535449,-9193.145976,-296.082377
5566.072647,-962.267725,-8120.612279,518.144159
5566.072971,-1258.350101,-8656.879127,888.247130
5566.073296,740.205942,-9039.926876,-1924.535449
5566.073620,1554.432478,-9729.412825,0.000000
5566.073944,1332.370696,-8120.612279,-1850.514855
5566.074268,1702.473667,-9269.755526,0.000000
5566.074593,-444.123565,-7201.297681,0.000000
5566.074917,-222.061783,-9806.022374,666.185348
5566.075241,-592.164754,-7507.735880,-888.247130
5566.075565,962.267725,-8886.707777,1036.288319
5566.075890,222.061783,-8120.612279,-1036.288319
5566.076214,1480.411884,-8963.317327,0.000000
5566.076538,666.185348,-8427.050478,-1184.329507
5566.076862,-296.082377,-8733.488677,-1702.473667
5566.077187,-592.164754,-8733.488677,888.247130
5566.077511,-888.247130,-7890.783629,222.061783
5566.077835,-740.205942,-8733.488677,888.247130
5566.078159,444.123565,-7354.516781,-518.144159
5566.078484,2738.761985,-10418.898773,74.020594
5566.078808,2146.597232,-7431.126331,-666.185348
5566.079132,962.267725,-8273.831378,148.041188
5566.079456,518.144159,-8120.612279,-1332.370696
5566.079780,444.123565,-9806.022374,814.226536
5566.080105,296.082377,-7967.393179,0.000000
5566.080429,1110.308913,-8350.440928,-962.267725
5566.080753,-814.226536,-7890.783629,592.164754
5566.081077,4663.297435,-10035.851024,74.020594
5566.081402,370.102971,-7354.516781,-3256.906145
5566.081726,1110.308913,-11261.603821,1628.453072
5566.082050,-1258.350101,-6511.811733,-3256.906145
5566.082374,-2738.761985,-9729.412825,1628.453072
5566.082699,296.082377,-7890.783629,-1036.288319
5566.083023,888.247130,-9346.365076,740.205942
5566.083347,-1036.288319,-7277.907231,-592.164754
5566.083671,2442.679609,-9576.193725,-592.164754
5566.083996,2146.597232,-8580.269578,-1184.329507
5566.084320,1406.391290,-8580.269578,-296.082377
5566.084644,1776.494261,-8886.707777,370.102971
5566.084968,-296.082377,-8503.660028,0.000000
5566.085293,-148.041188,-8886.707777,148.041188
5566.085617,1110.308913,-9039.926876,-518.144159
5566.085941,814.226536,-8427.050478,-740.205942
5566.086265,2294.638420,-9193.145976,-962.267725
5566.086590,0.000000,-8580.269578,-962.267725
5566.086914,-1184.329507,-7890.783629,-1110.308913
5566.087238,0.000000,-8886.707777,-592.164754
5566.087562,-1258.350101,-8580.269578,592.164754
5566.087887,888.247130,-7890.783629,222.061783
5566.088211,1924.535449,-8197.221829,-518.144159
5566.088535,1406.391290,-8733.488677,-592.164754
5566.088859,2368.659014,-8427.050478,-1184.329507
5566.089184,2738.761985,-8044.002729,-296.082377
5566.089508,1332.370696,-8886.707777,0.000000
5566.089832,-370.102971,-8656.879127,0.000000
5566.090156,148.041188,-8733.488677,-148.041188
5566.090481,296.082377,-8197.221829,-666.185348
5566.090805,222.061783,-8810.098227,-222.061783
5566.091129,296.082377,-7890.783629,-222.061783
5566.091453,518.144159,-8810.098227,-962.267725
5566.091778,-148.041188,-8580.269578,-148.041188
5566.092102,-1258.350101,-9116.536426,-1554.432478
5566.092426,-1924.535449,-9576.193725,-296.082377
5566.092750,-740.205942,-8503.660028,666.185348
5566.093075,0.000000,-8810.098227,814.226536
5566.093399,1628.453072,-8580.269578,-1332.370696
5566.093723,1924.535449,-8580.269578,-222.061783
5566.094047,1850.514855,-9039.926876,-1480.411884
5566.094372,74.020594,-9193.145976,-814.226536
5566.094696,1702.473667,-8656.879127,-444.123565
5566.095020,-1702.473667,-8350.440928,888.247130
5566.095344,-1332.370696,-8350.440928,-222.061783
5566.095668,-1258.350101,-8580.269578,518.144159
5566.095993,592.164754,-8580.269578,666.185348
5566.096317,1702.473667,-8733.488677,-518.144159
5566.096641,518.144159,-8886.707777,-2146.597232
5566.096965,-962.267725,-10112.460574,0.000000
5566.097290,-1850.514855,-6971.469032,-1332.370696
5566.097614,222.061783,-9959.241474,1184.329507
5566.097938,666.185348,-7048.078582,-592.164754
5566.098262,1184.329507,-10725.336972,1628.453072
5566.098587,1258.350101,-7201.297681,-2072.576638
5566.098911,0.000000,-9729.412825,592.164754
5566.099235,74.020594,-5439.278036,-592.164754
5566.099559,4219.173869,-9652.803275,-222.061783
5566.099884,-370.102971,-9806.022374,1036.288319
5566.100208,-148.041188,-7890.783629,0.000000
5566.100532,222.061783,-7354.516781,0.000000
5566.100856,0.000000,-8120.612279,-222.061783
5566.101181,2294.638420,-8656.879127,296.082377
5566.101505,1406.391290,-7277.907231,-1332.370696
5566.101829,-1406.391290,-9039.926876,-740.205942
5566.102153,0.000000,-8503.660028,-962.267725
5566.102478,-518.144159,-8427.050478,370.102971
5566.102802,-740.205942,-8503.660028,222.061783
5566.103126,-222.061783,-8656.879127,962.267725
5566.103450,518.144159,-9193.145976,-962.267725
5566.103775,814.226536,-8733.488677,518.144159
5566.104099,1924.535449,-7431.126331,-1480.411884
5566.104423,1924.535449,-9116.536426,-592.164754
5566.104747,518.144159,-7967.393179,-888.247130
5566.105072,3034.844362,-8810.098227,1110.308913
5566.105396,1406.391290,-7431.126331,-370.102971
5566.105720,518.144159,-8733.488677,296.082377
5566.106044,1702.473667,-8427.050478,148.041188
5566.106369,1776.494261,-9039.926876,-518.144159
5566.106693,1406.391290,-8733.488677,-370.102971
5566.107017,0.000000,-8427.050478,-1480.411884
5566.107341,-1554.432478,-8886.707777,-740.205942
5566.107666,-1332.370696,-8810.098227,222.061783
5566.107990,-1036.288319,-8886.707777,-1332.370696
5566.108314,-222.061783,-9346.365076,444.123565
5566.108638,0.000000,-8120.612279,-666.185348
5566.108963,2146.597232,-9499.584175,-666.185348
5566.109287,2368.659014,-8350.440928,-1258.350101
5566.109611,1702.473667,-8733.488677,-518.144159
5566.109935,1850.514855,-8733.488677,-962.267725
5566.110260,0.000000,-9729.412825,296.082377
5566.110584,-222.061783,-8350.440928,-740.205942
5566.110908,74.020594,-8197.221829,370.102971
5566.111232,962.267725,-8273.831378,-370.102971
5566.111557,518.144159,-9039.926876,-1628.453072
5566.111881,962.267725,-7660.954980,-1036.288319
5566.112205,-2146.597232,-8810.098227,-592.164754
5566.112529,-888.247130,-8886.707777,-888.247130
5566.112853,-2368.659014,-8656.879127,296.082377
5566.113178,-592.164754,-9039.926876,-444.123565
5566.113502,1110.308913,-9422.974625,0.000000
5566.113826,740.205942,-7431.126331,-1258.350101
5566.114150,1036.288319,-9882.631924,-592.164754
5566.114475,2886.803174,-7660.954980,-2072.576638
5566.114799,1036.288319,-9422.974625,444.123565
5566.115123,222.061783,-8197.221829,444.123565
5566.115447,-296.082377,-8503.660028,592.164754
5566.115772,0.000000,-7967.393179,370.102971
5566.116096,1998.556043,-9193.145976,-370.102971
5566.116420,814.226536,-8120.612279,-1776.494261
5566.116744,148.041188,-8656.879127,-444.123565
5566.117069,-592.164754,-7890.783629,-444.123565
5566.117393,-1036.288319,-8197.221829,-296.082377
5566.117717,-1184.329507,-9269.755526,222.061783
5566.118041,-148.041188,-8273.831378,962.267725
5566.118366,592.164754,-7967.393179,-740.205942
5566.118690,888.247130,-8733.488677,74.020594
5566.119014,1184.329507,-8810.098227,0.000000
5566.119338,666.185348,-8197.221829,-1184.329507
5566.119663,666.185348,-8963.317327,148.041188
5566.119987,0.000000,-7584.345430,-592.164754
5566.120311,-666.185348,-9346.365076,962.267725
5566.120635,-666.185348,-7201.297681,296.082377
5566.120960,1110.308913,-8810.098227,148.041188
5566.121284,1258.350101,-7890.783629,-222.061783
5566.121608,3256.906145,-10189.070123,296.082377
5566.121932,740.205942,-7201.297681,-2442.679609
5566.122257,74.020594,-10189.070123,962.267725
5566.122581,0.000000,-7507.735880,-1998.556043
5566.122905,-148.041188,-9806.022374,518.144159
5566.123229,148.041188,-7660.954980,222.061783
5566.123554,222.061783,-8350.440928,0.000000
5566.123878,2072.576638,-7967.393179,-962.267725
5566.124202,1036.288319,-8733.488677,-222.061783
5566.124526,1480.411884,-9116.536426,-888.247130
5566.124851,444.123565,-7354.516781,-666.185348
5566.125175,2146.597232,-9499.584175,0.000000
5566.125499,592.164754,-8197.221829,-444.123565
5566.125823,444.123565,-8810.098227,74.020594
5566.126148,0.000000,-8197.221829,-370.102971
5566.126472,814.226536,-8656.879127,-814.226536
5566.126796,1776.494261,-9576.193725,-1554.432478
5566.127120,592.164754,-9422.974625,-1702.473667
5566.127445,-888.247130,-7890.783629,-666.185348
5566.127769,-1628.453072,-9729.412825,0.000000
5566.128093,0.000000,-8580.269578,592.164754
5566.128417,740.205942,-8503.660028,296.082377
5566.128742,518.144159,-8656.879127,-222.061783
5566.129066,1406.391290,-8963.317327,-1110.308913
5566.129390,1332.370696,-8580.269578,-1702.473667
5566.129714,1406.391290,-8886.707777,-740.205942
5566.130038,1406.391290,-7967.393179,-444.123565
5566.130363,222.061783,-9652.803275,0.000000
5566.130687,0.000000,-8197.221829,-148.041188
5566.131011,0.000000,-8656.879127,0.000000
5566.131335,518.144159,-8810.098227,-370.102971
5566.131660,74.020594,-9499.584175,-1110.308913
5566.131985,0.000000,-8197.221829,-1332.370696
5566.132309,0.000000,-8580.269578,-444.123565
5566.132633,-1850.514855,-8503.660028,-888.247130
5566.132958,-1628.453072,-9346.365076,444.123565
5566.133282,74.020594,-7814.174080,0.000000
5566.133606,888.247130,-9499.584175,0.000000
5566.133931,1628.453072,-8120.612279,-1110.308913
5566.134255,2072.576638,-8886.707777,0.000000
5566.134579,1702.473667,-8656.879127,0.000000
5566.134904,1258.350101,-8656.879127,-666.185348
5566.135228,-444.123565,-8197.221829,592.164754
5566.135553,370.102971,-8733.488677,740.205942
5566.135877,-444.123565,-7660.954980,-370.102971
5566.136201,888.247130,-9882.631924,222.061783
5566.136526,370.102971,-7048.078582,-740.205942
5566.136850,-592.164754,-9039.926876,370.102971
5566.137174,-1110.308913,-7967.393179,-1776.494261
5566.137499,-666.185348,-9422.974625,962.267725
5566.137823,-2294.638420,-7354.516781,-518.144159
5566.138147,-444.123565,-8963.317327,814.226536
5566.138472,-296.082377,-7584.345430,444.123565
5566.138796,2886.803174,-8656.879127,0.000000
5566.139120,1406.391290,-7890.783629,-888.247130
5566.139445,2886.803174,-10495.508323,814.226536
5566.139769,1258.350101,-6818.249932,-1110.308913
5566.140093,518.144159,-8427.050478,962.267725
5566.140418,518.144159,-8273.831378,0.000000
5566.140742,148.041188,-8503.660028,0.000000
5566.141066,222.061783,-8120.612279,-592.164754
5566.141391,814.226536,-8273.831378,296.082377
5566.141715,1406.391290,-8733.488677,-444.123565
5566.142040,-888.247130,-8350.440928,-962.267725
5566.142364,1480.411884,-8886.707777,-296.082377
5566.142688,-1480.411884,-8120.612279,-444.123565
5566.143013,-518.144159,-9039.926876,-518.144159
5566.143337,1110.308913,-9039.926876,148.041188
5566.143661,814.226536,-8503.660028,888.247130
5566.143986,1554.432478,-7814.174080,-2516.700203
5566.144310,592.164754,-9652.803275,148.041188
5566.144634,2146.597232,-7584.345430,-1628.453072
5566.144959,1258.350101,-9576.193725,0.000000
5566.145283,-148.041188,-8963.317327,-1110.308913
5566.145607,370.102971,-9729.412825,222.061783
5566.145932,-370.102971,-8503.660028,-592.164754
5566.146256,-1110.308913,-9806.022374,-296.082377
5566.146580,1480.411884,-7967.393179,-592.164754
5566.146905,-370.102971,-9193.145976,-1554.432478
5566.147229,592.164754,-9576.193725,-1332.370696
5566.147553,-296.082377,-8197.221829,-1406.391290
5566.147878,296.082377,-9346.365076,0.000000
5566.148202,-592.164754,-8580.269578,0.000000
5566.148527,592.164754,-8580.269578,-592.164754
5566.148851,814.226536,-9039.926876,-1332.370696
5566.149175,2072.576638,-8963.317327,-592.164754
5566.149500,1480.411884,-8350.440928,-1554.432478
5566.149824,1924.535449,-8733.488677,-222.061783
5566.150148,-148.041188,-7967.393179,-444.123565
5566.150473,74.020594,-8656.879127,0.000000
5566.150797,-518.144159,-8427.050478,296.082377
5566.151121,962.267725,-8120.612279,148.041188
5566.151446,2812.782580,-8886.707777,-148.041188
5566.151770,1776.494261,-7967.393179,-666.185348
5566.152094,2146.597232,-8810.098227,-962.267725
5566.152419,-1406.391290,-8350.440928,-2220.617826
5566.152743,-1702.473667,-9729.412825,0.000000
5566.153067,-1184.329507,-8503.660028,148.041188
5566.153392,-740.205942,-8733.488677,666.185348
5566.153716,-1184.329507,-8350.440928,0.000000
5566.154041,1406.391290,-8580.269578,74.020594
5566.154365,1332.370696,-7814.174080,-888.247130
5566.154689,888.247130,-8963.317327,-666.185348
5566.155014,740.205942,-7737.564530,-444.123565
5566.155338,518.144159,-7660.954980,370.102971
5566.155662,740.205942,-7967.393179,0.000000
5566.155987,222.061783,-8733.488677,296.082377
5566.156311,888.247130,-8120.612279,74.020594
5566.156635,444.123565,-8197.221829,148.041188
5566.156960,1332.370696,-9193.145976,-814.226536
5566.157284,518.144159,-8580.269578,-666.185348
5566.157608,-1110.308913,-8503.660028,-296.082377
5566.157933,-1332.370696,-8197.221829,814.226536
5566.158257,444.123565,-9193.145976,370.102971
5566.158581,2146.597232,-7737.564530,814.226536
5566.158906,1184.329507,-7967.393179,-814.226536
5566.159230,1554.432478,-8886.707777,-740.205942
5566.159554,1924.535449,-7814.174080,-962.267725
5566.159879,2590.720797,-7890.783629,-962.267725
5566.160203,2146.597232,-9269.755526,814.226536
5566.160528,-740.205942,-9039.926876,-148.041188
5566.160852,-888.247130,-9346.365076,0.000000
5566.161176,-1110.308913,-8427.050478,444.123565
5566.161501,-444.123565,-8273.831378,0.000000
5566.161825,-296.082377,-9039.926876,-814.226536
5566.162149,-962.267725,-8120.612279,-1628.453072
5566.162474,-518.144159,-9346.365076,0.000000
5566.162798,-592.164754,-7431.126331,-1258.350101
5566.163122,370.102971,-9806.022374,740.205942
5566.163447,1480.411884,-8963.317327,-444.123565
5566.163771,2516.700203,-9039.926876,148.041188
5566.164095,2294.638420,-8656.879127,-1036.288319
5566.164420,2738.761985,-9729.412825,-444.123565
5566.164744,2072.576638,-8120.612279,-1258.350101
5566.165068,0.000000,-9576.193725,-1184.329507
5566.165393,-666.185348,-8886.707777,-888.247130
5566.165717,-1036.288319,-8810.098227,444.123565
5566.166042,0.000000,-7737.564530,-296.082377
5566.166366,-296.082377,-8580.269578,0.000000
5566.166690,518.144159,-7814.174080,-1258.350101
5566.167015,1554.432478,-9039.926876,-740.205942
5566.167339,814.226536,-8120.612279,-1998.556043
5566.167663,888.247130,-9729.412825,222.061783
5566.167988,296.082377,-8503.660028,-962.267725
5566.168312,0.000000,-9652.803275,0.000000
5566.168636,814.226536,-8273.831378,-814.226536
5566.168961,814.226536,-8656.879127,-518.144159
5566.169285,296.082377,-8197.221829,-666.185348
5566.169609,1110.308913,-8427.050478,-296.082377
5566.169934,1628.453072,-8120.612279,-962.267725
5566.170258,0.000000,-8197.221829,-814.226536
5566.170582,1258.350101,-9269.755526,444.123565
5566.170907,0.000000,-9116.536426,0.000000
5566.171231,0.000000,-8886.707777,0.000000
5566.171555,888.247130,-8350.440928,0.000000
5566.171880,1480.411884,-8733.488677,-814.226536
5566.172204,148.041188,-9499.584175,-888.247130
5566.172529,-148.041188,-8503.660028,-370.102971
5566.172853,-592.164754,-9116.536426,296.082377
5566.173177,-2516.700203,-8350.440928,0.000000
5566.173502,148.041188,-9193.145976,962.267725
5566.173826,0.000000,-8656.879127,-814.226536
5566.174150,1554.432478,-9193.145976,0.000000
5566.174475,1406.391290,-7354.516781,-296.082377
5566.174799,0.000000,-8350.440928,0.000000
5566.175123,1406.391290,-8197.221829,222.061783
5566.175448,1184.329507,-8197.221829,0.000000
5566.175772,1036.288319,-9346.365076,1332.370696
5566.176096,1184.329507,-7814.174080,0.000000
5566.176421,888.247130,-7660.954980,1036.288319
5566.176745,592.164754,-8503.660028,222.061783
5566.177069,1332.370696,-8810.098227,-296.082377
5566.177394,0.000000,-8350.440928,-296.082377
5566.177718,-2516.700203,-7737.564530,-740.205942
5566.178042,-1258.350101,-8886.707777,740.205942
5566.178367,-1998.556043,-7584.345430,-370.102971
5566.178691,148.041188,-8810.098227,1702.473667
5566.179016,1406.391290,-7354.516781,-1110.308913
5566.179340,1258.350101,-9116.536426,-222.061783
5566.179664,3108.864956,-7814.174080,-814.226536
5566.179989,2812.782580,-9116.536426,74.020594
5566.180313,1184.329507,-8120.612279,-370.102971
5566.180637,592.164754,-8656.879127,0.000000
5566.180962,-296.082377,-9576.193725,-814.226536
5566.181286,-666.185348,-8273.831378,-592.164754
5566.181610,296.082377,-8810.098227,888.247130
5566.181935,-296.082377,-7584.345430,-370.102971
5566.182259,-888.247130,-9193.145976,-740.205942
5566.182583,-370.102971,-7737.564530,-1554.432478
5566.182908,370.102971,-8963.317327,74.020594
5566.183232,962.267725,-8580.269578,222.061783
5566.183556,0.000000,-8733.488677,-222.061783
5566.183881,1628.453072,-8273.831378,-296.082377
5566.184205,2294.638420,-8810.098227,-1702.473667
5566.184530,2442.679609,-9729.412825,-222.061783
5566.184854,444.123565,-8733.488677,-1184.329507
5566.185178,222.061783,-8963.317327,0.000000
5566.185503,-296.082377,-7890.783629,-888.247130
5566.185827,74.020594,-9576.193725,0.000000
5566.186151,0.000000,-8350.440928,-444.123565
5566.186476,-666.185348,-8197.221829,-444.123565
5566.186800,888.247130,-8273.831378,-370.102971
5566.187124,74.020594,-9422.974625,-962.267725
5566.187449,444.123565,-9806.022374,-888.247130
5566.187773,814.226536,-8963.317327,-740.205942
5566.188097,148.041188,-9116.536426,-1406.391290
5566.188422,-148.041188,-9499.584175,74.020594
5566.188746,1332.370696,-8656.879127,-518.144159
5566.189070,-4811.338623,-7967.393179,-962.267725
5566.189395,4737.318029,-10418.898773,222.061783
5566.189719,962.267725,-6511.811733,-2738.761985
5566.190043,814.226536,-11644.651570,1850.514855
5566.190368,814.226536,-5515.887586,-2812.782580
5566.190692,-666.185348,-9806.022374,370.102971
5566.191017,-888.247130,-7967.393179,-1184.329507
5566.191341,740.205942,-9806.022374,-296.082377
5566.191665,-296.082377,-9269.755526,222.061783
5566.191990,-888.247130,-6894.859482,666.185348
5566.192314,2960.823768,-9116.536426,-1554.432478
5566.192638,-814.226536,-9882.631924,0.000000
5566.192963,0.000000,-8120.612279,-370.102971
5566.193287,-962.267725,-7890.783629,-740.205942
5566.193611,-1406.391290,-8810.098227,740.205942
5566.193936,518.144159,-8273.831378,666.185348
5566.194260,370.102971,-7354.516781,-592.164754
5566.194584,2368.659014,-9269.755526,74.020594
5566.194909,1036.288319,-7967.393179,-370.102971
5566.195233,1332.370696,-7660.954980,-888.247130
5566.195557,1554.432478,-8350.440928,518.144159
5566.195882,0.000000,-7890.783629,148.041188
5566.196206,1554.432478,-9039.926876,444.123565
5566.196531,148.041188,-8427.050478,222.061783
5566.196855,-518.144159,-8503.660028,962.267725
5566.197179,-740.205942,-7660.954980,-666.185348
5566.197504,0.000000,-9499.584175,-740.205942
5566.197828,0.000000,-8044.002729,-444.123565
5566.198152,-444.123565,-8656.879127,-370.102971
5566.198477,-1998.556043,-9193.145976,370.102971
5566.198801,-296.082377,-8120.612279,-222.061783
5566.199125,1924.535449,-8656.879127,148.041188
5566.199450,2146.597232,-7814.174080,-370.102971
5566.199774,2886.803174,-9269.755526,-666.185348
5566.200098,3034.844362,-7890.783629,-814.226536
5566.200423,1036.288319,-7737.564530,0.000000
5566.200747,666.185348,-9269.755526,-222.061783
5566.201071,-1628.453072,-7967.393179,-592.164754
5566.201396,444.123565,-9269.755526,444.123565
5566.201720,962.267725,-8350.440928,-296.082377
5566.202044,-296.082377,-7890.783629,-296.082377
5566.202369,-1258.350101,-8427.050478,-518.144159
5566.202693,-814.226536,-8810.098227,-1258.350101
5566.203018,74.020594,-9499.584175,-1258.350101
5566.203342,518.144159,-9193.145976,-518.144159
5566.203666,370.102971,-8044.002729,148.041188
5566.203991,740.205942,-8197.221829,0.000000
5566.204315,2220.617826,-9576.193725,-1554.432478
5566.204639,1628.453072,-9346.365076,-1184.329507
5566.204964,0.000000,-8350.440928,-2664.741391
5566.205288,-888.247130,-9499.584175,518.144159
5566.205612,444.123565,-7890.783629,-1332.370696
5566.205937,0.000000,-9576.193725,370.102971
5566.206261,-814.226536,-8273.831378,-1554.432478
5566.206585,-148.041188,-8427.050478,518.144159
5566.206910,1998.556043,-8273.831378,-592.164754
5566.207234,1776.494261,-8733.488677,-148.041188
5566.207558,2294.638420,-8656.879127,-1406.391290
5566.207883,888.247130,-9422.974625,-814.226536
5566.208207,-814.226536,-9039.926876,-1110.308913
5566.208531,-1554.432478,-9039.926876,-444.123565
5566.208856,-962.267725,-9039.926876,0.000000
5566.209180,444.123565,-9039.926876,-148.041188
5566.209505,444.123565,-8733.488677,-592.164754
5566.209829,444.123565,-8120.612279,-740.205942
5566.210153,1406.391290,-7584.345430,296.082377
5566.210478,296.082377,-7814.174080,-370.102971
5566.210802,962.267725,-8886.707777,1110.308913
5566.211126,1258.350101,-8427.050478,-296.082377
5566.211451,1702.473667,-9729.412825,888.247130
5566.211775,0.000000,-7737.564530,-1406.391290
5566.212099,2590.720797,-9422.974625,296.082377
5566.212424,296.082377,-7890.783629,-1110.308913
5566.212748,-370.102971,-9576.193725,222.061783
5566.213072,-962.267725,-8886.707777,740.205942
5566.213397,-1776.494261,-8197.221829,444.123565
5566.213721,-296.082377,-8503.660028,74.020594
5566.214045,2294.638420,-7660.954980,370.102971
5566.214370,2368.659014,-8044.002729,592.164754
5566.214694,2220.617826,-8733.488677,74.020594
5566.215019,3034.844362,-8044.002729,-666.185348
5566.215343,1480.411884,-8197.221829,-296.082377
5566.215667,-888.247130,-7354.516781,0.000000
5566.215992,444.123565,-8810.098227,740.205942
5566.216316,814.226536,-7507.735880,-148.041188
5566.216640,1554.432478,-8580.269578,296.082377
5566.216965,740.205942,-7660.954980,0.000000
5566.217289,0.000000,-9193.145976,666.185348
5566.217613,-518.144159,-8350.440928,-740.205942
5566.217938,0.000000,-8733.488677,-222.061783
5566.218262,-1554.432478,-7737.564530,-296.082377
5566.218586,888.247130,-9806.022374,74.020594
5566.218911,-370.102971,-8120.612279,-592.164754
5566.219235,-1184.329507,-8810.098227,0.000000
5566.219559,1184.329507,-8580.269578,-518.144159
5566.219884,1110.308913,-7814.174080,-74.020594
5566.220208,2590.720797,-9422.974625,-444.123565
5566.220532,962.267725,-8350.440928,-1628.453072
5566.220857,1702.473667,-9806.022374,0.000000
5566.221181,-370.102971,-8503.660028,-1184.329507
5566.221506,814.226536,-9422.974625,74.020594
5566.221830,-1110.308913,-8733.488677,-1110.308913
5566.222154,148.041188,-8733.488677,0.000000
5566.222479,1110.308913,-9422.974625,-1406.391290
5566.222803,-1110.308913,-8197.221829,-1480.411884
5566.223127,74.020594,-9422.974625,74.020594
5566.223452,-1554.432478,-8197.221829,-1776.494261
5566.223776,1480.411884,-10725.336972,0.000000
5566.224100,1702.473667,-8350.440928,-592.164754
5566.224425,2220.617826,-9039.926876,-2220.617826
5566.224749,1554.432478,-8886.707777,-962.267725
5566.225073,1850.514855,-8427.050478,-1480.411884
5566.225398,1628.453072,-9346.365076,-1036.288319
5566.225722,-1702.473667,-7967.393179,-1036.288319
5566.226046,-222.061783,-10112.460574,666.185348
5566.226371,-1628.453072,-7354.516781,-592.164754
5566.226695,444.123565,-9882.631924,444.123565
5566.227020,1554.432478,-8350.440928,-666.185348
5566.227344,-222.061783,-8120.612279,-814.226536
5566.227668,1776.494261,-8656.879127,-1628.453072
5566.227993,-2294.638420,-7967.393179,-666.185348
5566.228317,-2368.659014,-9193.145976,-444.123565
5566.228641,-1628.453072,-8120.612279,0.000000
5566.228966,888.247130,-9346.365076,740.205942
5566.229290,1036.288319,-6894.859482,0.000000
5566.229614,3256.906145,-9346.365076,-222.061783
5566.229939,814.226536,-7354.516781,370.102971
5566.230263,3404.947333,-8044.002729,0.000000
5566.230587,2590.720797,-8273.831378,-1850.514855
5566.230912,814.226536,-7890.783629,370.102971
5566.231236,740.205942,-9039.926876,0.000000
5566.231560,148.041188,-7814.174080,1480.411884
5566.231885,0.000000,-7354.516781,0.000000
5566.232209,-296.082377,-8197.221829,296.082377
5566.232533,814.226536,-8044.002729,0.000000
5566.232858,0.000000,-7967.393179,-1628.453072
5566.233182,0.000000,-8733.488677,0.000000
5566.233506,0.000000,-8580.269578,74.020594
5566.233831,518.144159,-9039.926876,518.144159
5566.234155,1110.308913,-8810.098227,148.041188
5566.234479,1628.453072,-8733.488677,0.000000
5566.234804,2738.761985,-8656.879127,-296.082377
5566.235128,2146.597232,-8350.440928,0.000000
5566.235452,518.144159,-8197.221829,-592.164754
5566.235777,962.267725,-7277.907231,296.082377
5566.236101,-1258.350101,-8963.317327,888.247130
5566.236425,-1998.556043,-9193.145976,296.082377
5566.236750,0.000000,-8350.440928,0.000000
5566.237074,0.000000,-8733.488677,74.020594
5566.237398,592.164754,-8963.317327,0.000000
5566.237723,814.226536,-7890.783629,-2072.576638
5566.238047,-444.123565,-9422.974625,-74.020594
5566.238371,-518.144159,-8427.050478,0.000000
5566.238696,-1184.329507,-9269.755526,-666.185348
5566.239020,0.000000,-9039.926876,296.082377
5566.239344,1702.473667,-7814.174080,-370.102971
5566.239669,1110.308913,-8810.098227,-1406.391290
5566.239993,222.061783,-8963.317327,-148.041188
5566.240317,370.102971,-9346.365076,-1406.391290
5566.240642,-592.164754,-8733.488677,-1184.329507
5566.240966,2220.617826,-8810.098227,592.164754
5566.241290,2072.576638,-10035.851024,74.020594
5566.241615,1480.411884,-7201.297681,-1110.308913
5566.241939,1110.308913,-9193.145976,0.000000
5566.242263,1184.329507,-8733.488677,-1258.350101
5566.242587,-444.123565,-8044.002729,-962.267725
5566.242912,-1258.350101,-9039.926876,-1036.288319
5566.243236,888.247130,-8656.879127,0.000000
5566.243560,-2072.576638,-8963.317327,-1850.514855
5566.243885,0.000000,-9959.241474,0.000000
5566.244209,-370.102971,-8120.612279,370.102971
5566.244533,0.000000,-9039.926876,-518.144159
5566.244858,1480.411884,-8427.050478,-518.144159
5566.245182,2146.597232,-7354.516781,-148.041188
5566.245506,2590.720797,-9422.974625,-740.205942
5566.245831,1110.308913,-7507.735880,-1110.308913
5566.246155,1258.350101,-9269.755526,518.144159
5566.246479,148.041188,-7890.783629,0.000000
5566.246804,1110.308913,-9499.584175,0.000000
5566.247128,518.144159,-8350.440928,-370.102971
5566.247452,-444.123565,-8656.879127,148.041188
5566.247777,-962.267725,-8503.660028,-962.267725
5566.248101,-1850.514855,-8120.612279,-1332.370696
5566.248425,0.000000,-10112.460574,0.000000
5566.248750,0.000000,-8273.831378,0.000000
5566.249074,0.000000,-8963.317327,370.102971
5566.249398,888.247130,-7890.783629,592.164754
5566.249723,1998.556043,-8427.050478,0.000000
5566.250047,2294.638420,-8273.831378,-296.082377
5566.250371,1406.391290,-7890.783629,0.000000
5566.250696,1998.556043,-8120.612279,518.144159
5566.251020,814.226536,-8044.002729,74.020594
5566.251344,222.061783,-9576.193725,-148.041188
5566.251669,-962.267725,-7814.174080,-1036.288319
5566.251993,-1258.350101,-8963.317327,740.205942
5566.252317,222.061783,-6435.202183,0.000000
5566.252642,1258.350101,-9039.926876,74.020594
5566.252966,74.020594,-7584.345430,-1184.329507
5566.253290,-222.061783,-8733.488677,814.226536
5566.253614,-592.164754,-7660.954980,-740.205942
5566.253939,0.000000,-10112.460574,222.061783
5566.254263,518.144159,-7814.174080,-370.102971
5566.254587,2294.638420,-9576.193725,592.164754
5566.254912,2368.659014,-7354.516781,-1110.308913
5566.255236,1702.473667,-8503.660028,-962.267725
5566.255560,1332.370696,-7814.174080,-888.247130
5566.255885,0.000000,-8427.050478,74.020594
5566.256209,74.020594,-8810.098227,-962.267725
5566.256533,74.020594,-9346.365076,-518.144159
5566.256858,296.082377,-8886.707777,666.185348
5566.257182,-370.102971,-8733.488677,0.000000
5566.257506,-962.267725,-8427.050478,-888.247130
5566.257831,0.000000,-8886.707777,-1036.288319
5566.258155,1406.391290,-9039.926876,-1036.288319
5566.258479,-814.226536,-8503.660028,-1628.453072
5566.258804,-1258.350101,-9193.145976,888.247130
5566.259128,962.267725,-7967.393179,-222.061783
5566.259452,1480.411884,-8120.612279,444.123565
5566.259777,2442.679609,-10418.898773,-666.185348
5566.260101,888.247130,-9269.755526,-740.205942
5566.260425,962.267725,-9116.536426,-1110.308913
5566.260750,-666.185348,-8197.221829,-1406.391290
5566.261074,-518.144159,-9499.584175,-444.123565
5566.261398,148.041188,-9499.584175,-666.185348
5566.261723,-2220.617826,-8503.660028,0.000000
5566.262047,222.061783,-9116.536426,0.000000
5566.262371,888.247130,-8503.660028,-148.041188
5566.262696,1036.288319,-9039.926876,-962.267725
5566.263020,222.061783,-8656.879127,-962.267725
5566.263344,-296.082377,-9116.536426,-888.247130
5566.263669,-666.185348,-8963.317327,0.000000
5566.263993,1554.432478,-8886.707777,-592.164754
5566.264317,1406.391290,-8580.269578,222.061783
5566.264642,0.000000,-9116.536426,0.000000
5566.264966,1184.329507,-8197.221829,518.144159
5566.265290,1036.288319,-8810.098227,-666.185348
5566.265614,1258.350101,-8810.098227,-1184.329507
5566.265939,1702.473667,-7967.393179,-296.082377
5566.266263,74.020594,-7431.126331,-296.082377
5566.266587,1406.391290,-8656.879127,0.000000
5566.266912,74.020594,-7507.735880,-296.082377
5566.267236,518.144159,-9422.974625,370.102971
5566.267560,444.123565,-7890.783629,-814.226536
5566.267885,-296.082377,-9422.974625,0.000000
5566.268209,0.000000,-7814.174080,-148.041188
5566.268533,-740.205942,-8273.831378,0.000000
5566.268858,-1406.391290,-9346.365076,444.123565
5566.269182,-962.267725,-7354.516781,-148.041188
5566.269506,148.041188,-9039.926876,222.061783
5566.269831,0.000000,-7354.516781,-222.061783
5566.270155,2220.617826,-8733.488677,740.205942
5566.270479,2368.659014,-7584.345430,-888.247130
5566.270804,2738.761985,-7814.174080,0.000000
5566.271128,2886.803174,-8350.440928,74.020594
5566.271452,1036.288319,-8733.488677,0.000000
5566.271777,888.247130,-9193.145976,888.247130
5566.272101,-296.082377,-8273.831378,0.000000
5566.272425,148.041188,-9039.926876,222.061783
5566.272750,-3627.009116,-8580.269578,-1628.453072
5566.273074,1406.391290,-8580.269578,-888.247130
5566.273398,-1110.308913,-8044.002729,-1258.350101
5566.273723,-962.267725,-9729.412825,1628.453072
5566.274047,0.000000,-6435.202183,-3108.864956
5566.274371,-2220.617826,-11261.603821,148.041188
5566.274696,2220.617826,-7354.516781,0.000000
5566.275020,2664.741391,-9499.584175,-962.267725
5566.275344,2294.638420,-8886.707777,-1184.329507
5566.275669,2220.617826,-9039.926876,-518.144159
5566.275993,148.041188,-8120.612279,-1332.370696
5566.276317,0.000000,-9959.241474,0.000000
5566.276642,814.226536,-8427.050478,-740.205942
5566.276966,-222.061783,-8503.660028,666.185348
5566.277290,1110.308913,-8427.050478,-518.144159
5566.277614,-962.267725,-8273.831378,-1036.288319
5566.277939,666.185348,-9422.974625,-814.226536
5566.278263,-1554.432478,-7967.393179,-1480.411884
5566.278587,-1332.370696,-9499.584175,-518.144159
5566.278912,-1184.329507,-8273.831378,-1702.473667
5566.279236,0.000000,-9882.631924,222.061783
5566.279560,1184.329507,-8886.707777,-666.185348
5566.279885,2812.782580,-9269.755526,-592.164754
5566.280209,2220.617826,-8886.707777,-518.144159
5566.280533,1776.494261,-8733.488677,-1110.308913
5566.280858,888.247130,-9193.145976,-1628.453072
5566.281182,1332.370696,-8350.440928,-518.144159
5566.281506,148.041188,-8427.050478,-1406.391290
5566.281831,-666.185348,-8963.317327,148.041188
5566.282155,-666.185348,-7967.393179,-148.041188
5566.282479,-962.267725,-8503.660028,0.000000
5566.282804,-1036.288319,-9193.145976,0.000000
5566.283128,-296.082377,-8656.879127,-1036.288319
5566.283452,222.061783,-9652.803275,0.000000
5566.283777,-740.205942,-8350.440928,-1184.329507
5566.284101,740.205942,-9193.145976,370.102971
5566.284425,0.000000,-7354.516781,1258.350101
5566.284750,3256.906145,-8350.440928,-592.164754
5566.285074,740.205942,-9652.803275,-1332.370696
5566.285398,2960.823768,-9193.145976,0.000000
5566.285723,1258.350101,-9193.145976,-296.082377
5566.286047,-1406.391290,-7814.174080,-370.102971
5566.286371,1184.329507,-8120.612279,-888.247130
5566.286696,-1702.473667,-9193.145976,740.205942
5566.287020,-740.205942,-7431.126331,-296.082377
5566.287344,-2368.659014,-8503.660028,962.267725
5566.287669,-1036.288319,-7660.954980,74.020594
5566.287993,0.000000,-8963.317327,0.000000
5566.288317,1554.432478,-8580.269578,-370.102971
5566.288641,592.164754,-8810.098227,0.000000
5566.288966,740.205942,-8197.221829,-740.205942
5566.289290,148.041188,-9499.584175,370.102971
5566.289614,222.061783,-7890.783629,296.082377
5566.289939,2886.803174,-9346.365076,1110.308913
5566.290263,1258.350101,-7890.783629,148.041188
5566.290587,888.247130,-8273.831378,0.000000
5566.290912,666.185348,-7814.174080,-592.164754
5566.291236,1036.288319,-8503.660028,0.000000
5566.291560,-444.123565,-7814.174080,-740.205942
5566.291885,-370.102971,-8044.002729,148.041188
5566.292209,0.000000,-7354.516781,814.226536
5566.292533,814.226536,-8580.269578,370.102971
5566.292858,1406.391290,-7967.393179,-518.144159
5566.293182,1480.411884,-9346.365076,-1184.329507
5566.293506,962.267725,-8810.098227,-814.226536
5566.293831,296.082377,-9652.803275,-962.267725
5566.294155,0.000000,-8963.317327,-222.061783
5566.294479,518.144159,-8580.269578,296.082377
5566.294804,-370.102971,-8656.879127,0.000000
5566.295128,1110.308913,-8886.707777,-666.185348
5566.295452,740.205942,-8350.440928,-1554.432478
5566.295777,666.185348,-8733.488677,-962.267725
5566.296101,444.123565,-7584.345430,-962.267725
5566.296425,0.000000,-9576.193725,-148.041188
5566.296750,962.267725,-8810.098227,-444.123565
5566.297074,740.205942,-8580.269578,-1036.288319
5566.297398,1332.370696,-8733.488677,-148.041188
5566.297723,518.144159,-8427.050478,-296.082377
5566.298047,-370.102971,-9422.974625,-962.267725
5566.298371,0.000000,-8427.050478,-1924.535449
5566.298696,0.000000,-9652.803275,-222.061783
5566.299020,-666.185348,-8733.488677,-962.267725
5566.299344,-148.041188,-9193.145976,0.000000
5566.299669,1184.329507,-8350.440928,0.000000
5566.299993,888.247130,-9116.536426,-518.144159
5566.300317,2368.659014,-8733.488677,-592.164754
5566.300641,2220.617826,-9806.022374,-296.082377
5566.300966,962.267725,-7660.954980,-1258.350101
5566.301290,1480.411884,-9116.536426,-592.164754
5566.301614,-666.185348,-8427.050478,-666.185348
5566.301939,-518.144159,-9729.412825,0.000000
5566.302263,222.061783,-8273.831378,-592.164754
5566.302587,0.000000,-9116.536426,74.020594
5566.302912,296.082377,-8427.050478,-666.185348
5566.303236,518.144159,-8580.269578,-888.247130
5566.303560,-740.205942,-8656.879127,-592.164754
5566.303885,-296.082377,-8810.098227,-296.082377
5566.304209,666.185348,-8580.269578,-518.144159
5566.304533,1554.432478,-8120.612279,592.164754
5566.304858,1110.308913,-8810.098227,0.000000
5566.305182,1628.453072,-8197.221829,-222.061783
5566.305506,0.000000,-8963.317327,222.061783
5566.305831,0.000000,-8580.269578,-518.144159
5566.306155,-592.164754,-7967.393179,0.000000
5566.306479,0.000000,-8886.707777,370.102971
5566.306804,-1110.308913,-8273.831378,0.000000
5566.307128,-1184.329507,-8197.221829,0.000000
5566.307452,-740.205942,-8427.050478,296.082377
5566.307777,1628.453072,-8580.269578,0.000000
5566.308101,2442.679609,-8197.221829,-148.041188
5566.308425,1480.411884,-8427.050478,-1258.350101
5566.308750,1184.329507,-7890.783629,-444.123565
5566.309074,222.061783,-9193.145976,222.061783
5566.309398,444.123565,-8580.269578,444.123565
5566.309723,370.102971,-8120.612279,1036.288319
5566.310047,1036.288319,-7814.174080,-296.082377
5566.310371,962.267725,-9269.755526,740.205942
5566.310696,296.082377,-7048.078582,-1628.453072
5566.311020,740.205942,-9193.145976,222.061783
5566.311344,-592.164754,-7354.516781,-518.144159
5566.311669,888.247130,-9652.803275,1036.288319
5566.311993,444.123565,-8427.050478,-592.164754
5566.312317,1406.391290,-8886.707777,-296.082377
5566.312641,518.144159,-8120.612279,-962.267725
5566.312966,740.205942,-9269.755526,0.000000
5566.313290,296.082377,-8427.050478,-962.267725
5566.313614,-814.226536,-9039.926876,-1110.308913
5566.313939,-2072.576638,-9039.926876,0.000000
5566.314263,-2220.617826,-8733.488677,-592.164754
5566.314587,-148.041188,-8886.707777,296.082377
5566.314912,888.247130,-8197.221829,-222.061783
5566.315236,2738.761985,-8886.707777,-814.226536
5566.315560,1702.473667,-8120.612279,-444.123565
5566.315885,2220.617826,-8503.660028,-1258.350101
5566.316209,2442.679609,-9422.974625,-666.185348
5566.316533,1110.308913,-7660.954980,-1332.370696
5566.316858,888.247130,-10189.070123,-888.247130
5566.317182,-962.267725,-8044.002729,-1332.370696
5566.317506,-1332.370696,-9499.584175,370.102971
5566.317831,-444.123565,-8120.612279,-1036.288319
5566.318155,0.000000,-9422.974625,370.102971
5566.318479,-592.164754,-7660.954980,-1702.473667
5566.318804,-296.082377,-8963.317327,-592.164754
5566.319128,370.102971,-8044.002729,-1628.453072
5566.319452,888.247130,-9193.145976,0.000000
5566.319777,1480.411884,-8810.098227,-444.123565
5566.320101,2072.576638,-9116.536426,-518.144159
5566.320425,1480.411884,-9806.022374,-740.205942
5566.320750,1554.432478,-8886.707777,-592.164754
5566.321074,222.061783,-8273.831378,-2146.597232
5566.321398,814.226536,-10342.289223,-666.185348
5566.321723,-1036.288319,-8350.440928,-814.226536
5566.322047,-962.267725,-8886.707777,740.205942
5566.322371,-814.226536,-7354.516781,518.144159
5566.322696,370.102971,-8350.440928,814.226536
5566.323020,444.123565,-8580.269578,-148.041188
5566.323344,740.205942,-8427.050478,518.144159
5566.323669,666.185348,-8197.221829,-444.123565
5566.323993,814.226536,-9193.145976,-666.185348
5566.324317,-740.205942,-9269.755526,-666.185348
5566.324641,1036.288319,-9499.584175,444.123565
5566.324966,-370.102971,-8120.612279,0.000000
5566.325290,814.226536,-9346.365076,148.041188
5566.325614,0.000000,-8503.660028,-518.144159
5566.325939,0.000000,-8273.831378,-666.185348
5566.326263,666.185348,-8427.050478,222.061783
5566.326587,1998.556043,-7354.516781,0.000000
5566.326912,222.061783,-8886.707777,740.205942
5566.327236,-518.144159,-7660.954980,-666.185348
5566.327560,0.000000,-8656.879127,1036.288319
5566.327885,740.205942,-7124.688131,0.000000
5566.328209,1998.556043,-8886.707777,888.247130
5566.328533,2072.576638,-8427.050478,-1184.329507
5566.328858,74.020594,-9193.145976,-518.144159
5566.329182,-2146.597232,-8580.269578,-814.226536
5566.329506,0.000000,-8580.269578,592.164754
5566.329831,1036.288319,-7967.393179,148.041188
5566.330155,-148.041188,-7201.297681,962.267725
5566.330479,962.267725,-7890.783629,592.164754
5566.330804,444.123565,-8273.831378,74.020594
5566.331128,2072.576638,-7354.516781,-1554.432478
5566.331452,222.061783,-8963.317327,-370.102971
5566.331777,518.144159,-8810.098227,592.164754
5566.332101,2220.617826,-8580.269578,-444.123565
5566.332425,148.041188,-8503.660028,-1184.329507
5566.332750,740.205942,-9652.803275,-592.164754
5566.333074,1406.391290,-7890.783629,-518.144159
5566.333398,-888.247130,-9499.584175,-740.205942
5566.333722,-518.144159,-8963.317327,-962.267725
5566.334047,962.267725,-8963.317327,-814.226536
5566.334371,-1702.473667,-9806.022374,-222.061783
5566.334695,-1554.432478,-7277.907231,-370.102971
5566.335020,1332.370696,-10112.460574,814.226536
5566.335344,296.082377,-7584.345430,-1110.308913
5566.335668,1998.556043,-9269.755526,518.144159
5566.335993,2220.617826,-8427.050478,-1258.350101
5566.336317,1258.350101,-8427.050478,-518.144159
5566.336641,2812.782580,-8503.660028,-1480.411884
5566.336966,888.247130,-9269.755526,-222.061783
5566.337290,222.061783,-9499.584175,0.000000
5566.337614,-592.164754,-8580.269578,0.000000
5566.337938,0.000000,-9116.536426,-296.082377
5566.338263,-1332.370696,-8273.831378,-1332.370696
5566.338587,-1036.288319,-8810.098227,-814.226536
5566.338911,-1184.329507,-8656.879127,-148.041188
5566.339236,296.082377,-8120.612279,0.000000
5566.339560,888.247130,-8656.879127,-518.144159
5566.339884,1554.432478,-8427.050478,444.123565
5566.340209,740.205942,-8656.879127,-962.267725
5566.340533,1184.329507,-9116.536426,-962.267725
5566.340857,1036.288319,-8733.488677,-814.226536
5566.341181,962.267725,-8580.269578,-1110.308913
5566.341506,0.000000,-8886.707777,-518.144159
5566.341830,-666.185348,-7967.393179,296.082377
5566.342154,0.000000,-8580.269578,518.144159
5566.342479,-444.123565,-7507.735880,592.164754
5566.342803,-222.061783,-9193.145976,0.000000
5566.343127,1628.453072,-7431.126331,-518.144159
5566.343452,1924.535449,-8273.831378,0.000000
5566.343776,1776.494261,-8350.440928,-1332.370696
5566.344100,296.082377,-8580.269578,0.000000
5566.344424,296.082377,-8810.098227,-518.144159
5566.344749,-518.144159,-9193.145976,592.164754
5566.345073,0.000000,-8044.002729,0.000000
5566.345397,1924.535449,-8733.488677,518.144159
5566.345722,1036.288319,-8120.612279,148.041188
5566.346046,592.164754,-7201.297681,888.247130
5566.346370,518.144159,-7660.954980,-444.123565
5566.346695,222.061783,-8427.050478,0.000000
5566.347019,-222.061783,-8503.660028,74.020594
5566.347343,-148.041188,-8656.879127,444.123565
5566.347668,518.144159,-7967.393179,148.041188
5566.347992,2442.679609,-8656.879127,0.000000
5566.348316,1776.494261,-8273.831378,-370.102971
5566.348640,740.205942,-8503.660028,-592.164754
5566.348965,0.000000,-9346.365076,0.000000
5566.349289,-666.185348,-8350.440928,-962.267725
5566.349613,-592.164754,-8963.317327,0.000000
5566.349938,0.000000,-8273.831378,296.082377
5566.350262,666.185348,-8427.050478,296.082377
5566.350586,518.144159,-8963.317327,-444.123565
5566.350911,1110.308913,-8427.050478,-888.247130
5566.351235,1184.329507,-7584.345430,-518.144159
5566.351559,1628.453072,-8656.879127,-222.061783
5566.351883,888.247130,-8886.707777,222.061783
5566.352208,0.000000,-8503.660028,-888.247130
5566.352532,1332.370696,-9193.145976,296.082377
5566.352856,444.123565,-7967.393179,-370.102971
5566.353181,296.082377,-9499.584175,-518.144159
5566.353505,0.000000,-8350.440928,-1850.514855
5566.353829,-444.123565,-8963.317327,-1184.329507
5566.354154,-962.267725,-8733.488677,-888.247130
5566.354478,-666.185348,-8503.660028,-444.123565
5566.354802,-444.123565,-9346.365076,-444.123565
5566.355127,0.000000,-8350.440928,148.041188
5566.355451,1998.556043,-9116.536426,222.061783
5566.355775,2294.638420,-8886.707777,-1406.391290
5566.356099,1554.432478,-8810.098227,-370.102971
5566.356424,2516.700203,-8427.050478,-962.267725
5566.356748,592.164754,-8350.440928,-592.164754
5566.357072,296.082377,-8963.317327,-592.164754
5566.357397,222.061783,-8197.221829,148.041188
5566.357721,444.123565,-8427.050478,222.061783
5566.358045,1702.473667,-8044.002729,-740.205942
5566.358370,222.061783,-9116.536426,296.082377
5566.358694,814.226536,-7354.516781,-1480.411884
5566.359018,-1406.391290,-9269.755526,-592.164754
5566.359342,296.082377,-9346.365076,-444.123565
5566.359667,0.000000,-9193.145976,-814.226536
5566.359991,296.082377,-8044.002729,222.061783
5566.360315,1184.329507,-8044.002729,1036.288319
5566.360640,444.123565,-9346.365076,-370.102971
5566.360964,1554.432478,-7967.393179,-296.082377
5566.361288,2886.803174,-8427.050478,-444.123565
5566.361613,1258.350101,-7890.783629,-370.102971
5566.361937,1184.329507,-8427.050478,-444.123565
5566.362261,1258.350101,-8733.488677,296.082377
5566.362586,222.061783,-8503.660028,148.041188
5566.362910,-592.164754,-8963.317327,666.185348
5566.363234,-296.082377,-8427.050478,0.000000
5566.363558,-592.164754,-8810.098227,-740.205942
5566.363883,-814.226536,-9193.145976,-740.205942
5566.364207,0.000000,-8273.831378,0.000000
5566.364531,0.000000,-8733.488677,-222.061783
5566.364856,-666.185348,-8350.440928,-444.123565
5566.365180,666.185348,-8580.269578,148.041188
5566.365504,370.102971,-8350.440928,148.041188
5566.365829,1628.453072,-8963.317327,148.041188
5566.366153,3923.091493,-8197.221829,-148.041188
5566.366477,-3182.885551,-8427.050478,-1554.432478
5566.366801,222.061783,-7431.126331,518.144159
5566.367126,-592.164754,-9039.926876,1110.308913
5566.367450,444.123565,-8503.660028,-1406.391290
5566.367774,1702.473667,-8886.707777,1332.370696
5566.368099,2590.720797,-8733.488677,-814.226536
5566.368423,-2368.659014,-8733.488677,-962.267725
5566.368747,1850.514855,-8503.660028,-1628.453072
5566.369072,0.000000,-9576.193725,740.205942
5566.369396,-666.185348,-7660.954980,-666.185348
5566.369720,-222.061783,-9882.631924,0.000000
5566.370044,-1406.391290,-7660.954980,148.041188
5566.370369,-592.164754,-7660.954980,-148.041188
5566.370693,1924.535449,-8810.098227,74.020594
5566.371017,1332.370696,-8810.098227,-148.041188
5566.371342,2590.720797,-7814.174080,74.020594
5566.371666,1628.453072,-8580.269578,-444.123565
5566.371990,296.082377,-9193.145976,-148.041188
