#time,accel_x,accel_y,accel_z
5521.684300,0.000000,-8273.831378,-518.144159
5521.684625,-370.102971,-8963.317327,-518.144159
5521.684949,-1110.308913,-9193.145976,-444.123565
5521.685273,-1332.370696,-9806.022374,0.000000
5521.685598,-1406.391290,-9806.022374,-296.082377
5521.685922,-1702.473667,-9806.022374,-592.164754
5521.686246,-814.226536,-9269.755526,-740.205942
5521.686571,-1184.329507,-8963.317327,0.000000
5521.686895,-444.123565,-8580.269578,-592.164754
5521.687220,888.247130,-8044.002729,-1110.308913
5521.687544,1406.391290,-8197.221829,-1332.370696
5521.687868,1036.288319,-8197.221829,-1480.411884
5521.688193,296.082377,-7967.393179,-1702.473667
5521.688517,-222.061783,-8580.269578,-1110.308913
5521.688841,-1554.432478,-8733.488677,-1702.473667
5521.689166,-2072.576638,-9499.584175,-1036.288319
5521.689490,-2368.659014,-8810.098227,-1258.350101
5521.689814,-2072.576638,-9499.584175,-740.205942
5521.690139,-1702.473667,-9039.926876,-1258.350101
5521.690463,-740.205942,-8886.707777,-666.185348
5521.690787,370.102971,-8656.879127,-1110.308913
5521.691112,444.123565,-8044.002729,-1110.308913
5521.691436,148.041188,-8044.002729,-962.267725
5521.691760,-518.144159,-8120.612279,-592.164754
5521.692085,-1110.308913,-8350.440928,-962.267725
5521.692409,-1850.514855,-9193.145976,0.000000
5521.692733,-2812.782580,-8810.098227,-148.041188
5521.693058,-3256.906145,-9422.974625,74.020594
5521.693382,-3330.926739,-9576.193725,-296.082377
5521.693706,-3404.947333,-9346.365076,370.102971
5521.694031,-2886.803174,-9039.926876,-296.082377
5521.694355,-2368.659014,-9499.584175,0.000000
5521.694679,-2294.638420,-8810.098227,0.000000
5521.695004,-2368.659014,-7967.393179,148.041188
5521.695328,-2590.720797,-8197.221829,-296.082377
5521.695652,-2960.823768,-8580.269578,148.041188
5521.695977,-3627.009116,-8580.269578,74.020594
5521.696301,-4071.132681,-8733.488677,370.102971
5521.696625,-4441.235652,-8427.050478,370.102971
5521.696950,-4219.173869,-8886.707777,370.102971
5521.697274,-4663.297435,-8580.269578,74.020594
5521.697598,-4071.132681,-9039.926876,222.061783
5521.697923,-3330.926739,-8197.221829,370.102971
5521.698247,-2886.803174,-8580.269578,666.185348
5521.698571,-2368.659014,-8427.050478,74.020594
5521.698896,-1924.535449,-8503.660028,370.102971
5521.699220,-1036.288319,-7660.954980,148.041188
5521.699544,-1480.411884,-7967.393179,370.102971
5521.699869,-1850.514855,-7967.393179,518.144159
5521.700193,-1998.556043,-8427.050478,592.164754
5521.700517,-1702.473667,-7967.393179,444.123565
5521.700842,-2146.597232,-8503.660028,222.061783
5521.701166,-1924.535449,-8733.488677,0.000000
5521.701490,-1850.514855,-9116.536426,0.000000
5521.701815,-1628.453072,-8350.440928,0.000000
5521.702139,-1258.350101,-8580.269578,148.041188
5521.702463,-592.164754,-8350.440928,148.041188
5521.702788,0.000000,-8120.612279,-222.061783
5521.703112,148.041188,-8273.831378,-370.102971
5521.703436,740.205942,-7584.345430,-222.061783
5521.703761,518.144159,-7584.345430,-222.061783
5521.704085,518.144159,-8427.050478,-814.226536
5521.704409,0.000000,-8273.831378,-740.205942
5521.704734,-888.247130,-8886.707777,-518.144159
5521.705058,-1110.308913,-8273.831378,-740.205942
5521.705383,-1924.535449,-8886.707777,-962.267725
5521.705707,-1776.494261,-8886.707777,-1332.370696
5521.706031,-1776.494261,-8733.488677,-814.226536
5521.706356,-1480.411884,-8503.660028,-1406.391290
5521.706680,-1258.350101,-8427.050478,-1036.288319
5521.707004,-296.082377,-8120.612279,-1110.308913
5521.707329,0.000000,-8427.050478,-1258.350101
5521.707653,740.205942,-7967.393179,-1480.411884
5521.707977,592.164754,-8044.002729,-1332.370696
5521.708302,888.247130,-8350.440928,-1184.329507
5521.708626,222.061783,-8580.269578,-1036.288319
5521.708950,-74.020594,-9269.755526,-1258.350101
5521.709275,-740.205942,-8503.660028,-1184.329507
5521.709599,-1184.329507,-9193.145976,-888.247130
5521.709923,-592.164754,-9039.926876,-1258.350101
5521.710248,-370.102971,-9576.193725,-888.247130
5521.710572,74.020594,-8810.098227,-888.247130
5521.710896,1406.391290,-8886.707777,-888.247130
5521.711221,1332.370696,-8733.488677,-1406.391290
5521.711545,1184.329507,-9193.145976,-1332.370696
5521.711869,1258.350101,-8810.098227,-1480.411884
5521.712194,-740.205942,-9039.926876,-962.267725
5521.712518,-2294.638420,-9269.755526,-1406.391290
5521.712842,-3775.050304,-9193.145976,-814.226536
5521.713167,-5625.565159,-9193.145976,-296.082377
5521.713491,-5847.626942,-8886.707777,-592.164754
5521.713815,-5477.523971,-8963.317327,-148.041188
5521.714140,-5181.441594,-8733.488677,-222.061783
5521.714464,-4293.194464,-7967.393179,0.000000
5521.714788,-3256.906145,-8350.440928,-592.164754
5521.715113,-2294.638420,-8580.269578,222.061783
5521.715437,-962.267725,-7584.345430,0.000000
5521.715761,-814.226536,-8503.660028,444.123565
5521.716086,-666.185348,-8120.612279,370.102971
5521.716410,-1554.432478,-8656.879127,518.144159
5521.716734,-1924.535449,-8656.879127,962.267725
5521.717059,-2220.617826,-9116.536426,518.144159
5521.717383,-3034.844362,-9346.365076,814.226536
5521.717707,-3849.070898,-9193.145976,-296.082377
5521.718032,-3627.009116,-8580.269578,666.185348
5521.718356,-4441.235652,-8427.050478,-222.061783
5521.718680,-3404.947333,-8120.612279,148.041188
5521.719005,-2146.597232,-8120.612279,148.041188
5521.719329,-1554.432478,-7201.297681,518.144159
5521.719653,-888.247130,-7890.783629,1258.350101
5521.719978,370.102971,-7277.907231,962.267725
5521.720302,1184.329507,-8503.660028,518.144159
5521.720626,1258.350101,-8580.269578,444.123565
5521.720951,592.164754,-8273.831378,962.267725
5521.721275,-740.205942,-8733.488677,518.144159
5521.721599,-2368.659014,-9039.926876,1036.288319
5521.721924,-2886.803174,-9576.193725,444.123565
5521.722248,-3404.947333,-9193.145976,0.000000
5521.722572,-3330.926739,-8580.269578,-222.061783
5521.722897,-4441.235652,-8197.221829,-1110.308913
5521.723221,-3701.029710,-8273.831378,0.000000
5521.723546,-3034.844362,-7354.516781,-296.082377
5521.723870,-1036.288319,-7967.393179,0.000000
5521.724194,666.185348,-7354.516781,0.000000
5521.724519,2812.782580,-8197.221829,0.000000
5521.724843,4811.338623,-9116.536426,0.000000
5521.725167,5921.647536,-8886.707777,-518.144159
5521.725492,5403.503377,-10265.679673,-592.164754
5521.725816,4367.215058,-9806.022374,-444.123565
5521.726140,3034.844362,-9729.412825,0.000000
5521.726465,1258.350101,-8886.707777,-592.164754
5521.726789,518.144159,-8580.269578,-370.102971
5521.727113,-1184.329507,-8656.879127,-1406.391290
5521.727438,-814.226536,-8733.488677,-1480.411884
5521.727762,-222.061783,-7660.954980,-1776.494261
5521.728086,1110.308913,-7660.954980,-1776.494261
5521.728411,2960.823768,-7660.954980,-1036.288319
5521.728735,4811.338623,-7660.954980,-2220.617826
5521.729059,6217.729913,-8886.707777,-1184.329507
5521.729384,5921.647536,-8963.317327,-1258.350101
5521.729708,5773.606348,-10112.460574,-1628.453072
5521.730032,5107.421000,-9959.241474,-962.267725
5521.730357,3478.967927,-10265.679673,-222.061783
5521.730681,296.082377,-10035.851024,-1036.288319
5521.731005,-1406.391290,-9652.803275,-666.185348
5521.731330,-1850.514855,-8963.317327,-814.226536
5521.731654,-4441.235652,-8503.660028,-1554.432478
5521.731978,-4293.194464,-7660.954980,-740.205942
5521.732303,-3552.988522,-7124.688131,-962.267725
5521.732627,296.082377,-7507.735880,-518.144159
5521.732951,-1332.370696,-7354.516781,-814.226536
5521.733276,4293.194464,-8350.440928,-222.061783
5521.733600,3478.967927,-7431.126331,222.061783
5521.733924,5107.421000,-9422.974625,-592.164754
5521.734249,6143.709319,-9959.241474,222.061783
5521.734573,3478.967927,-10342.289223,-148.041188
5521.734897,2368.659014,-10955.165621,370.102971
5521.735222,222.061783,-8273.831378,-740.205942
5521.735546,-2220.617826,-9959.241474,1258.350101
5521.735870,-4071.132681,-7737.564530,-962.267725
5521.736195,-5477.523971,-8120.612279,444.123565
5521.736519,-5255.462188,-6971.469032,-592.164754
5521.736843,-3256.906145,-6741.640382,-222.061783
5521.737168,-814.226536,-6971.469032,-222.061783
5521.737492,1036.288319,-7814.174080,222.061783
5521.737816,4441.235652,-7737.564530,518.144159
5521.738141,4737.318029,-8810.098227,518.144159
5521.738465,3997.112087,-10035.851024,1406.391290
5521.738789,2590.720797,-9652.803275,1406.391290
5521.739114,888.247130,-10265.679673,962.267725
5521.739438,-2368.659014,-10112.460574,370.102971
5521.739762,-4441.235652,-9422.974625,740.205942
5521.740087,-5847.626942,-9269.755526,1480.411884
5521.740411,-7846.182985,-7277.907231,222.061783
5521.740735,-7254.018232,-7354.516781,444.123565
5521.741060,-6587.832884,-7048.078582,222.061783
5521.741384,-4145.153275,-6971.469032,0.000000
5521.741709,-1184.329507,-7201.297681,-518.144159
5521.742033,1036.288319,-7584.345430,0.000000
5521.742357,3404.947333,-7354.516781,740.205942
5521.742682,4959.379811,-8273.831378,0.000000
5521.743006,5255.462188,-9806.022374,888.247130
5521.743330,5403.503377,-9499.584175,444.123565
5521.743655,4367.215058,-10648.727422,-148.041188
5521.743979,1924.535449,-9499.584175,-1628.453072
5521.744303,-444.123565,-9652.803275,-518.144159
5521.744628,-2664.741391,-8044.002729,-296.082377
5521.744952,-4367.215058,-8044.002729,-222.061783
5521.745276,-3256.906145,-7124.688131,-444.123565
5521.745601,-2516.700203,-7277.907231,-1480.411884
5521.745925,296.082377,-6511.811733,-1036.288319
5521.746249,2738.761985,-7814.174080,-1702.473667
5521.746574,5921.647536,-8197.221829,-962.267725
5521.746898,7254.018232,-8580.269578,-1332.370696
5521.747222,8808.450710,-9499.584175,-740.205942
5521.747547,7476.080014,-9346.365076,-666.185348
5521.747871,5773.606348,-10112.460574,-962.267725
5521.748195,3108.864956,-11338.213370,-666.185348
5521.748520,-814.226536,-10725.336972,-1480.411884
5521.748844,-2220.617826,-9806.022374,-444.123565
5521.749168,-4811.338623,-8350.440928,-814.226536
5521.749493,-5847.626942,-8886.707777,-1332.370696
5521.749817,-5255.462188,-8120.612279,-1036.288319
5521.750141,-3701.029710,-6665.030833,-1554.432478
5521.750466,-1332.370696,-7584.345430,-1480.411884
5521.750790,1850.514855,-7277.907231,-2368.659014
5521.751114,4885.359217,-8810.098227,-1480.411884
5521.751439,7105.977043,-8580.269578,-1036.288319
5521.751763,7772.162391,-9422.974625,-1036.288319
5521.752087,7254.018232,-10035.851024,-666.185348
5521.752412,4589.276840,-10265.679673,-888.247130
5521.752736,2220.617826,-10495.508323,-962.267725
5521.753060,0.000000,-9193.145976,-1702.473667
5521.753385,-2368.659014,-9499.584175,148.041188
5521.753709,-4737.318029,-7737.564530,-370.102971
5521.754033,-4737.318029,-7814.174080,-518.144159
5521.754358,-3923.091493,-6435.202183,-1480.411884
5521.754682,-1554.432478,-6665.030833,-518.144159
5521.755006,1036.288319,-7124.688131,-740.205942
5521.755331,3256.906145,-7814.174080,-666.185348
5521.755655,5699.585753,-8427.050478,0.000000
5521.755979,5921.647536,-8503.660028,0.000000
5521.756304,5773.606348,-10189.070123,370.102971
5521.756628,3256.906145,-9346.365076,0.000000
5521.756952,2072.576638,-10342.289223,1332.370696
5521.757277,-1554.432478,-9806.022374,74.020594
5521.757601,-3997.112087,-10265.679673,296.082377
5521.757925,-6809.894666,-8580.269578,592.164754
5521.758250,-7476.080014,-7890.783629,888.247130
5521.758574,-7994.224174,-8273.831378,962.267725
5521.758898,-6809.894666,-6741.640382,222.061783
5521.759223,-4515.256246,-6741.640382,1036.288319
5521.759547,-2220.617826,-6741.640382,222.061783
5521.759872,962.267725,-7967.393179,740.205942
5521.760196,3775.050304,-7354.516781,296.082377
5521.760520,5403.503377,-8427.050478,444.123565
5521.760845,4959.379811,-9269.755526,148.041188
5521.761169,3923.091493,-9652.803275,0.000000
5521.761493,2442.679609,-9729.412825,222.061783
5521.761818,0.000000,-8656.879127,-148.041188
5521.762142,-2516.700203,-9039.926876,518.144159
5521.762466,-4293.194464,-7890.783629,0.000000
5521.762791,-5995.668130,-8580.269578,74.020594
5521.763115,-5107.421000,-7277.907231,-518.144159
5521.763439,-2368.659014,-7124.688131,370.102971
5521.763763,-148.041188,-6665.030833,-592.164754
5521.764088,2072.576638,-7584.345430,0.000000
5521.764412,5699.585753,-7431.126331,-814.226536
5521.764736,7105.977043,-8427.050478,-1332.370696
5521.765060,7624.121203,-9116.536426,-296.082377
5521.765385,5847.626942,-10189.070123,-444.123565
5521.765709,3997.112087,-10418.898773,-888.247130
5521.766033,1480.411884,-9806.022374,148.041188
5521.766357,-888.247130,-9346.365076,-148.041188
5521.766682,-3997.112087,-9422.974625,-370.102971
5521.767006,-5107.421000,-9039.926876,-1036.288319
5521.767330,-6439.791695,-8503.660028,-370.102971
5521.767654,-5847.626942,-7507.735880,-1554.432478
5521.767979,-3182.885551,-7737.564530,-1332.370696
5521.768303,-1258.350101,-7507.735880,-1776.494261
5521.768627,1258.350101,-7890.783629,-962.267725
5521.768952,4959.379811,-8503.660028,-1998.556043
5521.769276,6957.935855,-9039.926876,-740.205942
5521.769600,8216.285956,-9116.536426,-962.267725
5521.769924,7846.182985,-10035.851024,-1184.329507
5521.770249,4811.338623,-10342.289223,-962.267725
5521.770573,3552.988522,-10265.679673,-1406.391290
5521.770897,222.061783,-9039.926876,-1998.556043
5521.771221,-2368.659014,-8810.098227,-814.226536
5521.771546,-3775.050304,-8120.612279,-1258.350101
5521.771870,-4737.318029,-8350.440928,-814.226536
5521.772194,-2812.782580,-7507.735880,-1776.494261
5521.772518,-814.226536,-7354.516781,-1332.370696
5521.772843,1184.329507,-7737.564530,-1406.391290
5521.773167,4441.235652,-8503.660028,-666.185348
5521.773491,6661.853478,-8350.440928,-1258.350101
5521.773815,7624.121203,-9499.584175,-888.247130
5521.774140,7105.977043,-9576.193725,-666.185348
5521.774464,5403.503377,-9806.022374,0.000000
5521.774788,2812.782580,-9806.022374,-592.164754
5521.775112,-814.226536,-9959.241474,-444.123565
5521.775437,-3701.029710,-8656.879127,0.000000
5521.775761,-5921.647536,-8963.317327,222.061783
5521.776085,-7772.162391,-8733.488677,-370.102971
5521.776409,-8142.265362,-8197.221829,74.020594
5521.776734,-7105.977043,-7660.954980,148.041188
5521.777058,-4737.318029,-7354.516781,888.247130
5521.777382,-1850.514855,-7048.078582,-666.185348
5521.777706,1776.494261,-8427.050478,444.123565
5521.778031,4737.318029,-7354.516781,592.164754
5521.778355,6217.729913,-8503.660028,74.020594
5521.778679,6661.853478,-9499.584175,444.123565
5521.779003,5477.523971,-9959.241474,148.041188
5521.779328,3256.906145,-9806.022374,0.000000
5521.779652,-518.144159,-9422.974625,592.164754
5521.779976,-3552.988522,-7890.783629,888.247130
5521.780300,-5699.585753,-8503.660028,148.041188
5521.780625,-6883.915261,-8350.440928,148.041188
5521.780949,-5995.668130,-7507.735880,-148.041188
5521.781273,-4515.256246,-7277.907231,370.102971
5521.781597,-1554.432478,-7124.688131,592.164754
5521.781922,1850.514855,-6894.859482,-296.082377
5521.782246,5403.503377,-8886.707777,814.226536
5521.782570,7994.224174,-8044.002729,-1036.288319
5521.782895,7846.182985,-9346.365076,1036.288319
5521.783219,6883.915261,-9193.145976,-148.041188
5521.783543,4071.132681,-10648.727422,0.000000
5521.783867,222.061783,-9729.412825,444.123565
5521.784192,-3256.906145,-8656.879127,666.185348
5521.784516,-5477.523971,-8656.879127,296.082377
5521.784840,-7328.038826,-8886.707777,-370.102971
5521.785164,-8438.347739,-9422.974625,148.041188
5521.785489,-7994.224174,-7354.516781,-962.267725
5521.785813,-4515.256246,-7967.393179,0.000000
5521.786137,-1924.535449,-7201.297681,-1554.432478
5521.786461,2220.617826,-8503.660028,-222.061783
5521.786786,4885.359217,-7967.393179,-518.144159
5521.787110,8216.285956,-8273.831378,0.000000
5521.787434,9474.636058,-8580.269578,148.041188
5521.787758,8438.347739,-9729.412825,-370.102971
5521.788083,6883.915261,-10955.165621,-1110.308913
5521.788407,3034.844362,-9959.241474,-1924.535449
5521.788731,-814.226536,-9882.631924,-296.082377
5521.789055,-4737.318029,-7737.564530,-1036.288319
5521.789380,-5329.482782,-8427.050478,-370.102971
5521.789704,-4441.235652,-7201.297681,-1332.370696
5521.790028,-2960.823768,-7431.126331,-1554.432478
5521.790352,-666.185348,-7507.735880,-1110.308913
5521.790677,1480.411884,-7354.516781,-1554.432478
5521.791001,5329.482782,-8427.050478,-1406.391290
5521.791325,7698.141797,-8963.317327,-222.061783
5521.791649,9104.533087,-9806.022374,-666.185348
5521.791974,8216.285956,-9729.412825,-1406.391290
5521.792298,6513.812290,-10878.556072,-1258.350101
5521.792622,2664.741391,-10035.851024,-1184.329507
5521.792946,-296.082377,-10418.898773,-814.226536
5521.793271,-3923.091493,-9269.755526,-962.267725
5521.793595,-6661.853478,-8963.317327,-222.061783
5521.793919,-7105.977043,-7967.393179,-370.102971
5521.794243,-7402.059420,-8120.612279,-592.164754
5521.794568,-6217.729913,-7354.516781,-1110.308913
5521.794892,-2516.700203,-7354.516781,-592.164754
5521.795216,-740.205942,-7967.393179,-962.267725
5521.795541,2664.741391,-8350.440928,0.000000
5521.795865,5625.565159,-8427.050478,-296.082377
5521.796189,6217.729913,-9039.926876,-296.082377
5521.796513,6957.935855,-9039.926876,296.082377
5521.796838,6143.709319,-9729.412825,-518.144159
5521.797162,2516.700203,-9882.631924,-962.267725
5521.797486,-296.082377,-9269.755526,-370.102971
5521.797810,-3775.050304,-8503.660028,222.061783
5521.798135,-5625.565159,-7967.393179,-592.164754
5521.798459,-4959.379811,-7967.393179,444.123565
5521.798783,-5255.462188,-6281.983084,-370.102971
5521.799107,-2664.741391,-7354.516781,666.185348
5521.799432,-1258.350101,-6511.811733,-370.102971
5521.799756,1628.453072,-8580.269578,74.020594
5521.800080,4219.173869,-7354.516781,74.020594
5521.800404,6365.771101,-8580.269578,296.082377
5521.800729,7328.038826,-9576.193725,74.020594
5521.801053,6587.832884,-9806.022374,666.185348
5521.801377,3923.091493,-10418.898773,74.020594
5521.801701,370.102971,-10342.289223,0.000000
5521.802026,-3256.906145,-9346.365076,148.041188
5521.802350,-4663.297435,-8580.269578,444.123565
5521.802674,-7402.059420,-8273.831378,740.205942
5521.802998,-7550.100608,-6741.640382,222.061783
5521.803323,-6291.750507,-7201.297681,296.082377
5521.803647,-5033.400406,-7048.078582,148.041188
5521.803971,-3627.009116,-7354.516781,0.000000
5521.804295,518.144159,-7354.516781,-444.123565
5521.804620,2960.823768,-8656.879127,962.267725
5521.804944,5921.647536,-8810.098227,0.000000
5521.805268,7772.162391,-8733.488677,444.123565
5521.805592,8364.327145,-9499.584175,-222.061783
5521.805917,5551.544565,-9882.631924,592.164754
5521.806241,2442.679609,-8733.488677,-1110.308913
5521.806565,222.061783,-9806.022374,74.020594
5521.806889,-3923.091493,-7890.783629,-962.267725
5521.807214,-5033.400406,-8120.612279,-296.082377
5521.807538,-5403.503377,-6741.640382,-444.123565
5521.807862,-4293.194464,-7584.345430,-740.205942
5521.808186,-1702.473667,-7890.783629,-666.185348
5521.808511,1480.411884,-7277.907231,-1184.329507
5521.808835,4145.153275,-8656.879127,-814.226536
5521.809159,6291.750507,-8656.879127,-222.061783
5521.809484,8586.388927,-9269.755526,-444.123565
5521.809808,8586.388927,-9882.631924,-518.144159
5521.810132,6143.709319,-10265.679673,-740.205942
5521.810456,3404.947333,-10801.946522,-962.267725
5521.810781,222.061783,-10189.070123,-222.061783
5521.811105,-3404.947333,-8963.317327,-814.226536
5521.811429,-5699.585753,-8733.488677,-518.144159
5521.811753,-7179.997637,-7737.564530,-962.267725
5521.812078,-6735.874072,-7737.564530,-444.123565
5521.812402,-4219.173869,-7201.297681,-370.102971
5521.812726,-2146.597232,-7277.907231,-962.267725
5521.813050,0.000000,-7814.174080,-888.247130
5521.813375,3478.967927,-8350.440928,-962.267725
5521.813699,6883.915261,-8886.707777,-740.205942
5521.814023,7624.121203,-9039.926876,-814.226536
5521.814347,7846.182985,-10035.851024,-814.226536
5521.814672,5033.400406,-9806.022374,-740.205942
5521.814996,1554.432478,-10035.851024,-592.164754
5521.815320,-814.226536,-9806.022374,-814.226536
5521.815644,-3034.844362,-9116.536426,-1036.288319
5521.815969,-5477.523971,-7890.783629,-444.123565
5521.816293,-4737.318029,-7967.393179,-296.082377
5521.816617,-3997.112087,-7048.078582,-444.123565
5521.816941,-2664.741391,-7354.516781,-370.102971
5521.817266,296.082377,-7201.297681,-222.061783
5521.817590,3034.844362,-7890.783629,0.000000
5521.817914,5033.400406,-7890.783629,74.020594
5521.818238,7105.977043,-8810.098227,592.164754
5521.818563,6809.894666,-9116.536426,222.061783
5521.818887,5773.606348,-10035.851024,0.000000
5521.819211,3182.885551,-10112.460574,74.020594
5521.819535,-592.164754,-9806.022374,1184.329507
5521.819860,-3627.009116,-9193.145976,0.000000
5521.820184,-5847.626942,-8580.269578,-370.102971
5521.820508,-7031.956449,-8197.221829,518.144159
5521.820832,-7624.121203,-7737.564530,74.020594
5521.821157,-6365.771101,-6971.469032,296.082377
5521.821481,-5033.400406,-6894.859482,740.205942
5521.821805,-1332.370696,-6971.469032,0.000000
5521.822129,740.205942,-7660.954980,0.000000
5521.822454,4071.132681,-8120.612279,0.000000
5521.822778,6809.894666,-8580.269578,0.000000
5521.823102,7550.100608,-9422.974625,444.123565
5521.823427,6069.688724,-10112.460574,-518.144159
5521.823751,3330.926739,-10265.679673,0.000000
5521.824075,518.144159,-9729.412825,74.020594
5521.824399,-2738.761985,-9039.926876,-222.061783
5521.824724,-4367.215058,-8427.050478,0.000000
5521.825048,-4811.338623,-8503.660028,-74.020594
5521.825372,-4367.215058,-6894.859482,-222.061783
5521.825696,-2294.638420,-6665.030833,-592.164754
5521.826021,-148.041188,-7507.735880,-222.061783
5521.826345,2220.617826,-7354.516781,222.061783
5521.826669,4885.359217,-8120.612279,0.000000
5521.826993,7698.141797,-8963.317327,-666.185348
5521.827318,7624.121203,-9729.412825,-518.144159
5521.827642,6883.915261,-10035.851024,-296.082377
5521.827966,3923.091493,-10725.336972,666.185348
5521.828290,1036.288319,-10112.460574,-592.164754
5521.828615,-1776.494261,-10418.898773,222.061783
5521.828939,-4145.153275,-8580.269578,-592.164754
5521.829263,-5403.503377,-8810.098227,-518.144159
5521.829587,-6143.709319,-7431.126331,-1184.329507
5521.829912,-4737.318029,-7354.516781,0.000000
5521.830236,-4515.256246,-6818.249932,-962.267725
5521.830560,-1554.432478,-7660.954980,-814.226536
5521.830884,962.267725,-8273.831378,-370.102971
5521.831209,3923.091493,-9116.536426,0.000000
5521.831533,6439.791695,-8656.879127,-296.082377
5521.831857,7105.977043,-9499.584175,-814.226536
5521.832181,6809.894666,-10648.727422,-370.102971
5521.832506,4737.318029,-10112.460574,-666.185348
5521.832830,2294.638420,-10112.460574,-888.247130
5521.833154,0.000000,-9193.145976,-740.205942
5521.833478,-2294.638420,-8580.269578,-592.164754
5521.833803,-4737.318029,-8044.002729,-1332.370696
5521.834127,-3997.112087,-7967.393179,-666.185348
5521.834451,-3627.009116,-6818.249932,-592.164754
5521.834775,-1776.494261,-7814.174080,-444.123565
5521.835100,962.267725,-7354.516781,-518.144159
5521.835424,2590.720797,-8273.831378,-222.061783
5521.835748,4663.297435,-8580.269578,-370.102971
5521.836073,6957.935855,-8733.488677,-370.102971
5521.836397,7254.018232,-9806.022374,-296.082377
5521.836721,5255.462188,-9422.974625,-666.185348
5521.837045,2738.761985,-9959.241474,-148.041188
5521.837370,-518.144159,-9806.022374,-222.061783
5521.837694,-2960.823768,-9576.193725,-296.082377
5521.838018,-4959.379811,-8427.050478,-222.061783
5521.838342,-6587.832884,-8580.269578,148.041188
5521.838667,-7846.182985,-7354.516781,-222.061783
5521.838991,-6883.915261,-7431.126331,0.000000
5521.839315,-5181.441594,-7354.516781,74.020594
5521.839639,-1702.473667,-7507.735880,-444.123565
5521.839964,1258.350101,-7890.783629,0.000000
5521.840288,4737.318029,-8350.440928,74.020594
5521.840612,6957.935855,-8810.098227,0.000000
5521.840936,8142.265362,-9346.365076,-148.041188
5521.841261,6735.874072,-8580.269578,-148.041188
5521.841585,4737.318029,-9806.022374,296.082377
5521.841909,2072.576638,-9346.365076,0.000000
5521.842233,-2664.741391,-9039.926876,148.041188
5521.842558,-5255.462188,-8273.831378,-370.102971
5521.842882,-6735.874072,-7660.954980,-148.041188
5521.843206,-6365.771101,-7660.954980,-370.102971
5521.843530,-3627.009116,-7584.345430,-740.205942
5521.843855,-1998.556043,-7660.954980,0.000000
5521.844179,1184.329507,-7890.783629,0.000000
5521.844503,3775.050304,-7814.174080,74.020594
5521.844827,7254.018232,-8427.050478,-296.082377
5521.845152,8438.347739,-8810.098227,0.000000
5521.845476,7994.224174,-9269.755526,-592.164754
5521.845800,5255.462188,-9882.631924,0.000000
5521.846124,1554.432478,-9499.584175,444.123565
5521.846449,-740.205942,-9729.412825,0.000000
5521.846773,-4737.318029,-9346.365076,-370.102971
5521.847097,-7476.080014,-8427.050478,-518.144159
5521.847421,-7476.080014,-8427.050478,0.000000
5521.847746,-6883.915261,-7354.516781,-1554.432478
5521.848070,-5255.462188,-8197.221829,-296.082377
5521.848394,-2368.659014,-7277.907231,-962.267725
5521.848718,666.185348,-7967.393179,-222.061783
5521.849043,4589.276840,-7967.393179,-296.082377
5521.849367,7402.059420,-9269.755526,-740.205942
5521.849691,8956.491898,-9193.145976,370.102971
5521.850016,8882.471304,-8733.488677,-1036.288319
5521.850340,7550.100608,-9806.022374,74.020594
5521.850664,3997.112087,-8963.317327,-296.082377
5521.850988,-148.041188,-9806.022374,-370.102971
5521.851313,-2368.659014,-8350.440928,-1406.391290
5521.851637,-5551.544565,-8656.879127,-296.082377
5521.851961,-6069.688724,-6435.202183,-1036.288319
5521.852285,-5107.421000,-7507.735880,-296.082377
5521.852610,-3701.029710,-7584.345430,-1258.350101
5521.852934,148.041188,-7967.393179,-1110.308913
5521.853258,1406.391290,-7814.174080,-1184.329507
5521.853582,5477.523971,-9193.145976,-370.102971
5521.853907,8882.471304,-8427.050478,-222.061783
5521.854231,8512.368333,-9806.022374,-888.247130
5521.854555,6587.832884,-10801.946522,0.000000
5521.854879,4145.153275,-9652.803275,-518.144159
5521.855204,1110.308913,-10265.679673,-444.123565
5521.855528,-2590.720797,-9576.193725,-814.226536
5521.855852,-5033.400406,-8197.221829,-444.123565
5521.856176,-7254.018232,-7124.688131,0.000000
5521.856501,-7846.182985,-7201.297681,222.061783
5521.856825,-6661.853478,-7277.907231,0.000000
5521.857149,-4219.173869,-7354.516781,-888.247130
5521.857473,-1332.370696,-8044.002729,-222.061783
5521.857798,2294.638420,-8427.050478,-740.205942
5521.858122,5033.400406,-8810.098227,-222.061783
5521.858446,8142.265362,-8733.488677,-296.082377
5521.858770,7698.141797,-9652.803275,296.082377
5521.859095,7550.100608,-10265.679673,-296.082377
5521.859419,4441.235652,-9806.022374,-444.123565
5521.859743,370.102971,-9652.803275,0.000000
5521.860067,-1850.514855,-8580.269578,-148.041188
5521.860392,-5033.400406,-7967.393179,-518.144159
5521.860716,-7105.977043,-7431.126331,148.041188
5521.861041,-6661.853478,-6894.859482,296.082377
5521.861365,-5329.482782,-7584.345430,-518.144159
5521.861690,-2590.720797,-7737.564530,-740.205942
5521.862014,74.020594,-8044.002729,0.000000
5521.862339,4219.173869,-8350.440928,296.082377
5521.862663,7105.977043,-8810.098227,0.000000
5521.862987,8290.306550,-9499.584175,74.020594
5521.863312,7105.977043,-10112.460574,74.020594
5521.863636,4737.318029,-10035.851024,74.020594
5521.863961,2072.576638,-9882.631924,0.000000
5521.864285,-740.205942,-9422.974625,962.267725
5521.864610,-3108.864956,-7890.783629,148.041188
5521.864934,-6143.709319,-7660.954980,-222.061783
5521.865259,-7624.121203,-7354.516781,-148.041188
5521.865583,-6883.915261,-6971.469032,-740.205942
5521.865908,-5255.462188,-7814.174080,-592.164754
5521.866232,-3404.947333,-7814.174080,-592.164754
5521.866557,666.185348,-8503.660028,-296.082377
5521.866881,2812.782580,-8886.707777,-296.082377
5521.867205,5773.606348,-9116.536426,-148.041188
5521.867530,7179.997637,-10112.460574,-370.102971
5521.867854,7476.080014,-10035.851024,-666.185348
5521.868179,5329.482782,-9652.803275,-444.123565
5521.868503,2368.659014,-9806.022374,-444.123565
5521.868828,-148.041188,-8580.269578,-444.123565
5521.869152,-4071.132681,-7890.783629,-666.185348
5521.869477,-5921.647536,-6971.469032,-740.205942
5521.869801,-5995.668130,-6588.421283,-222.061783
5521.870126,-3849.070898,-7048.078582,-888.247130
5521.870450,-1850.514855,-7354.516781,-518.144159
5521.870775,1258.350101,-7354.516781,-814.226536
5521.871099,4071.132681,-8810.098227,-148.041188
5521.871424,6291.750507,-8580.269578,-814.226536
5521.871748,8068.244768,-9959.241474,-888.247130
5521.872072,7105.977043,-9806.022374,-370.102971
5521.872397,5181.441594,-10112.460574,-888.247130
5521.872721,3552.988522,-10342.289223,-1036.288319
5521.873046,-296.082377,-10418.898773,0.000000
5521.873370,-2516.700203,-9346.365076,-222.061783
5521.873695,-5847.626942,-7584.345430,-370.102971
5521.874019,-6587.832884,-7584.345430,-1036.288319
5521.874344,-6735.874072,-7584.345430,74.020594
5521.874668,-5329.482782,-7584.345430,-518.144159
5521.874993,-2664.741391,-7737.564530,-296.082377
5521.875317,444.123565,-7201.297681,-666.185348
5521.875642,2664.741391,-8273.831378,-444.123565
5521.875966,6217.729913,-9116.536426,-888.247130
5521.876291,7179.997637,-9499.584175,-518.144159
5521.876615,7772.162391,-9576.193725,-592.164754
5521.876939,6291.750507,-10035.851024,-444.123565
5521.877264,3627.009116,-9269.755526,-666.185348
5521.877588,518.144159,-9882.631924,0.000000
5521.877913,-3108.864956,-8503.660028,-666.185348
5521.878237,-4367.215058,-8810.098227,0.000000
5521.878562,-5847.626942,-7277.907231,-370.102971
5521.878886,-6365.771101,-6894.859482,-592.164754
5521.879211,-4515.256246,-7201.297681,-444.123565
5521.879535,-1184.329507,-7354.516781,-444.123565
5521.879860,2294.638420,-7737.564530,-444.123565
5521.880184,5107.421000,-8733.488677,-962.267725
5521.880509,6957.935855,-10035.851024,-592.164754
5521.880833,7031.956449,-9269.755526,0.000000
5521.881157,6143.709319,-10418.898773,-370.102971
5521.881482,4663.297435,-10648.727422,0.000000
5521.881806,1628.453072,-9269.755526,0.000000
5521.882131,-1850.514855,-9729.412825,666.185348
5521.882455,-4515.256246,-8580.269578,0.000000
5521.882780,-6883.915261,-8503.660028,74.020594
5521.883104,-6809.894666,-7890.783629,0.000000
5521.883429,-6439.791695,-6511.811733,-222.061783
5521.883753,-4145.153275,-7431.126331,222.061783
5521.884078,-1850.514855,-6894.859482,-296.082377
5521.884402,1924.535449,-8197.221829,444.123565
5521.884727,4293.194464,-8273.831378,-222.061783
5521.885051,6661.853478,-9346.365076,0.000000
5521.885376,7920.203579,-9729.412825,-296.082377
5521.885700,6291.750507,-10265.679673,-370.102971
5521.886024,4293.194464,-9806.022374,-666.185348
5521.886349,666.185348,-9422.974625,148.041188
5521.886673,-2516.700203,-9346.365076,0.000000
5521.886998,-4293.194464,-8350.440928,-814.226536
5521.887322,-5699.585753,-8427.050478,296.082377
5521.887647,-6069.688724,-6665.030833,-370.102971
5521.887971,-3552.988522,-6818.249932,-148.041188
5521.888296,-1258.350101,-7048.078582,-444.123565
5521.888620,1776.494261,-7737.564530,0.000000
5521.888945,4589.276840,-8044.002729,0.000000
5521.889269,6439.791695,-8886.707777,-222.061783
5521.889594,8290.306550,-8963.317327,-518.144159
5521.889918,7846.182985,-9729.412825,-148.041188
5521.890243,5403.503377,-10265.679673,0.000000
5521.890567,3034.844362,-10265.679673,-666.185348
5521.890891,-592.164754,-9882.631924,0.000000
5521.891216,-4071.132681,-9039.926876,-148.041188
5521.891540,-6069.688724,-8044.002729,-370.102971
5521.891865,-7772.162391,-8273.831378,-518.144159
5521.892189,-7254.018232,-7048.078582,-444.123565
5521.892514,-5699.585753,-7584.345430,-148.041188
5521.892838,-2812.782580,-7048.078582,-1332.370696
5521.893163,740.205942,-7814.174080,0.000000
5521.893487,3997.112087,-8273.831378,-1628.453072
5521.893812,6883.915261,-8963.317327,-888.247130
5521.894136,8512.368333,-9269.755526,-518.144159
5521.894461,7624.121203,-8810.098227,-518.144159
5521.894785,5921.647536,-10648.727422,-444.123565
5521.895109,1776.494261,-9959.241474,-1480.411884
5521.895434,-444.123565,-9959.241474,-148.041188
5521.895758,-4737.318029,-7814.174080,-740.205942
5521.896083,-5921.647536,-8503.660028,-370.102971
5521.896407,-6069.688724,-7584.345430,-888.247130
5521.896732,-5773.606348,-6818.249932,-592.164754
5521.897056,-2664.741391,-7201.297681,-518.144159
5521.897381,814.226536,-7354.516781,-666.185348
5521.897705,3478.967927,-8044.002729,-296.082377
5521.898030,6069.688724,-7737.564530,-518.144159
5521.898354,9326.594869,-8733.488677,-518.144159
5521.898679,8216.285956,-9729.412825,-814.226536
5521.899003,7105.977043,-11031.775171,-148.041188
5521.899328,3182.885551,-9806.022374,-444.123565
5521.899652,-222.061783,-11031.775171,296.082377
5521.899976,-4145.153275,-8963.317327,-222.061783
5521.900301,-5699.585753,-8580.269578,-296.082377
5521.900625,-6587.832884,-8273.831378,74.020594
5521.900950,-7179.997637,-6741.640382,-814.226536
5521.901274,-6217.729913,-7431.126331,-370.102971
5521.901599,-4219.173869,-6894.859482,-296.082377
5521.901923,-888.247130,-7354.516781,222.061783
5521.902248,2368.659014,-7814.174080,-296.082377
5521.902572,5921.647536,-8197.221829,148.041188
5521.902897,7920.203579,-9346.365076,0.000000
5521.903221,7179.997637,-10189.070123,-666.185348
5521.903546,5699.585753,-10418.898773,-148.041188
5521.903870,3256.906145,-10265.679673,222.061783
5521.904195,-666.185348,-9346.365076,-296.082377
5521.904519,-3404.947333,-8120.612279,-740.205942
5521.904843,-4737.318029,-7967.393179,296.082377
5521.905168,-6069.688724,-7431.126331,0.000000
5521.905492,-4737.318029,-6818.249932,-592.164754
5521.905817,-3404.947333,-7277.907231,-370.102971
5521.906141,-888.247130,-7201.297681,592.164754
5521.906466,1998.556043,-7814.174080,-296.082377
5521.906790,5625.565159,-8580.269578,0.000000
5521.907115,7476.080014,-7814.174080,296.082377
5521.907439,8364.327145,-9576.193725,-370.102971
5521.907764,6513.812290,-10265.679673,-518.144159
5521.908088,4293.194464,-10342.289223,0.000000
5521.908413,1184.329507,-10418.898773,-74.020594
5521.908737,-2072.576638,-9576.193725,-740.205942
5521.909061,-3775.050304,-8886.707777,74.020594
5521.909386,-6069.688724,-7737.564530,-222.061783
5521.909710,-6957.935855,-7431.126331,74.020594
5521.910035,-6217.729913,-7124.688131,-518.144159
5521.910359,-5403.503377,-6971.469032,-962.267725
5521.910684,-1406.391290,-7660.954980,0.000000
5521.911008,296.082377,-7584.345430,-370.102971
5521.911333,5403.503377,-9269.755526,-148.041188
5521.911657,6513.812290,-8120.612279,-518.144159
5521.911982,7254.018232,-10955.165621,0.000000
5521.912306,5477.523971,-9806.022374,-1628.453072
5521.912631,4515.256246,-11108.384721,0.000000
5521.912955,1850.514855,-9576.193725,-888.247130
5521.913280,-444.123565,-9116.536426,-740.205942
5521.913604,-3478.967927,-8733.488677,-296.082377
5521.913928,-4589.276840,-7354.516781,-370.102971
5521.914253,-4219.173869,-6665.030833,222.061783
5521.914577,-3923.091493,-6741.640382,-962.267725
5521.914902,-370.102971,-7354.516781,592.164754
5521.915226,740.205942,-7048.078582,-518.144159
5521.915551,4737.318029,-8810.098227,444.123565
5521.915875,6957.935855,-7737.564530,-1036.288319
5521.916200,8512.368333,-10035.851024,-370.102971
5521.916524,6735.874072,-9959.241474,-740.205942
5521.916849,4959.379811,-11108.384721,-222.061783
5521.917173,2960.823768,-10112.460574,-296.082377
5521.917498,-962.267725,-9882.631924,-222.061783
5521.917822,-3849.070898,-9116.536426,-740.205942
5521.918147,-5107.421000,-8044.002729,0.000000
5521.918471,-6883.915261,-7660.954980,-888.247130
5521.918795,-7105.977043,-7814.174080,-518.144159
5521.919120,-6291.750507,-6971.469032,0.000000
5521.919444,-2886.803174,-7431.126331,-740.205942
5521.919769,518.144159,-7584.345430,-592.164754
5521.920093,2960.823768,-8350.440928,-296.082377
5521.920418,6217.729913,-9116.536426,-296.082377
5521.920742,7328.038826,-9039.926876,-518.144159
5521.921067,6661.853478,-9806.022374,-666.185348
5521.921391,5699.585753,-11184.994271,74.020594
5521.921716,3404.947333,-9882.631924,-592.164754
5521.922040,0.000000,-9346.365076,-740.205942
5521.922365,-2738.761985,-8273.831378,-222.061783
5521.922689,-6217.729913,-8273.831378,444.123565
5521.923013,-6883.915261,-7507.735880,-962.267725
5521.923338,-5847.626942,-7584.345430,0.000000
5521.923662,-3701.029710,-6741.640382,-666.185348
5521.923987,-2146.597232,-7967.393179,-444.123565
5521.924311,2072.576638,-7814.174080,-740.205942
5521.924636,4441.235652,-9193.145976,-592.164754
5521.924960,8142.265362,-8963.317327,-740.205942
5521.925285,7920.203579,-9422.974625,0.000000
5521.925609,6661.853478,-8350.440928,592.164754
5521.925934,4367.215058,-9652.803275,1184.329507
5521.926258,2664.741391,-9806.022374,-370.102971
5521.926583,-962.267725,-9882.631924,666.185348
5521.926907,-3923.091493,-8197.221829,-666.185348
5521.927232,-6809.894666,-8580.269578,74.020594
5521.927556,-7920.203579,-6818.249932,-518.144159
5521.927880,-7328.038826,-7507.735880,814.226536
5521.928205,-5773.606348,-6971.469032,-888.247130
5521.928529,-1628.453072,-7737.564530,-222.061783
5521.928854,740.205942,-8963.317327,-222.061783
5521.929178,5477.523971,-8427.050478,-444.123565
5521.929503,7550.100608,-8427.050478,296.082377
5521.929827,7772.162391,-9806.022374,0.000000
5521.930152,7254.018232,-9882.631924,0.000000
5521.930476,4293.194464,-9193.145976,-962.267725
5521.930801,2368.659014,-9806.022374,444.123565
5521.931125,-2072.576638,-7660.954980,-962.267725
5521.931450,-4515.256246,-8503.660028,-888.247130
5521.931774,-6439.791695,-7354.516781,-1036.288319
5521.932099,-6439.791695,-7660.954980,-370.102971
5521.932423,-4885.359217,-7660.954980,518.144159
5521.932747,-2516.700203,-6894.859482,-444.123565
5521.933072,1110.308913,-8120.612279,222.061783
5521.933396,5329.482782,-8350.440928,-1258.350101
5521.933721,8216.285956,-9422.974625,-1184.329507
5521.934045,10214.842000,-8427.050478,-222.061783
5521.934370,8512.368333,-9039.926876,0.000000
5521.934694,4811.338623,-10342.289223,-222.061783
5521.935019,2220.617826,-10035.851024,-592.164754
5521.935343,-962.267725,-9882.631924,444.123565
5521.935668,-3849.070898,-8427.050478,74.020594
5521.935992,-6513.812290,-8656.879127,-370.102971
5521.936317,-6809.894666,-8503.660028,-518.144159
5521.936641,-6069.688724,-7431.126331,0.000000
5521.936965,-4367.215058,-7124.688131,-962.267725
5521.937290,-1406.391290,-7660.954980,-962.267725
5521.937614,1998.556043,-7814.174080,0.000000
5521.937939,4219.173869,-8810.098227,-148.041188
5521.938263,7254.018232,-8273.831378,-370.102971
5521.938588,7624.121203,-9269.755526,-148.041188
5521.938912,6513.812290,-9806.022374,-592.164754
5521.939237,4367.215058,-9729.412825,-740.205942
5521.939561,2220.617826,-9576.193725,-518.144159
5521.939886,-222.061783,-9806.022374,74.020594
5521.940210,-3775.050304,-8350.440928,-814.226536
5521.940535,-5329.482782,-8580.269578,-370.102971
5521.940859,-6735.874072,-7431.126331,-370.102971
5521.941184,-5625.565159,-7431.126331,222.061783
5521.941508,-3404.947333,-7277.907231,-222.061783
5521.941832,592.164754,-7584.345430,-296.082377
5521.942157,4293.194464,-8503.660028,-296.082377
5521.942481,7105.977043,-8580.269578,-740.205942
5521.942806,8364.327145,-9346.365076,-296.082377
5521.943130,7846.182985,-9806.022374,-666.185348
5521.943455,6513.812290,-10189.070123,0.000000
5521.943779,3627.009116,-9882.631924,-296.082377
5521.944104,222.061783,-9499.584175,444.123565
5521.944428,-2516.700203,-8503.660028,148.041188
5521.944753,-5551.544565,-8503.660028,0.000000
5521.945077,-7772.162391,-8273.831378,-222.061783
5521.945402,-8068.244768,-7354.516781,-1110.308913
5521.945726,-6957.935855,-8197.221829,-148.041188
5521.946051,-4959.379811,-6358.592633,370.102971
5521.946375,-444.123565,-7660.954980,-592.164754
5521.946699,1776.494261,-8350.440928,0.000000
5521.947024,4959.379811,-8044.002729,-888.247130
5521.947348,7698.141797,-9193.145976,-740.205942
5521.947673,6217.729913,-9576.193725,-518.144159
5521.947997,6143.709319,-10265.679673,-370.102971
5521.948322,2812.782580,-9116.536426,-666.185348
5521.948646,740.205942,-9116.536426,0.000000
5521.948971,-2368.659014,-9193.145976,0.000000
5521.949295,-4737.318029,-7201.297681,148.041188
5521.949620,-5773.606348,-7814.174080,-148.041188
5521.949944,-6217.729913,-7048.078582,-740.205942
5521.950269,-4441.235652,-6818.249932,-444.123565
5521.950593,-1332.370696,-7737.564530,-296.082377
5521.950918,1702.473667,-8120.612279,-296.082377
5521.951242,5477.523971,-8886.707777,-740.205942
5521.951566,7328.038826,-9346.365076,-444.123565
5521.951891,7476.080014,-9116.536426,-370.102971
5521.952215,6809.894666,-9806.022374,-1258.350101
5521.952540,4737.318029,-10572.117872,-296.082377
5521.952864,1924.535449,-10035.851024,74.020594
5521.953189,-296.082377,-9193.145976,-296.082377
5521.953513,-4367.215058,-8580.269578,-296.082377
5521.953838,-6735.874072,-8886.707777,-370.102971
5521.954162,-7105.977043,-7660.954980,-666.185348
5521.954487,-6809.894666,-7048.078582,-666.185348
5521.954811,-4811.338623,-7507.735880,74.020594
5521.955136,-1702.473667,-7354.516781,-740.205942
5521.955460,1702.473667,-8044.002729,-666.185348
5521.955784,4959.379811,-8427.050478,-666.185348
5521.956109,7328.038826,-8733.488677,-740.205942
5521.956433,8216.285956,-9576.193725,-962.267725
5521.956758,7254.018232,-9499.584175,-1036.288319
5521.957082,5255.462188,-9959.241474,-148.041188
5521.957407,1332.370696,-9422.974625,-1036.288319
5521.957731,-888.247130,-9576.193725,-148.041188
5521.958056,-4515.256246,-8427.050478,-740.205942
5521.958380,-6587.832884,-8733.488677,-740.205942
5521.958705,-6735.874072,-7354.516781,-592.164754
5521.959029,-5181.441594,-7277.907231,-592.164754
5521.959354,-2368.659014,-7431.126331,-148.041188
5521.959678,666.185348,-7737.564530,-518.144159
5521.960003,4959.379811,-8656.879127,0.000000
5521.960327,6735.874072,-8810.098227,-296.082377
5521.960651,8956.491898,-9652.803275,-1036.288319
5521.960976,7476.080014,-10572.117872,0.000000
5521.961300,5921.647536,-10572.117872,-222.061783
5521.961625,3108.864956,-9959.241474,0.000000
5521.961949,-148.041188,-9729.412825,444.123565
5521.962273,-3330.926739,-9806.022374,592.164754
5521.962598,-4885.359217,-7124.688131,-222.061783
5521.962922,-7105.977043,-8044.002729,-222.061783
5521.963247,-7254.018232,-7584.345430,0.000000
5521.963571,-5699.585753,-7201.297681,222.061783
5521.963895,-3256.906145,-7277.907231,-444.123565
5521.964220,0.000000,-7584.345430,-296.082377
5521.964544,2294.638420,-8580.269578,-962.267725
5521.964869,6661.853478,-8963.317327,-74.020594
5521.965193,6883.915261,-8963.317327,-296.082377
5521.965517,7328.038826,-10189.070123,-592.164754
5521.965842,4959.379811,-9116.536426,-296.082377
5521.966166,2590.720797,-10265.679673,0.000000
5521.966491,-370.102971,-9576.193725,0.000000
5521.966815,-3478.967927,-8197.221829,-148.041188
5521.967139,-5625.565159,-7890.783629,296.082377
5521.967464,-6439.791695,-7124.688131,148.041188
5521.967788,-4663.297435,-6971.469032,-296.082377
5521.968113,-3849.070898,-7354.516781,222.061783
5521.968437,444.123565,-7048.078582,-222.061783
5521.968761,2590.720797,-7737.564530,0.000000
5521.969086,5625.565159,-9422.974625,-814.226536
5521.969410,7550.100608,-9422.974625,-296.082377
5521.969735,8290.306550,-9806.022374,-296.082377
5521.970059,5625.565159,-9806.022374,-370.102971
5521.970383,3701.029710,-10112.460574,0.000000
5521.970708,296.082377,-9729.412825,0.000000
5521.971032,-2442.679609,-9959.241474,296.082377
5521.971357,-4737.318029,-8350.440928,-444.123565
5521.971681,-7328.038826,-8197.221829,-222.061783
5521.972005,-6809.894666,-7354.516781,0.000000
5521.972330,-5847.626942,-6741.640382,370.102971
5521.972654,-3404.947333,-7660.954980,-148.041188
5521.972978,-740.205942,-7277.907231,-666.185348
5521.973303,3256.906145,-7890.783629,-148.041188
5521.973627,5107.421000,-8656.879127,-222.061783
5521.973952,6883.915261,-9576.193725,-1258.350101
5521.974276,7105.977043,-9959.241474,-370.102971
5521.974600,5773.606348,-10265.679673,-1110.308913
5521.974925,3330.926739,-10572.117872,-888.247130
5521.975249,592.164754,-9806.022374,-370.102971
5521.975574,-2664.741391,-9039.926876,-444.123565
5521.975898,-4515.256246,-8120.612279,-740.205942
5521.976222,-6217.729913,-7354.516781,0.000000
5521.976547,-5329.482782,-7048.078582,-222.061783
5521.976871,-4737.318029,-7048.078582,-1406.391290
5521.977196,-1332.370696,-7354.516781,-592.164754
5521.977520,2072.576638,-7814.174080,-148.041188
5521.977844,4959.379811,-8580.269578,-1258.350101
5521.978169,7179.997637,-9499.584175,-1110.308913
5521.978493,8068.244768,-9346.365076,-518.144159
5521.978818,7772.162391,-9499.584175,-666.185348
5521.979142,5551.544565,-9959.241474,-222.061783
5521.979466,2516.700203,-10112.460574,222.061783
5521.979791,-592.164754,-9576.193725,-222.061783
5521.980115,-3849.070898,-8810.098227,-74.020594
5521.980440,-6291.750507,-8197.221829,-296.082377
5521.980764,-6291.750507,-7890.783629,0.000000
5521.981088,-6365.771101,-6971.469032,-592.164754
5521.981413,-5403.503377,-6741.640382,-444.123565
5521.981737,-1924.535449,-7201.297681,-518.144159
5521.982062,1406.391290,-7354.516781,-1110.308913
5521.982386,5107.421000,-9193.145976,0.000000
5521.982710,6439.791695,-9116.536426,-1258.350101
5521.983035,7328.038826,-9499.584175,-444.123565
5521.983359,6513.812290,-9576.193725,-296.082377
5521.983683,5107.421000,-10189.070123,-444.123565
5521.984008,1554.432478,-9499.584175,148.041188
5521.984332,-1184.329507,-9576.193725,222.061783
5521.984657,-4367.215058,-7890.783629,-666.185348
5521.984981,-5403.503377,-7660.954980,74.020594
5521.985305,-6291.750507,-7277.907231,0.000000
5521.985630,-4811.338623,-6818.249932,518.144159
5521.985954,-2442.679609,-7124.688131,0.000000
5521.986279,1554.432478,-7814.174080,0.000000
5521.986603,4811.338623,-7507.735880,222.061783
5521.986927,7698.141797,-8350.440928,-666.185348
5521.987252,9030.512492,-9576.193725,-518.144159
5521.987576,8438.347739,-9729.412825,-666.185348
5521.987901,6143.709319,-10418.898773,0.000000
5521.988225,3627.009116,-10342.289223,148.041188
5521.988549,-814.226536,-9959.241474,740.205942
5521.988874,-4811.338623,-9576.193725,296.082377
5521.989198,-5699.585753,-9269.755526,0.000000
5521.989523,-8068.244768,-8273.831378,-444.123565
5521.989847,-8586.388927,-7967.393179,-666.185348
5521.990171,-6365.771101,-7201.297681,0.000000
5521.990496,-4219.173869,-7660.954980,-592.164754
5521.990820,666.185348,-7890.783629,-518.144159
5521.991145,4071.132681,-8044.002729,-666.185348
5521.991469,6661.853478,-8810.098227,-370.102971
5521.991793,8216.285956,-8886.707777,-370.102971
5521.992118,7105.977043,-9806.022374,0.000000
5521.992442,4589.276840,-10342.289223,0.000000
5521.992766,3330.926739,-9729.412825,0.000000
5521.993091,0.000000,-9729.412825,74.020594
5521.993415,-2738.761985,-8656.879127,-1480.411884
5521.993740,-5033.400406,-8197.221829,-666.185348
5521.994064,-6957.935855,-7354.516781,-148.041188
5521.994388,-6365.771101,-7431.126331,0.000000
5521.994713,-4145.153275,-6971.469032,-370.102971
5521.995037,-888.247130,-7431.126331,148.041188
5521.995362,2294.638420,-8120.612279,-814.226536
5521.995686,7105.977043,-9269.755526,-1628.453072
5521.996010,8438.347739,-9116.536426,-1628.453072
5521.996335,9104.533087,-9193.145976,-666.185348
5521.996659,6883.915261,-10035.851024,-888.247130
5521.996984,4071.132681,-10035.851024,74.020594
5521.997308,1554.432478,-9806.022374,592.164754
5521.997632,-1258.350101,-9882.631924,-148.041188
5521.997957,-4589.276840,-8580.269578,-444.123565
5521.998281,-6587.832884,-8580.269578,-814.226536
5521.998606,-7105.977043,-7431.126331,-888.247130
5521.998930,-5921.647536,-7890.783629,-222.061783
5521.999254,-4885.359217,-7431.126331,-518.144159
5521.999579,-1406.391290,-7354.516781,370.102971
5521.999903,1332.370696,-6894.859482,-666.185348
5522.000228,4737.318029,-9499.584175,148.041188
5522.000552,6439.791695,-8810.098227,-1628.453072
5522.000876,7402.059420,-10572.117872,0.000000
5522.001201,6439.791695,-9576.193725,-1554.432478
5522.001525,3997.112087,-10265.679673,-222.061783
5522.001850,1480.411884,-9806.022374,-148.041188
5522.002174,-1110.308913,-9499.584175,-148.041188
5522.002498,-3997.112087,-8197.221829,-666.185348
5522.002823,-5995.668130,-7890.783629,0.000000
5522.003147,-5403.503377,-6894.859482,74.020594
5522.003471,-5847.626942,-6435.202183,-518.144159
5522.003796,-2220.617826,-7660.954980,-518.144159
5522.004120,888.247130,-7354.516781,-666.185348
5522.004445,4589.276840,-8810.098227,-814.226536
5522.004769,7031.956449,-9422.974625,-1258.350101
5522.005093,7476.080014,-9806.022374,-888.247130
5522.005418,7254.018232,-9729.412825,-370.102971
5522.005742,4663.297435,-9576.193725,148.041188
5522.006067,2812.782580,-9806.022374,0.000000
5522.006391,0.000000,-9193.145976,296.082377
5522.006715,-3849.070898,-9039.926876,148.041188
5522.007040,-5625.565159,-8580.269578,-370.102971
5522.007364,-8364.327145,-8120.612279,-888.247130
5522.007689,-7846.182985,-7660.954980,-296.082377
5522.008013,-5847.626942,-7507.735880,296.082377
5522.008337,-3404.947333,-7584.345430,-814.226536
5522.008662,370.102971,-7967.393179,148.041188
5522.008986,4293.194464,-8733.488677,-148.041188
5522.009311,5847.626942,-8810.098227,-888.247130
5522.009635,8068.244768,-8886.707777,0.000000
5522.009959,7550.100608,-9499.584175,0.000000
5522.010284,4811.338623,-9729.412825,148.041188
5522.010608,1850.514855,-9269.755526,-444.123565
5522.010933,296.082377,-9499.584175,222.061783
5522.011257,-2886.803174,-8656.879127,-888.247130
5522.011581,-5181.441594,-8197.221829,-518.144159
5522.011906,-5699.585753,-7660.954980,0.000000
5522.012230,-6439.791695,-7201.297681,0.000000
5522.012554,-4959.379811,-7354.516781,592.164754
5522.012879,-1258.350101,-7354.516781,0.000000
5522.013203,2886.803174,-8273.831378,-518.144159
5522.013528,6069.688724,-8350.440928,-592.164754
5522.013852,8290.306550,-9346.365076,-1702.473667
5522.014176,8512.368333,-9806.022374,-1110.308913
5522.014501,6661.853478,-9959.241474,-370.102971
5522.014825,4811.338623,-10265.679673,0.000000
5522.015150,740.205942,-10035.851024,814.226536
5522.015474,-1110.308913,-9422.974625,518.144159
5522.015798,-4071.132681,-8197.221829,0.000000
5522.016123,-5477.523971,-7354.516781,-296.082377
5522.016447,-7254.018232,-7890.783629,-296.082377
5522.016772,-5329.482782,-6971.469032,-518.144159
5522.017096,-4515.256246,-7737.564530,0.000000
5522.017420,-1776.494261,-7507.735880,-518.144159
5522.017745,1480.411884,-7584.345430,0.000000
5522.018069,5107.421000,-8120.612279,-888.247130
5522.018394,7846.182985,-9269.755526,-1480.411884
5522.018718,7772.162391,-9346.365076,-1554.432478
5522.019042,6217.729913,-10035.851024,-592.164754
5522.019367,3034.844362,-10035.851024,-888.247130
5522.019691,444.123565,-9806.022374,0.000000
5522.020016,-2738.761985,-9269.755526,-296.082377
5522.020340,-3923.091493,-8733.488677,-444.123565
5522.020664,-7105.977043,-8044.002729,-444.123565
5522.020989,-6883.915261,-7354.516781,-814.226536
5522.021313,-4737.318029,-7507.735880,-222.061783
5522.021638,-1258.350101,-7354.516781,-518.144159
5522.021962,1998.556043,-7967.393179,0.000000
5522.022286,5921.647536,-7660.954980,-666.185348
5522.022611,7772.162391,-9346.365076,-444.123565
5522.022935,9548.656652,-9729.412825,-888.247130
5522.023259,8290.306550,-9806.022374,-666.185348
5522.023584,5477.523971,-10112.460574,-592.164754
5522.023908,2886.803174,-9806.022374,444.123565
5522.024233,-1036.288319,-9269.755526,0.000000
5522.024557,-4293.194464,-9039.926876,-296.082377
5522.024881,-7031.956449,-7967.393179,-148.041188
5522.025206,-8216.285956,-8044.002729,-296.082377
5522.025530,-7476.080014,-7584.345430,74.020594
5522.025855,-5699.585753,-6971.469032,-888.247130
5522.026179,-1554.432478,-7737.564530,-148.041188
5522.026503,1184.329507,-6665.030833,-296.082377
5522.026828,5847.626942,-8427.050478,-740.205942
5522.027152,7179.997637,-9116.536426,-1110.308913
5522.027477,7772.162391,-9806.022374,-740.205942
5522.027801,6883.915261,-9499.584175,-222.061783
5522.028125,4145.153275,-9729.412825,-296.082377
5522.028450,1332.370696,-10035.851024,444.123565
5522.028774,-1406.391290,-8580.269578,-592.164754
5522.029099,-3923.091493,-8656.879127,444.123565
5522.029423,-7179.997637,-7584.345430,-296.082377
5522.029747,-6809.894666,-7584.345430,-666.185348
5522.030072,-6217.729913,-7124.688131,0.000000
5522.030396,-3256.906145,-7584.345430,-148.041188
5522.030721,370.102971,-7814.174080,0.000000
5522.031045,3701.029710,-7660.954980,-222.061783
5522.031369,6735.874072,-8656.879127,0.000000
5522.031694,9252.574275,-8886.707777,-814.226536
5522.032018,8586.388927,-10878.556072,-296.082377
5522.032342,6365.771101,-10112.460574,-1110.308913
5522.032667,3478.967927,-10112.460574,444.123565
5522.032991,222.061783,-9652.803275,0.000000
5522.033316,-3034.844362,-9652.803275,296.082377
5522.033640,-6069.688724,-7201.297681,-444.123565
5522.033964,-6809.894666,-8044.002729,0.000000
5522.034289,-7624.121203,-7354.516781,-296.082377
5522.034613,-6439.791695,-7584.345430,-1036.288319
5522.034938,-2738.761985,-7660.954980,-666.185348
5522.035262,1332.370696,-7431.126331,-740.205942
5522.035586,3849.070898,-8580.269578,-962.267725
5522.035911,6365.771101,-9269.755526,-370.102971
5522.036235,7624.121203,-9269.755526,-444.123565
5522.036560,6217.729913,-10035.851024,-888.247130
5522.036884,4219.173869,-9806.022374,-962.267725
5522.037208,1554.432478,-9729.412825,518.144159
5522.037533,-1480.411884,-9652.803275,74.020594
5522.037857,-3256.906145,-8656.879127,-518.144159
5522.038182,-4737.318029,-8427.050478,0.000000
5522.038506,-5995.668130,-7354.516781,-370.102971
5522.038830,-5403.503377,-7354.516781,-222.061783
5522.039155,-3256.906145,-7354.516781,-148.041188
5522.039479,962.267725,-7737.564530,0.000000
5522.039804,3997.112087,-7584.345430,-666.185348
5522.040128,6809.894666,-7967.393179,-888.247130
5522.040452,9178.553681,-7967.393179,-592.164754
5522.040777,8882.471304,-9269.755526,-962.267725
5522.041101,7550.100608,-10572.117872,-296.082377
5522.041426,4515.256246,-10035.851024,-222.061783
5522.041750,1628.453072,-9882.631924,0.000000
5522.042074,-2960.823768,-9193.145976,0.000000
5522.042399,-4885.359217,-7967.393179,-592.164754
5522.042723,-6809.894666,-8580.269578,0.000000
5522.043047,-7550.100608,-8197.221829,-740.205942
5522.043372,-6291.750507,-7814.174080,-444.123565
5522.043696,-3849.070898,-7124.688131,-1332.370696
5522.044021,-1776.494261,-7124.688131,-444.123565
5522.044345,2590.720797,-8197.221829,296.082377
5522.044669,6217.729913,-6894.859482,-666.185348
5522.044994,8290.306550,-9882.631924,0.000000
5522.045318,7846.182985,-9269.755526,-2072.576638
5522.045643,5477.523971,-11108.384721,-148.041188
5522.045967,2960.823768,-9652.803275,-740.205942
5522.046291,0.000000,-10035.851024,666.185348
5522.046616,-2960.823768,-9193.145976,0.000000
5522.046940,-5551.544565,-9269.755526,0.000000
5522.047265,-6587.832884,-7431.126331,-370.102971
5522.047589,-7105.977043,-7660.954980,-518.144159
5522.047913,-5329.482782,-6511.811733,-296.082377
5522.048238,-1258.350101,-7507.735880,148.041188
5522.048562,2664.741391,-7354.516781,-888.247130
5522.048887,6513.812290,-8580.269578,-370.102971
5522.049211,7920.203579,-7814.174080,-222.061783
5522.049535,8438.347739,-9576.193725,74.020594
5522.049860,7994.224174,-10572.117872,-444.123565
5522.050184,6735.874072,-10572.117872,0.000000
5522.050509,2886.803174,-9959.241474,296.082377
5522.050833,-148.041188,-9269.755526,370.102971
5522.051157,-3849.070898,-8503.660028,296.082377
5522.051482,-6217.729913,-8503.660028,0.000000
5522.051806,-7624.121203,-7584.345430,-444.123565
5522.052130,-7179.997637,-7584.345430,0.000000
5522.052455,-6291.750507,-6818.249932,-296.082377
5522.052779,-2960.823768,-7354.516781,-222.061783
5522.053104,1258.350101,-6588.421283,-370.102971
5522.053428,4737.318029,-8273.831378,0.000000
5522.053752,6587.832884,-8120.612279,-1110.308913
5522.054077,8068.244768,-9882.631924,-370.102971
5522.054401,6735.874072,-10035.851024,-1036.288319
5522.054726,4219.173869,-10648.727422,-740.205942
5522.055050,666.185348,-9499.584175,666.185348
5522.055374,-2960.823768,-8810.098227,518.144159
5522.055699,-3849.070898,-8733.488677,222.061783
5522.056023,-6365.771101,-8197.221829,-444.123565
5522.056348,-6365.771101,-8427.050478,-222.061783
5522.056672,-5625.565159,-6665.030833,-1110.308913
5522.056996,-3256.906145,-7354.516781,74.020594
5522.057321,1184.329507,-7354.516781,-444.123565
5522.057645,5329.482782,-7584.345430,-222.061783
5522.057970,8512.368333,-7967.393179,-518.144159
5522.058294,9474.636058,-8580.269578,-666.185348
5522.058618,9326.594869,-9882.631924,74.020594
5522.058943,6587.832884,-10112.460574,-740.205942
5522.059267,4959.379811,-10878.556072,222.061783
5522.059592,148.041188,-9576.193725,0.000000
5522.059916,-4367.215058,-9422.974625,0.000000
5522.060240,-6735.874072,-8886.707777,0.000000
5522.060565,-8290.306550,-8580.269578,0.000000
5522.060889,-8956.491898,-7737.564530,-370.102971
5522.061214,-7402.059420,-7124.688131,-518.144159
5522.061538,-2960.823768,-7354.516781,-1406.391290
5522.061863,-1184.329507,-7048.078582,-1332.370696
5522.062187,4441.235652,-7737.564530,-1036.288319
5522.062511,6069.688724,-7507.735880,-518.144159
5522.062836,8660.409521,-9346.365076,888.247130
5522.063160,7846.182985,-8963.317327,-1554.432478
5522.063484,5625.565159,-10955.165621,-666.185348
5522.063809,2368.659014,-9806.022374,0.000000
5522.064133,-1332.370696,-10342.289223,0.000000
5522.064457,-4441.235652,-9422.974625,-814.226536
5522.064782,-5107.421000,-8580.269578,0.000000
5522.065106,-6957.935855,-7737.564530,-592.164754
5522.065430,-6735.874072,-7201.297681,-592.164754
5522.065754,-4219.173869,-6511.811733,-370.102971
5522.066079,-296.082377,-7201.297681,-296.082377
5522.066403,3997.112087,-6971.469032,-1036.288319
5522.066727,7402.059420,-8503.660028,-814.226536
5522.067052,9770.718434,-7354.516781,-592.164754
5522.067376,9844.739029,-9193.145976,-148.041188
5522.067700,8290.306550,-10265.679673,148.041188
5522.068025,5403.503377,-10801.946522,-148.041188
5522.068349,2294.638420,-9882.631924,0.000000
5522.068673,-1702.473667,-9806.022374,444.123565
5522.068997,-4663.297435,-9039.926876,148.041188
5522.069322,-6883.915261,-8656.879127,0.000000
5522.069646,-9400.615463,-7584.345430,-518.144159
5522.069970,-7179.997637,-7814.174080,-296.082377
5522.070295,-5551.544565,-6971.469032,-592.164754
5522.070619,-2368.659014,-6818.249932,-370.102971
5522.070943,2294.638420,-7277.907231,-592.164754
5522.071268,6365.771101,-8810.098227,-296.082377
5522.071592,7105.977043,-8886.707777,-444.123565
5522.071916,7994.224174,-9806.022374,-370.102971
5522.072240,4589.276840,-10265.679673,222.061783
5522.072565,3182.885551,-10112.460574,-444.123565
5522.072889,0.000000,-10342.289223,370.102971
5522.073213,-2368.659014,-9346.365076,-740.205942
5522.073538,-5625.565159,-10189.070123,0.000000
5522.073862,-7476.080014,-7967.393179,-814.226536
5522.074186,-5107.421000,-8427.050478,0.000000
5522.074511,-6365.771101,-7584.345430,-962.267725
5522.074835,-2072.576638,-7048.078582,0.000000
5522.075159,2072.576638,-6205.373534,-222.061783
5522.075483,5329.482782,-7814.174080,74.020594
5522.075808,8882.471304,-7890.783629,-1184.329507
5522.076132,9104.533087,-8656.879127,148.041188
5522.076456,8734.430116,-9806.022374,-444.123565
5522.076781,6291.750507,-9499.584175,-222.061783
5522.077105,2738.761985,-10572.117872,370.102971
5522.077429,0.000000,-10035.851024,666.185348
5522.077754,-3404.947333,-8733.488677,0.000000
5522.078078,-5699.585753,-8503.660028,-296.082377
5522.078402,-7772.162391,-8197.221829,-296.082377
5522.078726,-8290.306550,-7354.516781,-444.123565
5522.079051,-6439.791695,-7048.078582,0.000000
5522.079375,-2812.782580,-6741.640382,-962.267725
5522.079699,-1184.329507,-7277.907231,-814.226536
5522.080024,4145.153275,-7814.174080,-666.185348
5522.080348,5625.565159,-7660.954980,-592.164754
5522.080672,7550.100608,-9729.412825,0.000000
5522.080997,7698.141797,-9422.974625,-1406.391290
5522.081321,4441.235652,-10189.070123,370.102971
5522.081645,1628.453072,-10189.070123,-296.082377
5522.081969,-1480.411884,-10342.289223,0.000000
5522.082294,-4293.194464,-8963.317327,-296.082377
5522.082618,-4737.318029,-8886.707777,-148.041188
5522.082942,-5773.606348,-7507.735880,-370.102971
5522.083267,-6365.771101,-6971.469032,0.000000
5522.083591,-3108.864956,-7124.688131,74.020594
5522.083915,1036.288319,-6894.859482,-592.164754
5522.084240,4737.318029,-7660.954980,-740.205942
5522.084564,7105.977043,-7967.393179,-962.267725
5522.084888,9770.718434,-8273.831378,-148.041188
5522.085213,9252.574275,-9346.365076,-888.247130
5522.085537,7550.100608,-10648.727422,-592.164754
5522.085861,4219.173869,-10801.946522,-148.041188
5522.086185,-370.102971,-10418.898773,74.020594
5522.086510,-2294.638420,-9422.974625,148.041188
5522.086834,-5625.565159,-9269.755526,222.061783
5522.087158,-7031.956449,-8044.002729,-444.123565
5522.087483,-8586.388927,-7048.078582,-1036.288319
5522.087807,-6365.771101,-7354.516781,-518.144159
5522.088131,-4737.318029,-7048.078582,-888.247130
5522.088456,-296.082377,-7124.688131,-1110.308913
5522.088780,1850.514855,-7354.516781,-1036.288319
5522.089104,5551.544565,-8120.612279,-814.226536
5522.089428,7105.977043,-9269.755526,-1702.473667
5522.089753,6291.750507,-10112.460574,-296.082377
5522.090077,5847.626942,-9652.803275,-592.164754
5522.090401,3256.906145,-9959.241474,0.000000
5522.090726,0.000000,-9806.022374,0.000000
5522.091050,-1258.350101,-9806.022374,444.123565
5522.091374,-4959.379811,-8656.879127,0.000000
5522.091699,-6809.894666,-8044.002729,0.000000
5522.092023,-5255.462188,-7277.907231,-222.061783
5522.092347,-4811.338623,-6818.249932,-888.247130
5522.092671,-592.164754,-7584.345430,-740.205942
5522.092996,2664.741391,-7354.516781,-296.082377
5522.093320,5847.626942,-8273.831378,-444.123565
5522.093644,7624.121203,-8197.221829,-740.205942
5522.093969,7994.224174,-9269.755526,148.041188
5522.094293,7772.162391,-10112.460574,-296.082377
5522.094617,5773.606348,-10342.289223,0.000000
5522.094942,3108.864956,-10648.727422,740.205942
5522.095266,-962.267725,-10189.070123,0.000000
5522.095590,-4145.153275,-10112.460574,370.102971
5522.095914,-5921.647536,-8197.221829,-370.102971
5522.096239,-7550.100608,-8350.440928,-296.082377
5522.096563,-8290.306550,-6741.640382,-518.144159
5522.096887,-4737.318029,-6971.469032,-444.123565
5522.097212,-3108.864956,-6435.202183,-1332.370696
5522.097536,0.000000,-7431.126331,-296.082377
5522.097860,4219.173869,-7277.907231,-592.164754
5522.098185,5255.462188,-8580.269578,-296.082377
5522.098509,7328.038826,-9346.365076,-518.144159
5522.098833,6439.791695,-9346.365076,-296.082377
5522.099157,4959.379811,-9806.022374,-370.102971
5522.099482,1850.514855,-10112.460574,-518.144159
5522.099806,-1776.494261,-10189.070123,0.000000
5522.100130,-3627.009116,-8733.488677,370.102971
5522.100455,-6439.791695,-8580.269578,-296.082377
5522.100779,-6883.915261,-7890.783629,-222.061783
5522.101103,-5625.565159,-6818.249932,148.041188
5522.101428,-2516.700203,-7431.126331,-444.123565
5522.101752,1332.370696,-6665.030833,-296.082377
5522.102076,5921.647536,-7507.735880,-444.123565
5522.102400,7476.080014,-8120.612279,-814.226536
5522.102725,9178.553681,-8350.440928,-518.144159
5522.103049,8734.430116,-10035.851024,-518.144159
5522.103373,7031.956449,-10648.727422,-148.041188
5522.103698,4293.194464,-10418.898773,222.061783
5522.104022,74.020594,-10725.336972,0.000000
5522.104346,-3330.926739,-9652.803275,0.000000
5522.104671,-6661.853478,-8810.098227,148.041188
5522.104995,-7402.059420,-8886.707777,-296.082377
5522.105319,-8142.265362,-6971.469032,-296.082377
5522.105643,-6587.832884,-7201.297681,-1258.350101
5522.105968,-3478.967927,-6818.249932,-740.205942
5522.106292,-222.061783,-6818.249932,-1184.329507
5522.106616,2960.823768,-6818.249932,370.102971
5522.106941,6217.729913,-7431.126331,-1036.288319
5522.107265,7105.977043,-9346.365076,-962.267725
5522.107589,6439.791695,-10648.727422,-1110.308913
5522.107914,4737.318029,-10572.117872,-444.123565
5522.108238,2960.823768,-10878.556072,0.000000
5522.108562,-1924.535449,-10035.851024,518.144159
5522.108886,-2294.638420,-8886.707777,-296.082377
5522.109211,-6143.709319,-8810.098227,0.000000
5522.109535,-5995.668130,-7890.783629,-666.185348
5522.109859,-4811.338623,-6665.030833,-666.185348
5522.110184,-3849.070898,-6971.469032,-444.123565
5522.110508,222.061783,-6894.859482,-592.164754
5522.110832,4589.276840,-7048.078582,-444.123565
5522.111157,6513.812290,-8503.660028,-1036.288319
5522.111481,8290.306550,-8350.440928,-962.267725
5522.111805,7550.100608,-9193.145976,-444.123565
5522.112130,7179.997637,-10418.898773,-592.164754
5522.112454,3923.091493,-10572.117872,0.000000
5522.112778,1406.391290,-10725.336972,518.144159
5522.113102,-3034.844362,-9269.755526,222.061783
5522.113427,-3627.009116,-8810.098227,222.061783
5522.113751,-5847.626942,-8273.831378,-592.164754
5522.114075,-7254.018232,-7737.564530,0.000000
5522.114400,-6735.874072,-6511.811733,-740.205942
5522.114724,-4885.359217,-7507.735880,-444.123565
5522.115048,-1332.370696,-6818.249932,-1184.329507
5522.115373,592.164754,-7124.688131,0.000000
5522.115697,4515.256246,-7967.393179,-962.267725
5522.116021,5477.523971,-8197.221829,-666.185348
5522.116345,6439.791695,-9193.145976,0.000000
5522.116670,5551.544565,-9729.412825,0.000000
5522.116994,3997.112087,-10342.289223,0.000000
5522.117318,444.123565,-9652.803275,370.102971
5522.117643,-1332.370696,-9346.365076,-518.144159
5522.117967,-4071.132681,-10112.460574,-666.185348
5522.118291,-6069.688724,-8350.440928,74.020594
5522.118616,-4959.379811,-7354.516781,296.082377
5522.118940,-3997.112087,-7201.297681,0.000000
5522.119264,-1406.391290,-7814.174080,370.102971
5522.119588,2664.741391,-6741.640382,-370.102971
5522.119913,5773.606348,-8197.221829,-370.102971
5522.120237,7698.141797,-8044.002729,-1036.288319
5522.120561,8586.388927,-9499.584175,74.020594
5522.120886,7328.038826,-9346.365076,0.000000
5522.121210,5403.503377,-10878.556072,0.000000
5522.121534,2886.803174,-10418.898773,-592.164754
5522.121859,-296.082377,-10648.727422,74.020594
5522.122183,-3552.988522,-8810.098227,-666.185348
5522.122507,-5921.647536,-8656.879127,0.000000
5522.122831,-7846.182985,-8197.221829,0.000000
5522.123156,-7402.059420,-7354.516781,444.123565
5522.123480,-5921.647536,-6205.373534,-148.041188
5522.123804,-2886.803174,-7201.297681,-518.144159
5522.124129,592.164754,-6818.249932,-1110.308913
5522.124453,3627.009116,-8197.221829,-888.247130
5522.124777,6735.874072,-9193.145976,-222.061783
5522.125102,6439.791695,-9652.803275,-1628.453072
5522.125426,5181.441594,-10035.851024,-222.061783
5522.125750,4219.173869,-9499.584175,-962.267725
5522.126074,2220.617826,-10955.165621,-518.144159
5522.126399,-370.102971,-10342.289223,-962.267725
5522.126723,-2960.823768,-8886.707777,740.205942
5522.127047,-4811.338623,-7584.345430,-370.102971
5522.127372,-5551.544565,-8427.050478,0.000000
5522.127696,-4441.235652,-6818.249932,-222.061783
5522.128020,-2368.659014,-7048.078582,222.061783
5522.128345,962.267725,-7584.345430,-740.205942
5522.128669,4145.153275,-7814.174080,-666.185348
5522.128993,6513.812290,-7890.783629,-370.102971
5522.129317,8142.265362,-8273.831378,-370.102971
5522.129642,7846.182985,-9882.631924,-814.226536
5522.129966,5181.441594,-10725.336972,-518.144159
5522.130290,3849.070898,-10955.165621,-296.082377
5522.130615,814.226536,-10648.727422,-296.082377
5522.130939,-1924.535449,-8197.221829,-1184.329507
5522.131263,-3034.844362,-8733.488677,0.000000
5522.131588,-7402.059420,-8427.050478,-222.061783
5522.131912,-9030.512492,-7584.345430,74.020594
5522.132236,-6069.688724,-6971.469032,0.000000
5522.132560,-4293.194464,-7277.907231,-1184.329507
5522.132885,-296.082377,-7431.126331,-1258.350101
5522.133209,2664.741391,-7507.735880,-1110.308913
5522.133533,4071.132681,-9039.926876,-370.102971
5522.133858,5477.523971,-9193.145976,-592.164754
5522.134182,5921.647536,-9422.974625,-666.185348
5522.134506,5699.585753,-9806.022374,-148.041188
5522.134831,3701.029710,-9499.584175,-370.102971
5522.135155,2072.576638,-10418.898773,-666.185348
5522.135479,-2516.700203,-9499.584175,-814.226536
5522.135803,-2960.823768,-8273.831378,296.082377
5522.136128,-5033.400406,-7890.783629,-74.020594
5522.136452,-6957.935855,-7814.174080,222.061783
5522.136776,-4663.297435,-6588.421283,592.164754
5522.137101,-296.082377,-7277.907231,74.020594
5522.137425,2516.700203,-7584.345430,-518.144159
5522.137749,6365.771101,-7814.174080,-296.082377
5522.138074,7179.997637,-9116.536426,-740.205942
5522.138398,8068.244768,-8733.488677,-370.102971
5522.138722,7254.018232,-10725.336972,74.020594
5522.139047,3775.050304,-10955.165621,-148.041188
5522.139371,518.144159,-10189.070123,0.000000
5522.139695,0.000000,-9806.022374,74.020594
5522.140019,-3997.112087,-8886.707777,370.102971
5522.140344,-5847.626942,-7354.516781,0.000000
5522.140668,-7179.997637,-7737.564530,518.144159
5522.140992,-7031.956449,-7124.688131,444.123565
5522.141317,-5329.482782,-7431.126331,-740.205942
5522.141641,-2442.679609,-7277.907231,-814.226536
5522.141965,740.205942,-7354.516781,0.000000
5522.142290,3997.112087,-7660.954980,-1258.350101
5522.142614,5255.462188,-8886.707777,-592.164754
5522.142938,6513.812290,-9269.755526,-740.205942
5522.143262,5921.647536,-9959.241474,-888.247130
5522.143587,3552.988522,-10418.898773,-666.185348
5522.143911,2368.659014,-9652.803275,0.000000
5522.144235,-888.247130,-9269.755526,222.061783
5522.144560,-3404.947333,-8963.317327,518.144159
5522.144884,-5329.482782,-7660.954980,148.041188
5522.145208,-5773.606348,-7660.954980,148.041188
5522.145533,-5329.482782,-6971.469032,148.041188
5522.145857,-2442.679609,-6665.030833,-592.164754
5522.146181,518.144159,-8044.002729,-370.102971
5522.146505,4811.338623,-8273.831378,-1406.391290
5522.146830,7031.956449,-8427.050478,0.000000
5522.147154,8216.285956,-8580.269578,-148.041188
5522.147478,7846.182985,-9422.974625,-814.226536
5522.147803,5699.585753,-9576.193725,-518.144159
5522.148127,3997.112087,-10495.508323,222.061783
5522.148451,444.123565,-9576.193725,-1036.288319
5522.148776,-1776.494261,-11031.775171,0.000000
5522.149100,-4811.338623,-7507.735880,-592.164754
5522.149424,-7105.977043,-8733.488677,1036.288319
5522.149748,-7402.059420,-7048.078582,-962.267725
5522.150073,-6587.832884,-7431.126331,148.041188
5522.150397,-3701.029710,-6205.373534,-148.041188
5522.150721,-370.102971,-7354.516781,-370.102971
5522.151046,2220.617826,-8656.879127,-962.267725
5522.151370,5181.441594,-8810.098227,-1480.411884
5522.151694,5181.441594,-9346.365076,-1036.288319
5522.152019,5921.647536,-9652.803275,-666.185348
5522.152343,5255.462188,-10801.946522,0.000000
5522.152667,2442.679609,-9806.022374,-888.247130
5522.152991,0.000000,-9729.412825,-666.185348
5522.153316,-2368.659014,-8963.317327,-518.144159
5522.153640,-5995.668130,-9499.584175,518.144159
5522.153964,-5699.585753,-7124.688131,1258.350101
5522.154289,-4811.338623,-7354.516781,2146.597232
5522.154613,-2738.761985,-6435.202183,-666.185348
5522.154937,1184.329507,-7814.174080,-740.205942
5522.155262,4145.153275,-7354.516781,-1702.473667
5522.155586,7105.977043,-8580.269578,-296.082377
5522.155910,8438.347739,-8273.831378,-370.102971
5522.156234,9252.574275,-9193.145976,370.102971
5522.156559,6291.750507,-9193.145976,-1332.370696
5522.156883,3923.091493,-10418.898773,-296.082377
5522.157207,888.247130,-9499.584175,0.000000
5522.157532,-3182.885551,-9576.193725,222.061783
5522.157856,-5921.647536,-8963.317327,0.000000
5522.158180,-7179.997637,-8044.002729,296.082377
5522.158505,-7328.038826,-7890.783629,-370.102971
5522.158829,-6069.688724,-7660.954980,-814.226536
5522.159153,-3182.885551,-6665.030833,-592.164754
5522.159477,74.020594,-7354.516781,-740.205942
5522.159802,2072.576638,-7201.297681,-814.226536
5522.160126,4811.338623,-7890.783629,-1184.329507
5522.160450,7254.018232,-8273.831378,-1258.350101
5522.160775,6291.750507,-9193.145976,222.061783
5522.161099,4589.276840,-9422.974625,-222.061783
5522.161423,1924.535449,-10725.336972,-296.082377
5522.161748,592.164754,-10342.289223,-1036.288319
5522.162072,-2368.659014,-10265.679673,-370.102971
5522.162396,-4589.276840,-8810.098227,74.020594
5522.162721,-6143.709319,-7660.954980,962.267725
5522.163045,-5403.503377,-7967.393179,-296.082377
5522.163370,-3182.885551,-7431.126331,222.061783
5522.163694,0.000000,-6665.030833,-592.164754
5522.164018,3997.112087,-7890.783629,-222.061783
5522.164343,6143.709319,-7354.516781,-740.205942
5522.164667,7846.182985,-8963.317327,-592.164754
5522.164992,6809.894666,-9269.755526,-666.185348
5522.165316,6439.791695,-10112.460574,-370.102971
5522.165641,5329.482782,-10955.165621,-370.102971
5522.165965,2146.597232,-9882.631924,-296.082377
5522.166289,-2072.576638,-10112.460574,-148.041188
5522.166614,-4737.318029,-9499.584175,-666.185348
5522.166938,-5773.606348,-8963.317327,518.144159
5522.167263,-6365.771101,-7967.393179,-296.082377
5522.167587,-5921.647536,-7660.954980,666.185348
5522.167912,-3849.070898,-6588.421283,-148.041188
5522.168236,-1702.473667,-7354.516781,-1110.308913
5522.168560,666.185348,-7354.516781,-1258.350101
5522.168885,2664.741391,-7660.954980,-592.164754
5522.169209,4293.194464,-8350.440928,0.000000
5522.169534,5329.482782,-8427.050478,-740.205942
5522.169858,4367.215058,-9806.022374,-666.185348
5522.170183,2812.782580,-10035.851024,-1110.308913
5522.170507,1554.432478,-10342.289223,0.000000
5522.170831,-1406.391290,-9269.755526,-1258.350101
5522.171156,-2072.576638,-9729.412825,296.082377
5522.171480,-3627.009116,-7814.174080,296.082377
5522.171805,-5107.421000,-7814.174080,74.020594
5522.172129,-3775.050304,-6435.202183,-296.082377
5522.172454,-1850.514855,-7354.516781,-222.061783
5522.172778,1332.370696,-7354.516781,0.000000
5522.173102,3997.112087,-7201.297681,-666.185348
5522.173427,5847.626942,-8427.050478,-666.185348
5522.173751,7031.956449,-8120.612279,-148.041188
5522.174076,6513.812290,-9116.536426,-148.041188
5522.174400,5107.421000,-10725.336972,-666.185348
5522.174725,3034.844362,-10418.898773,148.041188
5522.175049,444.123565,-9882.631924,-222.061783
5522.175373,-1480.411884,-9346.365076,-444.123565
5522.175698,-4737.318029,-9269.755526,0.000000
5522.176022,-6069.688724,-9116.536426,296.082377
5522.176347,-7105.977043,-7507.735880,370.102971
5522.176671,-5773.606348,-7814.174080,0.000000
5522.176996,-3627.009116,-7048.078582,-444.123565
5522.177320,-888.247130,-7507.735880,-1036.288319
5522.177644,1850.514855,-7431.126331,-1110.308913
5522.177969,3849.070898,-7660.954980,-296.082377
5522.178293,5107.421000,-8427.050478,-444.123565
5522.178618,5255.462188,-9806.022374,-444.123565
5522.178942,4441.235652,-9422.974625,-592.164754
5522.179266,2960.823768,-10189.070123,0.000000
5522.179591,888.247130,-9039.926876,-666.185348
5522.179915,-1776.494261,-9806.022374,222.061783
5522.180240,-3330.926739,-8886.707777,-518.144159
5522.180564,-4737.318029,-7967.393179,0.000000
5522.180889,-4589.276840,-7354.516781,-370.102971
5522.181213,-3108.864956,-7277.907231,-296.082377
5522.181537,74.020594,-7048.078582,0.000000
5522.181862,3034.844362,-7814.174080,-518.144159
5522.182186,6513.812290,-7890.783629,-814.226536
5522.182511,7476.080014,-8580.269578,-962.267725
5522.182835,7476.080014,-9729.412825,-444.123565
5522.183160,6661.853478,-10112.460574,-814.226536
5522.183484,5033.400406,-10878.556072,296.082377
5522.183808,1776.494261,-9882.631924,-592.164754
5522.184133,-888.247130,-9499.584175,148.041188
5522.184457,-3108.864956,-9193.145976,-740.205942
5522.184782,-6365.771101,-9269.755526,0.000000
5522.185106,-6883.915261,-7737.564530,-370.102971
5522.185431,-6661.853478,-7814.174080,0.000000
5522.185755,-4885.359217,-7660.954980,-296.082377
5522.186079,-2368.659014,-7354.516781,-1036.288319
5522.186404,888.247130,-7737.564530,-1332.370696
5522.186728,3404.947333,-7277.907231,-666.185348
5522.187053,5625.565159,-8503.660028,-962.267725
5522.187377,5403.503377,-9193.145976,-1110.308913
5522.187702,4737.318029,-10342.289223,-370.102971
5522.188026,3404.947333,-9729.412825,-1184.329507
5522.188350,2072.576638,-10725.336972,0.000000
5522.188675,-814.226536,-8580.269578,-296.082377
5522.188999,-3552.988522,-8886.707777,370.102971
5522.189324,-4663.297435,-8656.879127,0.000000
5522.189648,-5773.606348,-7584.345430,222.061783
5522.189973,-2886.803174,-6818.249932,592.164754
5522.190297,-888.247130,-6741.640382,0.000000
5522.190621,2368.659014,-7814.174080,-148.041188
5522.190946,5551.544565,-7354.516781,-370.102971
5522.191270,7550.100608,-8810.098227,-1036.288319
5522.191595,7179.997637,-9729.412825,-222.061783
5522.191919,6661.853478,-9193.145976,-296.082377
5522.192244,4959.379811,-10265.679673,222.061783
5522.192568,2220.617826,-9882.631924,74.020594
5522.192892,-370.102971,-9576.193725,518.144159
5522.193217,-3182.885551,-9422.974625,222.061783
5522.193541,-5921.647536,-9269.755526,0.000000
5522.193866,-6661.853478,-7890.783629,0.000000
5522.194190,-6217.729913,-7431.126331,592.164754
5522.194515,-5699.585753,-6894.859482,0.000000
5522.194839,-2442.679609,-7354.516781,-814.226536
5522.195163,74.020594,-6971.469032,-1258.350101
5522.195488,3034.844362,-7737.564530,-370.102971
5522.195812,4071.132681,-8580.269578,-740.205942
5522.196137,5329.482782,-8810.098227,0.000000
5522.196461,5551.544565,-9269.755526,-518.144159
5522.196786,4441.235652,-9729.412825,-518.144159
5522.197110,2664.741391,-9806.022374,-666.185348
5522.197434,0.000000,-9346.365076,-518.144159
5522.197759,-2368.659014,-9346.365076,148.041188
5522.198083,-3478.967927,-8580.269578,0.000000
5522.198408,-3701.029710,-7890.783629,-444.123565
5522.198732,-4885.359217,-7048.078582,-222.061783
5522.199056,-2886.803174,-6511.811733,-296.082377
5522.199381,296.082377,-7354.516781,0.000000
5522.199705,4071.132681,-7584.345430,-962.267725
5522.200030,7105.977043,-8580.269578,518.144159
5522.200354,7698.141797,-8197.221829,-1258.350101
5522.200679,8734.430116,-9729.412825,-148.041188
5522.201003,6439.791695,-9806.022374,-444.123565
5522.201327,4589.276840,-11184.994271,0.000000
5522.201652,1184.329507,-9806.022374,-740.205942
5522.201976,-1998.556043,-10342.289223,-370.102971
5522.202301,-5329.482782,-9882.631924,-370.102971
5522.202625,-6809.894666,-8580.269578,-370.102971
5522.202950,-7031.956449,-7660.954980,370.102971
5522.203274,-6439.791695,-7277.907231,-518.144159
5522.203598,-3849.070898,-7354.516781,-1110.308913
5522.203923,-1998.556043,-7201.297681,-1110.308913
5522.204247,1850.514855,-7431.126331,-740.205942
5522.204572,3627.009116,-7890.783629,-1184.329507
5522.204896,6291.750507,-9422.974625,-370.102971
5522.205221,7105.977043,-8656.879127,-814.226536
5522.205545,5921.647536,-9576.193725,-1110.308913
5522.205869,2960.823768,-10112.460574,-518.144159
5522.206194,370.102971,-9959.241474,-444.123565
5522.206518,-1554.432478,-8810.098227,0.000000
5522.206843,-4811.338623,-9422.974625,0.000000
5522.207167,-5033.400406,-8273.831378,-740.205942
5522.207492,-4885.359217,-7431.126331,518.144159
5522.207816,-3701.029710,-6511.811733,-888.247130
5522.208140,-740.205942,-7354.516781,0.000000
5522.208465,2738.761985,-7354.516781,-888.247130
5522.208789,5477.523971,-8503.660028,148.041188
5522.209114,7031.956449,-7967.393179,-1110.308913
5522.209438,7328.038826,-9116.536426,518.144159
5522.209763,7105.977043,-9269.755526,0.000000
5522.210087,5181.441594,-9576.193725,-296.082377
5522.210411,2072.576638,-10648.727422,-74.020594
5522.210736,-1480.411884,-9806.022374,-370.102971
5522.211060,-4663.297435,-9422.974625,148.041188
5522.211385,-6957.935855,-8350.440928,0.000000
5522.211709,-6587.832884,-7737.564530,370.102971
5522.212034,-6735.874072,-7048.078582,74.020594
5522.212358,-4293.194464,-7201.297681,222.061783
5522.212682,-1776.494261,-6894.859482,-370.102971
5522.213007,740.205942,-6588.421283,-592.164754
5522.213331,3552.988522,-7660.954980,0.000000
5522.213656,5773.606348,-7814.174080,-666.185348
5522.213980,7031.956449,-8273.831378,-74.020594
5522.214305,6661.853478,-9269.755526,-592.164754
5522.214629,4293.194464,-10265.679673,-888.247130
5522.214953,1480.411884,-10801.946522,-814.226536
5522.215278,-2072.576638,-9652.803275,148.041188
5522.215602,-2886.803174,-8963.317327,0.000000
5522.215927,-5477.523971,-8810.098227,666.185348
5522.216251,-6291.750507,-7201.297681,222.061783
5522.216576,-3923.091493,-7354.516781,296.082377
5522.216900,-1702.473667,-6435.202183,-1258.350101
5522.217224,1998.556043,-7507.735880,222.061783
5522.217549,4515.256246,-7277.907231,-592.164754
5522.217873,6883.915261,-8810.098227,-518.144159
5522.218198,7402.059420,-8350.440928,-370.102971
5522.218522,7698.141797,-9882.631924,0.000000
5522.218846,6291.750507,-9806.022374,-370.102971
5522.219171,3478.967927,-10955.165621,-222.061783
5522.219495,-592.164754,-9576.193725,-518.144159
5522.219820,-2368.659014,-10878.556072,296.082377
5522.220144,-6143.709319,-9193.145976,-370.102971
5522.220469,-7031.956449,-8427.050478,444.123565
5522.220793,-6365.771101,-6971.469032,-296.082377
5522.221117,-4737.318029,-8580.269578,0.000000
5522.221442,-3256.906145,-6588.421283,-1332.370696
5522.221766,74.020594,-6971.469032,-1036.288319
5522.222091,2368.659014,-7507.735880,-888.247130
5522.222415,5329.482782,-8580.269578,-814.226536
5522.222740,5773.606348,-8733.488677,-1258.350101
5522.223064,5033.400406,-10648.727422,-148.041188
5522.223388,4367.215058,-9882.631924,-1776.494261
5522.223713,2516.700203,-10572.117872,-666.185348
5522.224037,296.082377,-10189.070123,-1184.329507
5522.224362,-2960.823768,-9499.584175,0.000000
5522.224686,-4811.338623,-8733.488677,74.020594
5522.225011,-6365.771101,-7354.516781,0.000000
5522.225335,-4589.276840,-8810.098227,0.000000
5522.225659,-3182.885551,-6511.811733,-814.226536
5522.225984,666.185348,-7507.735880,222.061783
5522.226308,3034.844362,-7354.516781,-888.247130
5522.226633,6439.791695,-8580.269578,0.000000
5522.226957,7031.956449,-8044.002729,-740.205942
5522.227282,7846.182985,-9959.241474,0.000000
5522.227606,7402.059420,-9346.365076,-814.226536
5522.227930,4663.297435,-11797.870669,-296.082377
5522.228255,2442.679609,-9729.412825,222.061783
5522.228579,-888.247130,-10495.508323,0.000000
5522.228904,-5551.544565,-9729.412825,-888.247130
5522.229228,-7031.956449,-8656.879127,592.164754
5522.229553,-7624.121203,-7354.516781,-222.061783
5522.229877,-7698.141797,-7737.564530,0.000000
5522.230201,-4663.297435,-5898.935335,-814.226536
5522.230526,-1702.473667,-7584.345430,-444.123565
5522.230850,814.226536,-7201.297681,-1110.308913
5522.231175,4145.153275,-8580.269578,0.000000
5522.231499,5625.565159,-7737.564530,-444.123565
5522.231824,7105.977043,-8963.317327,518.144159
5522.232148,6069.688724,-9346.365076,-1184.329507
5522.232472,4737.318029,-10955.165621,-518.144159
5522.232797,1480.411884,-10265.679673,-1480.411884
5522.233121,-2294.638420,-9959.241474,0.000000
5522.233446,-4663.297435,-8656.879127,296.082377
5522.233770,-6291.750507,-8273.831378,740.205942
5522.234095,-6587.832884,-7048.078582,0.000000
5522.234419,-3552.988522,-6971.469032,0.000000
5522.234743,-962.267725,-6511.811733,-222.061783
5522.235068,2368.659014,-7890.783629,518.144159
5522.235392,4959.379811,-7507.735880,666.185348
5522.235717,6513.812290,-8427.050478,-296.082377
5522.236041,8216.285956,-9499.584175,-962.267725
5522.236366,7624.121203,-10265.679673,-518.144159
5522.236690,5921.647536,-9959.241474,0.000000
5522.237014,3256.906145,-10495.508323,-296.082377
5522.237339,0.000000,-9499.584175,-592.164754
5522.237663,-4589.276840,-9576.193725,222.061783
5522.237988,-6809.894666,-8580.269578,-148.041188
5522.238312,-7254.018232,-8120.612279,740.205942
5522.238637,-6439.791695,-7048.078582,666.185348
5522.238961,-4885.359217,-6665.030833,-222.061783
5522.239285,-2368.659014,-7124.688131,-1110.308913
5522.239610,0.000000,-6818.249932,-1258.350101
5522.239934,3627.009116,-8503.660028,-518.144159
5522.240259,5033.400406,-7660.954980,-1184.329507
5522.240583,5921.647536,-9806.022374,222.061783
5522.240907,6883.915261,-9729.412825,-1258.350101
5522.241232,5995.668130,-10495.508323,-1036.288319
5522.241556,2442.679609,-9882.631924,-1628.453072
5522.241881,-370.102971,-10495.508323,-222.061783
5522.242205,-3182.885551,-8733.488677,-370.102971
5522.242530,-4737.318029,-8886.707777,444.123565
5522.242854,-5477.523971,-6741.640382,-148.041188
5522.243178,-5107.421000,-6741.640382,0.000000
5522.243503,-1998.556043,-6894.859482,0.000000
5522.243827,1850.514855,-7124.688131,-592.164754
5522.244152,4441.235652,-7737.564530,-296.082377
5522.244476,6217.729913,-8656.879127,-814.226536
5522.244801,7624.121203,-9269.755526,-222.061783
5522.245125,7328.038826,-9346.365076,-666.185348
5522.245449,6587.832884,-10878.556072,-296.082377
5522.245774,4737.318029,-10495.508323,-666.185348
5522.246098,444.123565,-10648.727422,-518.144159
5522.246423,-2664.741391,-8963.317327,-222.061783
5522.246747,-4071.132681,-9422.974625,592.164754
5522.247072,-7105.977043,-7584.345430,0.000000
5522.247396,-7179.997637,-7354.516781,740.205942
5522.247720,-5699.585753,-6358.592633,-222.061783
5522.248045,-4071.132681,-7354.516781,-888.247130
5522.248369,-814.226536,-6971.469032,-1110.308913
5522.248694,1850.514855,-7814.174080,-1184.329507
5522.249018,4145.153275,-8886.707777,-592.164754
5522.249343,4811.338623,-8733.488677,0.000000
5522.249667,6291.750507,-9346.365076,-222.061783
5522.249991,5181.441594,-9806.022374,-740.205942
5522.250316,3849.070898,-9882.631924,-1480.411884
5522.250640,1184.329507,-10189.070123,-666.185348
5522.250965,-2590.720797,-9116.536426,-444.123565
5522.251289,-3775.050304,-9039.926876,740.205942
5522.251614,-5181.441594,-7201.297681,74.020594
5522.251938,-5477.523971,-7814.174080,0.000000
5522.252262,-3552.988522,-6588.421283,-222.061783
5522.252587,0.000000,-6281.983084,-592.164754
5522.252911,2442.679609,-7660.954980,148.041188
5522.253236,4663.297435,-8350.440928,-444.123565
5522.253560,6513.812290,-8733.488677,-296.082377
5522.253885,6809.894666,-9882.631924,-740.205942
5522.254209,5995.668130,-10572.117872,-444.123565
5522.254533,4145.153275,-10955.165621,-444.123565
5522.254858,2146.597232,-10725.336972,-222.061783
5522.255182,-518.144159,-9346.365076,74.020594
5522.255507,-2960.823768,-8733.488677,-296.082377
5522.255831,-5847.626942,-8810.098227,222.061783
5522.256156,-7105.977043,-7277.907231,444.123565
5522.256480,-6513.812290,-7737.564530,-148.041188
5522.256804,-4589.276840,-7201.297681,-370.102971
5522.257129,-1776.494261,-6665.030833,-370.102971
5522.257453,222.061783,-6971.469032,-814.226536
5522.257778,3330.926739,-8656.879127,-518.144159
5522.258102,4071.132681,-8963.317327,-962.267725
5522.258427,5329.482782,-9346.365076,-740.205942
5522.258751,5773.606348,-9499.584175,-666.185348
5522.259075,3923.091493,-9729.412825,-1332.370696
5522.259400,3627.009116,-9269.755526,-666.185348
5522.259724,-740.205942,-8427.050478,-222.061783
5522.260049,-3701.029710,-9039.926876,148.041188
5522.260373,-5033.400406,-8350.440928,370.102971
5522.260697,-5329.482782,-8503.660028,-370.102971
5522.261022,-4811.338623,-7507.735880,74.020594
5522.261346,-2368.659014,-6818.249932,-370.102971
5522.261671,2368.659014,-7890.783629,592.164754
5522.261995,3997.112087,-7048.078582,-888.247130
5522.262320,7550.100608,-9806.022374,-666.185348
5522.262644,7105.977043,-8273.831378,-1406.391290
5522.262968,6809.894666,-10572.117872,814.226536
5522.263293,5847.626942,-9652.803275,-962.267725
5522.263617,3108.864956,-12027.699319,518.144159
5522.263942,1406.391290,-9269.755526,-814.226536
5522.264266,-1850.514855,-9576.193725,-370.102971
5522.264591,-5329.482782,-8350.440928,-592.164754
5522.264915,-6735.874072,-8733.488677,74.020594
5522.265239,-6661.853478,-7584.345430,0.000000
5522.265564,-5921.647536,-7048.078582,74.020594
5522.265888,-4145.153275,-6665.030833,-814.226536
5522.266213,518.144159,-7354.516781,-1110.308913
5522.266537,888.247130,-7967.393179,-666.185348
5522.266861,5921.647536,-8886.707777,-740.205942
5522.267186,5921.647536,-8273.831378,-1110.308913
5522.267510,5847.626942,-10189.070123,296.082377
5522.267835,5551.544565,-9806.022374,-962.267725
5522.268159,3627.009116,-10648.727422,-1332.370696
5522.268483,666.185348,-10189.070123,-1480.411884
5522.268808,-2664.741391,-9499.584175,74.020594
5522.269132,-4663.297435,-7890.783629,-296.082377
5522.269457,-4737.318029,-8427.050478,-222.061783
5522.269781,-5181.441594,-7354.516781,370.102971
5522.270106,-2960.823768,-6894.859482,0.000000
5522.270430,1110.308913,-7354.516781,-592.164754
5522.270754,3256.906145,-7507.735880,0.000000
5522.271079,5551.544565,-7967.393179,-370.102971
5522.271403,6143.709319,-8427.050478,-814.226536
5522.271728,6809.894666,-10572.117872,222.061783
5522.272052,7031.956449,-9959.241474,148.041188
5522.272376,4737.318029,-9959.241474,222.061783
5522.272701,2294.638420,-9959.241474,-592.164754
5522.273025,-888.247130,-10342.289223,-444.123565
5522.273350,-3923.091493,-9193.145976,0.000000
5522.273674,-6143.709319,-8503.660028,296.082377
5522.273998,-7328.038826,-8044.002729,296.082377
5522.274323,-6883.915261,-7048.078582,370.102971
5522.274647,-4441.235652,-6741.640382,-148.041188
5522.274972,-2220.617826,-6052.154434,-444.123565
5522.275296,518.144159,-7354.516781,-518.144159
5522.275621,3108.864956,-8580.269578,-740.205942
5522.275945,4959.379811,-8427.050478,-444.123565
5522.276269,6661.853478,-9116.536426,0.000000
5522.276594,5921.647536,-9422.974625,-592.164754
5522.276918,4811.338623,-9959.241474,-222.061783
5522.277243,2664.741391,-9806.022374,-592.164754
5522.277567,-592.164754,-9039.926876,-592.164754
5522.277891,-4811.338623,-8503.660028,222.061783
5522.278216,-6883.915261,-8044.002729,518.144159
5522.278540,-5773.606348,-7431.126331,0.000000
5522.278865,-4219.173869,-7737.564530,-222.061783
5522.279189,-1406.391290,-6741.640382,592.164754
5522.279513,1702.473667,-6665.030833,-518.144159
5522.279838,4959.379811,-8044.002729,0.000000
5522.280162,6513.812290,-8350.440928,-814.226536
5522.280487,7402.059420,-8733.488677,-518.144159
5522.280811,6883.915261,-10265.679673,518.144159
5522.281136,5181.441594,-10112.460574,-296.082377
5522.281460,3627.009116,-11261.603821,-444.123565
5522.281784,-148.041188,-10189.070123,-666.185348
5522.282109,-2294.638420,-9193.145976,-222.061783
5522.282433,-6143.709319,-8580.269578,-296.082377
5522.282758,-7550.100608,-7890.783629,592.164754
5522.283082,-7772.162391,-6741.640382,0.000000
5522.283406,-4885.359217,-7584.345430,-444.123565
5522.283731,-2516.700203,-7277.907231,-666.185348
5522.284055,74.020594,-7507.735880,-1184.329507
5522.284380,2886.803174,-8350.440928,-1184.329507
5522.284704,4145.153275,-8810.098227,-592.164754
5522.285028,6291.750507,-8733.488677,-814.226536
5522.285353,5921.647536,-9806.022374,-518.144159
5522.285677,4959.379811,-9806.022374,-1480.411884
5522.286002,3034.844362,-10112.460574,-666.185348
5522.286326,592.164754,-9039.926876,-1110.308913
5522.286651,-3108.864956,-9422.974625,-814.226536
5522.286975,-4071.132681,-8810.098227,-444.123565
5522.287299,-5995.668130,-7354.516781,518.144159
5522.287624,-4811.338623,-6588.421283,148.041188
5522.287948,-2886.803174,-7277.907231,148.041188
5522.288273,1258.350101,-7584.345430,-518.144159
5522.288597,3923.091493,-7431.126331,-888.247130
5522.288921,6365.771101,-8810.098227,-370.102971
5522.289246,7402.059420,-8580.269578,-740.205942
5522.289570,7476.080014,-10342.289223,814.226536
5522.289895,5699.585753,-9499.584175,-888.247130
5522.290219,4145.153275,-11261.603821,74.020594
5522.290544,1924.535449,-9806.022374,-1554.432478
5522.290868,-962.267725,-10418.898773,0.000000
5522.291192,-4885.359217,-9039.926876,-888.247130
5522.291517,-6365.771101,-8810.098227,148.041188
5522.291841,-7031.956449,-7354.516781,-370.102971
5522.292166,-6661.853478,-7584.345430,222.061783
5522.292490,-3478.967927,-6818.249932,0.000000
5522.292814,-962.267725,-7354.516781,-814.226536
5522.293139,1480.411884,-7354.516781,-370.102971
5522.293463,4589.276840,-7967.393179,-1036.288319
5522.293788,5995.668130,-9422.974625,-888.247130
5522.294112,5551.544565,-9959.241474,-666.185348
5522.294436,5403.503377,-10112.460574,-1110.308913
5522.294761,3997.112087,-11108.384721,-222.061783
5522.295085,-148.041188,-7967.393179,-740.205942
5522.295410,222.061783,-8503.660028,-740.205942
5522.295734,-4071.132681,-9576.193725,148.041188
5522.296059,-5995.668130,-7814.174080,0.000000
5522.296383,-5255.462188,-7354.516781,740.205942
5522.296707,-4959.379811,-6894.859482,0.000000
5522.297032,370.102971,-8044.002729,222.061783
5522.297356,2146.597232,-6128.763984,-1184.329507
5522.297681,5181.441594,-9346.365076,370.102971
5522.298005,5255.462188,-8427.050478,-1110.308913
5522.298329,7031.956449,-10112.460574,74.020594
5522.298654,8142.265362,-9729.412825,0.000000
5522.298978,5625.565159,-9882.631924,0.000000
5522.299303,2812.782580,-10189.070123,-592.164754
5522.299627,-148.041188,-9729.412825,0.000000
5522.299951,-3552.988522,-9269.755526,0.000000
5522.300276,-5625.565159,-8580.269578,148.041188
5522.300600,-7550.100608,-7431.126331,0.000000
5522.300925,-7846.182985,-7431.126331,444.123565
5522.301249,-5551.544565,-6971.469032,-222.061783
5522.301574,-2368.659014,-7737.564530,-740.205942
5522.301898,888.247130,-7354.516781,-1110.308913
5522.302222,2960.823768,-8350.440928,-888.247130
5522.302547,4663.297435,-8580.269578,-148.041188
5522.302871,6587.832884,-9576.193725,-666.185348
5522.303196,5995.668130,-9729.412825,-222.061783
5522.303520,4737.318029,-9882.631924,-1184.329507
5522.303844,1628.453072,-9729.412825,-592.164754
5522.304169,-962.267725,-8810.098227,-740.205942
5522.304493,-2664.741391,-9193.145976,-444.123565
5522.304818,-5403.503377,-8733.488677,0.000000
5522.305142,-6439.791695,-6818.249932,518.144159
5522.305466,-5033.400406,-6894.859482,666.185348
5522.305791,-2442.679609,-7584.345430,-962.267725
5522.306115,1110.308913,-7890.783629,0.000000
5522.306440,3701.029710,-7048.078582,-370.102971
5522.306764,5773.606348,-9116.536426,74.020594
5522.307089,7031.956449,-8350.440928,-518.144159
5522.307413,7698.141797,-10342.289223,-370.102971
5522.307737,6957.935855,-9959.241474,-740.205942
5522.308062,4293.194464,-10189.070123,-370.102971
5522.308386,740.205942,-9882.631924,-814.226536
5522.308711,-1628.453072,-9193.145976,-296.082377
5522.309035,-4145.153275,-8656.879127,-222.061783
5522.309359,-6661.853478,-8656.879127,-296.082377
5522.309684,-7476.080014,-7507.735880,296.082377
5522.310008,-6587.832884,-7431.126331,0.000000
5522.310333,-4219.173869,-7354.516781,-1406.391290
5522.310657,-1036.288319,-7201.297681,-740.205942
5522.310981,1628.453072,-7584.345430,-592.164754
5522.311306,5181.441594,-7967.393179,-666.185348
5522.311630,5699.585753,-8273.831378,-296.082377
5522.311955,6735.874072,-9806.022374,-296.082377
5522.312279,5921.647536,-9729.412825,-1036.288319
5522.312604,3997.112087,-10189.070123,-888.247130
5522.312928,1184.329507,-9806.022374,-370.102971
5522.313252,-1332.370696,-8503.660028,-814.226536
5522.313577,-4515.256246,-9116.536426,370.102971
5522.313901,-6513.812290,-7660.954980,0.000000
5522.314226,-6513.812290,-7277.907231,1110.308913
5522.314550,-3330.926739,-7660.954980,0.000000
5522.314874,296.082377,-7660.954980,148.041188
5522.315199,2664.741391,-7048.078582,0.000000
5522.315523,5033.400406,-8273.831378,-222.061783
5522.315848,7402.059420,-8656.879127,-148.041188
5522.316172,8142.265362,-9576.193725,148.041188
5522.316496,7031.956449,-9729.412825,0.000000
5522.316821,4885.359217,-10112.460574,-148.041188
5522.317145,2516.700203,-10265.679673,-222.061783
5522.317470,740.205942,-9882.631924,-592.164754
5522.317794,-3775.050304,-8886.707777,-296.082377
5522.318119,-7105.977043,-8044.002729,74.020594
5522.318443,-7179.997637,-8044.002729,296.082377
5522.318767,-7476.080014,-8350.440928,666.185348
5522.319092,-5403.503377,-6971.469032,0.000000
5522.319416,-2072.576638,-6894.859482,-814.226536
5522.319741,0.000000,-7354.516781,-1110.308913
5522.320065,3923.091493,-8120.612279,-444.123565
5522.320389,5033.400406,-8580.269578,-888.247130
5522.320714,5403.503377,-9882.631924,-740.205942
5522.321038,5551.544565,-9806.022374,-814.226536
5522.321363,4071.132681,-10342.289223,-1258.350101
5522.321687,2516.700203,-9806.022374,-1406.391290
5522.322011,-592.164754,-8963.317327,0.000000
5522.322336,-4663.297435,-9346.365076,74.020594
5522.322660,-6217.729913,-7814.174080,-740.205942
5522.322985,-5551.544565,-8350.440928,592.164754
5522.323309,-5329.482782,-6665.030833,-222.061783
5522.323634,-1036.288319,-7584.345430,592.164754
5522.323958,1406.391290,-6281.983084,-1036.288319
5522.324282,5033.400406,-8503.660028,296.082377
5522.324607,6809.894666,-7431.126331,-1110.308913
5522.324931,8364.327145,-10648.727422,-518.144159
5522.325256,6735.874072,-9882.631924,-1036.288319
5522.325580,4811.338623,-10801.946522,666.185348
5522.325904,3034.844362,-11261.603821,-814.226536
5522.326229,0.000000,-10342.289223,-222.061783
5522.326553,-3404.947333,-9806.022374,0.000000
5522.326878,-6143.709319,-7890.783629,-814.226536
5522.327202,-6069.688724,-9039.926876,592.164754
5522.327527,-7254.018232,-6665.030833,-148.041188
5522.327851,-5033.400406,-6818.249932,1110.308913
5522.328175,-2960.823768,-5898.935335,-1110.308913
5522.328500,1406.391290,-7814.174080,-518.144159
5522.328824,3552.988522,-6665.030833,-370.102971
5522.329149,5329.482782,-8886.707777,-740.205942
5522.329473,5329.482782,-9116.536426,-518.144159
5522.329797,9104.533087,-9882.631924,0.000000
5522.330122,2220.617826,-9193.145976,-1776.494261
5522.330446,2442.679609,-10878.556072,148.041188
5522.330771,-2220.617826,-8197.221829,-888.247130
5522.331095,-2516.700203,-10189.070123,-296.082377
5522.331419,-3997.112087,-8197.221829,370.102971
5522.331744,-5329.482782,-7354.516781,0.000000
5522.332068,-6365.771101,-6358.592633,1332.370696
5522.332393,-1258.350101,-6894.859482,-814.226536
5522.332717,1554.432478,-8044.002729,-370.102971
5522.333042,4441.235652,-6818.249932,-222.061783
5522.333366,6883.915261,-8503.660028,-1258.350101
5522.333690,7328.038826,-9269.755526,-148.041188
5522.334015,8512.368333,-9959.241474,-222.061783
5522.334339,7105.977043,-10035.851024,0.000000
5522.334664,3256.906145,-10955.165621,-74.020594
5522.334988,518.144159,-9576.193725,-518.144159
5522.335312,-1850.514855,-10265.679673,-1110.308913
5522.335637,-4737.318029,-8963.317327,-888.247130
5522.335961,-6587.832884,-8427.050478,370.102971
5522.336286,-6513.812290,-6358.592633,-518.144159
5522.336610,-6661.853478,-7660.954980,-296.082377
5522.336934,-4441.235652,-6741.640382,-592.164754
5522.337259,-518.144159,-7354.516781,-740.205942
5522.337583,1554.432478,-7277.907231,-1110.308913
5522.337908,3256.906145,-9193.145976,0.000000
5522.338232,5625.565159,-8810.098227,-518.144159
5522.338557,5107.421000,-9422.974625,-592.164754
5522.338881,3478.967927,-10801.946522,-666.185348
5522.339205,3923.091493,-10112.460574,-962.267725
5522.339530,0.000000,-10265.679673,-592.164754
5522.339854,-2294.638420,-8733.488677,-962.267725
5522.340179,-2590.720797,-8580.269578,-666.185348
5522.340503,-5403.503377,-7737.564530,444.123565
5522.340827,-5699.585753,-7354.516781,1110.308913
5522.341152,-3108.864956,-6588.421283,0.000000
5522.341476,0.000000,-7507.735880,-222.061783
5522.341801,1924.535449,-7048.078582,-666.185348
5522.342125,4663.297435,-8810.098227,0.000000
5522.342449,7031.956449,-8733.488677,-296.082377
5522.342774,7179.997637,-10035.851024,74.020594
5522.343098,6513.812290,-10112.460574,370.102971
5522.343423,5403.503377,-8810.098227,-518.144159
5522.343747,1924.535449,-10648.727422,74.020594
5522.344072,-592.164754,-9576.193725,-1332.370696
5522.344396,-2738.761985,-9193.145976,-666.185348
5522.344720,-5403.503377,-8580.269578,-222.061783
5522.345045,-7846.182985,-7277.907231,370.102971
5522.345369,-7476.080014,-6435.202183,814.226536
5522.345694,-4219.173869,-7737.564530,296.082377
5522.346018,-2960.823768,-6818.249932,-814.226536
5522.346342,814.226536,-7354.516781,-370.102971
5522.346667,2442.679609,-7967.393179,-1110.308913
5522.346991,4885.359217,-9346.365076,-296.082377
5522.347316,6143.709319,-8044.002729,-296.082377
5522.347640,5403.503377,-9806.022374,370.102971
5522.347964,4663.297435,-9346.365076,-518.144159
5522.348289,2294.638420,-10495.508323,-518.144159
5522.348613,74.020594,-9806.022374,-1702.473667
5522.348938,-2516.700203,-9576.193725,-148.041188
5522.349262,-5403.503377,-7737.564530,0.000000
5522.349587,-5477.523971,-7277.907231,1702.473667
5522.349911,-4515.256246,-6511.811733,0.000000
5522.350235,-1554.432478,-7431.126331,0.000000
5522.350560,444.123565,-7354.516781,370.102971
5522.350884,4441.235652,-6665.030833,-518.144159
5522.351209,6513.812290,-8350.440928,-296.082377
5522.351533,8364.327145,-8886.707777,-814.226536
5522.351857,7920.203579,-10495.508323,-222.061783
5522.352182,6143.709319,-9193.145976,-666.185348
5522.352506,3701.029710,-11874.480219,74.020594
5522.352831,1110.308913,-10189.070123,-962.267725
5522.353155,-2146.597232,-9422.974625,-296.082377
5522.353479,-4885.359217,-9346.365076,-962.267725
5522.353804,-6069.688724,-7967.393179,-444.123565
5522.354128,-6735.874072,-7431.126331,444.123565
5522.354453,-5921.647536,-7124.688131,74.020594
5522.354777,-3478.967927,-6894.859482,-888.247130
5522.355102,0.000000,-7584.345430,-740.205942
5522.355426,1850.514855,-8120.612279,-1184.329507
5522.355750,4737.318029,-8656.879127,-740.205942
5522.356075,5329.482782,-9806.022374,-740.205942
5522.356399,5403.503377,-9806.022374,-666.185348
5522.356724,4737.318029,-10572.117872,-592.164754
5522.357048,3404.947333,-9499.584175,-1406.391290
5522.357372,814.226536,-10572.117872,0.000000
5522.357697,-1924.535449,-8810.098227,-1850.514855
5522.358021,-3330.926739,-8963.317327,296.082377
5522.358346,-5255.462188,-8044.002729,-148.041188
5522.358670,-3182.885551,-7277.907231,444.123565
5522.358995,-2368.659014,-6665.030833,74.020594
5522.359319,1110.308913,-7354.516781,-1332.370696
5522.359643,3256.906145,-7967.393179,-222.061783
5522.359968,5107.421000,-8044.002729,444.123565
5522.360292,6661.853478,-9269.755526,148.041188
5522.360617,7476.080014,-10035.851024,-370.102971
5522.360941,6217.729913,-10265.679673,-370.102971
5522.361265,2664.741391,-10648.727422,-962.267725
5522.361590,1554.432478,-10418.898773,-444.123565
5522.361914,-1258.350101,-9806.022374,0.000000
5522.362239,-4219.173869,-8733.488677,-370.102971
5522.362563,-6069.688724,-8810.098227,296.082377
5522.362887,-6957.935855,-7124.688131,0.000000
5522.363212,-6069.688724,-7124.688131,222.061783
5522.363536,-4663.297435,-6741.640382,-370.102971
5522.363861,-1554.432478,-6971.469032,-370.102971
5522.364185,888.247130,-6741.640382,296.082377
5522.364509,2590.720797,-8503.660028,-666.185348
5522.364834,4663.297435,-8503.660028,-518.144159
5522.365158,5921.647536,-9576.193725,-592.164754
5522.365483,5625.565159,-9269.755526,-814.226536
5522.365807,3923.091493,-10342.289223,-444.123565
5522.366131,888.247130,-9422.974625,-444.123565
5522.366456,-740.205942,-9959.241474,0.000000
5522.366780,-3552.988522,-8656.879127,-740.205942
5522.367104,-4663.297435,-7814.174080,74.020594
5522.367429,-5107.421000,-7277.907231,666.185348
5522.367753,-3108.864956,-7124.688131,0.000000
5522.368078,-740.205942,-7201.297681,0.000000
5522.368402,2220.617826,-6894.859482,0.000000
5522.368726,3552.988522,-7890.783629,666.185348
5522.369051,5773.606348,-7507.735880,370.102971
5522.369375,7105.977043,-9806.022374,74.020594
5522.369700,7624.121203,-9039.926876,0.000000
5522.370024,6143.709319,-9729.412825,-518.144159
5522.370348,2960.823768,-10495.508323,-962.267725
5522.370673,444.123565,-10725.336972,-148.041188
5522.370997,-3034.844362,-9193.145976,-444.123565
5522.371321,-5551.544565,-9116.536426,-222.061783
5522.371646,-6513.812290,-7354.516781,-444.123565
5522.371970,-6291.750507,-6741.640382,-296.082377
5522.372295,-5181.441594,-6511.811733,-222.061783
5522.372619,-2664.741391,-6818.249932,-592.164754
5522.372943,0.000000,-7201.297681,-1036.288319
5522.373268,1998.556043,-7967.393179,-370.102971
5522.373592,4293.194464,-8503.660028,-962.267725
5522.373916,5995.668130,-9499.584175,0.000000
5522.374241,6143.709319,-9729.412825,-1702.473667
5522.374565,4737.318029,-10342.289223,-666.185348
5522.374890,2516.700203,-9652.803275,-1258.350101
5522.375214,-666.185348,-10418.898773,-962.267725
5522.375538,-2886.803174,-9959.241474,-1406.391290
5522.375863,-4441.235652,-9116.536426,-888.247130
5522.376187,-5181.441594,-7660.954980,74.020594
5522.376512,-4663.297435,-6894.859482,0.000000
5522.376836,-1110.308913,-6971.469032,-740.205942
5522.377160,1628.453072,-7737.564530,-518.144159
5522.377485,3478.967927,-7124.688131,-296.082377
5522.377809,5773.606348,-8427.050478,1036.288319
5522.378133,5773.606348,-8886.707777,-666.185348
5522.378458,7624.121203,-10112.460574,0.000000
5522.378782,7105.977043,-9729.412825,-1332.370696
5522.379107,4441.235652,-10035.851024,-444.123565
5522.379431,1036.288319,-10189.070123,-666.185348
5522.379755,-1924.535449,-9039.926876,296.082377
5522.380080,-4811.338623,-9422.974625,296.082377
5522.380404,-6365.771101,-8197.221829,-888.247130
5522.380729,-6143.709319,-7967.393179,-148.041188
5522.381053,-5625.565159,-6894.859482,592.164754
5522.381377,-3330.926739,-7048.078582,-888.247130
5522.381702,-222.061783,-7277.907231,-1110.308913
5522.382026,1998.556043,-7507.735880,-370.102971
5522.382350,3330.926739,-7814.174080,-296.082377
5522.382675,5033.400406,-9269.755526,-296.082377
5522.382999,5773.606348,-10189.070123,-592.164754
5522.383324,6365.771101,-9652.803275,-666.185348
5522.383648,3256.906145,-9806.022374,-740.205942
5522.383972,1036.288319,-9652.803275,-814.226536
5522.384297,-1110.308913,-9729.412825,0.000000
5522.384621,-4515.256246,-8120.612279,-592.164754
5522.384946,-6069.688724,-7890.783629,888.247130
5522.385270,-4737.318029,-6741.640382,962.267725
5522.385594,-2368.659014,-7048.078582,-296.082377
5522.385919,74.020594,-7967.393179,-444.123565
5522.386243,1776.494261,-7431.126331,-518.144159
5522.386567,3775.050304,-8810.098227,1110.308913
5522.386892,6143.709319,-7660.954980,74.020594
5522.387216,7772.162391,-10342.289223,-296.082377
5522.387541,7031.956449,-10572.117872,-1406.391290
5522.387865,4737.318029,-10648.727422,0.000000
5522.388189,1628.453072,-9806.022374,-592.164754
5522.388514,-962.267725,-9576.193725,-444.123565
5522.388838,-3997.112087,-9959.241474,-296.082377
5522.389162,-6439.791695,-7737.564530,-740.205942
5522.389487,-6217.729913,-7967.393179,592.164754
5522.389811,-7105.977043,-5898.935335,-148.041188
5522.390136,-3923.091493,-7048.078582,74.020594
5522.390460,-1924.535449,-7354.516781,-1850.514855
5522.390784,666.185348,-7890.783629,-222.061783
5522.391109,2590.720797,-7201.297681,-296.082377
5522.391433,4811.338623,-8503.660028,0.000000
5522.391758,5773.606348,-9729.412825,-370.102971
5522.392082,5181.441594,-10418.898773,-1110.308913
5522.392406,3775.050304,-11108.384721,-1480.411884
5522.392731,1554.432478,-10035.851024,-1332.370696
5522.393055,-370.102971,-9806.022374,0.000000
5522.393379,-3627.009116,-7890.783629,-296.082377
5522.393704,-4663.297435,-8580.269578,148.041188
5522.394028,-5551.544565,-7048.078582,-148.041188
5522.394353,-3997.112087,-7048.078582,0.000000
5522.394677,-1480.411884,-6818.249932,-814.226536
5522.395001,1406.391290,-7814.174080,-148.041188
5522.395326,4367.215058,-7507.735880,444.123565
5522.395650,5847.626942,-8427.050478,0.000000
5522.395975,6735.874072,-9729.412825,-666.185348
5522.396299,7328.038826,-10878.556072,-814.226536
5522.396623,5107.421000,-10112.460574,-1110.308913
5522.396948,3256.906145,-10878.556072,-518.144159
5522.397272,888.247130,-9882.631924,-740.205942
5522.397596,-1776.494261,-9729.412825,444.123565
5522.397921,-4663.297435,-9269.755526,-592.164754
5522.398245,-5181.441594,-7967.393179,74.020594
5522.398570,-6957.935855,-6588.421283,296.082377
5522.398894,-5921.647536,-6205.373534,-592.164754
5522.399218,-3256.906145,-7507.735880,-1332.370696
5522.399543,-962.267725,-7507.735880,-1036.288319
5522.399867,1332.370696,-7660.954980,0.000000
5522.400192,3997.112087,-8197.221829,0.000000
5522.400516,5847.626942,-9422.974625,-370.102971
5522.400840,5625.565159,-9882.631924,-370.102971
5522.401165,5329.482782,-10035.851024,-1776.494261
5522.401489,4145.153275,-9806.022374,-370.102971
5522.401813,1184.329507,-9422.974625,0.000000
5522.402138,-2442.679609,-8273.831378,-814.226536
5522.402462,-4737.318029,-9039.926876,0.000000
5522.402787,-6957.935855,-7507.735880,-888.247130
5522.403111,-4737.318029,-7354.516781,1110.308913
5522.403435,-4071.132681,-6741.640382,-740.205942
5522.403760,-518.144159,-8350.440928,740.205942
5522.404084,2442.679609,-6818.249932,-370.102971
5522.404408,5625.565159,-8350.440928,518.144159
5522.404733,8882.471304,-8886.707777,-370.102971
5522.405057,8882.471304,-9882.631924,-962.267725
5522.405382,7846.182985,-10648.727422,-518.144159
5522.405706,5699.585753,-10418.898773,-444.123565
5522.406030,2220.617826,-10801.946522,-74.020594
5522.406355,-1258.350101,-9882.631924,0.000000
5522.406679,-4219.173869,-9116.536426,-1036.288319
5522.407004,-6809.894666,-8350.440928,-370.102971
5522.407328,-7624.121203,-7584.345430,-222.061783
5522.407652,-8142.265362,-6665.030833,-296.082377
5522.407977,-4293.194464,-6971.469032,-666.185348
5522.408301,-3256.906145,-6818.249932,-962.267725
5522.408625,1480.411884,-7890.783629,296.082377
5522.408950,3034.844362,-7431.126331,-740.205942
5522.409274,6957.935855,-10112.460574,0.000000
5522.409599,7994.224174,-8886.707777,-1480.411884
5522.409923,5773.606348,-10572.117872,-962.267725
5522.410247,3256.906145,-10648.727422,-1258.350101
5522.410572,1184.329507,-11414.822920,-1110.308913
5522.410896,-1628.453072,-10112.460574,0.000000
5522.411221,-6365.771101,-6971.469032,666.185348
5522.411545,-5699.585753,-7584.345430,-1332.370696
5522.411869,-6661.853478,-8273.831378,0.000000
5522.412194,-5329.482782,-6358.592633,1036.288319
5522.412518,-370.102971,-6511.811733,0.000000
5522.412842,1702.473667,-7354.516781,222.061783
5522.413167,5551.544565,-7354.516781,222.061783
5522.413491,6883.915261,-8350.440928,-148.041188
5522.413816,8290.306550,-8963.317327,0.000000
5522.414140,7698.141797,-10955.165621,74.020594
5522.414464,5329.482782,-9116.536426,-814.226536
5522.414789,3552.988522,-10342.289223,148.041188
5522.415113,0.000000,-10572.117872,-1184.329507
5522.415438,-1850.514855,-9806.022374,296.082377
5522.415762,-5403.503377,-7660.954980,-518.144159
5522.416086,-6069.688724,-8580.269578,0.000000
5522.416411,-6143.709319,-6971.469032,-370.102971
5522.416735,-6439.791695,-6665.030833,74.020594
5522.417059,-3478.967927,-7277.907231,-370.102971
5522.417384,-222.061783,-6588.421283,-962.267725
5522.417708,1406.391290,-8503.660028,0.000000
5522.418033,3034.844362,-8656.879127,-1332.370696
5522.418357,5625.565159,-10035.851024,-666.185348
5522.418681,6143.709319,-9576.193725,-1628.453072
5522.419006,5033.400406,-9959.241474,-296.082377
5522.419330,2368.659014,-9422.974625,-888.247130
5522.419654,-222.061783,-10342.289223,0.000000
5522.419979,-2368.659014,-8427.050478,-740.205942
5522.420303,-4737.318029,-8120.612279,0.000000
5522.420628,-4885.359217,-6281.983084,444.123565
5522.420952,-5477.523971,-7048.078582,592.164754
5522.421276,-2664.741391,-6741.640382,-592.164754
5522.421601,370.102971,-8427.050478,296.082377
5522.421925,2886.803174,-7201.297681,-74.020594
5522.422250,6439.791695,-8963.317327,222.061783
5522.422574,7254.018232,-8580.269578,-1332.370696
5522.422898,7994.224174,-12104.308868,740.205942
5522.423223,6069.688724,-8580.269578,-444.123565
5522.423547,6587.832884,-9806.022374,74.020594
5522.423871,2368.659014,-8656.879127,-888.247130
5522.424196,-1258.350101,-10035.851024,0.000000
5522.424520,-4515.256246,-9193.145976,-1480.411884
5522.424845,-6513.812290,-8810.098227,-370.102971
5522.425169,-7550.100608,-6435.202183,370.102971
5522.425493,-6513.812290,-5975.544884,148.041188
5522.425818,-4737.318029,-7354.516781,0.000000
5522.426142,-2294.638420,-7048.078582,-1184.329507
5522.426467,740.205942,-7814.174080,-1036.288319
5522.426791,2442.679609,-9039.926876,-666.185348
5522.427115,5181.441594,-9729.412825,-814.226536
5522.427440,7179.997637,-9882.631924,-296.082377
5522.427764,7328.038826,-10189.070123,-962.267725
5522.428088,6291.750507,-9882.631924,-1258.350101
5522.428413,2442.679609,-9346.365076,-518.144159
5522.428737,-962.267725,-8580.269578,-1332.370696
5522.429062,-4145.153275,-8580.269578,1258.350101
5522.429386,-6439.791695,-6971.469032,888.247130
5522.429710,-5847.626942,-6741.640382,74.020594
5522.430035,-5847.626942,-7124.688131,-370.102971
5522.430359,-1776.494261,-7354.516781,74.020594
5522.430684,1480.411884,-7124.688131,-296.082377
5522.431008,4367.215058,-7814.174080,-444.123565
5522.431332,7179.997637,-9422.974625,148.041188
5522.431657,8512.368333,-8963.317327,-740.205942
5522.431981,7994.224174,-11491.432470,296.082377
5522.432305,7105.977043,-10572.117872,-1480.411884
5522.432630,5033.400406,-10725.336972,-444.123565
5522.432954,-296.082377,-9652.803275,-666.185348
5522.433279,-3182.885551,-9269.755526,148.041188
5522.433603,-5847.626942,-8503.660028,74.020594
5522.433927,-8882.471304,-7431.126331,148.041188
5522.434252,-8290.306550,-7124.688131,740.205942
5522.434576,-7105.977043,-6052.154434,-222.061783
5522.434900,-3775.050304,-6971.469032,-1110.308913
5522.435225,-370.102971,-7967.393179,-888.247130
5522.435549,4293.194464,-8120.612279,-1332.370696
5522.435874,6513.812290,-9499.584175,-296.082377
5522.436198,7105.977043,-8503.660028,-1110.308913
5522.436522,7254.018232,-10342.289223,370.102971
5522.436847,4293.194464,-9116.536426,-1554.432478
5522.437171,4367.215058,-10572.117872,-666.185348
5522.437496,222.061783,-9116.536426,-148.041188
5522.437820,-4219.173869,-8963.317327,-74.020594
5522.438144,-7772.162391,-9116.536426,-296.082377
5522.438469,-7476.080014,-7507.735880,0.000000
5522.438793,-5625.565159,-7737.564530,592.164754
5522.439117,-2960.823768,-6052.154434,-2516.700203
5522.439442,148.041188,-9039.926876,666.185348
5522.439766,4219.173869,-5362.668486,-518.144159
5522.440091,6809.894666,-9729.412825,592.164754
5522.440415,10288.862594,-7354.516781,-740.205942
5522.440739,9918.759623,-10342.289223,1036.288319
5522.441064,7772.162391,-8656.879127,-1554.432478
5522.441388,5255.462188,-12104.308868,296.082377
5522.441713,1850.514855,-9346.365076,-1406.391290
5522.442037,-2960.823768,-10189.070123,1332.370696
5522.442361,-7105.977043,-7737.564530,-666.185348
5522.442686,-7920.203579,-9039.926876,1332.370696
5522.443010,-9178.553681,-6128.763984,-814.226536
5522.443334,-6587.832884,-7890.783629,-518.144159
5522.443659,-4663.297435,-7048.078582,-2220.617826
5522.443983,-2294.638420,-7354.516781,-148.041188
5522.444308,1850.514855,-6128.763984,-888.247130
5522.444632,5551.544565,-8197.221829,0.000000
5522.444956,7624.121203,-9652.803275,-962.267725
5522.445281,7624.121203,-9039.926876,-1258.350101
5522.445605,5551.544565,-10265.679673,-814.226536
5522.445930,3923.091493,-9652.803275,-1406.391290
5522.446254,1036.288319,-10648.727422,-222.061783
5522.446578,-3034.844362,-9193.145976,148.041188
5522.446903,-5477.523971,-8197.221829,1036.288319
5522.447227,-6661.853478,-7660.954980,-296.082377
5522.447551,-6809.894666,-7814.174080,-444.123565
5522.447876,-4515.256246,-6435.202183,0.000000
5522.448200,-1258.350101,-7201.297681,-1258.350101
5522.448525,2590.720797,-7737.564530,-962.267725
5522.448849,5625.565159,-8197.221829,518.144159
5522.449173,8438.347739,-7354.516781,370.102971
5522.449498,9474.636058,-9806.022374,-222.061783
5522.449822,9474.636058,-11644.651570,-1554.432478
5522.450146,7105.977043,-10572.117872,-592.164754
5522.450471,3404.947333,-10189.070123,222.061783
5522.450795,-814.226536,-10035.851024,-370.102971
5522.451120,-4737.318029,-10112.460574,148.041188
5522.451444,-6587.832884,-8580.269578,0.000000
5522.451768,-7772.162391,-7967.393179,222.061783
5522.452093,-8438.347739,-7584.345430,222.061783
5522.452417,-6735.874072,-6435.202183,-666.185348
5522.452742,-4811.338623,-7277.907231,-666.185348
5522.453066,-222.061783,-7737.564530,-1332.370696
5522.453390,3108.864956,-7737.564530,-888.247130
5522.453715,6217.729913,-8273.831378,-370.102971
5522.454039,7772.162391,-8273.831378,-1036.288319
5522.454363,7698.141797,-11338.213370,-1628.453072
5522.454688,4959.379811,-10725.336972,-1258.350101
5522.455012,518.144159,-10342.289223,148.041188
5522.455337,-1110.308913,-9806.022374,296.082377
5522.455661,-4515.256246,-9193.145976,1036.288319
5522.455985,-6809.894666,-8350.440928,0.000000
5522.456310,-6143.709319,-7660.954980,74.020594
5522.456634,-5625.565159,-6818.249932,0.000000
5522.456959,-2590.720797,-5898.935335,296.082377
5522.457283,1110.308913,-6358.592633,444.123565
5522.457607,4293.194464,-7737.564530,-1110.308913
5522.457932,8882.471304,-9346.365076,0.000000
5522.458256,9992.780217,-7660.954980,-1036.288319
5522.458580,9622.677246,-10801.946522,-444.123565
5522.458905,7179.997637,-11108.384721,-1258.350101
5522.459229,3997.112087,-11108.384721,0.000000
5522.459554,1258.350101,-9882.631924,1480.411884
5522.459878,-3775.050304,-9269.755526,666.185348
5522.460202,-6735.874072,-9576.193725,0.000000
5522.460527,-7846.182985,-7431.126331,0.000000
5522.460851,-7402.059420,-7354.516781,222.061783
5522.461176,-6291.750507,-6435.202183,74.020594
5522.461500,-4663.297435,-6894.859482,-1036.288319
5522.461824,-666.185348,-7048.078582,-1184.329507
5522.462149,3034.844362,-8197.221829,-148.041188
5522.462473,5921.647536,-7967.393179,-814.226536
5522.462797,8660.409521,-9652.803275,-666.185348
5522.463122,8512.368333,-10648.727422,-1110.308913
5522.463446,4737.318029,-9882.631924,-1702.473667
5522.463771,3330.926739,-11261.603821,0.000000
5522.464095,-1110.308913,-9499.584175,-148.041188
5522.464419,-5107.421000,-10418.898773,962.267725
5522.464744,-6365.771101,-7584.345430,-296.082377
5522.465068,-6143.709319,-7201.297681,0.000000
5522.465393,-6513.812290,-6741.640382,-666.185348
5522.465717,-3552.988522,-5898.935335,-148.041188
5522.466041,-296.082377,-7354.516781,148.041188
5522.466366,2886.803174,-7584.345430,-222.061783
5522.466690,7846.182985,-8197.221829,-222.061783
5522.467015,9992.780217,-8197.221829,-444.123565
5522.467339,11251.130318,-10342.289223,-370.102971
5522.467663,8882.471304,-10418.898773,-1850.514855
5522.467988,5921.647536,-11338.213370,-296.082377
5522.468312,1628.453072,-10342.289223,-592.164754
5522.468637,-3256.906145,-11031.775171,814.226536
5522.468961,-6069.688724,-9193.145976,296.082377
5522.469285,-7624.121203,-8656.879127,222.061783
5522.469610,-8364.327145,-7201.297681,-1184.329507
5522.469934,-7846.182985,-6818.249932,814.226536
5522.470259,-6365.771101,-6358.592633,-1184.329507
5522.470583,-2072.576638,-7431.126331,-1406.391290
5522.470908,1850.514855,-7814.174080,-370.102971
5522.471232,6143.709319,-8120.612279,-296.082377
5522.471556,6513.812290,-9269.755526,-370.102971
5522.471881,6883.915261,-10035.851024,-1776.494261
5522.472205,5477.523971,-10342.289223,-1924.535449
5522.472530,2960.823768,-10725.336972,-1184.329507
5522.472854,-740.205942,-11338.213370,518.144159
5522.473178,-3627.009116,-8733.488677,370.102971
5522.473503,-5699.585753,-9116.536426,148.041188
5522.473827,-5699.585753,-8350.440928,-1554.432478
5522.474152,-5699.585753,-7431.126331,666.185348
5522.474476,-4293.194464,-5515.887586,-222.061783
5522.474800,-1036.288319,-6511.811733,-296.082377
5522.475125,592.164754,-7431.126331,-592.164754
5522.475449,4737.318029,-7354.516781,0.000000
5522.475774,9104.533087,-8886.707777,-666.185348
5522.476098,9030.512492,-9576.193725,-518.144159
5522.476422,8586.388927,-10112.460574,74.020594
5522.476747,6217.729913,-10801.946522,-1554.432478
5522.477071,3108.864956,-11031.775171,296.082377
5522.477396,-888.247130,-9806.022374,222.061783
5522.477720,-3330.926739,-9116.536426,518.144159
5522.478044,-5329.482782,-8656.879127,518.144159
5522.478369,-7254.018232,-7354.516781,-296.082377
5522.478693,-7550.100608,-6281.983084,1110.308913
5522.479018,-6735.874072,-6511.811733,-444.123565
