#time,accel_x,accel_y,accel_z
4217.535138,518.144159,-8656.879127,-222.061783
4217.535463,444.123565,-8886.707777,-148.041188
4217.535787,666.185348,-8427.050478,-444.123565
4217.536112,222.061783,-8656.879127,-370.102971
4217.536437,444.123565,-8427.050478,0.000000
4217.536762,666.185348,-8733.488677,-666.185348
4217.537086,518.144159,-9193.145976,-444.123565
4217.537411,592.164754,-8733.488677,-222.061783
4217.537736,370.102971,-8350.440928,-370.102971
4217.538060,148.041188,-8810.098227,-222.061783
4217.538385,814.226536,-8656.879127,0.000000
4217.538710,592.164754,-8656.879127,-370.102971
4217.539035,370.102971,-8580.269578,-296.082377
4217.539359,296.082377,-8427.050478,-296.082377
4217.539684,296.082377,-8580.269578,-370.102971
4217.540009,518.144159,-8427.050478,-592.164754
4217.540334,592.164754,-8733.488677,-444.123565
4217.540658,518.144159,-8350.440928,-444.123565
4217.540983,296.082377,-8810.098227,-296.082377
4217.541308,814.226536,-9039.926876,-296.082377
4217.541633,296.082377,-8197.221829,-296.082377
4217.541957,518.144159,-8656.879127,-444.123565
4217.542282,518.144159,-8656.879127,-592.164754
4217.542607,592.164754,-8350.440928,-148.041188
4217.542932,74.020594,-8503.660028,-592.164754
4217.543256,222.061783,-8810.098227,-222.061783
4217.543581,592.164754,-8273.831378,-444.123565
4217.543906,370.102971,-8810.098227,-296.082377
4217.544231,518.144159,-8427.050478,-296.082377
4217.544555,74.020594,-8427.050478,-222.061783
4217.544880,370.102971,-8810.098227,-370.102971
4217.545205,444.123565,-8427.050478,-222.061783
4217.545530,666.185348,-8120.612279,-148.041188
4217.545854,518.144159,-8733.488677,-222.061783
4217.546179,370.102971,-8197.221829,-222.061783
4217.546504,296.082377,-8810.098227,-296.082377
4217.546828,592.164754,-8503.660028,0.000000
4217.547153,518.144159,-8580.269578,-296.082377
4217.547478,148.041188,-8810.098227,-444.123565
4217.547803,-666.185348,-8733.488677,-222.061783
4217.548127,-1332.370696,-8350.440928,-518.144159
4217.548452,-1924.535449,-8044.002729,-666.185348
4217.548777,-1850.514855,-8963.317327,-592.164754
4217.549102,-1998.556043,-8273.831378,-148.041188
4217.549426,-1406.391290,-8580.269578,-222.061783
4217.549751,-1184.329507,-7354.516781,-666.185348
4217.550076,-1258.350101,-8503.660028,0.000000
4217.550401,-888.247130,-7967.393179,-592.164754
4217.550725,-1480.411884,-9193.145976,-444.123565
4217.551050,-1924.535449,-8733.488677,-592.164754
4217.551375,-2516.700203,-8656.879127,-222.061783
4217.551700,-3034.844362,-8350.440928,-666.185348
4217.552024,-3256.906145,-8810.098227,-222.061783
4217.552349,-3478.967927,-8427.050478,-740.205942
4217.552674,-3330.926739,-8656.879127,0.000000
4217.552999,-2442.679609,-8350.440928,-370.102971
4217.553323,-2294.638420,-8656.879127,-222.061783
4217.553648,-1628.453072,-8503.660028,-666.185348
4217.553973,-1998.556043,-8886.707777,-370.102971
4217.554297,-2072.576638,-9116.536426,-444.123565
4217.554622,-2442.679609,-8503.660028,-518.144159
4217.554947,-2960.823768,-8886.707777,0.000000
4217.555272,-3478.967927,-9422.974625,0.000000
4217.555596,-3256.906145,-9039.926876,74.020594
4217.555921,-3330.926739,-8580.269578,-370.102971
4217.556246,-2812.782580,-8810.098227,0.000000
4217.556571,-2516.700203,-8427.050478,0.000000
4217.556895,-1850.514855,-8810.098227,-962.267725
4217.557220,-2072.576638,-8427.050478,-222.061783
4217.557545,-1776.494261,-8273.831378,-222.061783
4217.557870,-1998.556043,-8810.098227,-518.144159
4217.558194,-2368.659014,-8197.221829,222.061783
4217.558519,-2368.659014,-8733.488677,0.000000
4217.558844,-2368.659014,-8580.269578,-148.041188
4217.559169,-2516.700203,-8656.879127,-370.102971
4217.559493,-2220.617826,-9039.926876,0.000000
4217.559818,-1480.411884,-8350.440928,-370.102971
4217.560143,-1628.453072,-8580.269578,-592.164754
4217.560468,-1554.432478,-8350.440928,-666.185348
4217.560792,-1628.453072,-8427.050478,-370.102971
4217.561117,-1702.473667,-7737.564530,-518.144159
4217.561442,-2146.597232,-8197.221829,-740.205942
4217.561767,-2368.659014,-8197.221829,-148.041188
4217.562091,-2664.741391,-8120.612279,-666.185348
4217.562416,-2072.576638,-8273.831378,-148.041188
4217.562741,-1924.535449,-7660.954980,-666.185348
4217.563065,-888.247130,-8580.269578,-222.061783
4217.563390,-518.144159,-7737.564530,-1184.329507
4217.563715,-296.082377,-8503.660028,-148.041188
4217.564040,-296.082377,-7507.735880,-888.247130
4217.564364,222.061783,-8427.050478,-814.226536
4217.564689,148.041188,-8350.440928,-592.164754
4217.565014,74.020594,-8810.098227,-666.185348
4217.565339,0.000000,-8044.002729,-296.082377
4217.565663,-444.123565,-8503.660028,-444.123565
4217.565988,74.020594,-8963.317327,-296.082377
4217.566313,592.164754,-8503.660028,-592.164754
4217.566638,1332.370696,-8963.317327,-222.061783
4217.566962,1332.370696,-8350.440928,-592.164754
4217.567287,1702.473667,-9116.536426,-370.102971
4217.567612,1332.370696,-8810.098227,-666.185348
4217.567937,1110.308913,-9422.974625,-518.144159
4217.568261,-666.185348,-8886.707777,-888.247130
4217.568586,-1850.514855,-9269.755526,-444.123565
4217.568911,-2664.741391,-9039.926876,-222.061783
4217.569236,-2442.679609,-9039.926876,0.000000
4217.569560,-4441.235652,-8427.050478,-592.164754
4217.569885,-2886.803174,-9652.803275,-444.123565
4217.570210,-3108.864956,-7584.345430,-1184.329507
4217.570535,-2294.638420,-8886.707777,-148.041188
4217.570859,-888.247130,-7814.174080,-1184.329507
4217.571184,-1258.350101,-9499.584175,-444.123565
4217.571509,-1406.391290,-8273.831378,-740.205942
4217.571833,-1480.411884,-8886.707777,-592.164754
4217.572158,-1924.535449,-9116.536426,-370.102971
4217.572483,-2886.803174,-9499.584175,74.020594
4217.572808,-2590.720797,-9269.755526,148.041188
4217.573132,-3330.926739,-8733.488677,-296.082377
4217.573457,-2072.576638,-8886.707777,-222.061783
4217.573782,-814.226536,-8273.831378,-370.102971
4217.574107,0.000000,-8656.879127,-444.123565
4217.574431,296.082377,-8886.707777,-444.123565
4217.574756,222.061783,-8273.831378,-518.144159
4217.575081,-814.226536,-8886.707777,0.000000
4217.575406,-2072.576638,-8427.050478,0.000000
4217.575730,-4145.153275,-9193.145976,74.020594
4217.576055,-5551.544565,-9116.536426,-222.061783
4217.576380,-6217.729913,-9576.193725,296.082377
4217.576705,-6069.688724,-7737.564530,592.164754
4217.577029,-3404.947333,-8580.269578,0.000000
4217.577354,-3256.906145,-8044.002729,518.144159
4217.577679,-1036.288319,-7967.393179,74.020594
4217.578004,-370.102971,-7737.564530,-222.061783
4217.578328,518.144159,-8427.050478,370.102971
4217.578653,1036.288319,-8503.660028,296.082377
4217.578978,0.000000,-8350.440928,222.061783
4217.579302,-1110.308913,-9193.145976,444.123565
4217.579627,-2664.741391,-9039.926876,296.082377
4217.579952,-5107.421000,-9729.412825,296.082377
4217.580277,-5847.626942,-9116.536426,-222.061783
4217.580601,-6587.832884,-8810.098227,-740.205942
4217.580926,-4663.297435,-8197.221829,148.041188
4217.581251,-3404.947333,-7814.174080,-962.267725
4217.581576,-1480.411884,-7507.735880,-444.123565
4217.581900,814.226536,-7201.297681,-592.164754
4217.582225,1776.494261,-7354.516781,370.102971
4217.582550,2812.782580,-7354.516781,222.061783
4217.582875,3849.070898,-7967.393179,370.102971
4217.583199,3330.926739,-8580.269578,518.144159
4217.583524,1480.411884,-8350.440928,-444.123565
4217.583849,444.123565,-9652.803275,-222.061783
4217.584174,-1480.411884,-9039.926876,-1258.350101
4217.584498,-3627.009116,-9116.536426,-1554.432478
4217.584823,-4959.379811,-9039.926876,-2146.597232
4217.585148,-5625.565159,-8197.221829,-962.267725
4217.585473,-5107.421000,-7507.735880,-2146.597232
4217.585797,-3627.009116,-7967.393179,-1480.411884
4217.586122,-1036.288319,-7354.516781,-666.185348
4217.586447,666.185348,-7584.345430,-296.082377
4217.586772,3478.967927,-8197.221829,-518.144159
4217.587096,4959.379811,-8580.269578,-74.020594
4217.587421,5181.441594,-9806.022374,74.020594
4217.587745,3256.906145,-9806.022374,-1110.308913
4217.588070,592.164754,-11568.042020,-1036.288319
4217.588394,-3552.988522,-10265.679673,-1628.453072
4217.588719,-4071.132681,-10495.508323,-370.102971
4217.589043,-5995.668130,-8580.269578,-1332.370696
4217.589368,-7402.059420,-7354.516781,-1110.308913
4217.589692,-4811.338623,-7584.345430,-370.102971
4217.590017,-2146.597232,-6665.030833,-1110.308913
4217.590341,1258.350101,-7584.345430,-222.061783
4217.590665,5847.626942,-6894.859482,-1110.308913
4217.590990,6883.915261,-8273.831378,-148.041188
4217.591314,7105.977043,-7967.393179,-1258.350101
4217.591639,4145.153275,-9882.631924,-370.102971
4217.591963,-1184.329507,-11108.384721,-740.205942
4217.592288,-5699.585753,-10648.727422,-1480.411884
4217.592612,-10214.842000,-11414.822920,-1184.329507
4217.592937,-13471.748144,-9576.193725,-1184.329507
4217.593261,-12435.459826,-8963.317327,222.061783
4217.593585,-8512.368333,-7431.126331,370.102971
4217.593910,-3404.947333,-6358.592633,-222.061783
4217.594234,1110.308913,-4749.792088,-518.144159
4217.594559,6809.894666,-5745.716235,444.123565
4217.594883,9548.656652,-6128.763984,444.123565
4217.595208,9030.512492,-7737.564530,222.061783
4217.595532,4885.359217,-9116.536426,666.185348
4217.595857,-740.205942,-10495.508323,666.185348
4217.596181,-5107.421000,-11874.480219,518.144159
4217.596505,-9992.780217,-11874.480219,888.247130
4217.596830,-11843.295072,-10648.727422,888.247130
4217.597154,-11325.150913,-9652.803275,518.144159
4217.597479,-7254.018232,-8044.002729,-222.061783
4217.597803,-3552.988522,-6971.469032,-370.102971
4217.598128,1258.350101,-6052.154434,-444.123565
4217.598452,4219.173869,-5132.839837,-740.205942
4217.598777,4663.297435,-6435.202183,-222.061783
4217.599101,3701.029710,-6665.030833,148.041188
4217.599425,148.041188,-9116.536426,1332.370696
4217.599750,-3775.050304,-8963.317327,0.000000
4217.600074,-7846.182985,-11261.603821,1036.288319
4217.600399,-6513.812290,-10265.679673,888.247130
4217.600723,-6365.771101,-10955.165621,1332.370696
4217.601048,-4737.318029,-9346.365076,-962.267725
4217.601372,-962.267725,-8503.660028,-444.123565
4217.601697,0.000000,-7124.688131,-1258.350101
4217.602021,1702.473667,-6588.421283,-1258.350101
4217.602345,3404.947333,-6665.030833,74.020594
4217.602670,3034.844362,-6741.640382,-592.164754
4217.602994,2442.679609,-8120.612279,1554.432478
4217.603319,2368.659014,-7584.345430,888.247130
4217.603643,740.205942,-9882.631924,222.061783
4217.603968,-1776.494261,-9346.365076,-1258.350101
4217.604292,-2516.700203,-11338.213370,-2294.638420
4217.604617,-4737.318029,-12334.137518,-592.164754
4217.604941,-3552.988522,-9116.536426,-2590.720797
4217.605265,-4589.276840,-9882.631924,-518.144159
4217.605590,-2368.659014,-5515.887586,-1702.473667
4217.605914,2294.638420,-7814.174080,0.000000
4217.606239,4219.173869,-7354.516781,222.061783
4217.606563,6513.812290,-6741.640382,-148.041188
4217.606888,6735.874072,-7660.954980,1110.308913
4217.607212,5107.421000,-8350.440928,-1480.411884
4217.607537,4441.235652,-9652.803275,-1036.288319
4217.607861,1332.370696,-9576.193725,-1406.391290
4217.608185,-2146.597232,-10878.556072,-1850.514855
4217.608510,-2738.761985,-10035.851024,-1776.494261
4217.608834,-814.226536,-11261.603821,-1554.432478
4217.609159,-962.267725,-9422.974625,-2368.659014
4217.609483,518.144159,-9346.365076,-1332.370696
4217.609808,2220.617826,-8120.612279,-962.267725
4217.610132,2368.659014,-8273.831378,-370.102971
4217.610457,4145.153275,-6818.249932,-592.164754
4217.610781,2220.617826,-6894.859482,1184.329507
4217.611105,2590.720797,-7124.688131,444.123565
4217.611430,4441.235652,-7354.516781,-296.082377
4217.611754,3701.029710,-9193.145976,-666.185348
4217.612079,3478.967927,-9499.584175,-1184.329507
4217.612403,2442.679609,-9729.412825,-1554.432478
4217.612728,-592.164754,-9959.241474,-1258.350101
4217.613052,-2812.782580,-8963.317327,-1036.288319
4217.613377,-2960.823768,-9806.022374,1184.329507
4217.613701,-962.267725,-8120.612279,962.267725
4217.614025,518.144159,-6665.030833,74.020594
4217.614350,3182.885551,-7660.954980,1036.288319
4217.614674,5773.606348,-6052.154434,-666.185348
4217.614999,4959.379811,-8656.879127,0.000000
4217.615323,2442.679609,-7277.907231,-666.185348
4217.615648,1184.329507,-8810.098227,0.000000
4217.615972,-2294.638420,-8503.660028,-1554.432478
4217.616297,-3478.967927,-10495.508323,-370.102971
4217.616621,-4071.132681,-9729.412825,666.185348
4217.616945,-3478.967927,-10265.679673,666.185348
4217.617270,-1776.494261,-9116.536426,1554.432478
4217.617594,0.000000,-8733.488677,1628.453072
4217.617919,2294.638420,-7890.783629,370.102971
4217.618243,2442.679609,-7277.907231,444.123565
4217.618568,2812.782580,-6205.373534,-444.123565
4217.618892,2220.617826,-7660.954980,-296.082377
4217.619217,1480.411884,-7354.516781,0.000000
4217.619541,-740.205942,-9576.193725,0.000000
4217.619865,444.123565,-8503.660028,-888.247130
4217.620190,-962.267725,-11108.384721,222.061783
4217.620514,-2368.659014,-10342.289223,-1702.473667
4217.620839,-3034.844362,-11338.213370,666.185348
4217.621163,-5107.421000,-9729.412825,-444.123565
4217.621488,-4589.276840,-10495.508323,296.082377
4217.621812,-3923.091493,-7737.564530,-814.226536
4217.622137,-2368.659014,-7507.735880,666.185348
4217.622461,1480.411884,-6894.859482,-1036.288319
4217.622785,3701.029710,-7124.688131,296.082377
4217.623110,4071.132681,-6894.859482,-814.226536
4217.623434,1628.453072,-6281.983084,-1924.535449
4217.623759,2368.659014,-9039.926876,-148.041188
4217.624083,0.000000,-9652.803275,-296.082377
4217.624408,-1554.432478,-10265.679673,444.123565
4217.624732,-3256.906145,-9499.584175,-222.061783
4217.625057,-2812.782580,-10265.679673,740.205942
4217.625381,-740.205942,-8580.269578,148.041188
4217.625705,1110.308913,-9729.412825,222.061783
4217.626030,4441.235652,-8197.221829,-740.205942
4217.626354,1628.453072,-7584.345430,-814.226536
4217.626679,1184.329507,-8350.440928,-2664.741391
4217.627003,0.000000,-6665.030833,-1924.535449
4217.627328,-666.185348,-7201.297681,74.020594
4217.627652,148.041188,-7354.516781,148.041188
4217.627977,0.000000,-8963.317327,-148.041188
4217.628301,666.185348,-9116.536426,0.000000
4217.628625,2516.700203,-8350.440928,-518.144159
4217.628950,3404.947333,-9193.145976,-444.123565
4217.629274,2590.720797,-9116.536426,-962.267725
4217.629599,4663.297435,-8503.660028,444.123565
4217.629923,74.020594,-7354.516781,-888.247130
4217.630248,2072.576638,-8427.050478,-962.267725
4217.630572,1036.288319,-5822.325785,-296.082377
4217.630897,2738.761985,-8733.488677,-1184.329507
4217.631221,1924.535449,-7660.954980,-592.164754
4217.631545,2368.659014,-8427.050478,-1406.391290
4217.631870,-1258.350101,-9346.365076,0.000000
4217.632194,-1998.556043,-8503.660028,-1406.391290
4217.632519,-2664.741391,-10495.508323,-962.267725
4217.632843,-3108.864956,-9499.584175,-1036.288319
4217.633168,-2590.720797,-9039.926876,-1850.514855
4217.633492,296.082377,-9806.022374,-740.205942
4217.633817,3478.967927,-8120.612279,0.000000
4217.634141,5921.647536,-8580.269578,666.185348
4217.634466,4663.297435,-8120.612279,-1258.350101
4217.634790,4071.132681,-7584.345430,-888.247130
4217.635114,1924.535449,-7737.564530,-1036.288319
4217.635439,888.247130,-8810.098227,444.123565
4217.635763,-1110.308913,-8197.221829,-666.185348
4217.636088,-1628.453072,-9652.803275,962.267725
4217.636412,-1110.308913,-8733.488677,222.061783
4217.636737,740.205942,-9269.755526,-222.061783
4217.637061,222.061783,-10112.460574,-1258.350101
4217.637386,444.123565,-9806.022374,-444.123565
4217.637710,-1628.453072,-8503.660028,-888.247130
4217.638034,-1110.308913,-10265.679673,-1036.288319
4217.638359,-1776.494261,-8503.660028,222.061783
4217.638683,-1998.556043,-8273.831378,-518.144159
4217.639008,-592.164754,-7660.954980,444.123565
4217.639332,-666.185348,-7967.393179,1184.329507
4217.639657,1406.391290,-7354.516781,-296.082377
4217.639981,1332.370696,-8427.050478,1036.288319
4217.640306,2072.576638,-7201.297681,0.000000
4217.640630,370.102971,-9039.926876,148.041188
4217.640954,-444.123565,-8580.269578,-518.144159
4217.641279,-888.247130,-9499.584175,666.185348
4217.641603,-3034.844362,-7737.564530,0.000000
4217.641928,-1554.432478,-9039.926876,962.267725
4217.642252,888.247130,-8656.879127,222.061783
4217.642577,0.000000,-9576.193725,592.164754
4217.642901,0.000000,-8503.660028,-740.205942
4217.643226,-2442.679609,-6894.859482,-1036.288319
4217.643550,-296.082377,-9039.926876,0.000000
4217.643874,-2368.659014,-7354.516781,-962.267725
4217.644199,-1332.370696,-9193.145976,1406.391290
4217.644523,518.144159,-7277.907231,296.082377
4217.644848,1332.370696,-9576.193725,814.226536
4217.645172,2960.823768,-8350.440928,-370.102971
4217.645497,2738.761985,-8656.879127,148.041188
4217.645821,2960.823768,-7890.783629,0.000000
4217.646146,3478.967927,-8044.002729,0.000000
4217.646470,370.102971,-9116.536426,-444.123565
4217.646794,148.041188,-8427.050478,222.061783
4217.647119,296.082377,-7967.393179,-518.144159
4217.647443,0.000000,-9193.145976,-666.185348
4217.647768,1924.535449,-7814.174080,0.000000
4217.648092,1628.453072,-8197.221829,-888.247130
4217.648417,962.267725,-8963.317327,-518.144159
4217.648741,-666.185348,-8580.269578,-1628.453072
4217.649066,-1184.329507,-10035.851024,-444.123565
4217.649390,-1332.370696,-9039.926876,-1258.350101
4217.649714,-592.164754,-9346.365076,0.000000
4217.650039,1036.288319,-8656.879127,-1184.329507
4217.650363,3034.844362,-8427.050478,370.102971
4217.650688,3108.864956,-8044.002729,-370.102971
4217.651012,3701.029710,-7814.174080,-740.205942
4217.651337,2516.700203,-7507.735880,-370.102971
4217.651661,1184.329507,-7584.345430,-888.247130
4217.651986,1332.370696,-9116.536426,-814.226536
4217.652310,1036.288319,-7890.783629,-888.247130
4217.652634,740.205942,-8963.317327,-444.123565
4217.652959,1554.432478,-9039.926876,-1406.391290
4217.653283,2072.576638,-9499.584175,-1480.411884
4217.653608,1776.494261,-10648.727422,-1036.288319
4217.653932,0.000000,-8427.050478,-1184.329507
4217.654257,-1110.308913,-10112.460574,-1776.494261
4217.654581,-2220.617826,-9269.755526,-1480.411884
4217.654906,-2590.720797,-8580.269578,-740.205942
4217.655230,-2368.659014,-8273.831378,-370.102971
4217.655554,-296.082377,-8120.612279,-740.205942
4217.655879,2368.659014,-8886.707777,0.000000
4217.656203,2590.720797,-7814.174080,-1406.391290
4217.656528,2072.576638,-8810.098227,0.000000
4217.656852,2220.617826,-7507.735880,-370.102971
4217.657177,370.102971,-9116.536426,296.082377
4217.657501,592.164754,-8044.002729,-370.102971
4217.657826,-148.041188,-11031.775171,592.164754
4217.658150,-1332.370696,-7431.126331,-296.082377
4217.658474,74.020594,-10112.460574,1036.288319
4217.658799,1702.473667,-9039.926876,-518.144159
4217.659123,-148.041188,-8580.269578,444.123565
4217.659448,0.000000,-7890.783629,-962.267725
4217.659772,-1554.432478,-8350.440928,-222.061783
4217.660097,-1998.556043,-7814.174080,-1258.350101
4217.660421,-592.164754,-8733.488677,-296.082377
4217.660746,-2812.782580,-8120.612279,0.000000
4217.661070,-1406.391290,-8733.488677,0.000000
4217.661394,222.061783,-9116.536426,148.041188
4217.661719,1776.494261,-8350.440928,740.205942
4217.662043,1998.556043,-8044.002729,222.061783
4217.662368,0.000000,-8044.002729,518.144159
4217.662692,74.020594,-8044.002729,0.000000
4217.663017,518.144159,-8886.707777,370.102971
4217.663341,-518.144159,-7354.516781,0.000000
4217.663666,-1258.350101,-7737.564530,518.144159
4217.663990,518.144159,-7124.688131,1258.350101
4217.664314,2146.597232,-8197.221829,370.102971
4217.664639,1776.494261,-8427.050478,-740.205942
4217.664963,2220.617826,-9269.755526,-518.144159
4217.665288,592.164754,-8733.488677,-888.247130
4217.665612,-1850.514855,-9882.631924,-592.164754
4217.665937,-1998.556043,-8350.440928,-814.226536
4217.666261,-3849.070898,-9882.631924,1110.308913
4217.666586,-1406.391290,-8350.440928,-444.123565
4217.666910,148.041188,-9039.926876,370.102971
4217.667234,2368.659014,-8733.488677,-444.123565
4217.667559,2886.803174,-7890.783629,-222.061783
4217.667883,3256.906145,-7967.393179,222.061783
4217.668208,2294.638420,-8580.269578,-1406.391290
4217.668532,2886.803174,-8350.440928,-444.123565
4217.668857,1776.494261,-7890.783629,-370.102971
4217.669181,-296.082377,-8580.269578,-592.164754
4217.669506,2072.576638,-9269.755526,-74.020594
4217.669830,1184.329507,-9193.145976,-518.144159
4217.670154,444.123565,-9193.145976,-1480.411884
4217.670479,148.041188,-9729.412825,-592.164754
4217.670803,-1480.411884,-9039.926876,-1998.556043
4217.671128,-1110.308913,-9193.145976,-1036.288319
4217.671452,-888.247130,-8197.221829,-1110.308913
4217.671777,-1332.370696,-9269.755526,-888.247130
4217.672101,1332.370696,-7967.393179,-1184.329507
4217.672426,1998.556043,-8503.660028,-814.226536
4217.672750,3404.947333,-8810.098227,0.000000
4217.673074,2442.679609,-7660.954980,-666.185348
4217.673399,1924.535449,-9729.412825,-370.102971
4217.673723,740.205942,-8580.269578,-1480.411884
4217.674048,222.061783,-9729.412825,0.000000
4217.674372,-888.247130,-8120.612279,-1184.329507
4217.674697,888.247130,-9116.536426,888.247130
4217.675021,1480.411884,-8197.221829,-592.164754
4217.675346,3182.885551,-8427.050478,-814.226536
4217.675670,2812.782580,-8810.098227,0.000000
4217.675994,1702.473667,-8503.660028,-1110.308913
4217.676319,-222.061783,-8656.879127,-1924.535449
4217.676643,-962.267725,-8963.317327,-962.267725
4217.676968,-4145.153275,-8810.098227,-1702.473667
4217.677292,-4293.194464,-8580.269578,740.205942
4217.677617,-1850.514855,-8503.660028,592.164754
4217.677941,-296.082377,-9193.145976,0.000000
4217.678266,1554.432478,-8580.269578,-518.144159
4217.678590,2886.803174,-8656.879127,-370.102971
4217.678914,1850.514855,-8273.831378,-222.061783
4217.679239,1554.432478,-8197.221829,-518.144159
4217.679563,1406.391290,-8044.002729,74.020594
4217.679888,148.041188,-8273.831378,740.205942
4217.680212,518.144159,-7660.954980,0.000000
4217.680537,814.226536,-8733.488677,0.000000
4217.680861,2072.576638,-7967.393179,1036.288319
4217.681186,-666.185348,-9269.755526,-518.144159
4217.681510,-148.041188,-9499.584175,-148.041188
4217.681834,-3034.844362,-8120.612279,-740.205942
4217.682159,-3330.926739,-9422.974625,-296.082377
4217.682483,-2738.761985,-8273.831378,-74.020594
4217.682808,-3182.885551,-8350.440928,0.000000
4217.683132,-1184.329507,-8044.002729,0.000000
4217.683457,1554.432478,-8044.002729,222.061783
4217.683781,3997.112087,-8350.440928,962.267725
4217.684106,2664.741391,-6818.249932,444.123565
4217.684430,2590.720797,-7431.126331,0.000000
4217.684754,1702.473667,-8350.440928,-148.041188
4217.685079,370.102971,-8427.050478,-222.061783
4217.685403,-592.164754,-8580.269578,0.000000
4217.685728,-666.185348,-8886.707777,-222.061783
4217.686052,-1258.350101,-8350.440928,-148.041188
4217.686377,1702.473667,-8810.098227,-666.185348
4217.686701,1110.308913,-8350.440928,-296.082377
4217.687026,666.185348,-9193.145976,-666.185348
4217.687350,-370.102971,-8810.098227,-1406.391290
4217.687674,-1184.329507,-8733.488677,-592.164754
4217.687999,-1776.494261,-8120.612279,-1110.308913
4217.688323,-518.144159,-8503.660028,0.000000
4217.688648,-370.102971,-8886.707777,-592.164754
4217.688972,1258.350101,-8810.098227,74.020594
4217.689297,962.267725,-8273.831378,-1110.308913
4217.689621,1776.494261,-8886.707777,-222.061783
4217.689946,1850.514855,-8427.050478,-518.144159
4217.690270,1702.473667,-9806.022374,-592.164754
4217.690594,1332.370696,-9269.755526,-1110.308913
4217.690919,148.041188,-8656.879127,-148.041188
4217.691243,222.061783,-8120.612279,-370.102971
4217.691564,2442.679609,-8120.612279,-740.205942
4217.691888,4367.215058,-8503.660028,74.020594
4217.692212,2886.803174,-8503.660028,-1184.329507
4217.692537,1554.432478,-8963.317327,-962.267725
4217.692861,0.000000,-8350.440928,-1776.494261
4217.693185,-2368.659014,-9269.755526,-1628.453072
4217.693509,-1480.411884,-9576.193725,-962.267725
4217.693834,-2812.782580,-8350.440928,-148.041188
4217.694158,-1702.473667,-9576.193725,148.041188
4217.694482,814.226536,-8120.612279,-592.164754
4217.694806,1332.370696,-8810.098227,148.041188
4217.695131,2368.659014,-7584.345430,-888.247130
4217.695455,2516.700203,-8810.098227,-444.123565
4217.695779,1406.391290,-8197.221829,-1258.350101
4217.696103,2146.597232,-8886.707777,518.144159
4217.696428,-592.164754,-7277.907231,-962.267725
4217.696752,222.061783,-9499.584175,592.164754
4217.697076,1110.308913,-7201.297681,-370.102971
4217.697401,1850.514855,-9806.022374,0.000000
4217.697725,1702.473667,-8580.269578,-666.185348
4217.698049,-222.061783,-9116.536426,148.041188
4217.698373,-2072.576638,-8810.098227,222.061783
4217.698698,-1628.453072,-8810.098227,-296.082377
4217.699022,-1850.514855,-9039.926876,-296.082377
4217.699346,-2664.741391,-8350.440928,0.000000
4217.699670,296.082377,-8197.221829,148.041188
4217.699995,296.082377,-7354.516781,74.020594
4217.700319,2886.803174,-7201.297681,1776.494261
4217.700643,3034.844362,-6358.592633,518.144159
4217.700967,2738.761985,-9422.974625,592.164754
4217.701292,1924.535449,-8656.879127,-592.164754
4217.701616,370.102971,-8197.221829,74.020594
4217.701940,-814.226536,-8273.831378,740.205942
4217.702264,-444.123565,-7737.564530,370.102971
4217.702589,518.144159,-9806.022374,1184.329507
4217.702913,1850.514855,-8273.831378,-740.205942
4217.703237,1628.453072,-9116.536426,888.247130
4217.703561,-740.205942,-8886.707777,-1702.473667
4217.703886,-1480.411884,-9039.926876,-1258.350101
4217.704210,-2664.741391,-8503.660028,-518.144159
4217.704534,-2960.823768,-9193.145976,-370.102971
4217.704858,-3478.967927,-8580.269578,-370.102971
4217.705183,-1258.350101,-8886.707777,148.041188
4217.705507,296.082377,-8350.440928,0.000000
4217.705831,2072.576638,-8120.612279,222.061783
4217.706156,2664.741391,-8580.269578,-666.185348
4217.706480,3997.112087,-9116.536426,444.123565
4217.706804,3108.864956,-7431.126331,-370.102971
4217.707128,962.267725,-9499.584175,0.000000
4217.707453,-1036.288319,-8273.831378,-592.164754
4217.707777,370.102971,-8656.879127,0.000000
4217.708101,-518.144159,-8503.660028,0.000000
4217.708425,2220.617826,-8886.707777,-592.164754
4217.708750,888.247130,-9422.974625,-222.061783
4217.709074,0.000000,-9576.193725,-1480.411884
4217.709398,-888.247130,-8503.660028,-1480.411884
4217.709722,-1184.329507,-9806.022374,-666.185348
4217.710047,-1850.514855,-8733.488677,-1110.308913
4217.710371,-518.144159,-8810.098227,-296.082377
4217.710695,296.082377,-9193.145976,0.000000
4217.711019,888.247130,-9116.536426,-296.082377
4217.711344,3404.947333,-8963.317327,-592.164754
4217.711668,3997.112087,-8503.660028,-666.185348
4217.711992,2442.679609,-7737.564530,-592.164754
4217.712316,2812.782580,-8733.488677,-740.205942
4217.712641,296.082377,-8503.660028,-518.144159
4217.712965,-148.041188,-9346.365076,0.000000
4217.713289,592.164754,-8963.317327,-740.205942
4217.713613,-444.123565,-9193.145976,-592.164754
4217.713938,888.247130,-8963.317327,74.020594
4217.714262,1998.556043,-7354.516781,0.000000
4217.714586,444.123565,-10265.679673,296.082377
4217.714911,0.000000,-8503.660028,-2368.659014
4217.715235,-1036.288319,-9806.022374,-1184.329507
4217.715559,-1776.494261,-8656.879127,-1110.308913
4217.715883,-1628.453072,-8044.002729,-444.123565
4217.716208,444.123565,-8810.098227,740.205942
4217.716532,444.123565,-7737.564530,-518.144159
4217.716856,3108.864956,-9499.584175,888.247130
4217.717180,1702.473667,-7201.297681,-962.267725
4217.717505,2886.803174,-9193.145976,296.082377
4217.717829,1702.473667,-7354.516781,-666.185348
4217.718153,148.041188,-9729.412825,370.102971
4217.718477,-666.185348,-7660.954980,-222.061783
4217.718802,74.020594,-8733.488677,1332.370696
4217.719126,1258.350101,-8350.440928,-592.164754
4217.719450,2738.761985,-8733.488677,-370.102971
4217.719774,2294.638420,-8810.098227,370.102971
4217.720099,-592.164754,-8273.831378,-1702.473667
4217.720423,-1628.453072,-9729.412825,-518.144159
4217.720747,-3108.864956,-8963.317327,-592.164754
4217.721071,-3849.070898,-9499.584175,74.020594
4217.721396,-4515.256246,-7507.735880,-962.267725
4217.721720,-1258.350101,-9039.926876,518.144159
4217.722044,-518.144159,-8273.831378,1332.370696
4217.722369,1628.453072,-8273.831378,-148.041188
4217.722693,1924.535449,-8427.050478,74.020594
4217.723017,2072.576638,-6818.249932,222.061783
4217.723341,1480.411884,-8120.612279,-148.041188
4217.723666,888.247130,-8656.879127,0.000000
4217.723990,296.082377,-9039.926876,888.247130
4217.724314,370.102971,-8350.440928,0.000000
4217.724638,-592.164754,-8427.050478,444.123565
4217.724963,0.000000,-8580.269578,296.082377
4217.725287,1184.329507,-9193.145976,148.041188
4217.725611,0.000000,-8886.707777,-888.247130
4217.725935,-592.164754,-8503.660028,-1332.370696
4217.726260,-1850.514855,-9039.926876,-962.267725
4217.726584,-2590.720797,-7890.783629,-1258.350101
4217.726908,-2516.700203,-9346.365076,-296.082377
4217.727232,-962.267725,-7660.954980,-296.082377
4217.727557,1702.473667,-8580.269578,370.102971
4217.727881,3775.050304,-7507.735880,-740.205942
4217.728205,5033.400406,-9499.584175,0.000000
4217.728529,2590.720797,-7584.345430,-444.123565
4217.728854,1480.411884,-9346.365076,74.020594
4217.729178,740.205942,-8580.269578,-814.226536
4217.729502,-962.267725,-8427.050478,-444.123565
4217.729826,-296.082377,-8273.831378,0.000000
4217.730151,370.102971,-7890.783629,74.020594
4217.730475,2146.597232,-8810.098227,-148.041188
4217.730799,3108.864956,-8120.612279,-666.185348
4217.731124,1036.288319,-9576.193725,-1184.329507
4217.731448,444.123565,-8656.879127,-1480.411884
4217.731772,-518.144159,-9269.755526,-740.205942
4217.732096,-2072.576638,-8580.269578,-370.102971
4217.732421,-1628.453072,-8963.317327,-444.123565
4217.732745,-296.082377,-9882.631924,-444.123565
4217.733069,740.205942,-9422.974625,-1036.288319
4217.733393,1924.535449,-8963.317327,-444.123565
4217.733718,1036.288319,-7431.126331,222.061783
4217.734042,2664.741391,-8350.440928,148.041188
4217.734366,1406.391290,-7890.783629,-740.205942
4217.734690,1998.556043,-8963.317327,-814.226536
4217.735015,1258.350101,-8503.660028,-592.164754
4217.735339,962.267725,-8350.440928,0.000000
4217.735663,1850.514855,-8273.831378,0.000000
4217.735987,1776.494261,-8580.269578,0.000000
4217.736312,2146.597232,-8886.707777,74.020594
4217.736636,1036.288319,-9193.145976,-1480.411884
4217.736960,-1184.329507,-9499.584175,-1036.288319
4217.737284,-3256.906145,-9039.926876,-740.205942
4217.737609,-3182.885551,-9346.365076,-1850.514855
4217.737933,-2664.741391,-9039.926876,-370.102971
4217.738257,-814.226536,-8197.221829,-222.061783
4217.738582,148.041188,-8656.879127,296.082377
4217.738906,2368.659014,-7967.393179,-444.123565
4217.739230,3849.070898,-7814.174080,0.000000
4217.739554,4071.132681,-7584.345430,74.020594
4217.739879,2442.679609,-8656.879127,-518.144159
4217.740203,1110.308913,-7967.393179,0.000000
4217.740527,370.102971,-9576.193725,1110.308913
4217.740851,-888.247130,-8427.050478,-592.164754
4217.741176,-814.226536,-9806.022374,222.061783
4217.741500,-666.185348,-8197.221829,0.000000
4217.741824,-666.185348,-8886.707777,0.000000
4217.742148,-370.102971,-8810.098227,0.000000
4217.742473,-1628.453072,-8273.831378,-962.267725
4217.742797,-1184.329507,-8886.707777,-370.102971
4217.743121,-2220.617826,-8044.002729,-814.226536
4217.743445,-2516.700203,-8656.879127,-444.123565
4217.743770,-1628.453072,-9039.926876,0.000000
4217.744094,1480.411884,-8197.221829,222.061783
4217.744418,2072.576638,-8273.831378,0.000000
4217.744742,1184.329507,-7431.126331,-296.082377
4217.745067,1850.514855,-9269.755526,222.061783
4217.745391,444.123565,-8656.879127,74.020594
4217.745715,1110.308913,-8963.317327,-888.247130
4217.746039,-1110.308913,-8427.050478,148.041188
4217.746364,370.102971,-7354.516781,296.082377
4217.746688,1628.453072,-7660.954980,0.000000
4217.747012,2516.700203,-8656.879127,-148.041188
4217.747337,3627.009116,-8656.879127,-888.247130
4217.747661,1480.411884,-7890.783629,0.000000
4217.747985,148.041188,-8963.317327,-1628.453072
4217.748309,-1998.556043,-9269.755526,-370.102971
4217.748634,-3034.844362,-8273.831378,-888.247130
4217.748958,-2072.576638,-9729.412825,-222.061783
4217.749282,-1628.453072,-8197.221829,-740.205942
4217.749606,-592.164754,-8044.002729,444.123565
4217.749931,2146.597232,-8273.831378,-148.041188
4217.750255,4589.276840,-8197.221829,592.164754
4217.750579,2812.782580,-7354.516781,-1258.350101
4217.750903,3627.009116,-8503.660028,-740.205942
4217.751228,1776.494261,-8120.612279,-592.164754
4217.751552,1184.329507,-9116.536426,-444.123565
4217.751876,592.164754,-8580.269578,0.000000
4217.752200,0.000000,-9039.926876,-1036.288319
4217.752525,296.082377,-9499.584175,0.000000
4217.752849,444.123565,-8273.831378,-962.267725
4217.753173,74.020594,-9806.022374,-518.144159
4217.753497,-592.164754,-9193.145976,-1850.514855
4217.753822,-1332.370696,-8656.879127,-814.226536
4217.754146,-1924.535449,-8656.879127,-1258.350101
4217.754470,-1110.308913,-8427.050478,-666.185348
4217.754795,1036.288319,-8580.269578,-296.082377
4217.755119,370.102971,-7814.174080,-888.247130
4217.755443,3552.988522,-9346.365076,518.144159
4217.755767,2368.659014,-6588.421283,-1184.329507
4217.756092,2442.679609,-10801.946522,296.082377
4217.756416,2072.576638,-7967.393179,-1258.350101
4217.756740,370.102971,-10189.070123,592.164754
4217.757064,-1554.432478,-8120.612279,-888.247130
4217.757389,-1036.288319,-9499.584175,666.185348
4217.757713,296.082377,-8886.707777,-518.144159
4217.758037,1924.535449,-9116.536426,-370.102971
4217.758361,3404.947333,-7967.393179,-962.267725
4217.758686,1110.308913,-9193.145976,-1184.329507
4217.759010,518.144159,-9576.193725,-1036.288319
4217.759334,-2220.617826,-8580.269578,-1776.494261
4217.759658,-2738.761985,-9346.365076,-296.082377
4217.759983,-2886.803174,-8580.269578,-148.041188
4217.760307,-1406.391290,-9422.974625,-222.061783
4217.760631,-666.185348,-8963.317327,0.000000
4217.760955,1554.432478,-8580.269578,296.082377
4217.761280,3256.906145,-8273.831378,0.000000
4217.761604,2146.597232,-8580.269578,-444.123565
4217.761928,2072.576638,-9193.145976,0.000000
4217.762252,518.144159,-7354.516781,0.000000
4217.762577,-518.144159,-9116.536426,0.000000
4217.762901,-1480.411884,-7814.174080,0.000000
4217.763225,0.000000,-9116.536426,1110.308913
4217.763550,0.000000,-9116.536426,-222.061783
4217.763874,370.102971,-8503.660028,-518.144159
4217.764198,-148.041188,-8656.879127,296.082377
4217.764522,-370.102971,-8656.879127,-1184.329507
4217.764847,-1258.350101,-9193.145976,0.000000
4217.765171,-962.267725,-9039.926876,-222.061783
4217.765495,-1480.411884,-8120.612279,-1036.288319
4217.765819,-962.267725,-8427.050478,370.102971
4217.766144,1110.308913,-8273.831378,592.164754
4217.766468,666.185348,-8120.612279,222.061783
4217.766792,1702.473667,-6741.640382,74.020594
4217.767116,2738.761985,-7660.954980,444.123565
4217.767441,2368.659014,-8580.269578,-370.102971
4217.767765,1480.411884,-7967.393179,0.000000
4217.768089,666.185348,-9806.022374,0.000000
4217.768413,-962.267725,-7354.516781,222.061783
4217.768738,0.000000,-8044.002729,0.000000
4217.769062,1998.556043,-9576.193725,-296.082377
4217.769386,2220.617826,-8044.002729,-592.164754
4217.769710,1332.370696,-8580.269578,-444.123565
4217.770035,148.041188,-9039.926876,-1406.391290
4217.770359,-1924.535449,-8350.440928,-1036.288319
4217.770683,-2664.741391,-9576.193725,-518.144159
4217.771007,-3404.947333,-7584.345430,-518.144159
4217.771332,-1332.370696,-8733.488677,296.082377
4217.771656,592.164754,-7967.393179,-592.164754
4217.771980,2738.761985,-8886.707777,148.041188
4217.772305,3701.029710,-8580.269578,-740.205942
4217.772629,3182.885551,-8503.660028,-296.082377
4217.772953,2590.720797,-7967.393179,-370.102971
4217.773277,2220.617826,-9116.536426,0.000000
4217.773602,444.123565,-9193.145976,-592.164754
4217.773926,74.020594,-8580.269578,-148.041188
4217.774250,592.164754,-9806.022374,0.000000
4217.774574,444.123565,-8503.660028,-1480.411884
4217.774899,1332.370696,-9346.365076,-222.061783
4217.775223,-888.247130,-8350.440928,-740.205942
4217.775547,-592.164754,-9499.584175,-1628.453072
4217.775871,-1406.391290,-8503.660028,-1036.288319
4217.776196,-1850.514855,-9499.584175,-592.164754
4217.776520,-1110.308913,-8886.707777,0.000000
4217.776844,-1554.432478,-8427.050478,-592.164754
4217.777168,592.164754,-9346.365076,370.102971
4217.777493,2294.638420,-7584.345430,-370.102971
4217.777817,3330.926739,-8427.050478,-296.082377
4217.778141,3034.844362,-8044.002729,-814.226536
4217.778465,1628.453072,-8350.440928,-148.041188
4217.778790,-814.226536,-8427.050478,592.164754
4217.779114,-666.185348,-9039.926876,-518.144159
4217.779438,-518.144159,-8580.269578,148.041188
4217.779763,-296.082377,-7431.126331,-444.123565
4217.780087,1998.556043,-8963.317327,296.082377
4217.780411,2738.761985,-8273.831378,-888.247130
4217.780735,666.185348,-9346.365076,-296.082377
4217.781060,1184.329507,-9116.536426,-814.226536
4217.781384,-2146.597232,-8580.269578,-1258.350101
4217.781708,-2886.803174,-9116.536426,-222.061783
4217.782032,-2812.782580,-8044.002729,0.000000
4217.782357,-3108.864956,-9346.365076,-296.082377
4217.782681,-444.123565,-9116.536426,0.000000
4217.783005,1702.473667,-7890.783629,0.000000
4217.783329,2812.782580,-8580.269578,296.082377
4217.783654,2664.741391,-6511.811733,518.144159
4217.783978,2590.720797,-7814.174080,666.185348
4217.784302,4145.153275,-8503.660028,0.000000
4217.784626,2368.659014,-8427.050478,-592.164754
4217.784951,1850.514855,-8656.879127,296.082377
4217.785275,518.144159,-8044.002729,-222.061783
4217.785599,1184.329507,-8810.098227,592.164754
4217.785923,1036.288319,-8733.488677,1036.288319
4217.786248,-962.267725,-8733.488677,-1850.514855
4217.786572,-1998.556043,-10112.460574,74.020594
4217.786896,-2294.638420,-7660.954980,-1628.453072
4217.787220,-3182.885551,-9652.803275,0.000000
4217.787545,-2146.597232,-7890.783629,0.000000
4217.787869,-740.205942,-8580.269578,592.164754
4217.788193,592.164754,-7967.393179,370.102971
4217.788518,3256.906145,-7737.564530,-296.082377
4217.788842,3997.112087,-9499.584175,-148.041188
4217.789166,3478.967927,-7737.564530,-370.102971
4217.789490,2812.782580,-8350.440928,0.000000
4217.789815,1258.350101,-8580.269578,-222.061783
4217.790139,-296.082377,-9346.365076,222.061783
4217.790463,-814.226536,-9116.536426,-1036.288319
4217.790787,0.000000,-9499.584175,-370.102971
4217.791112,74.020594,-7814.174080,-222.061783
4217.791436,592.164754,-7890.783629,0.000000
4217.791760,2368.659014,-8273.831378,0.000000
4217.792084,370.102971,-8656.879127,-1850.514855
4217.792408,222.061783,-9576.193725,-1406.391290
4217.792733,-1702.473667,-9039.926876,-1850.514855
4217.793057,-1998.556043,-9346.365076,-518.144159
4217.793381,-444.123565,-9269.755526,-296.082377
4217.793705,0.000000,-8350.440928,296.082377
4217.794029,1480.411884,-8197.221829,814.226536
4217.794353,592.164754,-7431.126331,-666.185348
4217.794677,1110.308913,-10035.851024,296.082377
4217.795002,2072.576638,-8350.440928,-1554.432478
4217.795326,296.082377,-8656.879127,74.020594
4217.795650,518.144159,-7431.126331,-1110.308913
4217.795974,666.185348,-7354.516781,-222.061783
4217.796298,2368.659014,-8503.660028,592.164754
4217.796622,3552.988522,-7814.174080,-1776.494261
4217.796947,3478.967927,-9039.926876,0.000000
4217.797271,1036.288319,-8810.098227,-1628.453072
4217.797595,0.000000,-9422.974625,-1184.329507
4217.797919,-1480.411884,-9193.145976,-962.267725
4217.798243,-3552.988522,-9882.631924,74.020594
4217.798567,-518.144159,-8656.879127,-222.061783
4217.798891,-3997.112087,-7737.564530,-962.267725
4217.799216,-2072.576638,-9193.145976,-444.123565
4217.799540,888.247130,-6741.640382,0.000000
4217.799864,2368.659014,-8197.221829,-592.164754
4217.800188,4441.235652,-7584.345430,74.020594
4217.800512,2516.700203,-7048.078582,-740.205942
4217.800836,2220.617826,-9576.193725,-148.041188
4217.801160,1110.308913,-8733.488677,-1110.308913
4217.801485,592.164754,-9729.412825,444.123565
4217.801809,296.082377,-9499.584175,0.000000
4217.802133,2368.659014,-8580.269578,1110.308913
4217.802457,3034.844362,-9193.145976,444.123565
4217.802781,888.247130,-8656.879127,-962.267725
4217.803105,-666.185348,-8120.612279,-370.102971
4217.803429,-2442.679609,-9116.536426,-444.123565
4217.803754,-1850.514855,-8044.002729,-1036.288319
4217.804078,-370.102971,-8197.221829,444.123565
4217.804402,-1998.556043,-7890.783629,-962.267725
4217.804726,-296.082377,-8886.707777,148.041188
4217.805050,1480.411884,-8886.707777,0.000000
4217.805374,2960.823768,-8580.269578,-444.123565
4217.805699,2442.679609,-8886.707777,0.000000
4217.806023,814.226536,-8733.488677,0.000000
4217.806347,-518.144159,-9269.755526,222.061783
4217.806671,518.144159,-8580.269578,444.123565
4217.806995,-592.164754,-9269.755526,-666.185348
4217.807319,592.164754,-8580.269578,0.000000
4217.807643,1110.308913,-7584.345430,148.041188
4217.807968,1628.453072,-8503.660028,-370.102971
4217.808292,1184.329507,-8580.269578,-296.082377
4217.808616,0.000000,-8427.050478,-592.164754
4217.808940,-1998.556043,-7814.174080,-1036.288319
4217.809264,-1776.494261,-8810.098227,-148.041188
4217.809588,-2146.597232,-9039.926876,-370.102971
4217.809912,-1850.514855,-9576.193725,0.000000
4217.810237,0.000000,-8503.660028,296.082377
4217.810561,296.082377,-9193.145976,444.123565
4217.810885,2516.700203,-8886.707777,-592.164754
4217.811209,2368.659014,-7814.174080,296.082377
4217.811533,2220.617826,-8503.660028,-444.123565
4217.811857,2072.576638,-7814.174080,-888.247130
4217.812181,-592.164754,-7814.174080,-296.082377
4217.812506,-222.061783,-9346.365076,370.102971
4217.812830,0.000000,-7354.516781,-222.061783
4217.813154,518.144159,-8886.707777,222.061783
4217.813478,1258.350101,-7890.783629,-740.205942
4217.813802,814.226536,-9499.584175,-148.041188
4217.814126,74.020594,-9116.536426,-1480.411884
4217.814451,0.000000,-8810.098227,-592.164754
4217.814775,-666.185348,-9039.926876,-444.123565
4217.815099,-2738.761985,-8656.879127,-592.164754
4217.815423,-518.144159,-8886.707777,74.020594
4217.815747,148.041188,-7737.564530,-518.144159
4217.816071,2368.659014,-8197.221829,0.000000
4217.816395,2442.679609,-7507.735880,-370.102971
4217.816720,2368.659014,-7967.393179,-370.102971
4217.817044,1332.370696,-7967.393179,-222.061783
4217.817368,1036.288319,-9193.145976,-1036.288319
4217.817692,222.061783,-9116.536426,0.000000
4217.818016,-148.041188,-8044.002729,-1110.308913
4217.818340,888.247130,-9116.536426,222.061783
4217.818664,1924.535449,-7814.174080,-888.247130
4217.818989,2664.741391,-9499.584175,518.144159
4217.819313,1406.391290,-8427.050478,-1332.370696
4217.819637,666.185348,-9116.536426,-222.061783
4217.819961,-1776.494261,-8350.440928,-1332.370696
4217.820285,-1998.556043,-8963.317327,-1110.308913
4217.820609,-2590.720797,-8427.050478,-444.123565
4217.820933,-2516.700203,-8197.221829,-222.061783
4217.821258,-296.082377,-8197.221829,814.226536
4217.821582,1998.556043,-7967.393179,-296.082377
4217.821906,2960.823768,-8733.488677,-666.185348
4217.822230,3108.864956,-8197.221829,-296.082377
4217.822554,2294.638420,-8886.707777,-962.267725
4217.822878,2146.597232,-8733.488677,-1036.288319
4217.823203,592.164754,-8810.098227,444.123565
4217.823527,0.000000,-8580.269578,-444.123565
4217.823851,740.205942,-8580.269578,222.061783
4217.824175,962.267725,-7890.783629,0.000000
4217.824499,962.267725,-9116.536426,-814.226536
4217.824823,1332.370696,-9039.926876,-296.082377
4217.825147,814.226536,-8810.098227,-1036.288319
4217.825472,-1184.329507,-8656.879127,-740.205942
4217.825796,-1924.535449,-8503.660028,-888.247130
4217.826120,-3034.844362,-9346.365076,-370.102971
4217.826444,-2368.659014,-9576.193725,-592.164754
4217.826768,-592.164754,-8350.440928,-296.082377
4217.827092,666.185348,-8044.002729,0.000000
4217.827416,2886.803174,-8273.831378,0.000000
4217.827741,1924.535449,-8963.317327,-1036.288319
4217.828065,1480.411884,-8580.269578,-370.102971
4217.828389,888.247130,-8963.317327,0.000000
4217.828713,444.123565,-9039.926876,-370.102971
4217.829037,296.082377,-8273.831378,222.061783
4217.829361,1480.411884,-7814.174080,0.000000
4217.829685,-296.082377,-8733.488677,222.061783
4217.830010,2368.659014,-8656.879127,-1110.308913
4217.830334,1036.288319,-9576.193725,0.000000
4217.830658,74.020594,-9193.145976,-962.267725
4217.830982,-2368.659014,-9193.145976,-296.082377
4217.831306,-3256.906145,-9116.536426,-666.185348
4217.831630,-3256.906145,-8733.488677,0.000000
4217.831955,-2072.576638,-8656.879127,0.000000
4217.832279,-370.102971,-8273.831378,148.041188
4217.832603,2294.638420,-8273.831378,296.082377
4217.832927,3182.885551,-7354.516781,-444.123565
4217.833251,3627.009116,-8427.050478,222.061783
4217.833575,3478.967927,-7660.954980,-666.185348
4217.833899,2146.597232,-8503.660028,0.000000
4217.834224,962.267725,-8120.612279,1036.288319
4217.834548,148.041188,-8886.707777,888.247130
4217.834872,370.102971,-8197.221829,222.061783
4217.835196,592.164754,-8120.612279,296.082377
4217.835520,1332.370696,-9576.193725,-592.164754
4217.835844,666.185348,-8503.660028,-814.226536
4217.836168,-814.226536,-9116.536426,-592.164754
4217.836493,-2294.638420,-7507.735880,-814.226536
4217.836817,-1406.391290,-7277.907231,-814.226536
4217.837141,-2886.803174,-8886.707777,0.000000
4217.837465,-1406.391290,-7967.393179,-74.020594
4217.837789,518.144159,-7814.174080,222.061783
4217.838113,1332.370696,-8044.002729,222.061783
4217.838438,3627.009116,-8656.879127,-518.144159
4217.838762,3627.009116,-8273.831378,-740.205942
4217.839086,2516.700203,-8656.879127,-592.164754
4217.839410,1184.329507,-9346.365076,222.061783
4217.839734,0.000000,-8197.221829,-518.144159
4217.840058,-592.164754,-9193.145976,0.000000
4217.840382,888.247130,-7967.393179,-518.144159
4217.840707,444.123565,-7431.126331,0.000000
4217.841031,1850.514855,-8810.098227,-1036.288319
4217.841355,1480.411884,-8503.660028,-1332.370696
4217.841679,666.185348,-9422.974625,-814.226536
4217.842003,-1554.432478,-8350.440928,-1554.432478
4217.842327,-1110.308913,-9422.974625,74.020594
4217.842651,-3552.988522,-8503.660028,-1924.535449
4217.842976,-1628.453072,-10725.336972,444.123565
4217.843300,0.000000,-7890.783629,-1480.411884
4217.843624,74.020594,-9729.412825,0.000000
4217.843948,2368.659014,-8197.221829,-1036.288319
4217.844272,3330.926739,-8580.269578,0.000000
4217.844596,2146.597232,-7431.126331,-518.144159
4217.844920,1480.411884,-8580.269578,74.020594
4217.845245,518.144159,-8580.269578,-1036.288319
4217.845569,-370.102971,-9499.584175,-370.102971
4217.845893,1332.370696,-8273.831378,-444.123565
4217.846217,1480.411884,-8656.879127,-296.082377
4217.846541,2368.659014,-8580.269578,-518.144159
4217.846865,1184.329507,-8580.269578,-1702.473667
4217.847190,-370.102971,-10572.117872,-962.267725
4217.847514,-1924.535449,-8963.317327,-962.267725
4217.847838,-1628.453072,-8427.050478,-148.041188
4217.848162,-3552.988522,-8810.098227,-296.082377
4217.848486,-1998.556043,-8503.660028,-1184.329507
4217.848810,-148.041188,-8273.831378,296.082377
4217.849134,1924.535449,-8656.879127,-296.082377
4217.849459,2294.638420,-8273.831378,-740.205942
4217.849783,2590.720797,-8427.050478,-666.185348
4217.850107,2146.597232,-8963.317327,-148.041188
4217.850431,1628.453072,-8044.002729,-148.041188
4217.850755,-296.082377,-8810.098227,74.020594
4217.851079,-592.164754,-9269.755526,-370.102971
4217.851403,222.061783,-8963.317327,370.102971
4217.851728,2072.576638,-8273.831378,-370.102971
4217.852052,148.041188,-9193.145976,-222.061783
4217.852376,2738.761985,-8733.488677,-296.082377
4217.852700,-222.061783,-8503.660028,0.000000
4217.853024,-222.061783,-8656.879127,-444.123565
4217.853348,-814.226536,-7967.393179,-740.205942
4217.853672,-1998.556043,-9499.584175,0.000000
4217.853997,-1406.391290,-8120.612279,222.061783
4217.854321,-518.144159,-7890.783629,74.020594
4217.854645,518.144159,-8350.440928,666.185348
4217.854969,1184.329507,-7967.393179,74.020594
4217.855293,1998.556043,-8197.221829,-1110.308913
4217.855617,592.164754,-9576.193725,296.082377
4217.855942,666.185348,-7814.174080,148.041188
4217.856266,0.000000,-8503.660028,0.000000
4217.856590,592.164754,-8273.831378,666.185348
4217.856914,2590.720797,-7737.564530,814.226536
4217.857238,2516.700203,-8427.050478,-1036.288319
4217.857562,3404.947333,-8963.317327,-148.041188
4217.857886,2072.576638,-8273.831378,-518.144159
4217.858211,592.164754,-9576.193725,-1036.288319
4217.858535,-1998.556043,-8886.707777,-592.164754
4217.858859,-2516.700203,-8350.440928,-296.082377
4217.859183,-3478.967927,-9039.926876,-592.164754
4217.859507,-3256.906145,-8656.879127,-222.061783
4217.859831,-1776.494261,-8427.050478,-148.041188
4217.860155,1110.308913,-8656.879127,222.061783
4217.860480,2146.597232,-7584.345430,-1036.288319
4217.860804,3404.947333,-9193.145976,-296.082377
4217.861128,3478.967927,-7737.564530,-1406.391290
4217.861452,2294.638420,-9116.536426,-592.164754
4217.861776,740.205942,-8503.660028,-962.267725
4217.862100,-444.123565,-9269.755526,296.082377
4217.862424,-814.226536,-8197.221829,-592.164754
4217.862749,518.144159,-9422.974625,74.020594
4217.863073,666.185348,-8350.440928,-666.185348
4217.863397,1850.514855,-9806.022374,-962.267725
4217.863721,-222.061783,-9346.365076,-1554.432478
4217.864045,-1480.411884,-8197.221829,-1628.453072
4217.864369,-1406.391290,-8580.269578,-1036.288319
4217.864694,-1702.473667,-8427.050478,-148.041188
4217.865018,-370.102971,-8503.660028,-518.144159
4217.865342,888.247130,-8580.269578,0.000000
4217.865666,1998.556043,-9193.145976,-740.205942
4217.865990,1480.411884,-8580.269578,-1332.370696
4217.866314,1702.473667,-9269.755526,-1184.329507
4217.866638,1480.411884,-9422.974625,-666.185348
4217.866963,-296.082377,-8350.440928,222.061783
4217.867287,-814.226536,-9039.926876,222.061783
4217.867611,74.020594,-8427.050478,-370.102971
4217.867935,296.082377,-8044.002729,-666.185348
4217.868259,1628.453072,-8656.879127,-888.247130
4217.868583,3627.009116,-8580.269578,-518.144159
4217.868907,2812.782580,-7660.954980,-296.082377
4217.869232,1702.473667,-9269.755526,-592.164754
4217.869556,-592.164754,-9269.755526,-148.041188
4217.869880,-2146.597232,-8733.488677,-222.061783
4217.870204,-2368.659014,-8733.488677,-666.185348
4217.870528,-2738.761985,-8963.317327,-296.082377
4217.870852,-888.247130,-9652.803275,518.144159
4217.871177,592.164754,-8120.612279,-1184.329507
4217.871501,1628.453072,-9422.974625,0.000000
4217.871825,2220.617826,-7814.174080,-666.185348
4217.872149,2294.638420,-8503.660028,0.000000
4217.872473,1924.535449,-9039.926876,-296.082377
4217.872797,0.000000,-8810.098227,74.020594
4217.873121,-1332.370696,-9039.926876,148.041188
4217.873446,-962.267725,-7431.126331,0.000000
4217.873770,592.164754,-9499.584175,0.000000
4217.874094,1480.411884,-8810.098227,-666.185348
4217.874418,2812.782580,-9269.755526,-518.144159
4217.874742,740.205942,-9193.145976,-1332.370696
4217.875066,-814.226536,-8733.488677,-666.185348
4217.875390,-1110.308913,-7814.174080,0.000000
4217.875715,-1998.556043,-8120.612279,0.000000
4217.876039,-222.061783,-8427.050478,592.164754
4217.876363,148.041188,-7890.783629,-518.144159
4217.876687,1924.535449,-8580.269578,-222.061783
4217.877011,2368.659014,-8120.612279,-444.123565
4217.877335,1776.494261,-8733.488677,-592.164754
4217.877659,1184.329507,-8427.050478,0.000000
4217.877984,74.020594,-8503.660028,370.102971
4217.878308,0.000000,-9116.536426,148.041188
4217.878632,-222.061783,-8733.488677,-592.164754
4217.878956,-666.185348,-8886.707777,-222.061783
4217.879280,1184.329507,-8580.269578,-444.123565
4217.879604,444.123565,-8197.221829,-814.226536
4217.879929,1184.329507,-9193.145976,518.144159
4217.880253,1480.411884,-8733.488677,-814.226536
4217.880577,-962.267725,-8963.317327,-592.164754
4217.880901,-444.123565,-8197.221829,148.041188
4217.881225,-1924.535449,-8580.269578,-592.164754
4217.881549,-740.205942,-8963.317327,0.000000
4217.881873,1628.453072,-8580.269578,-518.144159
4217.882198,2516.700203,-9576.193725,444.123565
4217.882522,2368.659014,-8120.612279,-296.082377
4217.882846,2072.576638,-7967.393179,74.020594
4217.883170,1776.494261,-8350.440928,-222.061783
4217.883494,1554.432478,-8580.269578,0.000000
4217.883818,444.123565,-8886.707777,-888.247130
4217.884142,-1110.308913,-8886.707777,-740.205942
4217.884467,-666.185348,-8044.002729,-518.144159
4217.884791,-148.041188,-8810.098227,-666.185348
4217.885115,1480.411884,-9806.022374,0.000000
4217.885439,-222.061783,-8273.831378,-888.247130
4217.885763,148.041188,-8810.098227,-1110.308913
4217.886087,-1776.494261,-8427.050478,-1628.453072
4217.886411,-1776.494261,-9652.803275,0.000000
4217.886736,-1258.350101,-8503.660028,-666.185348
4217.887060,-1110.308913,-8427.050478,444.123565
4217.887384,444.123565,-7890.783629,-444.123565
4217.887708,1850.514855,-8656.879127,-962.267725
4217.888032,3256.906145,-9346.365076,-592.164754
4217.888356,1258.350101,-8044.002729,-370.102971
4217.888681,2960.823768,-8273.831378,-1258.350101
4217.889005,1776.494261,-9499.584175,-740.205942
4217.889329,-1184.329507,-8733.488677,-370.102971
4217.889653,-222.061783,-9422.974625,0.000000
4217.889977,-1110.308913,-9039.926876,-370.102971
4217.890301,-814.226536,-8044.002729,-666.185348
4217.890625,814.226536,-7967.393179,-666.185348
4217.890950,518.144159,-9346.365076,-1258.350101
4217.891274,148.041188,-9116.536426,-888.247130
4217.891598,-888.247130,-8580.269578,-888.247130
4217.891922,-370.102971,-8350.440928,-518.144159
4217.892246,-2146.597232,-8963.317327,-814.226536
4217.892570,-666.185348,-8733.488677,-592.164754
4217.892895,0.000000,-9269.755526,740.205942
4217.893219,962.267725,-7354.516781,296.082377
4217.893543,4663.297435,-9422.974625,-222.061783
4217.893867,74.020594,-8503.660028,-888.247130
4217.894192,1406.391290,-7737.564530,-370.102971
4217.894516,222.061783,-7124.688131,0.000000
4217.894840,-962.267725,-8656.879127,1036.288319
4217.895164,666.185348,-8044.002729,-222.061783
4217.895489,962.267725,-8120.612279,-740.205942
4217.895813,0.000000,-9039.926876,370.102971
4217.896137,2294.638420,-8503.660028,-1258.350101
4217.896461,1036.288319,-8580.269578,-666.185348
4217.896786,1554.432478,-9269.755526,-814.226536
4217.897110,-148.041188,-9116.536426,-1110.308913
4217.897434,-2664.741391,-8810.098227,370.102971
4217.897758,-3478.967927,-8503.660028,0.000000
4217.898083,-2516.700203,-8580.269578,740.205942
4217.898407,-370.102971,-8120.612279,0.000000
4217.898731,1480.411884,-8427.050478,-592.164754
4217.899055,3478.967927,-8810.098227,0.000000
4217.899380,3108.864956,-8044.002729,-592.164754
4217.899704,4589.276840,-8120.612279,-296.082377
4217.900028,2664.741391,-8044.002729,222.061783
4217.900353,222.061783,-8810.098227,-592.164754
4217.900677,1406.391290,-9039.926876,148.041188
4217.901001,-222.061783,-7584.345430,-592.164754
4217.901325,-740.205942,-8886.707777,444.123565
4217.901650,740.205942,-8580.269578,-592.164754
4217.901974,0.000000,-8656.879127,-1036.288319
4217.902298,-296.082377,-8810.098227,-1110.308913
4217.902622,-1036.288319,-7814.174080,-296.082377
4217.902947,-1406.391290,-8656.879127,-740.205942
4217.903271,-1776.494261,-8580.269578,-518.144159
4217.903595,-740.205942,-8427.050478,148.041188
4217.903919,222.061783,-8427.050478,0.000000
4217.904244,2368.659014,-8580.269578,-444.123565
4217.904568,2960.823768,-9269.755526,-518.144159
4217.904892,3330.926739,-9422.974625,-962.267725
4217.905216,1776.494261,-8197.221829,-592.164754
4217.905541,296.082377,-8656.879127,0.000000
4217.905865,-296.082377,-9193.145976,888.247130
4217.906189,0.000000,-8197.221829,296.082377
4217.906513,518.144159,-7967.393179,-444.123565
4217.906838,962.267725,-8350.440928,-666.185348
4217.907162,2368.659014,-8350.440928,-1406.391290
4217.907486,888.247130,-9116.536426,-814.226536
4217.907810,740.205942,-8427.050478,-962.267725
4217.908135,0.000000,-8733.488677,-1036.288319
4217.908459,-666.185348,-8810.098227,-444.123565
4217.908783,-2886.803174,-8810.098227,370.102971
4217.909107,-2220.617826,-8810.098227,-666.185348
4217.909432,-1406.391290,-9346.365076,0.000000
4217.909756,-370.102971,-8503.660028,-222.061783
4217.910080,2294.638420,-8810.098227,-222.061783
4217.910404,1480.411884,-7814.174080,-296.082377
4217.910729,1776.494261,-8810.098227,0.000000
4217.911053,962.267725,-7584.345430,-296.082377
4217.911377,1628.453072,-9039.926876,-148.041188
4217.911701,888.247130,-7814.174080,-222.061783
4217.912026,1702.473667,-8963.317327,666.185348
4217.912350,1554.432478,-8044.002729,-740.205942
4217.912674,2368.659014,-8656.879127,296.082377
4217.912998,148.041188,-7737.564530,-1184.329507
4217.913323,888.247130,-10112.460574,-814.226536
4217.913647,-1924.535449,-8197.221829,-1332.370696
4217.913971,-2220.617826,-8733.488677,-518.144159
4217.914295,-2368.659014,-8733.488677,148.041188
4217.914620,-2442.679609,-8120.612279,0.000000
4217.914944,370.102971,-9422.974625,0.000000
4217.915268,1406.391290,-8427.050478,-592.164754
4217.915592,3034.844362,-8503.660028,-1332.370696
4217.915917,2960.823768,-8503.660028,-296.082377
4217.916241,2960.823768,-8656.879127,-148.041188
4217.916565,1628.453072,-8810.098227,222.061783
4217.916889,592.164754,-8580.269578,0.000000
4217.917214,-666.185348,-9269.755526,0.000000
4217.917538,-518.144159,-9039.926876,-222.061783
4217.917862,74.020594,-8733.488677,222.061783
4217.918186,1258.350101,-8350.440928,-1332.370696
4217.918511,0.000000,-8350.440928,-518.144159
4217.918835,-1184.329507,-8503.660028,0.000000
4217.919159,-518.144159,-8580.269578,-370.102971
4217.919483,-740.205942,-8273.831378,-296.082377
4217.919808,-888.247130,-9269.755526,-222.061783
4217.920132,-518.144159,-8580.269578,-592.164754
4217.920456,0.000000,-8810.098227,-222.061783
4217.920781,1332.370696,-9652.803275,0.000000
4217.921105,1924.535449,-8503.660028,296.082377
4217.921429,1850.514855,-8120.612279,-518.144159
4217.921753,1776.494261,-8656.879127,-370.102971
4217.922078,74.020594,-8580.269578,0.000000
4217.922402,-370.102971,-8963.317327,592.164754
4217.922726,0.000000,-7814.174080,-370.102971
4217.923050,1110.308913,-9039.926876,0.000000
4217.923375,740.205942,-7431.126331,-148.041188
4217.923699,1924.535449,-8503.660028,-296.082377
4217.924023,444.123565,-9116.536426,-1184.329507
4217.924347,-148.041188,-9652.803275,-962.267725
4217.924672,-814.226536,-8044.002729,-888.247130
4217.924996,-2146.597232,-9652.803275,-370.102971
4217.925320,-740.205942,-9116.536426,-888.247130
4217.925644,-814.226536,-8503.660028,-148.041188
4217.925969,370.102971,-8273.831378,-222.061783
4217.926293,592.164754,-8503.660028,0.000000
4217.926617,1850.514855,-7814.174080,-592.164754
4217.926941,2516.700203,-8886.707777,-222.061783
4217.927266,2886.803174,-8044.002729,-1036.288319
4217.927590,1998.556043,-8810.098227,0.000000
4217.927914,888.247130,-7814.174080,-370.102971
4217.928238,-370.102971,-9499.584175,222.061783
4217.928563,0.000000,-8656.879127,-1036.288319
4217.928887,-1702.473667,-8810.098227,74.020594
4217.929211,1184.329507,-8733.488677,-1036.288319
4217.929535,592.164754,-9806.022374,-962.267725
4217.929860,-740.205942,-8810.098227,-592.164754
4217.930184,-1554.432478,-8044.002729,-1184.329507
4217.930508,-1332.370696,-8503.660028,-444.123565
4217.930832,-2590.720797,-8810.098227,-370.102971
4217.931157,-814.226536,-8503.660028,-370.102971
4217.931481,-962.267725,-8197.221829,370.102971
4217.931805,1406.391290,-8503.660028,0.000000
4217.932129,3108.864956,-8810.098227,0.000000
4217.932454,3256.906145,-8273.831378,-222.061783
4217.932778,2590.720797,-8580.269578,-444.123565
4217.933102,1702.473667,-8350.440928,0.000000
4217.933426,0.000000,-9729.412825,518.144159
4217.933751,962.267725,-7737.564530,-888.247130
4217.934075,1628.453072,-8810.098227,962.267725
4217.934399,592.164754,-7814.174080,-1332.370696
4217.934723,3182.885551,-8963.317327,0.000000
4217.935048,1110.308913,-8044.002729,-666.185348
4217.935372,518.144159,-9039.926876,-296.082377
4217.935696,-2146.597232,-8273.831378,-1110.308913
4217.936020,-2738.761985,-9116.536426,666.185348
4217.936345,-3108.864956,-8350.440928,-666.185348
4217.936669,-1776.494261,-8656.879127,-370.102971
4217.936993,-814.226536,-9269.755526,814.226536
4217.937317,222.061783,-7890.783629,-370.102971
4217.937642,2516.700203,-8427.050478,0.000000
4217.937966,2738.761985,-8044.002729,-222.061783
4217.938290,3478.967927,-8580.269578,0.000000
4217.938614,2146.597232,-7201.297681,-814.226536
4217.938939,1998.556043,-9422.974625,740.205942
4217.939263,666.185348,-8427.050478,296.082377
4217.939587,0.000000,-8656.879127,74.020594
4217.939911,592.164754,-8810.098227,0.000000
4217.940236,740.205942,-9422.974625,-444.123565
4217.940560,1110.308913,-9116.536426,-592.164754
4217.940884,-518.144159,-8120.612279,-1332.370696
4217.941209,-1406.391290,-8427.050478,-888.247130
4217.941533,-1554.432478,-8197.221829,-444.123565
4217.941857,-1702.473667,-8886.707777,74.020594
4217.942181,-1480.411884,-8733.488677,-296.082377
4217.942506,740.205942,-8580.269578,0.000000
4217.942830,1332.370696,-9269.755526,-1110.308913
4217.943154,2664.741391,-9039.926876,-814.226536
4217.943478,3256.906145,-8886.707777,444.123565
4217.943803,2368.659014,-7431.126331,-666.185348
4217.944127,296.082377,-8503.660028,370.102971
4217.944451,-444.123565,-8580.269578,0.000000
4217.944775,-1036.288319,-8580.269578,0.000000
4217.945100,666.185348,-8580.269578,-296.082377
4217.945424,222.061783,-8427.050478,-518.144159
4217.945748,1998.556043,-8580.269578,-370.102971
4217.946072,1184.329507,-7814.174080,-1406.391290
4217.946397,148.041188,-9422.974625,-888.247130
4217.946721,-1702.473667,-8350.440928,-1184.329507
4217.947045,-1554.432478,-9193.145976,-518.144159
4217.947369,-2146.597232,-9652.803275,0.000000
4217.947694,-1554.432478,-8963.317327,0.000000
4217.948018,-740.205942,-8580.269578,-518.144159
4217.948342,1036.288319,-8427.050478,222.061783
4217.948666,2442.679609,-8580.269578,-740.205942
4217.948991,2146.597232,-8350.440928,-296.082377
4217.949315,1110.308913,-8044.002729,-740.205942
4217.949639,1628.453072,-8120.612279,-740.205942
4217.949963,740.205942,-8810.098227,222.061783
4217.950288,0.000000,-8656.879127,518.144159
4217.950612,-666.185348,-8273.831378,-148.041188
4217.950936,1406.391290,-8427.050478,-370.102971
4217.951260,2368.659014,-9039.926876,-888.247130
4217.951585,888.247130,-8886.707777,-296.082377
4217.951909,592.164754,-8810.098227,-962.267725
4217.952233,592.164754,-8503.660028,-518.144159
4217.952557,-148.041188,-8886.707777,-814.226536
4217.952882,-1628.453072,-9193.145976,148.041188
4217.953206,-1480.411884,-8427.050478,0.000000
4217.953530,-2072.576638,-8503.660028,-370.102971
4217.953854,740.205942,-9422.974625,0.000000
4217.954179,1850.514855,-8886.707777,222.061783
4217.954503,1036.288319,-7354.516781,-1110.308913
4217.954827,1776.494261,-8503.660028,-148.041188
4217.955151,1036.288319,-7814.174080,148.041188
4217.955476,1258.350101,-8810.098227,518.144159
4217.955800,2812.782580,-8810.098227,296.082377
4217.956124,3701.029710,-8503.660028,518.144159
4217.956448,1924.535449,-6971.469032,-1110.308913
4217.956773,2664.741391,-8273.831378,-814.226536
4217.957097,3627.009116,-10342.289223,148.041188
4217.957421,-222.061783,-8427.050478,-1332.370696
4217.957745,-1850.514855,-8656.879127,74.020594
4217.958070,-2516.700203,-7890.783629,0.000000
4217.958394,-4663.297435,-9269.755526,-1184.329507
4217.958718,-2368.659014,-10112.460574,222.061783
4217.959042,-1184.329507,-6971.469032,-1110.308913
4217.959367,-444.123565,-8963.317327,666.185348
4217.959691,518.144159,-7737.564530,-592.164754
4217.960015,2516.700203,-8810.098227,1258.350101
4217.960340,3034.844362,-7584.345430,-666.185348
4217.960664,3256.906145,-9499.584175,-370.102971
4217.960988,1406.391290,-8733.488677,-592.164754
4217.961312,444.123565,-9576.193725,-148.041188
4217.961637,-1480.411884,-7814.174080,-518.144159
4217.961961,-444.123565,-8810.098227,666.185348
4217.962285,0.000000,-7967.393179,-296.082377
4217.962609,666.185348,-8733.488677,222.061783
4217.962934,592.164754,-8733.488677,-592.164754
4217.963258,-2368.659014,-8427.050478,-666.185348
4217.963582,-1184.329507,-7660.954980,-592.164754
4217.963906,-592.164754,-8810.098227,-296.082377
4217.964231,-740.205942,-9576.193725,0.000000
4217.964555,0.000000,-7737.564530,0.000000
4217.964879,814.226536,-9422.974625,-296.082377
4217.965203,0.000000,-8580.269578,-962.267725
4217.965528,1924.535449,-8273.831378,-814.226536
4217.965852,2886.803174,-8427.050478,-814.226536
4217.966176,296.082377,-8503.660028,74.020594
4217.966500,1628.453072,-9039.926876,-296.082377
4217.966825,-740.205942,-7967.393179,222.061783
4217.967149,1184.329507,-8427.050478,370.102971
4217.967473,1702.473667,-7431.126331,-1184.329507
4217.967797,1998.556043,-9346.365076,-592.164754
4217.968122,1628.453072,-7660.954980,-666.185348
4217.968446,666.185348,-9193.145976,-296.082377
4217.968770,370.102971,-8427.050478,-888.247130
4217.969094,-2146.597232,-9193.145976,-518.144159
4217.969419,-1554.432478,-9346.365076,-592.164754
4217.969743,-2590.720797,-8273.831378,-666.185348
4217.970067,-74.020594,-9652.803275,-518.144159
4217.970391,666.185348,-8044.002729,0.000000
4217.970716,1998.556043,-8503.660028,-148.041188
4217.971040,2886.803174,-8273.831378,-1110.308913
4217.971364,3404.947333,-8273.831378,-296.082377
4217.971688,1110.308913,-7890.783629,-1110.308913
4217.972013,1110.308913,-9959.241474,-814.226536
4217.972337,-222.061783,-8963.317327,-814.226536
4217.972661,0.000000,-8733.488677,518.144159
4217.972985,1480.411884,-8350.440928,-370.102971
4217.973310,1258.350101,-9039.926876,-888.247130
4217.973634,814.226536,-8273.831378,-518.144159
4217.973958,666.185348,-8580.269578,-1184.329507
4217.974282,148.041188,-8733.488677,-1184.329507
4217.974607,-296.082377,-8810.098227,-666.185348
4217.974931,-1036.288319,-8503.660028,74.020594
4217.975255,-1924.535449,-8427.050478,-444.123565
4217.975579,518.144159,-9422.974625,0.000000
4217.975904,444.123565,-8273.831378,-518.144159
4217.976228,2590.720797,-9576.193725,0.000000
4217.976552,1332.370696,-7507.735880,-1184.329507
4217.976876,1924.535449,-9269.755526,444.123565
4217.977201,888.247130,-7967.393179,-518.144159
4217.977525,-592.164754,-9193.145976,518.144159
4217.977849,-370.102971,-8120.612279,-444.123565
4217.978173,-888.247130,-8120.612279,592.164754
4217.978498,296.082377,-8120.612279,-888.247130
4217.978822,2886.803174,-9576.193725,148.041188
4217.979146,1554.432478,-8273.831378,-1628.453072
4217.979470,592.164754,-8503.660028,296.082377
4217.979795,666.185348,-9116.536426,-1110.308913
4217.980119,-1998.556043,-9959.241474,370.102971
4217.980443,-1406.391290,-8656.879127,-1258.350101
4217.980768,-1480.411884,-8120.612279,0.000000
4217.981092,-2442.679609,-8427.050478,296.082377
4217.981416,-370.102971,-8427.050478,518.144159
4217.981740,888.247130,-8580.269578,-740.205942
4217.982065,1480.411884,-7967.393179,-296.082377
4217.982389,1332.370696,-7584.345430,-444.123565
4217.982713,1406.391290,-8503.660028,-740.205942
4217.983037,1258.350101,-8580.269578,0.000000
4217.983362,814.226536,-9193.145976,148.041188
4217.983686,148.041188,-8810.098227,-148.041188
4217.984010,0.000000,-8886.707777,-148.041188
4217.984334,2516.700203,-9039.926876,-592.164754
4217.984659,1628.453072,-9039.926876,-296.082377
4217.984983,148.041188,-9039.926876,0.000000
4217.985307,-2146.597232,-7967.393179,-222.061783
4217.985631,-2294.638420,-8656.879127,222.061783
4217.985956,-3034.844362,-8273.831378,-370.102971
4217.986280,-1332.370696,-8810.098227,148.041188
4217.986604,-444.123565,-7660.954980,-1110.308913
4217.986928,1702.473667,-8350.440928,1184.329507
4217.987253,2368.659014,-7890.783629,-888.247130
4217.987577,2738.761985,-9499.584175,296.082377
4217.987901,2294.638420,-8350.440928,-518.144159
4217.988225,2294.638420,-9959.241474,-222.061783
4217.988550,2442.679609,-9116.536426,0.000000
4217.988874,-666.185348,-8810.098227,444.123565
4217.989198,-888.247130,-8503.660028,-370.102971
4217.989522,-888.247130,-7814.174080,296.082377
4217.989847,962.267725,-9729.412825,-444.123565
4217.990171,666.185348,-8350.440928,-1110.308913
4217.990495,296.082377,-7431.126331,-1258.350101
4217.990819,-962.267725,-8044.002729,-592.164754
4217.991144,518.144159,-9346.365076,-1554.432478
4217.991468,-370.102971,-8273.831378,-592.164754
4217.991792,296.082377,-9499.584175,444.123565
4217.992116,-518.144159,-8427.050478,-1036.288319
4217.992441,814.226536,-9729.412825,-222.061783
4217.992765,1628.453072,-8427.050478,-1184.329507
4217.993089,2220.617826,-9039.926876,-666.185348
4217.993413,1480.411884,-8197.221829,-1184.329507
4217.993738,1554.432478,-8273.831378,222.061783
4217.994062,1332.370696,-8580.269578,296.082377
4217.994386,-666.185348,-8963.317327,-296.082377
4217.994710,1332.370696,-8810.098227,296.082377
4217.995035,2664.741391,-7431.126331,-888.247130
4217.995359,2368.659014,-9729.412825,-1332.370696
4217.995683,2590.720797,-8580.269578,-666.185348
4217.996007,1036.288319,-9039.926876,-1184.329507
4217.996332,0.000000,-9039.926876,-1036.288319
4217.996656,-1850.514855,-9346.365076,-296.082377
4217.996980,-2368.659014,-9346.365076,-370.102971
4217.997304,-3182.885551,-8427.050478,0.000000
4217.997629,-962.267725,-8886.707777,148.041188
4217.997953,-222.061783,-8656.879127,0.000000
4217.998277,296.082377,-7737.564530,-1258.350101
4217.998601,3182.885551,-9039.926876,-148.041188
4217.998926,2146.597232,-6971.469032,-962.267725
4217.999250,2738.761985,-8427.050478,444.123565
4217.999574,814.226536,-7967.393179,-1036.288319
4217.999898,-370.102971,-10112.460574,148.041188
4218.000223,0.000000,-7660.954980,-814.226536
4218.000547,666.185348,-9193.145976,296.082377
4218.000871,1184.329507,-8427.050478,-666.185348
4218.001195,1036.288319,-8503.660028,-222.061783
4218.001520,222.061783,-8427.050478,-962.267725
4218.001844,-1406.391290,-8656.879127,-1406.391290
4218.002168,-1998.556043,-9039.926876,296.082377
4218.002493,-1924.535449,-8120.612279,148.041188
4218.002817,-1554.432478,-7660.954980,444.123565
4218.003141,-666.185348,-8120.612279,370.102971
4218.003465,1406.391290,-8733.488677,-296.082377
4218.003790,2812.782580,-8580.269578,-888.247130
4218.004114,2590.720797,-8120.612279,0.000000
4218.004438,2516.700203,-8656.879127,0.000000
4218.004762,740.205942,-7584.345430,-222.061783
4218.005087,222.061783,-9193.145976,666.185348
4218.005411,-1184.329507,-8273.831378,0.000000
4218.005735,-1110.308913,-8810.098227,222.061783
4218.006059,-592.164754,-7890.783629,-222.061783
4218.006384,1406.391290,-9576.193725,-370.102971
4218.006708,962.267725,-7737.564530,-592.164754
4218.007032,1036.288319,-7890.783629,-296.082377
4218.007356,592.164754,-8273.831378,-666.185348
4218.007681,1332.370696,-8580.269578,-518.144159
4218.008005,-518.144159,-9116.536426,74.020594
4218.008329,-1628.453072,-8427.050478,-888.247130
4218.008653,-1480.411884,-9652.803275,518.144159
4218.008978,0.000000,-7737.564530,0.000000
4218.009302,1776.494261,-9269.755526,370.102971
4218.009626,1406.391290,-8120.612279,-888.247130
4218.009950,814.226536,-8580.269578,-296.082377
4218.010275,666.185348,-7507.735880,-740.205942
4218.010599,444.123565,-9806.022374,444.123565
4218.010923,1406.391290,-8350.440928,-1110.308913
4218.011247,1628.453072,-8886.707777,74.020594
4218.011572,592.164754,-8197.221829,-1184.329507
4218.011896,5773.606348,-8733.488677,-296.082377
4218.012220,1480.411884,-9652.803275,-2664.741391
4218.012544,-592.164754,-8733.488677,-518.144159
4218.012869,-1036.288319,-9039.926876,1258.350101
4218.013193,-2738.761985,-6818.249932,-2146.597232
4218.013517,-1332.370696,-10112.460574,1480.411884
4218.013841,-1554.432478,-6971.469032,-2072.576638
4218.014166,-1332.370696,-9652.803275,1258.350101
4218.014490,1924.535449,-6511.811733,-1850.514855
4218.014814,2812.782580,-9959.241474,814.226536
4218.015138,2442.679609,-7201.297681,-1924.535449
4218.015463,2812.782580,-9039.926876,0.000000
4218.015787,666.185348,-8503.660028,-1110.308913
4218.016111,1110.308913,-8580.269578,-370.102971
4218.016435,0.000000,-9729.412825,148.041188
4218.016760,-1036.288319,-9346.365076,-740.205942
4218.017084,-518.144159,-8427.050478,-222.061783
4218.017408,592.164754,-9269.755526,-148.041188
4218.017732,-370.102971,-8733.488677,-962.267725
4218.018057,1110.308913,-8733.488677,-518.144159
4218.018381,-296.082377,-8273.831378,-962.267725
4218.018705,-1850.514855,-8810.098227,-888.247130
4218.019029,-592.164754,-8044.002729,296.082377
4218.019354,-1850.514855,-7584.345430,74.020594
4218.019678,-222.061783,-9116.536426,666.185348
4218.020002,592.164754,-8656.879127,-888.247130
4218.020326,2368.659014,-10189.070123,74.020594
4218.020651,2442.679609,-7048.078582,-370.102971
4218.020975,2664.741391,-8963.317327,-592.164754
4218.021299,1184.329507,-8044.002729,592.164754
4218.021623,148.041188,-8350.440928,370.102971
4218.021948,-1258.350101,-8810.098227,0.000000
4218.022272,-962.267725,-8963.317327,518.144159
4218.022596,444.123565,-7967.393179,-296.082377
4218.022920,1702.473667,-8120.612279,-518.144159
4218.023245,1332.370696,-8197.221829,-296.082377
4218.023569,1850.514855,-9039.926876,-666.185348
4218.023893,962.267725,-8044.002729,-444.123565
4218.024217,-1332.370696,-9116.536426,518.144159
4218.024542,-1924.535449,-8810.098227,-1110.308913
4218.024866,-1850.514855,-8427.050478,518.144159
4218.025190,-518.144159,-7814.174080,-222.061783
4218.025514,740.205942,-8580.269578,222.061783
4218.025839,1924.535449,-8120.612279,0.000000
4218.026163,888.247130,-7737.564530,-370.102971
4218.026487,2294.638420,-9039.926876,-1702.473667
4218.026811,2812.782580,-7967.393179,444.123565
4218.027136,888.247130,-8580.269578,148.041188
4218.027460,2664.741391,-8580.269578,592.164754
4218.027784,-1480.411884,-8044.002729,-518.144159
4218.028109,-148.041188,-9499.584175,74.020594
4218.028433,370.102971,-8350.440928,-1258.350101
4218.028757,-148.041188,-9116.536426,-370.102971
4218.029081,-962.267725,-9576.193725,-1036.288319
4218.029406,-962.267725,-7431.126331,-1554.432478
4218.029730,-1406.391290,-9193.145976,74.020594
4218.030054,-2368.659014,-7737.564530,-1480.411884
4218.030378,-518.144159,-9806.022374,296.082377
4218.030703,222.061783,-7814.174080,-666.185348
4218.031027,370.102971,-9422.974625,222.061783
4218.031351,2368.659014,-7890.783629,-592.164754
4218.031675,3034.844362,-8733.488677,-592.164754
4218.032000,2664.741391,-8427.050478,-148.041188
4218.032324,666.185348,-9576.193725,0.000000
4218.032648,-222.061783,-8656.879127,-222.061783
4218.032972,-1184.329507,-8963.317327,-370.102971
4218.033297,74.020594,-8197.221829,222.061783
4218.033621,-222.061783,-9499.584175,0.000000
4218.033945,1406.391290,-7890.783629,-888.247130
4218.034269,2072.576638,-8810.098227,-444.123565
4218.034594,444.123565,-8733.488677,-1776.494261
4218.034918,740.205942,-9269.755526,-1184.329507
4218.035242,-888.247130,-8580.269578,-592.164754
4218.035566,-1702.473667,-8733.488677,0.000000
4218.035891,-2072.576638,-8810.098227,-518.144159
4218.036215,-962.267725,-8810.098227,0.000000
4218.036539,444.123565,-8350.440928,222.061783
4218.036863,2072.576638,-8580.269578,-592.164754
4218.037188,2368.659014,-8350.440928,0.000000
4218.037512,2220.617826,-7584.345430,-666.185348
4218.037836,1924.535449,-7967.393179,-518.144159
4218.038160,962.267725,-8197.221829,0.000000
4218.038485,1110.308913,-8886.707777,370.102971
4218.038809,-222.061783,-7660.954980,-148.041188
4218.039133,370.102971,-8427.050478,74.020594
4218.039457,1036.288319,-8350.440928,-1110.308913
4218.039782,1850.514855,-8656.879127,-222.061783
4218.040106,962.267725,-8120.612279,-518.144159
4218.040430,222.061783,-9193.145976,0.000000
4218.040754,-592.164754,-7890.783629,-1036.288319
4218.041079,-1480.411884,-9116.536426,222.061783
4218.041403,-814.226536,-8044.002729,-740.205942
4218.041727,0.000000,-8656.879127,74.020594
4218.042051,814.226536,-8120.612279,-296.082377
4218.042376,3108.864956,-8733.488677,592.164754
4218.042700,296.082377,-7507.735880,-1480.411884
4218.043024,1998.556043,-9652.803275,0.000000
4218.043348,1850.514855,-7354.516781,-296.082377
4218.043673,888.247130,-9422.974625,296.082377
4218.043997,-518.144159,-8350.440928,0.000000
4218.044321,-1776.494261,-8733.488677,1036.288319
4218.044645,444.123565,-8886.707777,-666.185348
4218.044970,-296.082377,-8656.879127,-370.102971
4218.045294,2294.638420,-9269.755526,-1258.350101
4218.045618,444.123565,-8427.050478,-370.102971
4218.045942,-1184.329507,-8273.831378,-1110.308913
4218.046267,-2590.720797,-8273.831378,0.000000
4218.046591,-1850.514855,-8427.050478,-888.247130
4218.046915,-2812.782580,-8350.440928,-222.061783
4218.047239,74.020594,-8810.098227,0.000000
4218.047564,444.123565,-7890.783629,-296.082377
4218.047888,2146.597232,-9499.584175,0.000000
4218.048212,3552.988522,-7890.783629,-1036.288319
4218.048536,2146.597232,-9269.755526,370.102971
4218.048861,962.267725,-7660.954980,-888.247130
4218.049185,592.164754,-9346.365076,814.226536
4218.049509,-666.185348,-8503.660028,-1406.391290
4218.049833,-1998.556043,-9116.536426,740.205942
4218.050158,-444.123565,-7354.516781,-962.267725
4218.050482,1036.288319,-10112.460574,296.082377
4218.050806,740.205942,-7507.735880,-1480.411884
4218.051130,1110.308913,-9499.584175,222.061783
4218.051455,0.000000,-8197.221829,-814.226536
4218.051779,-222.061783,-8503.660028,-740.205942
4218.052103,-518.144159,-8503.660028,-1184.329507
4218.052428,0.000000,-9193.145976,148.041188
4218.052752,222.061783,-7890.783629,-370.102971
4218.053076,222.061783,-9193.145976,296.082377
4218.053400,888.247130,-9346.365076,0.000000
4218.053725,1998.556043,-8044.002729,-444.123565
4218.054049,1850.514855,-8656.879127,-296.082377
4218.054373,1480.411884,-8044.002729,-518.144159
4218.054697,1258.350101,-9193.145976,666.185348
4218.055022,-148.041188,-7814.174080,-444.123565
4218.055346,1406.391290,-9269.755526,148.041188
4218.055670,0.000000,-7277.907231,-1184.329507
4218.055994,1850.514855,-9346.365076,222.061783
4218.056319,1628.453072,-7507.735880,-1184.329507
4218.056643,814.226536,-9269.755526,-666.185348
4218.056967,-1776.494261,-7737.564530,-1184.329507
4218.057291,-888.247130,-9652.803275,370.102971
4218.057616,-888.247130,-8427.050478,-444.123565
4218.057940,-1332.370696,-8580.269578,296.082377
4218.058264,0.000000,-7890.783629,592.164754
4218.058588,2368.659014,-8197.221829,-444.123565
4218.058913,3034.844362,-9039.926876,-370.102971
4218.059237,2368.659014,-7277.907231,-296.082377
4218.059561,3256.906145,-9269.755526,222.061783
4218.059885,2294.638420,-7354.516781,-1258.350101
4218.060210,1036.288319,-10189.070123,296.082377
4218.060534,-148.041188,-7354.516781,-444.123565
4218.060858,-666.185348,-9346.365076,740.205942
4218.061182,-444.123565,-8044.002729,-666.185348
4218.061507,1406.391290,-9039.926876,370.102971
4218.061831,1332.370696,-8197.221829,-962.267725
4218.062155,-370.102971,-9499.584175,-370.102971
4218.062479,148.041188,-8350.440928,-1998.556043
4218.062804,-1628.453072,-9039.926876,-444.123565
4218.063128,-1776.494261,-8044.002729,0.000000
4218.063452,-2294.638420,-8350.440928,-518.144159
4218.063776,-1628.453072,-9499.584175,74.020594
4218.064101,-666.185348,-7737.564530,222.061783
4218.064425,1702.473667,-8963.317327,-740.205942
4218.064749,1184.329507,-8656.879127,-518.144159
4218.065073,2812.782580,-8197.221829,-370.102971
4218.065398,2294.638420,-7584.345430,-1036.288319
4218.065722,1406.391290,-8810.098227,0.000000
4218.066046,0.000000,-8273.831378,370.102971
4218.066370,-518.144159,-8656.879127,148.041188
4218.066695,222.061783,-8197.221829,-296.082377
4218.067019,740.205942,-9039.926876,-518.144159
4218.067343,1258.350101,-8503.660028,-1332.370696
4218.067667,370.102971,-8427.050478,-962.267725
4218.067992,-444.123565,-8963.317327,-666.185348
4218.068316,-2220.617826,-8350.440928,-444.123565
4218.068640,-1554.432478,-9346.365076,-148.041188
4218.068964,-2072.576638,-8120.612279,0.000000
4218.069289,-222.061783,-8886.707777,592.164754
4218.069613,370.102971,-7814.174080,-592.164754
4218.069937,2516.700203,-9346.365076,148.041188
4218.070261,1702.473667,-7201.297681,-962.267725
4218.070586,3256.906145,-10035.851024,222.061783
4218.070910,1480.411884,-7277.907231,-1258.350101
4218.071234,1258.350101,-9882.631924,518.144159
4218.071558,-370.102971,-7814.174080,-814.226536
4218.071883,-888.247130,-9959.241474,1258.350101
4218.072207,-1258.350101,-7967.393179,-666.185348
4218.072531,-148.041188,-9193.145976,592.164754
4218.072855,74.020594,-8197.221829,-1554.432478
4218.073180,222.061783,-9576.193725,-222.061783
4218.073504,888.247130,-7584.345430,-888.247130
4218.073828,0.000000,-8503.660028,-222.061783
4218.074152,370.102971,-8350.440928,-962.267725
4218.074477,-740.205942,-8656.879127,296.082377
4218.074801,0.000000,-8503.660028,-592.164754
4218.075125,222.061783,-8503.660028,444.123565
4218.075449,2368.659014,-8580.269578,-518.144159
4218.075774,1628.453072,-8197.221829,-888.247130
4218.076098,1702.473667,-8503.660028,-148.041188
4218.076422,370.102971,-8120.612279,-222.061783
4218.076746,0.000000,-8580.269578,370.102971
4218.077071,148.041188,-8120.612279,-740.205942
4218.077395,592.164754,-9039.926876,296.082377
4218.077719,518.144159,-7507.735880,-1258.350101
4218.078044,2960.823768,-9422.974625,-148.041188
4218.078368,2072.576638,-8273.831378,-1702.473667
4218.078692,888.247130,-9422.974625,-444.123565
4218.079016,74.020594,-8886.707777,-1554.432478
4218.079341,-1850.514855,-8733.488677,74.020594
4218.079665,-1332.370696,-8886.707777,-222.061783
4218.079989,-2368.659014,-8733.488677,0.000000
4218.080313,-1776.494261,-8580.269578,-148.041188
4218.080638,0.000000,-8273.831378,-592.164754
4218.080962,1110.308913,-8733.488677,-592.164754
4218.081286,3182.885551,-7814.174080,0.000000
4218.081610,3330.926739,-8197.221829,-1036.288319
4218.081935,2886.803174,-8963.317327,-666.185348
4218.082259,1258.350101,-7814.174080,-666.185348
4218.082583,222.061783,-9269.755526,-370.102971
4218.082907,-814.226536,-9499.584175,-444.123565
4218.083232,-518.144159,-8656.879127,-666.185348
4218.083556,-148.041188,-8810.098227,-444.123565
4218.083880,518.144159,-8427.050478,-296.082377
4218.084204,-1924.535449,-8197.221829,-1406.391290
4218.084529,-814.226536,-9039.926876,-814.226536
4218.084853,-1406.391290,-8656.879127,-592.164754
4218.085177,-1628.453072,-8503.660028,-592.164754
4218.085501,-1036.288319,-8427.050478,518.144159
4218.085826,222.061783,-8197.221829,296.082377
4218.086150,1554.432478,-8273.831378,0.000000
4218.086474,2812.782580,-8733.488677,-666.185348
4218.086798,2146.597232,-8580.269578,-888.247130
4218.087123,2590.720797,-9116.536426,-296.082377
4218.087447,1036.288319,-7967.393179,-222.061783
4218.087771,-962.267725,-9422.974625,1036.288319
4218.088095,-1036.288319,-7967.393179,0.000000
4218.088420,-1332.370696,-8273.831378,888.247130
4218.088744,-740.205942,-8044.002729,-296.082377
4218.089068,1110.308913,-8273.831378,-740.205942
4218.089392,1406.391290,-9116.536426,-962.267725
4218.089717,888.247130,-8503.660028,-592.164754
4218.090041,592.164754,-8427.050478,-814.226536
4218.090365,-666.185348,-8350.440928,74.020594
4218.090689,-888.247130,-8503.660028,-370.102971
4218.091014,0.000000,-8810.098227,-592.164754
4218.091338,-1332.370696,-8810.098227,-370.102971
4218.091662,0.000000,-7890.783629,444.123565
4218.091986,1110.308913,-7431.126331,222.061783
4218.092311,1480.411884,-8580.269578,74.020594
4218.092635,2368.659014,-7814.174080,-740.205942
4218.092959,3330.926739,-8810.098227,370.102971
4218.093283,814.226536,-7814.174080,-814.226536
4218.093608,1332.370696,-8886.707777,-370.102971
4218.093932,-1110.308913,-8350.440928,518.144159
4218.094256,3182.885551,-8810.098227,370.102971
4218.094581,370.102971,-8044.002729,-1702.473667
4218.094905,2368.659014,-10418.898773,592.164754
4218.095229,1480.411884,-7814.174080,-1998.556043
4218.095553,-1332.370696,-9806.022374,-1110.308913
4218.095878,-962.267725,-9499.584175,-148.041188
4218.096202,-2072.576638,-9039.926876,0.000000
4218.096526,-1554.432478,-8120.612279,0.000000
4218.096851,-592.164754,-8963.317327,0.000000
4218.097175,0.000000,-8120.612279,-296.082377
4218.097499,1184.329507,-8273.831378,-148.041188
4218.097823,2960.823768,-8427.050478,-1480.411884
4218.098148,2664.741391,-8197.221829,-962.267725
4218.098472,1998.556043,-9346.365076,74.020594
4218.098796,2146.597232,-8427.050478,-222.061783
4218.099121,148.041188,-8810.098227,-740.205942
4218.099445,444.123565,-9959.241474,592.164754
4218.099769,-888.247130,-7890.783629,-1258.350101
4218.100093,296.082377,-9193.145976,-592.164754
4218.100418,444.123565,-8886.707777,-1036.288319
4218.100742,74.020594,-8810.098227,-1184.329507
4218.101066,370.102971,-8886.707777,-1628.453072
4218.101391,-1406.391290,-8963.317327,444.123565
4218.101715,-1184.329507,-8273.831378,-1480.411884
4218.102039,-2072.576638,-8350.440928,-148.041188
4218.102363,148.041188,-9039.926876,222.061783
4218.102688,666.185348,-7890.783629,-814.226536
4218.103012,2590.720797,-9422.974625,0.000000
4218.103336,3478.967927,-8197.221829,0.000000
4218.103661,2442.679609,-8427.050478,-888.247130
4218.103985,1480.411884,-8810.098227,-148.041188
4218.104309,518.144159,-9346.365076,296.082377
4218.104633,-888.247130,-8044.002729,-74.020594
4218.104958,-814.226536,-9039.926876,814.226536
4218.105282,-296.082377,-7660.954980,-370.102971
4218.105606,1554.432478,-8963.317327,-592.164754
4218.105931,1332.370696,-8120.612279,-1406.391290
4218.106255,1184.329507,-9806.022374,-370.102971
4218.106579,0.000000,-8427.050478,-666.185348
4218.106903,-1036.288319,-9193.145976,74.020594
4218.107228,-1258.350101,-9039.926876,-148.041188
4218.107552,-1776.494261,-8656.879127,-148.041188
4218.107876,-740.205942,-9039.926876,74.020594
4218.108201,-1110.308913,-7890.783629,-222.061783
4218.108525,3034.844362,-8963.317327,370.102971
4218.108849,962.267725,-7354.516781,-592.164754
4218.109173,2516.700203,-8273.831378,0.000000
4218.109498,1554.432478,-8197.221829,148.041188
4218.109822,2590.720797,-9269.755526,0.000000
4218.110146,962.267725,-8733.488677,296.082377
4218.110471,-370.102971,-7584.345430,148.041188
4218.110795,1332.370696,-8656.879127,0.000000
4218.111119,2812.782580,-7967.393179,-962.267725
4218.111443,3775.050304,-10572.117872,222.061783
4218.111768,1110.308913,-7124.688131,-222.061783
4218.112092,222.061783,-8120.612279,0.000000
4218.112416,-2442.679609,-7890.783629,-444.123565
4218.112741,518.144159,-10035.851024,370.102971
4218.113065,-2886.803174,-7431.126331,-740.205942
4218.113389,-2812.782580,-8810.098227,888.247130
4218.113713,666.185348,-7354.516781,222.061783
4218.114038,2072.576638,-8963.317327,-444.123565
4218.114362,4441.235652,-8273.831378,-1184.329507
4218.114686,2294.638420,-8427.050478,0.000000
4218.115011,1554.432478,-8427.050478,-888.247130
4218.115335,2368.659014,-8350.440928,148.041188
4218.115659,962.267725,-9346.365076,-296.082377
4218.115983,0.000000,-9806.022374,370.102971
4218.116308,-1924.535449,-7354.516781,-888.247130
4218.116632,-222.061783,-9269.755526,74.020594
4218.116956,1036.288319,-8273.831378,-1554.432478
4218.117281,518.144159,-8733.488677,-370.102971
4218.117605,-1480.411884,-8580.269578,-888.247130
4218.117929,-1184.329507,-8963.317327,-962.267725
4218.118253,-592.164754,-8273.831378,-814.226536
4218.118578,592.164754,-8733.488677,-962.267725
4218.118902,740.205942,-8810.098227,-444.123565
4218.119226,-518.144159,-8580.269578,-148.041188
4218.119551,1998.556043,-9116.536426,0.000000
4218.119875,1554.432478,-8503.660028,-666.185348
4218.120199,1628.453072,-9652.803275,-740.205942
4218.120523,666.185348,-9193.145976,148.041188
4218.120848,-592.164754,-7967.393179,-296.082377
4218.121172,-222.061783,-9193.145976,0.000000
4218.121496,-592.164754,-8044.002729,148.041188
4218.121821,518.144159,-8503.660028,-592.164754
4218.122145,2294.638420,-7431.126331,-296.082377
4218.122469,3330.926739,-9346.365076,-740.205942
4218.122793,3034.844362,-7890.783629,-888.247130
4218.123118,2516.700203,-8886.707777,-888.247130
4218.123442,-962.267725,-8427.050478,-592.164754
4218.123766,-2072.576638,-9499.584175,-740.205942
4218.124091,-2738.761985,-9729.412825,-222.061783
4218.124415,-2738.761985,-9039.926876,148.041188
4218.124739,-1702.473667,-8503.660028,-296.082377
4218.125063,444.123565,-8580.269578,0.000000
4218.125388,1258.350101,-8120.612279,-1332.370696
4218.125712,2368.659014,-8503.660028,148.041188
4218.126036,2960.823768,-7660.954980,-370.102971
4218.126361,2146.597232,-8656.879127,444.123565
4218.126685,1258.350101,-8656.879127,-962.267725
4218.127009,444.123565,-9346.365076,962.267725
4218.127333,888.247130,-7967.393179,0.000000
4218.127658,814.226536,-8886.707777,0.000000
4218.127982,1036.288319,-8427.050478,-1036.288319
4218.128306,666.185348,-8810.098227,222.061783
4218.128631,-1258.350101,-8427.050478,-666.185348
4218.128955,-1406.391290,-8503.660028,222.061783
4218.129279,-1036.288319,-7584.345430,592.164754
4218.129603,-148.041188,-8044.002729,-370.102971
4218.129928,-518.144159,-8963.317327,0.000000
4218.130252,666.185348,-7737.564530,-296.082377
4218.130576,1924.535449,-9116.536426,296.082377
4218.130901,1554.432478,-8197.221829,-1554.432478
4218.131225,1628.453072,-9422.974625,1258.350101
4218.131549,1036.288319,-8273.831378,-518.144159
4218.131873,0.000000,-8810.098227,0.000000
4218.132198,740.205942,-8733.488677,-148.041188
4218.132522,518.144159,-7967.393179,0.000000
4218.132846,-1554.432478,-8427.050478,-666.185348
4218.133171,518.144159,-8656.879127,0.000000
4218.133495,1480.411884,-8580.269578,-592.164754
4218.133819,1332.370696,-7967.393179,-1702.473667
4218.134143,1702.473667,-8656.879127,-1110.308913
4218.134468,-444.123565,-7967.393179,-370.102971
4218.134792,-1554.432478,-9116.536426,-518.144159
4218.135116,-2886.803174,-8580.269578,-296.082377
4218.135441,-1258.350101,-9039.926876,666.185348
4218.135765,-962.267725,-8350.440928,-296.082377
4218.136089,888.247130,-8656.879127,-222.061783
4218.136413,2516.700203,-8656.879127,-962.267725
4218.136738,2960.823768,-8886.707777,-962.267725
4218.137062,2146.597232,-8273.831378,-888.247130
4218.137386,962.267725,-8503.660028,0.000000
4218.137711,-444.123565,-8580.269578,-814.226536
4218.138035,518.144159,-9422.974625,444.123565
4218.138359,1184.329507,-7660.954980,-222.061783
4218.138683,1332.370696,-9269.755526,-370.102971
4218.139008,1776.494261,-8503.660028,-888.247130
4218.139332,962.267725,-8963.317327,-888.247130
4218.139656,-592.164754,-8886.707777,-1332.370696
4218.139981,-1406.391290,-8810.098227,-296.082377
4218.140305,-1776.494261,-8580.269578,-296.082377
4218.140629,-1850.514855,-7890.783629,-370.102971
4218.140953,-888.247130,-9652.803275,-814.226536
4218.141278,0.000000,-8503.660028,-962.267725
4218.141602,1480.411884,-8733.488677,-370.102971
4218.141926,1332.370696,-7584.345430,-1258.350101
4218.142251,2368.659014,-9193.145976,0.000000
4218.142575,1850.514855,-8656.879127,-962.267725
4218.142899,1702.473667,-8580.269578,-74.020594
4218.143223,-3108.864956,-7890.783629,-148.041188
4218.143548,1554.432478,-9576.193725,148.041188
4218.143872,444.123565,-7124.688131,-1258.350101
4218.144196,2072.576638,-10495.508323,814.226536
4218.144521,1702.473667,-7660.954980,-1406.391290
4218.144845,444.123565,-9039.926876,-518.144159
4218.145169,444.123565,-8733.488677,-740.205942
4218.145493,296.082377,-8733.488677,-814.226536
4218.145818,-888.247130,-8427.050478,0.000000
4218.146142,-1480.411884,-8120.612279,74.020594
4218.146466,-296.082377,-8503.660028,962.267725
4218.146791,-222.061783,-7584.345430,0.000000
4218.147115,2590.720797,-8963.317327,0.000000
4218.147439,2812.782580,-7431.126331,-1258.350101
4218.147763,1554.432478,-9422.974625,0.000000
4218.148088,666.185348,-8580.269578,-370.102971
4218.148412,518.144159,-8580.269578,444.123565
4218.148736,-592.164754,-8733.488677,0.000000
4218.149061,-1184.329507,-9346.365076,148.041188
4218.149385,-888.247130,-7814.174080,-1110.308913
4218.149709,814.226536,-8886.707777,592.164754
4218.150033,2220.617826,-7354.516781,-1184.329507
4218.150358,1110.308913,-9499.584175,0.000000
4218.150682,-444.123565,-7584.345430,-962.267725
4218.151006,-740.205942,-9499.584175,814.226536
4218.151331,-740.205942,-8120.612279,-740.205942
4218.151655,-1036.288319,-9039.926876,0.000000
4218.151979,-444.123565,-8810.098227,74.020594
4218.152303,-592.164754,-7507.735880,-148.041188
4218.152628,888.247130,-8656.879127,0.000000
4218.152952,1924.535449,-8427.050478,-1184.329507
4218.153276,2590.720797,-8503.660028,370.102971
4218.153601,1184.329507,-8044.002729,0.000000
4218.153925,1258.350101,-8733.488677,-518.144159
4218.154249,0.000000,-8273.831378,-148.041188
4218.154573,370.102971,-9193.145976,666.185348
4218.154898,0.000000,-8350.440928,-1406.391290
4218.155222,0.000000,-9269.755526,74.020594
4218.155546,1406.391290,-8503.660028,-592.164754
4218.155871,1480.411884,-8656.879127,-1258.350101
4218.156195,1110.308913,-9499.584175,-1258.350101
4218.156519,0.000000,-8963.317327,-518.144159
4218.156843,-1332.370696,-8503.660028,0.000000
4218.157168,-2664.741391,-7967.393179,-740.205942
4218.157492,-1258.350101,-9039.926876,222.061783
4218.157816,0.000000,-7967.393179,-370.102971
4218.158141,1480.411884,-9269.755526,-444.123565
4218.158465,1776.494261,-7814.174080,-1184.329507
4218.158789,2442.679609,-8273.831378,-296.082377
4218.159113,2072.576638,-8656.879127,-1480.411884
4218.159438,2368.659014,-9116.536426,-222.061783
4218.159762,666.185348,-9039.926876,296.082377
4218.160086,888.247130,-8350.440928,-444.123565
4218.160411,962.267725,-8886.707777,0.000000
4218.160735,1332.370696,-8580.269578,-592.164754
4218.161059,2220.617826,-8350.440928,-1554.432478
4218.161383,814.226536,-8580.269578,-1332.370696
4218.161708,-444.123565,-9039.926876,0.000000
4218.162032,-814.226536,-8120.612279,0.000000
4218.162356,-666.185348,-8810.098227,74.020594
4218.162681,-1036.288319,-8427.050478,296.082377
4218.163005,-666.185348,-8197.221829,-370.102971
4218.163329,370.102971,-8810.098227,0.000000
4218.163653,3256.906145,-8886.707777,0.000000
4218.163978,4219.173869,-8733.488677,-814.226536
4218.164302,3330.926739,-8656.879127,-222.061783
4218.164626,3552.988522,-8350.440928,-444.123565
4218.164951,814.226536,-8656.879127,-962.267725
4218.165275,222.061783,-8886.707777,148.041188
4218.165599,-1110.308913,-8733.488677,518.144159
4218.165923,-1998.556043,-8273.831378,-666.185348
4218.166248,-518.144159,-8733.488677,148.041188
4218.166572,1406.391290,-8886.707777,-1332.370696
4218.166896,518.144159,-9346.365076,-444.123565
4218.167221,-296.082377,-7814.174080,-962.267725
4218.167545,-296.082377,-9652.803275,-444.123565
4218.167869,-592.164754,-7584.345430,-1332.370696
4218.168193,-1258.350101,-8503.660028,370.102971
4218.168518,-296.082377,-8197.221829,0.000000
4218.168842,74.020594,-8963.317327,148.041188
4218.169166,148.041188,-8044.002729,-444.123565
4218.169491,1998.556043,-9806.022374,-370.102971
4218.169815,-296.082377,-7890.783629,-666.185348
4218.170139,222.061783,-9193.145976,148.041188
4218.170463,-222.061783,-7354.516781,74.020594
4218.170788,444.123565,-9116.536426,888.247130
4218.171112,0.000000,-7890.783629,-666.185348
4218.171436,1110.308913,-9116.536426,-296.082377
4218.171761,1776.494261,-7890.783629,-1406.391290
4218.172085,1998.556043,-10035.851024,0.000000
4218.172409,1258.350101,-8044.002729,-1406.391290
4218.172733,666.185348,-9422.974625,-518.144159
4218.173058,-518.144159,-8503.660028,-370.102971
4218.173382,-2590.720797,-9729.412825,0.000000
4218.173706,-2590.720797,-8427.050478,-740.205942
4218.174031,-2146.597232,-8963.317327,1406.391290
4218.174355,-740.205942,-7507.735880,-518.144159
4218.174679,1924.535449,-9499.584175,592.164754
4218.175003,2738.761985,-7201.297681,-888.247130
4218.175328,2738.761985,-9269.755526,-148.041188
4218.175652,2516.700203,-7354.516781,-1554.432478
4218.175976,2886.803174,-9422.974625,592.164754
4218.176301,74.020594,-7660.954980,-740.205942
4218.176625,-666.185348,-9193.145976,1184.329507
4218.176949,-1184.329507,-7890.783629,-1332.370696
4218.177273,148.041188,-9729.412825,0.000000
4218.177598,-962.267725,-8120.612279,-1480.411884
4218.177922,666.185348,-8580.269578,370.102971
4218.178246,-888.247130,-8656.879127,-962.267725
4218.178571,-148.041188,-8120.612279,222.061783
4218.178895,0.000000,-8427.050478,-1332.370696
4218.179219,-518.144159,-8273.831378,-518.144159
4218.179543,518.144159,-8580.269578,-296.082377
4218.179868,1332.370696,-7967.393179,-148.041188
4218.180192,2146.597232,-8580.269578,-666.185348
4218.180516,2442.679609,-9039.926876,-296.082377
4218.180841,1406.391290,-8197.221829,0.000000
4218.181165,1184.329507,-9116.536426,0.000000
4218.181489,814.226536,-8733.488677,-740.205942
4218.181813,74.020594,-8963.317327,-518.144159
4218.182138,0.000000,-8273.831378,0.000000
4218.182462,444.123565,-8580.269578,-592.164754
4218.182786,2220.617826,-8120.612279,-370.102971
4218.183111,2072.576638,-8503.660028,-444.123565
4218.183435,2368.659014,-8580.269578,-1110.308913
4218.183759,1480.411884,-9193.145976,-888.247130
4218.184083,296.082377,-8810.098227,-666.185348
4218.184408,-222.061783,-8580.269578,-814.226536
4218.184732,-2072.576638,-8044.002729,0.000000
4218.185056,-1998.556043,-8503.660028,74.020594
4218.185381,-1258.350101,-8120.612279,-444.123565
4218.185705,444.123565,-9422.974625,0.000000
4218.186029,1554.432478,-7890.783629,-1332.370696
4218.186353,1776.494261,-9499.584175,0.000000
4218.186678,1480.411884,-8810.098227,-1554.432478
4218.187002,1258.350101,-8427.050478,0.000000
4218.187326,444.123565,-8733.488677,0.000000
4218.187651,-1110.308913,-9193.145976,-444.123565
4218.187975,-666.185348,-8656.879127,-296.082377
4218.188299,444.123565,-8503.660028,296.082377
4218.188623,1406.391290,-9193.145976,-1110.308913
4218.188948,888.247130,-8886.707777,-740.205942
4218.189272,666.185348,-8886.707777,-740.205942
4218.189596,222.061783,-8427.050478,0.000000
4218.189921,-962.267725,-8733.488677,-444.123565
4218.190245,-1702.473667,-8273.831378,-222.061783
4218.190569,-444.123565,-8580.269578,74.020594
4218.190893,-666.185348,-8427.050478,-592.164754
4218.191218,1628.453072,-9422.974625,-296.082377
4218.191542,1628.453072,-7660.954980,-592.164754
4218.191866,1406.391290,-8656.879127,0.000000
4218.192191,1184.329507,-8656.879127,-296.082377
4218.192515,1480.411884,-7967.393179,148.041188
4218.192839,962.267725,-9193.145976,0.000000
4218.193163,-222.061783,-7967.393179,74.020594
4218.193488,592.164754,-8044.002729,1036.288319
4218.193812,814.226536,-7584.345430,148.041188
4218.194136,1406.391290,-8273.831378,0.000000
4218.194461,888.247130,-7814.174080,-1406.391290
4218.194785,888.247130,-9193.145976,-666.185348
4218.195109,-962.267725,-8273.831378,-444.123565
4218.195433,-1554.432478,-8580.269578,0.000000
4218.195758,-2590.720797,-8886.707777,-370.102971
4218.196082,-592.164754,-8427.050478,888.247130
4218.196406,-222.061783,-7277.907231,-814.226536
4218.196730,888.247130,-9269.755526,740.205942
4218.197055,2368.659014,-7737.564530,-666.185348
4218.197379,2516.700203,-8886.707777,74.020594
4218.197703,1258.350101,-8120.612279,-1184.329507
4218.198028,1184.329507,-9116.536426,296.082377
4218.198352,148.041188,-7507.735880,-148.041188
4218.198676,74.020594,-8580.269578,0.000000
4218.199000,444.123565,-9269.755526,0.000000
4218.199325,666.185348,-7660.954980,0.000000
4218.199649,1850.514855,-8963.317327,-592.164754
4218.199973,814.226536,-8810.098227,-888.247130
4218.200297,814.226536,-9346.365076,-888.247130
4218.200622,-1110.308913,-8656.879127,-962.267725
4218.200946,-222.061783,-8733.488677,-1332.370696
4218.201270,-2146.597232,-9039.926876,0.000000
4218.201595,-370.102971,-7507.735880,0.000000
4218.201919,740.205942,-7354.516781,370.102971
4218.202243,3701.029710,-9499.584175,-888.247130
4218.202567,1628.453072,-8120.612279,222.061783
4218.202892,1554.432478,-8044.002729,-1554.432478
4218.203216,1702.473667,-9116.536426,-962.267725
4218.203540,444.123565,-8886.707777,-444.123565
4218.203864,0.000000,-9116.536426,0.000000
4218.204189,-1406.391290,-8350.440928,-592.164754
4218.204513,-740.205942,-9039.926876,-444.123565
4218.204837,740.205942,-8810.098227,-962.267725
4218.205161,1850.514855,-8963.317327,-814.226536
4218.205486,1554.432478,-8886.707777,-1628.453072
4218.205810,518.144159,-9499.584175,0.000000
4218.206134,-370.102971,-8197.221829,-814.226536
4218.206459,-592.164754,-8963.317327,370.102971
4218.206783,-2072.576638,-7890.783629,-1480.411884
4218.207107,-1776.494261,-9422.974625,518.144159
4218.207431,-962.267725,-8197.221829,-888.247130
4218.207756,518.144159,-8656.879127,0.000000
4218.208080,1554.432478,-8044.002729,-1332.370696
4218.208404,2886.803174,-8886.707777,666.185348
4218.208728,2220.617826,-7967.393179,-370.102971
4218.209053,2146.597232,-8886.707777,-592.164754
4218.209377,-888.247130,-9269.755526,0.000000
4218.209701,-370.102971,-9116.536426,0.000000
4218.210026,-518.144159,-8963.317327,-370.102971
4218.210350,-222.061783,-7354.516781,296.082377
4218.210674,1110.308913,-9806.022374,296.082377
4218.210998,666.185348,-7431.126331,-1554.432478
4218.211323,518.144159,-9729.412825,0.000000
4218.211647,-666.185348,-7124.688131,-518.144159
4218.211971,518.144159,-9269.755526,814.226536
4218.212295,-518.144159,-7737.564530,-592.164754
4218.212620,740.205942,-9422.974625,370.102971
4218.212944,-444.123565,-7277.907231,-888.247130
4218.213268,1924.535449,-9269.755526,666.185348
4218.213592,1110.308913,-7660.954980,-814.226536
4218.213917,1702.473667,-8886.707777,888.247130
4218.214241,888.247130,-7890.783629,-592.164754
4218.214565,1110.308913,-8580.269578,444.123565
4218.214890,296.082377,-7890.783629,-296.082377
4218.215214,518.144159,-8427.050478,518.144159
4218.215538,592.164754,-8427.050478,-814.226536
4218.215862,1776.494261,-8197.221829,222.061783
4218.216187,2442.679609,-8044.002729,222.061783
4218.216511,1184.329507,-7660.954980,-888.247130
4218.216835,1184.329507,-9346.365076,-370.102971
4218.217159,-962.267725,-8273.831378,-888.247130
4218.217484,-1258.350101,-9193.145976,370.102971
4218.217808,-2294.638420,-7814.174080,-814.226536
4218.218132,-2516.700203,-7737.564530,222.061783
4218.218457,-296.082377,-8503.660028,666.185348
4218.218781,2960.823768,-8273.831378,-1406.391290
4218.219105,3552.988522,-9576.193725,-666.185348
4218.219429,2220.617826,-7507.735880,-592.164754
4218.219754,2664.741391,-9039.926876,-740.205942
4218.220078,1702.473667,-8197.221829,-592.164754
4218.220402,592.164754,-8810.098227,-814.226536
4218.220726,-740.205942,-8580.269578,-518.144159
4218.221051,-888.247130,-9729.412825,-222.061783
4218.221375,814.226536,-9193.145976,-1184.329507
4218.221699,1332.370696,-9269.755526,-1184.329507
4218.222023,-370.102971,-8963.317327,-1258.350101
4218.222348,-814.226536,-9193.145976,-1702.473667
4218.222672,-1924.535449,-8580.269578,-962.267725
4218.222996,-148.041188,-9193.145976,-296.082377
4218.223321,-1924.535449,-8810.098227,-1110.308913
4218.223645,-1702.473667,-7967.393179,-962.267725
4218.223969,-666.185348,-8886.707777,-148.041188
4218.224293,740.205942,-8427.050478,-740.205942
4218.224618,2738.761985,-8810.098227,-444.123565
4218.224942,2960.823768,-8427.050478,-1184.329507
4218.225266,1554.432478,-9346.365076,-814.226536
4218.225590,592.164754,-8810.098227,-148.041188
4218.225915,222.061783,-8886.707777,-222.061783
4218.226239,-148.041188,-8656.879127,222.061783
4218.226563,-296.082377,-7967.393179,-296.082377
4218.226888,-148.041188,-8810.098227,-222.061783
4218.227212,1406.391290,-8350.440928,-1036.288319
4218.227536,1406.391290,-8120.612279,-518.144159
4218.227860,370.102971,-8503.660028,-296.082377
4218.228185,-296.082377,-8503.660028,-814.226536
4218.228509,-666.185348,-9269.755526,-148.041188
4218.228833,370.102971,-9346.365076,518.144159
4218.229157,-518.144159,-7967.393179,370.102971
4218.229482,-444.123565,-8427.050478,444.123565
4218.229806,962.267725,-7890.783629,0.000000
4218.230130,1850.514855,-8886.707777,-296.082377
4218.230454,1110.308913,-8197.221829,-296.082377
4218.230779,814.226536,-8197.221829,518.144159
4218.231103,296.082377,-7967.393179,0.000000
4218.231427,0.000000,-9116.536426,592.164754
4218.231752,518.144159,-7967.393179,-222.061783
4218.232076,888.247130,-9116.536426,814.226536
4218.232400,1776.494261,-7814.174080,-1036.288319
4218.232724,4737.318029,-9039.926876,0.000000
4218.233049,1776.494261,-8350.440928,-1850.514855
4218.233373,-1554.432478,-9116.536426,-444.123565
4218.233697,-1480.411884,-9193.145976,74.020594
4218.234021,-592.164754,-7584.345430,-1480.411884
4218.234346,-1258.350101,-8886.707777,222.061783
4218.234670,-1924.535449,-7737.564530,740.205942
4218.234994,-1554.432478,-8580.269578,814.226536
4218.235319,814.226536,-8273.831378,0.000000
4218.235643,2220.617826,-9576.193725,-370.102971
4218.235967,2590.720797,-7277.907231,370.102971
4218.236291,3256.906145,-8427.050478,-1924.535449
4218.236616,2886.803174,-9193.145976,-222.061783
4218.236940,1776.494261,-8963.317327,-222.061783
4218.237264,-296.082377,-9039.926876,370.102971
4218.237588,-1628.453072,-8733.488677,-592.164754
4218.237913,-814.226536,-8886.707777,-740.205942
4218.238237,666.185348,-9346.365076,-666.185348
4218.238561,-814.226536,-8886.707777,-888.247130
4218.238886,0.000000,-9652.803275,0.000000
4218.239210,-1702.473667,-8120.612279,-1850.514855
4218.239534,-1036.288319,-9193.145976,-444.123565
4218.239858,-962.267725,-7967.393179,-962.267725
4218.240183,74.020594,-8427.050478,740.205942
4218.240507,962.267725,-8427.050478,-592.164754
4218.240831,2220.617826,-9269.755526,-666.185348
4218.241155,2146.597232,-9039.926876,-1332.370696
4218.241480,1110.308913,-9422.974625,0.000000
4218.241804,2072.576638,-9269.755526,-962.267725
4218.242128,888.247130,-9193.145976,222.061783
4218.242452,-444.123565,-8656.879127,-1554.432478
4218.242777,-1184.329507,-9116.536426,148.041188
4218.243101,-1184.329507,-7890.783629,-740.205942
4218.243425,592.164754,-8503.660028,0.000000
4218.243750,888.247130,-8427.050478,-592.164754
4218.244074,1184.329507,-9193.145976,-1406.391290
4218.244398,1776.494261,-8886.707777,-1184.329507
4218.244722,-296.082377,-8503.660028,-962.267725
4218.245047,444.123565,-8427.050478,-740.205942
4218.245371,-222.061783,-8273.831378,296.082377
4218.245695,0.000000,-9499.584175,-74.020594
4218.246019,740.205942,-8503.660028,296.082377
4218.246344,962.267725,-8503.660028,74.020594
4218.246668,2368.659014,-8273.831378,-222.061783
4218.246992,2220.617826,-7967.393179,-740.205942
4218.247317,3182.885551,-7584.345430,-444.123565
4218.247641,1850.514855,-8273.831378,0.000000
4218.247965,1332.370696,-8197.221829,-592.164754
4218.248289,-962.267725,-8810.098227,0.000000
4218.248614,296.082377,-7354.516781,370.102971
4218.248938,296.082377,-8733.488677,-518.144159
4218.249262,814.226536,-9499.584175,0.000000
4218.249586,814.226536,-7890.783629,-1184.329507
4218.249911,-222.061783,-9269.755526,-814.226536
4218.250235,-1110.308913,-8427.050478,-296.082377
4218.250559,-518.144159,-8580.269578,-148.041188
4218.250883,-1924.535449,-8044.002729,-518.144159
4218.251208,-1554.432478,-9422.974625,888.247130
4218.251532,-740.205942,-6281.983084,-370.102971
4218.251856,1110.308913,-8886.707777,222.061783
4218.252181,1998.556043,-7507.735880,-814.226536
4218.252505,2294.638420,-9346.365076,-222.061783
4218.252829,888.247130,-7967.393179,-592.164754
4218.253153,1258.350101,-9346.365076,222.061783
4218.253478,740.205942,-7967.393179,-296.082377
4218.253802,-2294.638420,-8963.317327,370.102971
4218.254126,-222.061783,-8963.317327,-148.041188
4218.254450,-444.123565,-9193.145976,518.144159
4218.254775,1776.494261,-8044.002729,518.144159
4218.255099,1480.411884,-7048.078582,-2960.823768
4218.255423,-444.123565,-10725.336972,444.123565
4218.255748,-1184.329507,-6818.249932,-666.185348
4218.256072,-666.185348,-9652.803275,-592.164754
4218.256396,-2220.617826,-8427.050478,-1110.308913
4218.256720,-1776.494261,-9422.974625,296.082377
4218.257045,-962.267725,-7890.783629,222.061783
4218.257369,740.205942,-8810.098227,296.082377
4218.257693,2294.638420,-8656.879127,-1480.411884
4218.258017,2368.659014,-9039.926876,296.082377
4218.258342,1998.556043,-9116.536426,-1258.350101
4218.258666,1110.308913,-9116.536426,0.000000
4218.258990,444.123565,-8580.269578,-444.123565
4218.259314,-1776.494261,-8656.879127,592.164754
4218.259639,-888.247130,-7814.174080,-592.164754
4218.259963,518.144159,-7124.688131,-370.102971
4218.260287,222.061783,-8733.488677,-962.267725
4218.260612,2146.597232,-8273.831378,-1258.350101
4218.260936,740.205942,-9269.755526,-1036.288319
4218.261260,444.123565,-9652.803275,0.000000
4218.261584,-814.226536,-8350.440928,-666.185348
4218.261909,-2146.597232,-8656.879127,-222.061783
4218.262233,1258.350101,-8427.050478,-148.041188
4218.262557,-592.164754,-7814.174080,-592.164754
4218.262881,1850.514855,-9039.926876,370.102971
4218.263206,1406.391290,-8503.660028,-1110.308913
4218.263530,1702.473667,-9116.536426,-444.123565
4218.263854,1702.473667,-8197.221829,-222.061783
4218.264179,740.205942,-7507.735880,-518.144159
4218.264503,814.226536,-8886.707777,-444.123565
4218.264827,0.000000,-8120.612279,-370.102971
4218.265151,814.226536,-8656.879127,444.123565
4218.265476,814.226536,-8273.831378,-740.205942
4218.265800,1924.535449,-9116.536426,0.000000
4218.266124,2294.638420,-8427.050478,-592.164754
4218.266448,1406.391290,-9499.584175,-666.185348
4218.266773,592.164754,-9652.803275,-1702.473667
4218.267097,-1406.391290,-7890.783629,-148.041188
4218.267421,-1924.535449,-9039.926876,-518.144159
4218.267745,-2294.638420,-8044.002729,-444.123565
4218.268070,-666.185348,-9039.926876,444.123565
4218.268394,-666.185348,-8197.221829,-148.041188
4218.268718,1184.329507,-8733.488677,74.020594
4218.269043,1776.494261,-7967.393179,-888.247130
4218.269367,2590.720797,-8963.317327,-148.041188
4218.269691,1258.350101,-8503.660028,-444.123565
4218.270015,296.082377,-8427.050478,296.082377
4218.270340,-814.226536,-8656.879127,-518.144159
4218.270664,-888.247130,-8503.660028,0.000000
4218.270988,592.164754,-9346.365076,592.164754
4218.271312,1110.308913,-7277.907231,-1184.329507
4218.271637,1480.411884,-9116.536426,-740.205942
4218.271961,1628.453072,-8656.879127,-1110.308913
4218.272285,-592.164754,-8350.440928,-962.267725
4218.272610,-1776.494261,-8427.050478,814.226536
4218.272934,-1850.514855,-7737.564530,-74.020594
4218.273258,-1702.473667,-8810.098227,-148.041188
4218.273582,666.185348,-8197.221829,74.020594
4218.273907,1406.391290,-8427.050478,0.000000
4218.274231,1850.514855,-8427.050478,-962.267725
4218.274555,1850.514855,-9193.145976,-444.123565
4218.274879,814.226536,-8503.660028,-222.061783
4218.275204,666.185348,-8656.879127,-296.082377
4218.275528,0.000000,-7967.393179,296.082377
4218.275852,-814.226536,-8886.707777,148.041188
4218.276176,296.082377,-7814.174080,222.061783
4218.276501,148.041188,-8963.317327,0.000000
4218.276825,296.082377,-8503.660028,-962.267725
4218.277149,-296.082377,-8427.050478,-444.123565
4218.277474,-222.061783,-9269.755526,-814.226536
4218.277798,-1036.288319,-8503.660028,-1110.308913
4218.278122,-370.102971,-9116.536426,0.000000
4218.278446,-370.102971,-8427.050478,-222.061783
4218.278771,-1184.329507,-8656.879127,0.000000
4218.279095,-666.185348,-8733.488677,444.123565
4218.279419,740.205942,-8273.831378,-370.102971
4218.279743,222.061783,-8963.317327,-740.205942
4218.280068,4367.215058,-9882.631924,296.082377
4218.280392,2664.741391,-7890.783629,-2368.659014
4218.280716,1110.308913,-9806.022374,1480.411884
4218.281041,1184.329507,-7431.126331,-2220.617826
4218.281365,-1258.350101,-9422.974625,1110.308913
4218.281689,-296.082377,-7584.345430,518.144159
4218.282013,962.267725,-8120.612279,-666.185348
4218.282338,2960.823768,-8580.269578,74.020594
4218.282662,2146.597232,-8503.660028,-740.205942
4218.282986,1628.453072,-8886.707777,-444.123565
4218.283310,-1258.350101,-8350.440928,-1184.329507
4218.283635,-1480.411884,-9422.974625,0.000000
4218.283959,-2220.617826,-7967.393179,-740.205942
4218.284283,-444.123565,-9039.926876,0.000000
4218.284608,518.144159,-8810.098227,222.061783
4218.284932,666.185348,-7890.783629,-222.061783
4218.285256,2072.576638,-8273.831378,-740.205942
4218.285580,888.247130,-8963.317327,-666.185348
4218.285905,1628.453072,-9499.584175,148.041188
4218.286229,666.185348,-7967.393179,-666.185348
4218.286553,0.000000,-9116.536426,-814.226536
4218.286877,-592.164754,-8656.879127,0.000000
4218.287202,-888.247130,-7431.126331,-370.102971
4218.287526,74.020594,-8580.269578,-74.020594
4218.287850,1258.350101,-7967.393179,-1110.308913
4218.288174,1850.514855,-9729.412825,0.000000
4218.288499,1110.308913,-8273.831378,-814.226536
4218.288823,-814.226536,-9652.803275,-740.205942
4218.289147,-666.185348,-8733.488677,-1036.288319
4218.289472,-1406.391290,-8273.831378,-888.247130
4218.289796,-2368.659014,-8503.660028,-592.164754
4218.290120,444.123565,-8427.050478,222.061783
4218.290444,1480.411884,-8656.879127,-296.082377
4218.290769,1998.556043,-8044.002729,-296.082377
4218.291093,2960.823768,-8273.831378,148.041188
4218.291417,2590.720797,-8350.440928,-1406.391290
4218.291741,1554.432478,-9806.022374,0.000000
4218.292066,-222.061783,-8350.440928,-592.164754
4218.292390,-296.082377,-9652.803275,0.000000
4218.292714,-888.247130,-8350.440928,-814.226536
4218.293039,592.164754,-8044.002729,0.000000
4218.293363,0.000000,-8810.098227,-592.164754
4218.293687,-444.123565,-8963.317327,-962.267725
4218.294011,-962.267725,-8963.317327,0.000000
4218.294336,-1406.391290,-7737.564530,-296.082377
4218.294660,-518.144159,-8886.707777,148.041188
4218.294984,-2220.617826,-8197.221829,-2072.576638
4218.295308,-518.144159,-8963.317327,814.226536
4218.295632,74.020594,-6818.249932,222.061783
4218.295956,2220.617826,-9039.926876,0.000000
4218.296281,1184.329507,-8656.879127,-1332.370696
4218.296605,1924.535449,-9346.365076,222.061783
4218.296929,296.082377,-8044.002729,148.041188
4218.297253,888.247130,-8963.317327,-518.144159
4218.297577,666.185348,-9269.755526,0.000000
4218.297901,-222.061783,-8120.612279,-296.082377
4218.298226,0.000000,-8120.612279,0.000000
4218.298550,0.000000,-7431.126331,-666.185348
4218.298874,1924.535449,-9193.145976,74.020594
4218.299198,1776.494261,-7737.564530,-444.123565
4218.299522,1406.391290,-9116.536426,0.000000
4218.299847,592.164754,-8350.440928,-444.123565
4218.300171,148.041188,-7967.393179,-962.267725
4218.300495,-666.185348,-9116.536426,148.041188
4218.300819,-740.205942,-7967.393179,0.000000
4218.301143,0.000000,-8427.050478,1628.453072
4218.301467,1332.370696,-8044.002729,222.061783
4218.301792,3182.885551,-9346.365076,-444.123565
4218.302116,1332.370696,-7660.954980,-1110.308913
4218.302440,1258.350101,-8427.050478,148.041188
4218.302764,1258.350101,-7967.393179,-888.247130
4218.303088,-962.267725,-8580.269578,-296.082377
4218.303412,-518.144159,-7890.783629,0.000000
4218.303737,814.226536,-8273.831378,370.102971
4218.304061,1184.329507,-8503.660028,-370.102971
4218.304385,1110.308913,-8427.050478,-888.247130
4218.304709,-740.205942,-8810.098227,-740.205942
4218.305033,1628.453072,-10035.851024,296.082377
4218.305357,-666.185348,-6818.249932,-3108.864956
4218.305682,-2590.720797,-10725.336972,592.164754
4218.306006,-888.247130,-6894.859482,-740.205942
4218.306330,-2294.638420,-8733.488677,-740.205942
4218.306654,74.020594,-9116.536426,-370.102971
4218.306978,962.267725,-8580.269578,-148.041188
4218.307303,2368.659014,-8656.879127,-1036.288319
4218.307627,1332.370696,-9116.536426,-1184.329507
4218.307951,2220.617826,-9193.145976,-148.041188
4218.308275,1332.370696,-8350.440928,-962.267725
4218.308599,666.185348,-9039.926876,-370.102971
4218.308923,0.000000,-8810.098227,-1406.391290
4218.309248,-370.102971,-8656.879127,-592.164754
4218.309572,592.164754,-8656.879127,74.020594
4218.309896,74.020594,-8886.707777,-814.226536
4218.310220,814.226536,-9269.755526,-1258.350101
4218.310544,962.267725,-9346.365076,-740.205942
4218.310868,-888.247130,-8963.317327,-1332.370696
4218.311193,0.000000,-9499.584175,-592.164754
4218.311517,-1480.411884,-8580.269578,-444.123565
4218.311841,-1628.453072,-9193.145976,-296.082377
4218.312165,-814.226536,-8197.221829,-222.061783
4218.312489,-148.041188,-8810.098227,222.061783
4218.312813,1702.473667,-8580.269578,-222.061783
4218.313138,666.185348,-7890.783629,-1258.350101
4218.313462,1998.556043,-9806.022374,0.000000
4218.313786,1110.308913,-7201.297681,-444.123565
4218.314110,-740.205942,-8886.707777,666.185348
4218.314434,-222.061783,-8120.612279,74.020594
4218.314759,-148.041188,-8350.440928,296.082377
4218.315083,148.041188,-7660.954980,296.082377
4218.315407,1702.473667,-8503.660028,148.041188
4218.315731,2664.741391,-8350.440928,0.000000
4218.316055,740.205942,-8197.221829,-1258.350101
4218.316379,0.000000,-9576.193725,0.000000
4218.316704,-1924.535449,-7124.688131,-296.082377
4218.317028,-1924.535449,-9193.145976,444.123565
4218.317352,-1998.556043,-7584.345430,-592.164754
4218.317676,-1776.494261,-8886.707777,444.123565
4218.318000,444.123565,-7277.907231,148.041188
4218.318324,2886.803174,-8810.098227,0.000000
4218.318649,3701.029710,-8350.440928,0.000000
4218.318973,2812.782580,-7737.564530,-296.082377
4218.319297,2738.761985,-7967.393179,74.020594
4218.319621,2368.659014,-8044.002729,-148.041188
4218.319945,1702.473667,-9499.584175,370.102971
4218.320269,666.185348,-8197.221829,0.000000
4218.320594,0.000000,-8273.831378,-222.061783
4218.320918,370.102971,-8656.879127,-370.102971
4218.321242,222.061783,-8120.612279,-1480.411884
4218.321566,74.020594,-9193.145976,0.000000
4218.321890,-962.267725,-8120.612279,-666.185348
4218.322215,-1998.556043,-8503.660028,222.061783
4218.322539,-2516.700203,-8273.831378,0.000000
4218.322863,-962.267725,-8963.317327,0.000000
4218.323187,148.041188,-8886.707777,-962.267725
4218.323511,1702.473667,-8580.269578,-962.267725
4218.323835,1924.535449,-8733.488677,-518.144159
4218.324160,1184.329507,-8810.098227,-1110.308913
4218.324484,814.226536,-9346.365076,-444.123565
4218.324808,1036.288319,-8733.488677,-1036.288319
4218.325132,-962.267725,-9039.926876,666.185348
4218.325456,-814.226536,-8886.707777,-296.082377
4218.325780,370.102971,-8197.221829,74.020594
4218.326105,0.000000,-8197.221829,-1036.288319
4218.326429,740.205942,-8503.660028,-370.102971
4218.326753,2516.700203,-8886.707777,-740.205942
4218.327077,666.185348,-8273.831378,-1480.411884
4218.327401,148.041188,-9806.022374,-444.123565
4218.327725,222.061783,-8044.002729,-1258.350101
4218.328050,-962.267725,-9269.755526,0.000000
4218.328374,-1258.350101,-8044.002729,-1036.288319
4218.328698,0.000000,-9499.584175,148.041188
4218.329022,0.000000,-8197.221829,-296.082377
4218.329346,1480.411884,-8427.050478,-444.123565
4218.329670,2664.741391,-8350.440928,-1332.370696
4218.329995,2368.659014,-9116.536426,0.000000
4218.330319,2590.720797,-8273.831378,-444.123565
4218.330643,0.000000,-7967.393179,0.000000
4218.330967,814.226536,-8503.660028,-370.102971
4218.331291,740.205942,-8120.612279,0.000000
4218.331616,296.082377,-8427.050478,0.000000
4218.331940,2368.659014,-9422.974625,-888.247130
4218.332264,1258.350101,-8580.269578,-962.267725
4218.332588,666.185348,-8963.317327,-888.247130
4218.332912,-1480.411884,-9039.926876,-666.185348
4218.333236,-1702.473667,-9422.974625,0.000000
4218.333561,0.000000,-8273.831378,370.102971
4218.333885,-2664.741391,-7507.735880,-148.041188
4218.334209,0.000000,-8503.660028,148.041188
4218.334533,962.267725,-7201.297681,-296.082377
4218.334857,1702.473667,-8733.488677,-592.164754
4218.335181,1480.411884,-7584.345430,0.000000
4218.335506,5699.585753,-9116.536426,962.267725
4218.335830,4293.194464,-9269.755526,-962.267725
4218.336154,-1554.432478,-6971.469032,-962.267725
4218.336478,-592.164754,-9422.974625,1998.556043
4218.336802,-222.061783,-5439.278036,-1258.350101
4218.337126,370.102971,-8963.317327,888.247130
4218.337451,2368.659014,-7048.078582,-370.102971
4218.337775,148.041188,-10418.898773,444.123565
4218.338099,-296.082377,-7890.783629,-1332.370696
4218.338423,-740.205942,-10495.508323,-370.102971
4218.338747,-962.267725,-7507.735880,-666.185348
