#time,accel_x,accel_y,accel_z
4242.085750,296.082377,-8350.440928,-296.082377
4242.086075,518.144159,-8503.660028,-222.061783
4242.086399,444.123565,-8503.660028,-592.164754
4242.086723,444.123565,-8580.269578,-222.061783
4242.087047,518.144159,-8580.269578,0.000000
4242.087372,370.102971,-8427.050478,-592.164754
4242.087696,222.061783,-8044.002729,-296.082377
4242.088020,592.164754,-8963.317327,-296.082377
4242.088345,370.102971,-8350.440928,-518.144159
4242.088669,370.102971,-8810.098227,-370.102971
4242.088993,148.041188,-8886.707777,-296.082377
4242.089317,296.082377,-8197.221829,-666.185348
4242.089642,444.123565,-8656.879127,-296.082377
4242.089966,370.102971,-8810.098227,-296.082377
4242.090290,518.144159,-8273.831378,-222.061783
4242.090614,370.102971,-8273.831378,-518.144159
4242.090939,222.061783,-8733.488677,-148.041188
4242.091263,444.123565,-8503.660028,-296.082377
4242.091587,444.123565,-8733.488677,-370.102971
4242.091912,444.123565,-8427.050478,0.000000
4242.092236,518.144159,-8580.269578,-296.082377
4242.092560,296.082377,-8733.488677,-666.185348
4242.092884,444.123565,-8427.050478,-370.102971
4242.093209,518.144159,-8656.879127,-370.102971
4242.093533,222.061783,-8733.488677,-296.082377
4242.093857,370.102971,-8656.879127,-148.041188
4242.094182,444.123565,-8427.050478,-296.082377
4242.094506,296.082377,-8350.440928,-296.082377
4242.094830,74.020594,-9422.974625,0.000000
4242.095154,444.123565,-8580.269578,-444.123565
4242.095479,444.123565,-8273.831378,-296.082377
4242.095803,370.102971,-8733.488677,-296.082377
4242.096127,592.164754,-8733.488677,-444.123565
4242.096452,444.123565,-8350.440928,-370.102971
4242.096776,370.102971,-9039.926876,-370.102971
4242.097100,296.082377,-8427.050478,-296.082377
4242.097424,296.082377,-8503.660028,-666.185348
4242.097749,592.164754,-8427.050478,-370.102971
4242.098073,370.102971,-8120.612279,-296.082377
4242.098397,296.082377,-8810.098227,-296.082377
4242.098721,518.144159,-8273.831378,-296.082377
4242.099046,370.102971,-8503.660028,0.000000
4242.099370,370.102971,-8733.488677,-370.102971
4242.099694,518.144159,-8580.269578,-370.102971
4242.100019,296.082377,-8580.269578,-296.082377
4242.100343,444.123565,-8580.269578,-666.185348
4242.100667,0.000000,-8656.879127,-222.061783
4242.100991,518.144159,-8350.440928,-666.185348
4242.101316,0.000000,-8963.317327,-370.102971
4242.101640,-814.226536,-8656.879127,-592.164754
4242.101964,-1406.391290,-8656.879127,-592.164754
4242.102289,-1924.535449,-7890.783629,-740.205942
4242.102613,-1850.514855,-8810.098227,-370.102971
4242.102937,-2294.638420,-8197.221829,-370.102971
4242.103261,-1924.535449,-8580.269578,-518.144159
4242.103586,-1332.370696,-8120.612279,-888.247130
4242.103910,-962.267725,-8656.879127,0.000000
4242.104234,-1110.308913,-8273.831378,-592.164754
4242.104559,-1406.391290,-8810.098227,-592.164754
4242.104883,-1776.494261,-8503.660028,-296.082377
4242.105207,-2294.638420,-8963.317327,-370.102971
4242.105531,-2812.782580,-8810.098227,-740.205942
4242.105856,-3478.967927,-8656.879127,-148.041188
4242.106180,-2960.823768,-9039.926876,-370.102971
4242.106504,-3404.947333,-9039.926876,-444.123565
4242.106828,-2664.741391,-8350.440928,-518.144159
4242.107153,-2368.659014,-8427.050478,0.000000
4242.107477,-1850.514855,-8503.660028,-666.185348
4242.107801,-2220.617826,-8503.660028,-592.164754
4242.108126,-1702.473667,-9039.926876,-222.061783
4242.108450,-2442.679609,-8656.879127,-444.123565
4242.108774,-3034.844362,-9346.365076,-296.082377
4242.109098,-3034.844362,-9116.536426,0.000000
4242.109423,-3330.926739,-9269.755526,0.000000
4242.109747,-3330.926739,-9039.926876,0.000000
4242.110071,-3108.864956,-8656.879127,0.000000
4242.110396,-2516.700203,-8197.221829,-148.041188
4242.110720,-2220.617826,-8503.660028,-592.164754
4242.111044,-1998.556043,-8733.488677,0.000000
4242.111368,-1850.514855,-8427.050478,-370.102971
4242.111693,-2368.659014,-8580.269578,-518.144159
4242.112017,-2294.638420,-8810.098227,-148.041188
4242.112341,-2368.659014,-8810.098227,0.000000
4242.112665,-2590.720797,-8733.488677,0.000000
4242.112990,-1850.514855,-8580.269578,0.000000
4242.113314,-2146.597232,-9039.926876,-518.144159
4242.113638,-1702.473667,-8427.050478,-518.144159
4242.113963,-2072.576638,-8656.879127,-370.102971
4242.114287,-1554.432478,-8273.831378,-592.164754
4242.114611,-1702.473667,-7967.393179,-444.123565
4242.114935,-1110.308913,-8580.269578,-518.144159
4242.115260,-1776.494261,-7890.783629,-592.164754
4242.115584,-2516.700203,-7660.954980,-592.164754
4242.115908,-2294.638420,-8427.050478,-74.020594
4242.116233,-1776.494261,-7814.174080,-296.082377
4242.116557,-1332.370696,-8503.660028,-222.061783
4242.116881,-1184.329507,-8044.002729,-444.123565
4242.117205,-518.144159,-8120.612279,-370.102971
4242.117530,0.000000,-8350.440928,-370.102971
4242.117854,370.102971,-8580.269578,-518.144159
4242.118178,296.082377,-8273.831378,-592.164754
4242.118503,-296.082377,-8810.098227,-592.164754
4242.118827,-666.185348,-9116.536426,-444.123565
4242.119151,-370.102971,-9039.926876,-370.102971
4242.119475,-296.082377,-9039.926876,-518.144159
4242.119800,-370.102971,-8273.831378,-444.123565
4242.120124,148.041188,-8733.488677,-370.102971
4242.120448,740.205942,-8733.488677,-518.144159
4242.120772,1110.308913,-8886.707777,-740.205942
4242.121097,1554.432478,-9193.145976,-740.205942
4242.121421,1110.308913,-9193.145976,-592.164754
4242.121745,518.144159,-9193.145976,-370.102971
4242.122070,-296.082377,-9422.974625,-888.247130
4242.122394,-1702.473667,-8656.879127,-222.061783
4242.122718,-2664.741391,-9193.145976,-148.041188
4242.123042,-3330.926739,-8963.317327,-518.144159
4242.123367,-3552.988522,-8886.707777,-296.082377
4242.123691,-3034.844362,-8810.098227,-592.164754
4242.124015,-2738.761985,-8120.612279,-740.205942
4242.124340,-2220.617826,-8427.050478,-740.205942
4242.124664,-1110.308913,-8273.831378,-1036.288319
4242.124988,-444.123565,-8503.660028,-962.267725
4242.125312,-1406.391290,-7967.393179,-518.144159
4242.125637,-1036.288319,-9346.365076,-518.144159
4242.125961,-2442.679609,-8886.707777,-666.185348
4242.126285,-2516.700203,-9806.022374,-222.061783
4242.126610,-2294.638420,-8810.098227,0.000000
4242.126934,-2812.782580,-9039.926876,-148.041188
4242.127258,-1998.556043,-9116.536426,-296.082377
4242.127582,-444.123565,-8580.269578,-370.102971
4242.127907,0.000000,-8580.269578,-444.123565
4242.128231,296.082377,-8503.660028,-444.123565
4242.128555,-222.061783,-8120.612279,-666.185348
4242.128879,-1110.308913,-8886.707777,0.000000
4242.129204,-2294.638420,-8120.612279,-370.102971
4242.129528,-2886.803174,-8886.707777,0.000000
4242.129852,-4441.235652,-9269.755526,222.061783
4242.130177,-5403.503377,-8733.488677,444.123565
4242.130501,-5329.482782,-8886.707777,148.041188
4242.130825,-4737.318029,-8810.098227,74.020594
4242.131149,-2960.823768,-8503.660028,370.102971
4242.131474,-1406.391290,-7967.393179,-148.041188
4242.131798,-1258.350101,-8120.612279,0.000000
4242.132122,444.123565,-8427.050478,666.185348
4242.132447,1258.350101,-8503.660028,0.000000
4242.132771,148.041188,-8503.660028,0.000000
4242.133095,-592.164754,-9116.536426,666.185348
4242.133419,-2590.720797,-9269.755526,74.020594
4242.133744,-3330.926739,-9882.631924,444.123565
4242.134068,-4515.256246,-9039.926876,0.000000
4242.134392,-4737.318029,-8963.317327,222.061783
4242.134716,-4737.318029,-6818.249932,-444.123565
4242.135041,-2590.720797,-9269.755526,-888.247130
4242.135365,-888.247130,-8044.002729,-666.185348
4242.135689,0.000000,-7737.564530,-666.185348
4242.136014,740.205942,-6588.421283,148.041188
4242.136338,1406.391290,-7354.516781,-518.144159
4242.136662,3182.885551,-7890.783629,222.061783
4242.136986,3330.926739,-7890.783629,0.000000
4242.137311,1480.411884,-8656.879127,0.000000
4242.137635,-370.102971,-9959.241474,-296.082377
4242.137959,-1628.453072,-8886.707777,-1628.453072
4242.138284,-3552.988522,-9346.365076,-1480.411884
4242.138608,-5847.626942,-9959.241474,-1258.350101
4242.138932,-7105.977043,-9116.536426,-2220.617826
4242.139256,-5699.585753,-8580.269578,-1924.535449
4242.139581,-3997.112087,-7737.564530,-1332.370696
4242.139905,-1184.329507,-7814.174080,-814.226536
4242.140229,1850.514855,-7354.516781,-592.164754
4242.140554,3923.091493,-7890.783629,0.000000
4242.140878,5995.668130,-8197.221829,0.000000
4242.141202,5921.647536,-9116.536426,-222.061783
4242.141526,3404.947333,-10035.851024,-518.144159
4242.141851,444.123565,-11108.384721,-1036.288319
4242.142175,-4219.173869,-10801.946522,-740.205942
4242.142499,-5551.544565,-10189.070123,-1036.288319
4242.142823,-7031.956449,-9959.241474,-370.102971
4242.143148,-8068.244768,-6665.030833,-1036.288319
4242.143472,-6883.915261,-8350.440928,1036.288319
4242.143796,-1184.329507,-6358.592633,-2442.679609
4242.144121,3108.864956,-7737.564530,1406.391290
4242.144445,7254.018232,-5898.935335,-1924.535449
4242.144769,7402.059420,-8963.317327,-592.164754
4242.145094,6069.688724,-7431.126331,0.000000
4242.145418,3627.009116,-10648.727422,-148.041188
4242.145742,592.164754,-11108.384721,-1036.288319
4242.146067,-6291.750507,-12180.918418,-1554.432478
4242.146391,-11843.295072,-11184.994271,-740.205942
4242.146715,-13397.727550,-9193.145976,0.000000
4242.147040,-12731.542202,-9116.536426,74.020594
4242.147364,-9474.636058,-6971.469032,-148.041188
4242.147688,-3775.050304,-6205.373534,74.020594
4242.148013,2368.659014,-5362.668486,-1406.391290
4242.148337,7402.059420,-6052.154434,148.041188
4242.148662,9844.739029,-6435.202183,-222.061783
4242.148986,8216.285956,-8733.488677,962.267725
4242.149310,3923.091493,-8197.221829,74.020594
4242.149635,-296.082377,-11031.775171,1110.308913
4242.149959,-5699.585753,-10648.727422,518.144159
4242.150283,-11103.089130,-12870.404366,888.247130
4242.150608,-11621.233289,-11184.994271,222.061783
4242.150932,-11029.068536,-9729.412825,-148.041188
4242.151256,-6217.729913,-8197.221829,-740.205942
4242.151581,-1628.453072,-6894.859482,-1998.556043
4242.151905,1776.494261,-6741.640382,-814.226536
4242.152229,4515.256246,-4903.011187,-1702.473667
4242.152554,4737.318029,-6894.859482,-666.185348
4242.152878,3108.864956,-6205.373534,-444.123565
4242.153203,-444.123565,-8733.488677,1258.350101
4242.153527,-3849.070898,-9576.193725,222.061783
4242.153851,-6661.853478,-10801.946522,370.102971
4242.154176,-6069.688724,-10572.117872,888.247130
4242.154500,-6513.812290,-10801.946522,74.020594
4242.154824,-4367.215058,-10265.679673,-1184.329507
4242.155149,-1776.494261,-8733.488677,-444.123565
4242.155473,0.000000,-7124.688131,-1332.370696
4242.155797,1628.453072,-6818.249932,-888.247130
4242.156122,2220.617826,-6435.202183,-74.020594
4242.156446,1406.391290,-6665.030833,0.000000
4242.156770,1406.391290,-7737.564530,1332.370696
4242.157095,518.144159,-7660.954980,0.000000
4242.157419,1184.329507,-10725.336972,444.123565
4242.157744,-2146.597232,-10342.289223,-1998.556043
4242.158068,-4589.276840,-12104.308868,-1406.391290
4242.158392,-6143.709319,-10648.727422,-1998.556043
4242.158717,-5181.441594,-9806.022374,-1184.329507
4242.159041,-3923.091493,-8350.440928,-2146.597232
4242.159365,-666.185348,-8503.660028,0.000000
4242.159690,592.164754,-6205.373534,-740.205942
4242.160014,1776.494261,-6818.249932,740.205942
4242.160338,3923.091493,-6435.202183,592.164754
4242.160663,4589.276840,-7048.078582,518.144159
4242.160987,2664.741391,-7201.297681,-1036.288319
4242.161311,-444.123565,-9576.193725,0.000000
4242.161636,-962.267725,-9116.536426,-2294.638420
4242.161960,-4441.235652,-11108.384721,-2146.597232
4242.162285,-4885.359217,-9422.974625,-2812.782580
4242.162609,-4589.276840,-10955.165621,-370.102971
4242.162933,-4145.153275,-9269.755526,-1628.453072
4242.163258,-3701.029710,-9729.412825,-740.205942
4242.163582,-1554.432478,-7048.078582,-518.144159
4242.163906,-962.267725,-8503.660028,-592.164754
4242.164231,444.123565,-6052.154434,222.061783
4242.164555,3552.988522,-7507.735880,1110.308913
4242.164879,4441.235652,-6665.030833,1554.432478
4242.165204,3701.029710,-7660.954980,-518.144159
4242.165528,2590.720797,-9729.412825,-592.164754
4242.165852,666.185348,-9346.365076,-962.267725
4242.166177,-666.185348,-9652.803275,-2368.659014
4242.166501,-4219.173869,-11031.775171,-518.144159
4242.166826,-3923.091493,-8810.098227,0.000000
4242.167150,-3034.844362,-10572.117872,1924.535449
4242.167474,-962.267725,-7660.954980,-444.123565
4242.167799,2442.679609,-8503.660028,592.164754
4242.168123,2590.720797,-7967.393179,-1184.329507
4242.168447,2368.659014,-8197.221829,592.164754
4242.168772,0.000000,-6818.249932,-1184.329507
4242.169096,222.061783,-7507.735880,-518.144159
4242.169420,-1702.473667,-7814.174080,-222.061783
4242.169745,-222.061783,-8733.488677,-666.185348
4242.170069,-1332.370696,-10495.508323,148.041188
4242.170393,-962.267725,-9499.584175,-296.082377
4242.170718,-814.226536,-12027.699319,296.082377
4242.171042,-148.041188,-7967.393179,-592.164754
4242.171367,0.000000,-9422.974625,2220.617826
4242.171691,1776.494261,-6741.640382,0.000000
4242.172015,2590.720797,-7890.783629,1184.329507
4242.172340,3775.050304,-5592.497135,-1036.288319
4242.172664,4293.194464,-8503.660028,296.082377
4242.172988,2368.659014,-7507.735880,-518.144159
4242.173313,1036.288319,-8503.660028,-370.102971
4242.173637,0.000000,-9039.926876,-1110.308913
4242.173961,-518.144159,-9652.803275,-148.041188
4242.174286,-2738.761985,-9499.584175,222.061783
4242.174610,-2220.617826,-9806.022374,0.000000
4242.174934,1998.556043,-9806.022374,1480.411884
4242.175259,1850.514855,-8427.050478,814.226536
4242.175583,4515.256246,-8886.707777,222.061783
4242.175908,3997.112087,-7660.954980,-1554.432478
4242.176232,4219.173869,-7967.393179,-740.205942
4242.176556,3997.112087,-6052.154434,-296.082377
4242.176881,3849.070898,-6818.249932,-1110.308913
4242.177205,4811.338623,-8810.098227,592.164754
4242.177529,962.267725,-7584.345430,296.082377
4242.177854,-814.226536,-10112.460574,0.000000
4242.178178,-3256.906145,-10189.070123,-1776.494261
4242.178502,-1628.453072,-9959.241474,-888.247130
4242.178827,-1850.514855,-9422.974625,-222.061783
4242.179151,-740.205942,-8886.707777,-296.082377
4242.179475,888.247130,-9346.365076,0.000000
4242.179800,2368.659014,-9193.145976,-296.082377
4242.180124,4367.215058,-9269.755526,-444.123565
4242.180449,3849.070898,-7814.174080,-1258.350101
4242.180773,2590.720797,-8273.831378,-1924.535449
4242.181097,1998.556043,-8886.707777,-1110.308913
4242.181422,-1628.453072,-8120.612279,-814.226536
4242.181746,-1554.432478,-8886.707777,814.226536
4242.182070,-740.205942,-7814.174080,-518.144159
4242.182395,-962.267725,-9422.974625,370.102971
4242.182719,814.226536,-8503.660028,-888.247130
4242.183043,444.123565,-9576.193725,-222.061783
4242.183368,-2072.576638,-6665.030833,-1110.308913
4242.183692,5329.482782,-9652.803275,962.267725
4242.184016,2220.617826,-6128.763984,-1480.411884
4242.184341,888.247130,-9959.241474,148.041188
4242.184665,2072.576638,-6971.469032,-1554.432478
4242.184990,-666.185348,-10342.289223,1332.370696
4242.185314,222.061783,-8810.098227,-666.185348
4242.185638,74.020594,-9806.022374,-1480.411884
4242.185963,-1702.473667,-9346.365076,1036.288319
4242.186287,-4293.194464,-6971.469032,-1776.494261
4242.186611,-2960.823768,-9806.022374,1554.432478
4242.186936,740.205942,-8197.221829,-888.247130
4242.187260,592.164754,-10035.851024,1110.308913
4242.187584,370.102971,-6205.373534,-1258.350101
4242.187909,3478.967927,-9806.022374,0.000000
4242.188233,-2590.720797,-7124.688131,-814.226536
4242.188557,2294.638420,-8886.707777,666.185348
4242.188882,-1036.288319,-7124.688131,222.061783
4242.189206,-1924.535449,-9422.974625,962.267725
4242.189531,-148.041188,-6358.592633,-592.164754
4242.189855,-1776.494261,-10112.460574,370.102971
4242.190179,518.144159,-8810.098227,296.082377
4242.190504,1184.329507,-9269.755526,-1258.350101
4242.190828,-740.205942,-8656.879127,0.000000
4242.191152,-370.102971,-7584.345430,0.000000
4242.191477,74.020594,-8044.002729,444.123565
4242.191801,0.000000,-7890.783629,-666.185348
4242.192125,3478.967927,-8350.440928,-1036.288319
4242.192450,2516.700203,-7814.174080,-592.164754
4242.192774,1998.556043,-8733.488677,-1924.535449
4242.193098,1998.556043,-8733.488677,-518.144159
4242.193423,-962.267725,-7354.516781,-814.226536
4242.193747,-740.205942,-8886.707777,370.102971
4242.194072,1554.432478,-8427.050478,-1332.370696
4242.194396,-370.102971,-8350.440928,-222.061783
4242.194720,888.247130,-8580.269578,-222.061783
4242.195045,1998.556043,-8044.002729,-666.185348
4242.195369,2664.741391,-10265.679673,0.000000
4242.195693,3701.029710,-8044.002729,-1332.370696
4242.196018,2516.700203,-8503.660028,74.020594
4242.196342,666.185348,-7124.688131,-1924.535449
4242.196666,2442.679609,-9806.022374,-518.144159
4242.196991,3701.029710,-8273.831378,-222.061783
4242.197315,518.144159,-9729.412825,-592.164754
4242.197639,-518.144159,-8503.660028,-962.267725
4242.197964,-962.267725,-9806.022374,-518.144159
4242.198288,-1554.432478,-9269.755526,-962.267725
4242.198613,-2738.761985,-9269.755526,-1036.288319
4242.198937,0.000000,-10112.460574,592.164754
4242.199261,888.247130,-8350.440928,-666.185348
4242.199586,2590.720797,-9193.145976,0.000000
4242.199910,3775.050304,-8580.269578,444.123565
4242.200234,3478.967927,-9269.755526,-592.164754
4242.200559,3182.885551,-8810.098227,-666.185348
4242.200883,1554.432478,-8503.660028,-222.061783
4242.201207,-1036.288319,-7814.174080,962.267725
4242.201532,-1628.453072,-7584.345430,-888.247130
4242.201856,-2368.659014,-9269.755526,74.020594
4242.202180,-962.267725,-8350.440928,-518.144159
4242.202505,-148.041188,-10189.070123,0.000000
4242.202829,-1554.432478,-8427.050478,-740.205942
4242.203154,0.000000,-8503.660028,-814.226536
4242.203478,-296.082377,-8656.879127,0.000000
4242.203802,-592.164754,-8273.831378,-296.082377
4242.204127,0.000000,-8350.440928,444.123565
4242.204451,1628.453072,-8580.269578,814.226536
4242.204775,1628.453072,-8503.660028,888.247130
4242.205100,1702.473667,-8580.269578,74.020594
4242.205424,-962.267725,-8886.707777,0.000000
4242.205748,-222.061783,-8044.002729,222.061783
4242.206073,-1332.370696,-7354.516781,0.000000
4242.206397,-1036.288319,-8427.050478,148.041188
4242.206721,296.082377,-6971.469032,74.020594
4242.207046,-222.061783,-8503.660028,740.205942
4242.207370,888.247130,-8503.660028,-1110.308913
4242.207694,0.000000,-8810.098227,0.000000
4242.208019,222.061783,-8044.002729,-1184.329507
4242.208343,-666.185348,-8656.879127,-444.123565
4242.208668,-1332.370696,-8197.221829,296.082377
4242.208992,-592.164754,-7814.174080,740.205942
4242.209316,370.102971,-8350.440928,444.123565
4242.209641,1776.494261,-8273.831378,0.000000
4242.209965,962.267725,-8656.879127,-370.102971
4242.210289,370.102971,-8044.002729,-1110.308913
4242.210614,1554.432478,-9116.536426,0.000000
4242.210938,-1110.308913,-8120.612279,-222.061783
4242.211262,1110.308913,-7660.954980,-592.164754
4242.211587,2368.659014,-8810.098227,0.000000
4242.211911,1480.411884,-7277.907231,-370.102971
4242.212235,962.267725,-9193.145976,-222.061783
4242.212560,1258.350101,-8656.879127,-1184.329507
4242.212884,296.082377,-9116.536426,-666.185348
4242.213209,-1998.556043,-7660.954980,-1998.556043
4242.213533,-1628.453072,-10342.289223,-814.226536
4242.213857,296.082377,-9652.803275,-1036.288319
4242.214182,1924.535449,-10035.851024,148.041188
4242.214506,2368.659014,-8273.831378,-1332.370696
4242.214830,962.267725,-8503.660028,-592.164754
4242.215155,4145.153275,-10035.851024,-2442.679609
4242.215479,518.144159,-9039.926876,-666.185348
4242.215803,592.164754,-8427.050478,-814.226536
4242.216128,-296.082377,-8886.707777,-370.102971
4242.216452,1110.308913,-8044.002729,-1554.432478
4242.216776,1998.556043,-8963.317327,-1110.308913
4242.217101,814.226536,-9422.974625,-370.102971
4242.217425,-370.102971,-8886.707777,-3034.844362
4242.217750,-2146.597232,-9806.022374,-1036.288319
4242.218074,-2072.576638,-8580.269578,-2368.659014
4242.218398,-1776.494261,-9116.536426,814.226536
4242.218723,-296.082377,-7354.516781,-1480.411884
4242.219047,1332.370696,-9729.412825,0.000000
4242.219371,2812.782580,-8197.221829,296.082377
4242.219696,3478.967927,-9422.974625,-592.164754
4242.220020,2294.638420,-9576.193725,-1702.473667
4242.220344,1258.350101,-8656.879127,-740.205942
4242.220669,-370.102971,-8503.660028,1184.329507
4242.220993,-222.061783,-7660.954980,-518.144159
4242.221317,-666.185348,-8120.612279,148.041188
4242.221642,0.000000,-7431.126331,0.000000
4242.221966,148.041188,-8886.707777,-740.205942
4242.222291,-222.061783,-9422.974625,-1184.329507
4242.222615,74.020594,-8273.831378,222.061783
4242.222939,-1406.391290,-8350.440928,518.144159
4242.223264,-222.061783,-7737.564530,-296.082377
4242.223588,1702.473667,-8886.707777,2072.576638
4242.223912,1184.329507,-7814.174080,444.123565
4242.224237,3108.864956,-9422.974625,148.041188
4242.224561,1628.453072,-8427.050478,296.082377
4242.224885,1332.370696,-9422.974625,0.000000
4242.225210,888.247130,-8656.879127,296.082377
4242.225534,-1850.514855,-8273.831378,148.041188
4242.225858,-1850.514855,-8503.660028,592.164754
4242.226183,-1110.308913,-6818.249932,-370.102971
4242.226507,-296.082377,-9269.755526,592.164754
4242.226832,1258.350101,-7660.954980,-888.247130
4242.227156,1480.411884,-8580.269578,814.226536
4242.227480,1480.411884,-8656.879127,-370.102971
4242.227805,-3404.947333,-8197.221829,-518.144159
4242.228129,1332.370696,-8503.660028,1258.350101
4242.228453,-370.102971,-7354.516781,-1036.288319
4242.228778,814.226536,-9346.365076,666.185348
4242.229102,1776.494261,-8273.831378,-592.164754
4242.229426,666.185348,-11338.213370,814.226536
4242.229751,296.082377,-8886.707777,-518.144159
4242.230075,1332.370696,-7967.393179,-2516.700203
4242.230399,-592.164754,-10035.851024,1628.453072
4242.230724,-518.144159,-6588.421283,-962.267725
4242.231048,814.226536,-8273.831378,222.061783
4242.231373,2146.597232,-7967.393179,-1036.288319
4242.231697,1332.370696,-8273.831378,74.020594
4242.232021,1998.556043,-9806.022374,-1258.350101
4242.232346,444.123565,-9806.022374,-1924.535449
4242.232670,-296.082377,-8580.269578,-1332.370696
4242.232994,-1036.288319,-9039.926876,-222.061783
4242.233319,-1110.308913,-8503.660028,-296.082377
4242.233643,1110.308913,-8427.050478,-592.164754
4242.233967,2294.638420,-8580.269578,-592.164754
4242.234292,2516.700203,-9806.022374,-1184.329507
4242.234616,1850.514855,-10035.851024,-962.267725
4242.234940,1480.411884,-9116.536426,-740.205942
4242.235265,814.226536,-9193.145976,814.226536
4242.235589,222.061783,-7967.393179,-1554.432478
4242.235914,370.102971,-9422.974625,-962.267725
4242.236238,666.185348,-8886.707777,-1554.432478
4242.236562,814.226536,-9269.755526,0.000000
4242.236887,-1184.329507,-8810.098227,-2294.638420
4242.237211,148.041188,-9499.584175,-962.267725
4242.237535,-888.247130,-8810.098227,222.061783
4242.237860,-814.226536,-9193.145976,-1258.350101
4242.238184,-1406.391290,-8273.831378,-814.226536
4242.238508,148.041188,-7890.783629,-814.226536
4242.238833,2442.679609,-8810.098227,814.226536
4242.239157,3182.885551,-8580.269578,-518.144159
4242.239481,3404.947333,-9193.145976,296.082377
4242.239806,2664.741391,-7584.345430,-370.102971
4242.240130,222.061783,-8810.098227,-1628.453072
4242.240455,-740.205942,-7967.393179,222.061783
4242.240779,444.123565,-8733.488677,370.102971
4242.241103,-740.205942,-7431.126331,-148.041188
4242.241428,222.061783,-7737.564530,0.000000
4242.241752,-814.226536,-9193.145976,-962.267725
4242.242076,-592.164754,-9193.145976,-444.123565
4242.242401,0.000000,-8350.440928,74.020594
4242.242725,-1702.473667,-8656.879127,-740.205942
4242.243049,-666.185348,-7584.345430,814.226536
4242.243374,-148.041188,-7967.393179,148.041188
4242.243698,1628.453072,-9652.803275,148.041188
4242.244022,1850.514855,-7814.174080,518.144159
4242.244347,592.164754,-9806.022374,518.144159
4242.244671,296.082377,-8886.707777,0.000000
4242.244996,-296.082377,-8503.660028,-148.041188
4242.245320,-370.102971,-9116.536426,592.164754
4242.245644,-1480.411884,-6971.469032,518.144159
4242.245968,814.226536,-8427.050478,1184.329507
4242.246292,666.185348,-7201.297681,-666.185348
4242.246617,296.082377,-9116.536426,222.061783
4242.246941,888.247130,-8427.050478,-2072.576638
4242.247265,-1258.350101,-9346.365076,148.041188
4242.247589,-2368.659014,-8197.221829,-1554.432478
4242.247913,-2146.597232,-9039.926876,814.226536
4242.248238,-1850.514855,-8580.269578,0.000000
4242.248562,-296.082377,-9346.365076,-1332.370696
4242.248886,1480.411884,-9422.974625,0.000000
4242.249210,666.185348,-8810.098227,-370.102971
4242.249534,1702.473667,-9729.412825,0.000000
4242.249858,2368.659014,-8503.660028,-1258.350101
4242.250183,1184.329507,-9116.536426,0.000000
4242.250507,222.061783,-7737.564530,-1406.391290
4242.250831,814.226536,-8044.002729,222.061783
4242.251155,222.061783,-7814.174080,-814.226536
4242.251479,1480.411884,-9499.584175,-888.247130
4242.251804,-2146.597232,-9346.365076,-1480.411884
4242.252128,-740.205942,-10035.851024,666.185348
4242.252452,-1258.350101,-7890.783629,-1036.288319
4242.252776,-296.082377,-10035.851024,-1480.411884
4242.253100,1776.494261,-9806.022374,0.000000
4242.253425,888.247130,-8120.612279,-814.226536
4242.253749,4293.194464,-8810.098227,-962.267725
4242.254073,4145.153275,-8273.831378,148.041188
4242.254397,2812.782580,-9039.926876,-888.247130
4242.254721,2294.638420,-9039.926876,-740.205942
4242.255046,814.226536,-8197.221829,-740.205942
4242.255370,-666.185348,-9039.926876,222.061783
4242.255694,-1036.288319,-7660.954980,-1628.453072
4242.256018,1110.308913,-9806.022374,-222.061783
4242.256342,-296.082377,-8503.660028,-592.164754
4242.256667,-1036.288319,-9959.241474,-962.267725
4242.256991,-1332.370696,-9346.365076,-1184.329507
4242.257315,-2664.741391,-8427.050478,-1332.370696
4242.257639,-1554.432478,-8580.269578,148.041188
4242.257963,1184.329507,-8044.002729,-370.102971
4242.258288,1480.411884,-8044.002729,-370.102971
4242.258612,2072.576638,-8350.440928,592.164754
4242.258936,3478.967927,-9193.145976,296.082377
4242.259260,3256.906145,-8733.488677,296.082377
4242.259584,1406.391290,-7814.174080,-222.061783
4242.259909,1258.350101,-8733.488677,1110.308913
4242.260233,814.226536,-7890.783629,148.041188
4242.260557,-1702.473667,-9422.974625,0.000000
4242.260881,0.000000,-7660.954980,-740.205942
4242.261205,-814.226536,-8427.050478,1110.308913
4242.261530,888.247130,-8963.317327,-1036.288319
4242.261854,518.144159,-8350.440928,0.000000
4242.262178,-666.185348,-8197.221829,-666.185348
4242.262502,-962.267725,-9346.365076,-370.102971
4242.262826,-1924.535449,-7354.516781,-74.020594
4242.263150,1628.453072,-8273.831378,1332.370696
4242.263475,2072.576638,-7354.516781,0.000000
4242.263799,3701.029710,-9499.584175,1184.329507
4242.264123,1480.411884,-8886.707777,-740.205942
4242.264447,296.082377,-9193.145976,-518.144159
4242.264771,-2220.617826,-7890.783629,-370.102971
4242.265096,-1850.514855,-8733.488677,592.164754
4242.265420,-518.144159,-7431.126331,0.000000
4242.265744,-1036.288319,-7814.174080,370.102971
4242.266068,666.185348,-7967.393179,-740.205942
4242.266392,74.020594,-8886.707777,-666.185348
4242.266717,-148.041188,-8427.050478,-962.267725
4242.267041,666.185348,-9806.022374,0.000000
4242.267365,0.000000,-7967.393179,666.185348
4242.267689,-518.144159,-7660.954980,1036.288319
4242.268013,0.000000,-6588.421283,666.185348
4242.268338,740.205942,-9882.631924,740.205942
4242.268662,3108.864956,-9499.584175,-1554.432478
4242.268986,1406.391290,-9652.803275,1406.391290
4242.269310,1110.308913,-6588.421283,-1924.535449
4242.269634,-592.164754,-9576.193725,-444.123565
4242.269959,-740.205942,-8503.660028,-370.102971
4242.270283,1628.453072,-8503.660028,-592.164754
4242.270607,888.247130,-8197.221829,-814.226536
4242.270931,-222.061783,-9729.412825,-370.102971
4242.271255,2368.659014,-8886.707777,-1480.411884
4242.271580,0.000000,-9116.536426,0.000000
4242.271904,148.041188,-6894.859482,-740.205942
4242.272228,0.000000,-10035.851024,-592.164754
4242.272552,-592.164754,-8656.879127,-444.123565
4242.272876,0.000000,-8810.098227,-222.061783
4242.273201,2368.659014,-8656.879127,-740.205942
4242.273525,814.226536,-8580.269578,-1924.535449
4242.273849,4515.256246,-10035.851024,666.185348
4242.274173,3997.112087,-8120.612279,-1998.556043
4242.274497,1924.535449,-10265.679673,0.000000
4242.274821,222.061783,-8044.002729,0.000000
4242.275146,-1480.411884,-9116.536426,-1184.329507
4242.275470,-1480.411884,-8427.050478,-1036.288319
4242.275794,-814.226536,-8503.660028,518.144159
4242.276118,0.000000,-9806.022374,-1258.350101
4242.276442,74.020594,-8810.098227,-1702.473667
4242.276767,222.061783,-8120.612279,-296.082377
4242.277091,-666.185348,-8656.879127,-814.226536
4242.277415,962.267725,-8197.221829,518.144159
4242.277739,1110.308913,-8886.707777,-740.205942
4242.278063,2886.803174,-9576.193725,296.082377
4242.278388,2368.659014,-7967.393179,-296.082377
4242.278712,2442.679609,-8886.707777,444.123565
4242.279036,1924.535449,-8886.707777,-1628.453072
4242.279360,1406.391290,-9116.536426,222.061783
4242.279684,-1184.329507,-8197.221829,-296.082377
4242.280009,-3256.906145,-8350.440928,814.226536
4242.280333,-1110.308913,-8350.440928,-962.267725
4242.280657,-1036.288319,-8044.002729,0.000000
4242.280981,1850.514855,-8044.002729,444.123565
4242.281305,814.226536,-7814.174080,-1184.329507
4242.281630,0.000000,-9576.193725,222.061783
4242.281954,666.185348,-6971.469032,518.144159
4242.282278,-666.185348,-8197.221829,740.205942
4242.282602,-592.164754,-8427.050478,296.082377
4242.282926,592.164754,-8350.440928,962.267725
4242.283251,592.164754,-9499.584175,1184.329507
4242.283575,1480.411884,-9576.193725,-296.082377
4242.283899,370.102971,-9576.193725,-592.164754
4242.284223,-370.102971,-8656.879127,-370.102971
4242.284547,-1110.308913,-8273.831378,0.000000
4242.284872,-2072.576638,-8503.660028,888.247130
4242.285196,-592.164754,-7354.516781,0.000000
4242.285520,2072.576638,-7660.954980,444.123565
4242.285844,1554.432478,-7354.516781,-1332.370696
4242.286168,2812.782580,-10418.898773,74.020594
4242.286493,1406.391290,-8503.660028,-1628.453072
4242.286817,-370.102971,-9729.412825,-444.123565
4242.287141,-1332.370696,-7967.393179,444.123565
4242.287465,-2220.617826,-8503.660028,518.144159
4242.287789,-1184.329507,-9499.584175,-370.102971
4242.288113,-888.247130,-8427.050478,-370.102971
4242.288438,1406.391290,-9269.755526,0.000000
4242.288762,814.226536,-8197.221829,-814.226536
4242.289086,1406.391290,-9193.145976,-518.144159
4242.289410,2294.638420,-8350.440928,0.000000
4242.289734,1184.329507,-7431.126331,666.185348
4242.290059,888.247130,-7584.345430,-222.061783
4242.290383,666.185348,-7737.564530,-1110.308913
4242.290707,-1258.350101,-9116.536426,-962.267725
4242.291031,592.164754,-9576.193725,-222.061783
4242.291355,0.000000,-9806.022374,-444.123565
4242.291680,-2146.597232,-8963.317327,-1036.288319
4242.292004,-1110.308913,-9422.974625,-666.185348
4242.292328,-2368.659014,-7890.783629,-1332.370696
4242.292652,-296.082377,-10572.117872,-296.082377
4242.292976,2368.659014,-7967.393179,-296.082377
4242.293301,1850.514855,-9806.022374,-444.123565
4242.293625,1480.411884,-8733.488677,-1480.411884
4242.293949,2220.617826,-8273.831378,-888.247130
4242.294273,0.000000,-9039.926876,0.000000
4242.294597,888.247130,-8656.879127,-1184.329507
4242.294922,1480.411884,-9806.022374,-222.061783
4242.295246,-1776.494261,-7354.516781,-1924.535449
4242.295570,-74.020594,-9576.193725,-370.102971
4242.295894,-1258.350101,-8733.488677,-1480.411884
4242.296218,-444.123565,-9882.631924,-740.205942
4242.296543,444.123565,-8350.440928,0.000000
4242.296867,-814.226536,-8120.612279,0.000000
4242.297191,74.020594,-7584.345430,1258.350101
4242.297515,1406.391290,-7660.954980,-370.102971
4242.297839,1850.514855,-8886.707777,-814.226536
4242.298164,2220.617826,-8656.879127,-888.247130
4242.298488,2516.700203,-9422.974625,222.061783
4242.298812,1110.308913,-9116.536426,-1258.350101
4242.299136,0.000000,-8580.269578,888.247130
4242.299460,-1036.288319,-7967.393179,-370.102971
4242.299785,-2516.700203,-9422.974625,-296.082377
4242.300109,-962.267725,-7584.345430,0.000000
4242.300433,222.061783,-8503.660028,0.000000
4242.300757,740.205942,-8656.879127,-444.123565
4242.301081,148.041188,-8197.221829,-888.247130
4242.301405,1036.288319,-9116.536426,0.000000
4242.301730,1554.432478,-7354.516781,-518.144159
4242.302054,814.226536,-7584.345430,370.102971
4242.302378,3034.844362,-8120.612279,592.164754
4242.302702,1258.350101,-8886.707777,518.144159
4242.303026,1480.411884,-8810.098227,-962.267725
4242.303351,2590.720797,-9269.755526,370.102971
4242.303675,0.000000,-8656.879127,-740.205942
4242.303999,-1110.308913,-8503.660028,-222.061783
4242.304323,-1702.473667,-9116.536426,444.123565
4242.304647,-3182.885551,-8273.831378,1036.288319
4242.304972,-296.082377,-7660.954980,-444.123565
4242.305296,740.205942,-8963.317327,-740.205942
4242.305620,296.082377,-7354.516781,-296.082377
4242.305944,740.205942,-9193.145976,-1332.370696
4242.306268,-814.226536,-8656.879127,-1184.329507
4242.306593,-740.205942,-8733.488677,-740.205942
4242.306917,-1184.329507,-8886.707777,0.000000
4242.307241,-148.041188,-8427.050478,222.061783
4242.307565,1702.473667,-7584.345430,0.000000
4242.307889,666.185348,-9652.803275,0.000000
4242.308214,2072.576638,-8350.440928,74.020594
4242.308538,3404.947333,-8886.707777,-518.144159
4242.308862,1332.370696,-9039.926876,-1332.370696
4242.309186,-444.123565,-7507.735880,-518.144159
4242.309510,-148.041188,-7814.174080,370.102971
4242.309835,222.061783,-8580.269578,-148.041188
4242.310159,814.226536,-8427.050478,-888.247130
4242.310483,518.144159,-9039.926876,-518.144159
4242.310807,0.000000,-8886.707777,-1554.432478
4242.311131,-2146.597232,-9576.193725,-1332.370696
4242.311456,-1702.473667,-9422.974625,-1184.329507
4242.311780,-2146.597232,-9116.536426,-740.205942
4242.312104,-1702.473667,-10112.460574,296.082377
4242.312428,74.020594,-9039.926876,-1332.370696
4242.312752,1036.288319,-8733.488677,-296.082377
4242.313077,2368.659014,-9806.022374,-222.061783
4242.313401,2590.720797,-8350.440928,-1406.391290
4242.313725,2368.659014,-8656.879127,-592.164754
4242.314049,814.226536,-8120.612279,888.247130
4242.314373,-148.041188,-8503.660028,-518.144159
4242.314697,-296.082377,-7814.174080,-666.185348
4242.315022,666.185348,-8810.098227,0.000000
4242.315346,-1628.453072,-8120.612279,-888.247130
4242.315670,1998.556043,-10801.946522,-222.061783
4242.315994,888.247130,-8656.879127,-666.185348
4242.316318,0.000000,-7048.078582,222.061783
4242.316643,-1258.350101,-8273.831378,-592.164754
4242.316967,-592.164754,-9959.241474,-1258.350101
4242.317291,1924.535449,-8120.612279,518.144159
4242.317615,2812.782580,-7890.783629,-518.144159
4242.317939,1480.411884,-7277.907231,-666.185348
4242.318264,888.247130,-9806.022374,0.000000
4242.318588,1480.411884,-8580.269578,-1554.432478
4242.318912,1850.514855,-8503.660028,444.123565
4242.319236,0.000000,-7584.345430,962.267725
4242.319560,74.020594,-7507.735880,222.061783
4242.319885,370.102971,-7507.735880,0.000000
4242.320209,-370.102971,-8197.221829,0.000000
4242.320533,962.267725,-8350.440928,-1480.411884
4242.320857,740.205942,-9806.022374,-296.082377
4242.321181,2294.638420,-8044.002729,0.000000
4242.321506,370.102971,-7890.783629,666.185348
4242.321830,-666.185348,-7277.907231,74.020594
4242.322154,-518.144159,-8503.660028,-296.082377
4242.322478,1480.411884,-8427.050478,-1184.329507
4242.322802,1480.411884,-8963.317327,1184.329507
4242.323127,1702.473667,-7890.783629,-370.102971
4242.323451,222.061783,-9269.755526,-518.144159
4242.323775,-592.164754,-7814.174080,-296.082377
4242.324099,-962.267725,-8656.879127,-148.041188
4242.324423,0.000000,-9039.926876,-592.164754
4242.324748,-1258.350101,-7967.393179,0.000000
4242.325072,592.164754,-8580.269578,-74.020594
4242.325396,740.205942,-8503.660028,-1036.288319
4242.325720,740.205942,-8044.002729,-370.102971
4242.326044,444.123565,-8656.879127,-444.123565
4242.326369,0.000000,-8044.002729,0.000000
4242.326693,-370.102971,-8273.831378,-666.185348
4242.327017,1850.514855,-9806.022374,-222.061783
4242.327341,814.226536,-8733.488677,-148.041188
4242.327665,888.247130,-9806.022374,-1628.453072
4242.327989,1332.370696,-9499.584175,296.082377
4242.328314,518.144159,-8273.831378,-1628.453072
4242.328638,962.267725,-10265.679673,-370.102971
4242.328962,0.000000,-8656.879127,-370.102971
4242.329286,-962.267725,-8044.002729,-444.123565
4242.329610,-1850.514855,-7814.174080,0.000000
4242.329935,814.226536,-7354.516781,-148.041188
4242.330259,74.020594,-9652.803275,-1110.308913
4242.330583,1406.391290,-8656.879127,-962.267725
4242.330907,962.267725,-9652.803275,-814.226536
4242.331231,-888.247130,-9116.536426,-1554.432478
4242.331556,-518.144159,-8886.707777,222.061783
4242.331880,-296.082377,-8197.221829,-148.041188
4242.332204,1332.370696,-9652.803275,0.000000
4242.332528,2368.659014,-8273.831378,-740.205942
4242.332852,2368.659014,-9576.193725,74.020594
4242.333177,888.247130,-8120.612279,-2368.659014
4242.333501,1480.411884,-9269.755526,0.000000
4242.333825,-222.061783,-8197.221829,0.000000
4242.334149,-1110.308913,-8503.660028,592.164754
4242.334473,-444.123565,-7967.393179,-1036.288319
4242.334798,296.082377,-8733.488677,0.000000
4242.335122,2146.597232,-8810.098227,0.000000
4242.335446,518.144159,-9346.365076,-1924.535449
4242.335770,-444.123565,-10648.727422,-222.061783
4242.336094,-1924.535449,-7354.516781,0.000000
4242.336419,-814.226536,-9269.755526,370.102971
4242.336743,-740.205942,-8120.612279,1776.494261
4242.337067,1184.329507,-8656.879127,148.041188
4242.337391,2146.597232,-8656.879127,-296.082377
4242.337715,2590.720797,-9652.803275,-296.082377
4242.338040,1480.411884,-8197.221829,0.000000
4242.338364,0.000000,-7660.954980,-296.082377
4242.338688,-222.061783,-8197.221829,814.226536
4242.339012,148.041188,-8120.612279,370.102971
4242.339336,370.102971,-8044.002729,0.000000
4242.339660,814.226536,-8120.612279,370.102971
4242.339985,518.144159,-7660.954980,-592.164754
4242.340309,1036.288319,-9499.584175,0.000000
4242.340633,1332.370696,-8656.879127,-1258.350101
4242.340957,444.123565,-8427.050478,0.000000
4242.341281,-1184.329507,-7967.393179,-592.164754
4242.341606,148.041188,-9422.974625,814.226536
4242.341930,-962.267725,-7967.393179,0.000000
4242.342254,814.226536,-9652.803275,-296.082377
4242.342578,148.041188,-9422.974625,-740.205942
4242.342902,-296.082377,-8273.831378,0.000000
4242.343227,1332.370696,-9269.755526,-740.205942
4242.343551,-296.082377,-8120.612279,-814.226536
4242.343875,-148.041188,-8810.098227,148.041188
4242.344199,740.205942,-8273.831378,-962.267725
4242.344523,0.000000,-8503.660028,0.000000
4242.344848,888.247130,-8580.269578,-962.267725
4242.345172,888.247130,-8810.098227,-148.041188
4242.345496,1110.308913,-8886.707777,-1924.535449
4242.345820,222.061783,-9499.584175,-444.123565
4242.346144,-1110.308913,-7660.954980,-666.185348
4242.346468,-2516.700203,-8963.317327,666.185348
4242.346792,592.164754,-8503.660028,148.041188
4242.347116,1850.514855,-9269.755526,-1184.329507
4242.347440,2664.741391,-8810.098227,-1554.432478
4242.347765,1776.494261,-8886.707777,-888.247130
4242.348089,1258.350101,-8963.317327,-1110.308913
4242.348413,222.061783,-8656.879127,-1036.288319
4242.348737,222.061783,-9269.755526,-148.041188
4242.349061,-518.144159,-9039.926876,74.020594
4242.349385,-2738.761985,-7277.907231,-888.247130
4242.349709,-1258.350101,-9652.803275,-592.164754
4242.350033,-222.061783,-8656.879127,-1702.473667
4242.350357,-888.247130,-10035.851024,-1332.370696
4242.350681,-1480.411884,-8810.098227,-2146.597232
4242.351005,-1184.329507,-8503.660028,-148.041188
4242.351329,0.000000,-8120.612279,592.164754
4242.351653,1554.432478,-8044.002729,-1110.308913
4242.351978,2738.761985,-9882.631924,962.267725
4242.352302,3256.906145,-7584.345430,-888.247130
4242.352626,1406.391290,-9806.022374,148.041188
4242.352950,2442.679609,-7890.783629,-1554.432478
4242.353274,0.000000,-9422.974625,1036.288319
4242.353598,-666.185348,-7737.564530,-296.082377
4242.353922,222.061783,-9193.145976,370.102971
4242.354246,-2738.761985,-8120.612279,-592.164754
4242.354570,518.144159,-7890.783629,74.020594
4242.354894,0.000000,-7660.954980,-740.205942
4242.355218,740.205942,-9652.803275,-1110.308913
4242.355542,740.205942,-7814.174080,-1184.329507
4242.355866,370.102971,-9116.536426,-370.102971
4242.356190,-1110.308913,-8886.707777,1258.350101
4242.356515,444.123565,-8120.612279,0.000000
4242.356839,518.144159,-8810.098227,74.020594
4242.357163,1850.514855,-8197.221829,222.061783
4242.357487,1332.370696,-9116.536426,-1184.329507
4242.357811,1480.411884,-9269.755526,518.144159
4242.358135,666.185348,-7124.688131,-222.061783
4242.358459,-148.041188,-8886.707777,740.205942
4242.358783,-666.185348,-7890.783629,296.082377
4242.359107,740.205942,-8733.488677,222.061783
4242.359431,1924.535449,-8044.002729,-296.082377
4242.359755,1628.453072,-8197.221829,222.061783
4242.360079,1036.288319,-9959.241474,-666.185348
4242.360403,296.082377,-8197.221829,-518.144159
4242.360728,-592.164754,-8810.098227,0.000000
4242.361052,-1258.350101,-8810.098227,-740.205942
4242.361376,-888.247130,-8273.831378,1110.308913
4242.361700,0.000000,-8427.050478,-148.041188
4242.362024,1554.432478,-8656.879127,-592.164754
4242.362348,1702.473667,-8427.050478,148.041188
4242.362672,3034.844362,-8273.831378,-888.247130
4242.362996,2146.597232,-8503.660028,-1036.288319
4242.363320,1776.494261,-8886.707777,296.082377
4242.363644,740.205942,-8886.707777,444.123565
4242.363968,-1332.370696,-7967.393179,-148.041188
4242.364292,0.000000,-8656.879127,592.164754
4242.364616,0.000000,-8044.002729,-1258.350101
4242.364941,74.020594,-10189.070123,-740.205942
4242.365265,148.041188,-8580.269578,-2220.617826
4242.365589,-1776.494261,-9652.803275,-1184.329507
4242.365913,-1110.308913,-9269.755526,0.000000
4242.366237,-1258.350101,-7584.345430,-1184.329507
4242.366561,370.102971,-10112.460574,1406.391290
4242.366885,1480.411884,-8044.002729,-1554.432478
4242.367209,2738.761985,-9806.022374,-666.185348
4242.367533,3034.844362,-8886.707777,-888.247130
4242.367857,2664.741391,-8963.317327,-1036.288319
4242.368181,740.205942,-8427.050478,148.041188
4242.368505,-666.185348,-8120.612279,370.102971
4242.368829,-666.185348,-8580.269578,0.000000
4242.369153,-222.061783,-8580.269578,-1628.453072
4242.369478,-666.185348,-8963.317327,518.144159
4242.369802,-296.082377,-7890.783629,-1850.514855
4242.370126,-370.102971,-9576.193725,-74.020594
4242.370450,0.000000,-8427.050478,-1628.453072
4242.370774,962.267725,-9269.755526,-222.061783
4242.371098,-592.164754,-8197.221829,0.000000
4242.371422,148.041188,-8350.440928,296.082377
4242.371746,1554.432478,-8427.050478,-370.102971
4242.372070,1628.453072,-9652.803275,0.000000
4242.372394,2294.638420,-8886.707777,-1332.370696
4242.372718,1184.329507,-8350.440928,-1036.288319
4242.373042,-1332.370696,-8963.317327,-888.247130
4242.373366,-1998.556043,-8350.440928,0.000000
4242.373691,-1184.329507,-8350.440928,370.102971
4242.374015,0.000000,-8580.269578,370.102971
4242.374339,740.205942,-7507.735880,-592.164754
4242.374663,1776.494261,-8503.660028,-1036.288319
4242.374987,1554.432478,-9116.536426,-444.123565
4242.375311,666.185348,-8886.707777,-518.144159
4242.375635,222.061783,-8656.879127,-296.082377
4242.375959,-2368.659014,-8197.221829,74.020594
4242.376283,-962.267725,-9346.365076,518.144159
4242.376607,-888.247130,-9193.145976,-148.041188
4242.376931,1110.308913,-7737.564530,370.102971
4242.377255,2368.659014,-8503.660028,74.020594
4242.377579,1036.288319,-8197.221829,-1554.432478
4242.377904,1702.473667,-7890.783629,148.041188
4242.378228,1924.535449,-8044.002729,74.020594
4242.378552,1850.514855,-8273.831378,370.102971
4242.378876,148.041188,-7584.345430,222.061783
4242.379200,592.164754,-8197.221829,-296.082377
4242.379524,1258.350101,-9116.536426,-296.082377
4242.379848,740.205942,-8273.831378,-1036.288319
4242.380172,444.123565,-9193.145976,-222.061783
4242.380496,-1036.288319,-7737.564530,-1332.370696
4242.380820,-740.205942,-9346.365076,222.061783
4242.381144,592.164754,-8350.440928,814.226536
4242.381468,518.144159,-8656.879127,-814.226536
4242.381792,2146.597232,-8963.317327,0.000000
4242.382116,2072.576638,-8197.221829,-666.185348
4242.382441,2294.638420,-8656.879127,-1554.432478
4242.382765,2072.576638,-8886.707777,-1332.370696
4242.383089,-148.041188,-8580.269578,222.061783
4242.383413,592.164754,-8273.831378,1184.329507
4242.383737,-888.247130,-7890.783629,-444.123565
4242.384061,222.061783,-9576.193725,-370.102971
4242.384385,740.205942,-8427.050478,-814.226536
4242.384709,1480.411884,-8810.098227,-962.267725
4242.385033,0.000000,-9116.536426,-1480.411884
4242.385357,-444.123565,-8427.050478,-370.102971
4242.385681,148.041188,-8733.488677,666.185348
4242.386005,1036.288319,-7584.345430,-370.102971
4242.386329,1110.308913,-9116.536426,592.164754
4242.386654,1406.391290,-8810.098227,-740.205942
4242.386978,74.020594,-8427.050478,-296.082377
4242.387302,74.020594,-8810.098227,-888.247130
4242.387626,1332.370696,-8580.269578,-740.205942
4242.387950,-222.061783,-8503.660028,-518.144159
4242.388274,-1036.288319,-9193.145976,-370.102971
4242.388598,-666.185348,-8350.440928,0.000000
4242.388922,-296.082377,-7737.564530,-444.123565
4242.389246,592.164754,-8580.269578,-148.041188
4242.389570,666.185348,-8656.879127,-1554.432478
4242.389894,296.082377,-9039.926876,-444.123565
4242.390218,222.061783,-7814.174080,0.000000
4242.390542,-666.185348,-8427.050478,-740.205942
4242.390867,1184.329507,-9346.365076,962.267725
4242.391191,-296.082377,-8044.002729,-148.041188
4242.391515,1184.329507,-8963.317327,-444.123565
4242.391839,888.247130,-8886.707777,518.144159
4242.392163,740.205942,-8580.269578,-296.082377
4242.392487,1406.391290,-8350.440928,-592.164754
4242.392811,666.185348,-8120.612279,814.226536
4242.393135,74.020594,-8273.831378,222.061783
4242.393459,814.226536,-7890.783629,74.020594
4242.393783,962.267725,-7967.393179,222.061783
4242.394107,814.226536,-7967.393179,-666.185348
4242.394431,888.247130,-8044.002729,-370.102971
4242.394755,666.185348,-9193.145976,-888.247130
4242.395079,-222.061783,-7967.393179,0.000000
4242.395404,-2516.700203,-9882.631924,-518.144159
4242.395728,-1554.432478,-8963.317327,-296.082377
4242.396052,-962.267725,-9576.193725,1406.391290
4242.396376,-740.205942,-6052.154434,-814.226536
4242.396700,4663.297435,-9806.022374,0.000000
4242.397024,1702.473667,-8886.707777,-1184.329507
4242.397348,666.185348,-8044.002729,-888.247130
4242.397672,2886.803174,-8120.612279,-222.061783
4242.397996,-1258.350101,-8350.440928,0.000000
4242.398320,296.082377,-8044.002729,222.061783
4242.398644,2886.803174,-7354.516781,-666.185348
4242.398968,1480.411884,-8963.317327,-1110.308913
4242.399292,74.020594,-8886.707777,-1554.432478
4242.399617,-148.041188,-7737.564530,-1702.473667
4242.399941,-666.185348,-9499.584175,0.000000
4242.400265,-1332.370696,-7354.516781,-296.082377
4242.400589,-666.185348,-8963.317327,518.144159
4242.400913,-962.267725,-8197.221829,518.144159
4242.401237,370.102971,-8733.488677,-740.205942
4242.401561,2812.782580,-9269.755526,-814.226536
4242.401885,2812.782580,-9729.412825,-740.205942
4242.402209,814.226536,-8963.317327,-888.247130
4242.402533,518.144159,-8656.879127,-1110.308913
4242.402857,-222.061783,-8963.317327,518.144159
4242.403181,666.185348,-7967.393179,-444.123565
4242.403505,-1332.370696,-7737.564530,-1258.350101
4242.403830,1628.453072,-8810.098227,-666.185348
4242.404154,-592.164754,-8503.660028,-1480.411884
4242.404478,222.061783,-8580.269578,-962.267725
4242.404802,-296.082377,-8503.660028,-1110.308913
4242.405126,-592.164754,-9422.974625,-1036.288319
4242.405450,-296.082377,-8197.221829,-370.102971
4242.405774,2072.576638,-8044.002729,296.082377
4242.406098,1036.288319,-8886.707777,-296.082377
4242.406422,2516.700203,-8656.879127,-296.082377
4242.406746,2368.659014,-9193.145976,-518.144159
4242.407070,3182.885551,-9422.974625,-1998.556043
4242.407394,1184.329507,-8656.879127,0.000000
4242.407718,-1702.473667,-8810.098227,-222.061783
4242.408042,-1480.411884,-8963.317327,-222.061783
4242.408367,-1258.350101,-7814.174080,74.020594
4242.408691,888.247130,-8427.050478,74.020594
4242.409015,296.082377,-8656.879127,-222.061783
4242.409339,1480.411884,-8427.050478,-1406.391290
4242.409663,-814.226536,-9499.584175,-1406.391290
4242.409987,-888.247130,-8733.488677,-444.123565
4242.410311,-296.082377,-9039.926876,222.061783
4242.410635,518.144159,-7890.783629,592.164754
4242.410959,1036.288319,-8273.831378,962.267725
4242.411283,1924.535449,-7890.783629,-518.144159
4242.411607,1998.556043,-9806.022374,370.102971
4242.411931,1924.535449,-7890.783629,-1110.308913
4242.412255,1036.288319,-9039.926876,518.144159
4242.412580,814.226536,-8044.002729,962.267725
4242.412904,-814.226536,-7814.174080,222.061783
4242.413228,-592.164754,-8120.612279,1258.350101
4242.413552,-370.102971,-7201.297681,-148.041188
4242.413876,1702.473667,-8427.050478,0.000000
4242.414200,148.041188,-8350.440928,-962.267725
4242.414524,962.267725,-9269.755526,-814.226536
4242.414848,-148.041188,-8044.002729,370.102971
4242.415172,-370.102971,-8503.660028,-296.082377
4242.415496,222.061783,-8120.612279,1332.370696
4242.415820,222.061783,-7660.954980,222.061783
4242.416144,1480.411884,-10035.851024,296.082377
4242.416468,592.164754,-9422.974625,-962.267725
4242.416793,74.020594,-8886.707777,-740.205942
4242.417117,592.164754,-7967.393179,0.000000
4242.417441,-370.102971,-8044.002729,0.000000
4242.417765,-518.144159,-8197.221829,0.000000
4242.418089,666.185348,-8044.002729,0.000000
4242.418413,888.247130,-8580.269578,-444.123565
4242.418737,1184.329507,-8963.317327,148.041188
4242.419061,962.267725,-8886.707777,-1702.473667
4242.419385,222.061783,-9346.365076,-1406.391290
4242.419709,-1628.453072,-7737.564530,-592.164754
4242.420033,666.185348,-9422.974625,444.123565
4242.420357,0.000000,-7048.078582,222.061783
4242.420681,148.041188,-9039.926876,-444.123565
4242.421005,2664.741391,-9193.145976,-592.164754
4242.421330,1924.535449,-8044.002729,-370.102971
4242.421654,1702.473667,-9346.365076,-148.041188
4242.421978,2368.659014,-8120.612279,-962.267725
4242.422302,518.144159,-8503.660028,-814.226536
4242.422626,-148.041188,-8273.831378,-1110.308913
4242.422950,0.000000,-9346.365076,444.123565
4242.423274,-1036.288319,-8963.317327,148.041188
4242.423598,-962.267725,-7124.688131,-592.164754
4242.423922,1406.391290,-10035.851024,-666.185348
4242.424246,0.000000,-9652.803275,-2146.597232
4242.424570,0.000000,-8350.440928,-1628.453072
4242.424894,370.102971,-8273.831378,-148.041188
4242.425218,-814.226536,-9269.755526,444.123565
4242.425543,-962.267725,-8580.269578,0.000000
4242.425867,666.185348,-9422.974625,148.041188
4242.426191,1702.473667,-9116.536426,-814.226536
4242.426515,1332.370696,-9346.365076,-296.082377
4242.426839,2146.597232,-8273.831378,-1480.411884
4242.427163,666.185348,-8350.440928,-518.144159
4242.427487,-740.205942,-8044.002729,148.041188
4242.427811,-444.123565,-8197.221829,74.020594
4242.428135,1332.370696,-8044.002729,-518.144159
4242.428459,1184.329507,-7890.783629,-444.123565
4242.428783,1554.432478,-9806.022374,-740.205942
4242.429107,1406.391290,-9116.536426,-1184.329507
4242.429431,222.061783,-8503.660028,-1184.329507
4242.429756,1110.308913,-9346.365076,-148.041188
4242.430080,-2516.700203,-8503.660028,222.061783
4242.430404,-296.082377,-9039.926876,-148.041188
4242.430728,0.000000,-7737.564530,592.164754
4242.431052,1850.514855,-8963.317327,444.123565
4242.431376,3330.926739,-7814.174080,-962.267725
4242.431700,2442.679609,-8733.488677,-296.082377
4242.432024,-740.205942,-7890.783629,-444.123565
4242.432348,0.000000,-8580.269578,444.123565
4242.432672,444.123565,-8656.879127,814.226536
4242.432996,-1332.370696,-7737.564530,0.000000
4242.433320,222.061783,-8350.440928,0.000000
4242.433644,-222.061783,-8733.488677,-296.082377
4242.433968,-2368.659014,-8580.269578,-518.144159
4242.434293,-592.164754,-8656.879127,-444.123565
4242.434617,-1184.329507,-8810.098227,-74.020594
4242.434941,-592.164754,-8273.831378,148.041188
4242.435265,2072.576638,-9116.536426,148.041188
4242.435589,1036.288319,-9193.145976,-666.185348
4242.435913,1850.514855,-8656.879127,0.000000
4242.436237,3034.844362,-8120.612279,0.000000
4242.436561,2664.741391,-9499.584175,-592.164754
4242.436885,814.226536,-8427.050478,-666.185348
4242.437209,888.247130,-8120.612279,740.205942
4242.437533,-1850.514855,-8963.317327,-222.061783
4242.437857,-1628.453072,-7660.954980,-1036.288319
4242.438181,-888.247130,-8963.317327,518.144159
4242.438506,814.226536,-7890.783629,-1628.453072
4242.438830,74.020594,-9116.536426,-1184.329507
4242.439154,74.020594,-8197.221829,-1406.391290
4242.439478,-518.144159,-9193.145976,-296.082377
4242.439802,74.020594,-7354.516781,-962.267725
4242.440126,1258.350101,-9499.584175,888.247130
4242.440450,1776.494261,-8350.440928,-1258.350101
4242.440774,1406.391290,-9039.926876,-296.082377
4242.441098,814.226536,-8886.707777,-222.061783
4242.441422,222.061783,-8427.050478,-1332.370696
4242.441746,962.267725,-8733.488677,-814.226536
4242.442070,518.144159,-8580.269578,222.061783
4242.442394,222.061783,-9039.926876,0.000000
4242.442719,-740.205942,-7431.126331,-592.164754
4242.443043,-518.144159,-8656.879127,222.061783
4242.443367,592.164754,-7814.174080,-1332.370696
4242.443691,1406.391290,-8656.879127,-962.267725
4242.444015,1406.391290,-9116.536426,-1110.308913
4242.444339,592.164754,-8427.050478,-1184.329507
4242.444663,-888.247130,-9193.145976,444.123565
4242.444987,148.041188,-9116.536426,0.000000
4242.445311,222.061783,-7814.174080,0.000000
4242.445635,2072.576638,-8197.221829,-370.102971
4242.445959,888.247130,-9269.755526,-518.144159
4242.446284,1554.432478,-9269.755526,-592.164754
4242.446608,1184.329507,-8044.002729,-1628.453072
4242.446932,-592.164754,-8197.221829,296.082377
4242.447256,0.000000,-7201.297681,296.082377
4242.447581,74.020594,-8580.269578,1258.350101
4242.447905,222.061783,-8197.221829,-1332.370696
4242.448229,1110.308913,-9346.365076,-222.061783
4242.448554,962.267725,-8197.221829,-1258.350101
4242.448878,962.267725,-9576.193725,-1184.329507
4242.449202,-1184.329507,-7354.516781,-370.102971
4242.449526,-1332.370696,-8580.269578,1332.370696
4242.449851,-666.185348,-7814.174080,0.000000
4242.450175,-296.082377,-8580.269578,0.000000
4242.450499,1332.370696,-9269.755526,-296.082377
4242.450824,2812.782580,-8656.879127,296.082377
4242.451148,2812.782580,-8120.612279,-962.267725
4242.451472,1776.494261,-9039.926876,-962.267725
4242.451796,592.164754,-7584.345430,222.061783
4242.452121,-222.061783,-8733.488677,888.247130
4242.452445,-370.102971,-7814.174080,-518.144159
4242.452769,888.247130,-8580.269578,-740.205942
4242.453094,370.102971,-8120.612279,-740.205942
4242.453418,-592.164754,-9652.803275,-814.226536
4242.453742,-2072.576638,-7890.783629,-1184.329507
4242.454067,-2146.597232,-8656.879127,0.000000
4242.454391,-2368.659014,-7890.783629,814.226536
4242.454715,0.000000,-9422.974625,0.000000
4242.455039,740.205942,-8963.317327,0.000000
4242.455364,1628.453072,-9499.584175,0.000000
4242.455688,1850.514855,-8503.660028,-148.041188
4242.456012,1258.350101,-8427.050478,-444.123565
4242.456337,2072.576638,-8350.440928,-1554.432478
4242.456661,592.164754,-8273.831378,-518.144159
4242.456985,-740.205942,-9499.584175,1406.391290
4242.457309,0.000000,-8044.002729,-370.102971
4242.457634,-518.144159,-8120.612279,-296.082377
4242.457958,370.102971,-8580.269578,222.061783
4242.458282,74.020594,-8197.221829,-740.205942
4242.458607,222.061783,-8733.488677,-1184.329507
4242.458931,0.000000,-7737.564530,-740.205942
4242.459255,222.061783,-8427.050478,0.000000
4242.459579,-740.205942,-8886.707777,222.061783
4242.459904,444.123565,-9039.926876,-592.164754
4242.460228,962.267725,-8963.317327,-296.082377
4242.460552,2146.597232,-10418.898773,518.144159
4242.460877,2590.720797,-8197.221829,-1850.514855
4242.461201,2072.576638,-9806.022374,-666.185348
4242.461525,592.164754,-8503.660028,-444.123565
4242.461849,-518.144159,-8656.879127,-148.041188
4242.462174,-1332.370696,-8733.488677,-1406.391290
4242.462498,-2072.576638,-10418.898773,222.061783
4242.462822,-962.267725,-6894.859482,666.185348
4242.463147,2368.659014,-7354.516781,-2368.659014
4242.463471,0.000000,-11338.213370,-962.267725
4242.463795,-296.082377,-8273.831378,-1998.556043
4242.464119,74.020594,-8197.221829,444.123565
4242.464444,-148.041188,-8503.660028,148.041188
4242.464768,1110.308913,-8810.098227,518.144159
4242.465092,1554.432478,-7354.516781,-370.102971
4242.465417,2886.803174,-10189.070123,-444.123565
4242.465741,2442.679609,-9422.974625,-814.226536
4242.466065,-3923.091493,-7660.954980,-1332.370696
4242.466390,2368.659014,-9882.631924,1258.350101
4242.466714,-2590.720797,-6358.592633,-2220.617826
4242.467038,0.000000,-10725.336972,1702.473667
4242.467362,740.205942,-6588.421283,-1332.370696
4242.467687,0.000000,-9422.974625,814.226536
4242.468011,1258.350101,-7660.954980,-1628.453072
4242.468335,1332.370696,-9269.755526,-1258.350101
4242.468660,0.000000,-8503.660028,0.000000
4242.468984,1332.370696,-7967.393179,-592.164754
4242.469308,-1332.370696,-8810.098227,0.000000
4242.469632,1110.308913,-10265.679673,222.061783
4242.469957,-888.247130,-8503.660028,-592.164754
4242.470281,666.185348,-8810.098227,-444.123565
4242.470605,-592.164754,-9576.193725,-222.061783
4242.470930,962.267725,-8580.269578,-370.102971
4242.471254,2072.576638,-7814.174080,-962.267725
4242.471578,-888.247130,-9652.803275,-888.247130
4242.471902,-666.185348,-8273.831378,296.082377
4242.472227,-518.144159,-6588.421283,0.000000
4242.472551,740.205942,-9806.022374,-222.061783
4242.472875,1702.473667,-7814.174080,-888.247130
4242.473200,1924.535449,-9269.755526,-814.226536
4242.473524,0.000000,-9039.926876,-1110.308913
4242.473848,-1184.329507,-8810.098227,444.123565
4242.474172,-1480.411884,-8427.050478,-148.041188
4242.474497,-1258.350101,-8886.707777,0.000000
4242.474821,-518.144159,-7890.783629,0.000000
4242.475145,1258.350101,-8427.050478,0.000000
4242.475470,1924.535449,-9116.536426,-370.102971
4242.475794,888.247130,-8810.098227,-296.082377
4242.476118,518.144159,-7814.174080,-444.123565
4242.476442,888.247130,-7277.907231,-962.267725
4242.476767,814.226536,-9422.974625,74.020594
4242.477091,1332.370696,-8886.707777,148.041188
4242.477415,370.102971,-7584.345430,-962.267725
4242.477740,370.102971,-9806.022374,0.000000
4242.478064,148.041188,-9422.974625,-1110.308913
4242.478388,296.082377,-9193.145976,-296.082377
4242.478713,-1850.514855,-7737.564530,-1036.288319
4242.479037,-370.102971,-9576.193725,1258.350101
4242.479361,-2516.700203,-7814.174080,-740.205942
4242.479685,0.000000,-9806.022374,666.185348
4242.480010,1332.370696,-7967.393179,-592.164754
4242.480334,2146.597232,-8580.269578,0.000000
4242.480658,2886.803174,-7967.393179,-814.226536
4242.480983,2738.761985,-9193.145976,-1110.308913
4242.481307,814.226536,-8120.612279,-592.164754
4242.481631,592.164754,-9116.536426,592.164754
4242.481955,-1036.288319,-7814.174080,-370.102971
4242.482280,-296.082377,-8963.317327,148.041188
4242.482604,1258.350101,-8197.221829,-666.185348
4242.482928,666.185348,-9652.803275,-740.205942
4242.483253,-1554.432478,-8503.660028,-1924.535449
4242.483577,-518.144159,-8273.831378,-888.247130
4242.483901,-1554.432478,-6818.249932,518.144159
4242.484225,-444.123565,-8120.612279,148.041188
4242.484550,1702.473667,-7584.345430,148.041188
4242.484874,1406.391290,-8656.879127,0.000000
4242.485198,2590.720797,-8350.440928,148.041188
4242.485523,2220.617826,-9729.412825,-1184.329507
4242.485847,1998.556043,-8810.098227,-1036.288319
4242.486171,1258.350101,-8886.707777,-814.226536
4242.486495,962.267725,-8810.098227,0.000000
4242.486820,-370.102971,-8197.221829,222.061783
4242.487144,-592.164754,-8197.221829,518.144159
4242.487468,222.061783,-7431.126331,-814.226536
4242.487793,592.164754,-9193.145976,-444.123565
4242.488117,-222.061783,-7737.564530,-1184.329507
4242.488441,148.041188,-8810.098227,0.000000
4242.488765,0.000000,-7584.345430,-296.082377
4242.489090,1628.453072,-9729.412825,0.000000
4242.489414,2812.782580,-8733.488677,-814.226536
4242.489738,2664.741391,-10878.556072,1184.329507
4242.490063,1850.514855,-7124.688131,-1702.473667
4242.490387,518.144159,-10418.898773,666.185348
4242.490711,666.185348,-7967.393179,-1850.514855
4242.491036,0.000000,-8273.831378,0.000000
4242.491360,-1628.453072,-8273.831378,0.000000
4242.491684,-740.205942,-9652.803275,0.000000
4242.492008,-1924.535449,-6971.469032,-148.041188
4242.492333,444.123565,-9346.365076,666.185348
4242.492657,814.226536,-7814.174080,-1036.288319
4242.492981,1776.494261,-9193.145976,-1184.329507
4242.493306,740.205942,-8810.098227,-1628.453072
4242.493630,0.000000,-8427.050478,-222.061783
4242.493954,-962.267725,-8886.707777,-666.185348
4242.494278,-222.061783,-9499.584175,296.082377
4242.494603,370.102971,-8273.831378,814.226536
4242.494927,148.041188,-8886.707777,-222.061783
4242.495251,740.205942,-9193.145976,-518.144159
4242.495576,962.267725,-7814.174080,-444.123565
4242.495900,2220.617826,-8120.612279,-1332.370696
4242.496224,1998.556043,-8427.050478,962.267725
4242.496548,-1258.350101,-7354.516781,74.020594
4242.496873,0.000000,-8503.660028,296.082377
4242.497197,0.000000,-8503.660028,-814.226536
4242.497521,962.267725,-8733.488677,148.041188
4242.497846,740.205942,-8886.707777,-1480.411884
4242.498170,1036.288319,-8810.098227,74.020594
4242.498494,-1036.288319,-8044.002729,-370.102971
4242.498818,-1406.391290,-10418.898773,222.061783
4242.499143,-962.267725,-8273.831378,222.061783
4242.499467,-1998.556043,-9039.926876,740.205942
4242.499791,1924.535449,-9039.926876,-1036.288319
4242.500116,888.247130,-9039.926876,-740.205942
4242.500440,222.061783,-8656.879127,-1332.370696
4242.500764,1480.411884,-7507.735880,296.082377
4242.501088,-296.082377,-7048.078582,-592.164754
4242.501413,222.061783,-9269.755526,2146.597232
4242.501737,1702.473667,-6052.154434,148.041188
4242.502061,2960.823768,-8963.317327,444.123565
4242.502386,1702.473667,-7124.688131,-1480.411884
4242.502710,2220.617826,-10265.679673,-222.061783
4242.503034,-148.041188,-7890.783629,-1628.453072
4242.503359,0.000000,-8273.831378,-444.123565
4242.503683,-2146.597232,-9499.584175,-444.123565
4242.504007,-1184.329507,-9346.365076,814.226536
4242.504331,-962.267725,-8503.660028,0.000000
4242.504656,296.082377,-9652.803275,-740.205942
4242.504980,148.041188,-7660.954980,-1184.329507
4242.505304,1332.370696,-8656.879127,-740.205942
4242.505629,1776.494261,-8810.098227,-1554.432478
4242.505953,148.041188,-7814.174080,-444.123565
4242.506277,296.082377,-8197.221829,740.205942
4242.506601,888.247130,-8963.317327,0.000000
4242.506926,1776.494261,-7890.783629,-1702.473667
4242.507250,2738.761985,-9039.926876,740.205942
4242.507574,148.041188,-7737.564530,-1258.350101
4242.507899,962.267725,-9576.193725,-1776.494261
4242.508223,-296.082377,-7814.174080,-1406.391290
4242.508547,-1554.432478,-9499.584175,518.144159
4242.508871,-2368.659014,-8886.707777,-444.123565
4242.509196,148.041188,-8963.317327,-296.082377
4242.509520,740.205942,-8733.488677,-444.123565
4242.509844,1480.411884,-9116.536426,-666.185348
4242.510169,2368.659014,-9422.974625,-2072.576638
4242.510493,1776.494261,-8120.612279,-1554.432478
4242.510817,1184.329507,-8810.098227,0.000000
4242.511141,-296.082377,-8963.317327,-740.205942
4242.511466,74.020594,-9422.974625,-370.102971
4242.511790,-444.123565,-8503.660028,-518.144159
4242.512114,74.020594,-9193.145976,-592.164754
4242.512439,0.000000,-8350.440928,-1184.329507
4242.512763,444.123565,-8733.488677,-1554.432478
4242.513087,-74.020594,-8810.098227,-296.082377
4242.513412,-1332.370696,-9116.536426,-1036.288319
4242.513736,370.102971,-9346.365076,740.205942
4242.514060,1702.473667,-8197.221829,222.061783
4242.514384,740.205942,-8963.317327,222.061783
4242.514709,1702.473667,-8503.660028,-814.226536
4242.515033,1406.391290,-9039.926876,0.000000
4242.515357,1480.411884,-7354.516781,-1406.391290
4242.515682,222.061783,-9116.536426,148.041188
4242.516006,-1184.329507,-7890.783629,444.123565
4242.516330,-296.082377,-8656.879127,592.164754
4242.516654,-962.267725,-7584.345430,-222.061783
4242.516979,888.247130,-8810.098227,-296.082377
4242.517303,2072.576638,-7737.564530,-296.082377
4242.517627,518.144159,-9652.803275,-148.041188
4242.517952,444.123565,-8427.050478,-222.061783
4242.518276,0.000000,-8427.050478,0.000000
4242.518600,-962.267725,-8580.269578,0.000000
4242.518924,444.123565,-8810.098227,962.267725
4242.519249,888.247130,-8044.002729,74.020594
4242.519573,74.020594,-9269.755526,740.205942
4242.519897,1406.391290,-8044.002729,0.000000
4242.520222,592.164754,-8273.831378,296.082377
4242.520546,1332.370696,-7814.174080,-1036.288319
4242.520870,2072.576638,-8503.660028,1480.411884
4242.521194,296.082377,-7277.907231,-814.226536
4242.521519,1998.556043,-9346.365076,1480.411884
4242.521843,74.020594,-7201.297681,-1998.556043
4242.522167,666.185348,-10572.117872,1110.308913
4242.522492,-666.185348,-7201.297681,-2220.617826
4242.522816,-888.247130,-10035.851024,-592.164754
4242.523140,-2590.720797,-8120.612279,-666.185348
4242.523464,-1554.432478,-9806.022374,0.000000
4242.523789,-296.082377,-8733.488677,148.041188
4242.524113,222.061783,-8580.269578,74.020594
4242.524437,1258.350101,-8733.488677,-444.123565
4242.524762,3478.967927,-9422.974625,-740.205942
4242.525086,1924.535449,-9116.536426,-1184.329507
4242.525410,2590.720797,-8427.050478,-1480.411884
4242.525735,1702.473667,-8197.221829,0.000000
4242.526059,0.000000,-8503.660028,74.020594
4242.526383,370.102971,-8580.269578,-296.082377
4242.526707,1850.514855,-7814.174080,-444.123565
4242.527032,-888.247130,-9116.536426,-370.102971
4242.527356,-518.144159,-8120.612279,-2146.597232
4242.527680,-296.082377,-9499.584175,-666.185348
4242.528005,-740.205942,-8350.440928,-1628.453072
4242.528329,-7476.080014,-8427.050478,-1776.494261
4242.528653,2220.617826,-9499.584175,814.226536
4242.528977,-2516.700203,-6128.763984,-2294.638420
4242.529302,4219.173869,-12563.966167,888.247130
4242.529626,3627.009116,-8120.612279,-2516.700203
4242.529950,1998.556043,-9652.803275,-518.144159
4242.530275,1628.453072,-7737.564530,-1924.535449
4242.530599,444.123565,-9039.926876,-1110.308913
4242.530923,74.020594,-10265.679673,962.267725
4242.531247,-1776.494261,-6741.640382,-1480.411884
4242.531572,-888.247130,-9576.193725,1110.308913
4242.531896,-1332.370696,-6128.763984,-1850.514855
4242.532220,1702.473667,-10265.679673,-592.164754
4242.532545,888.247130,-7124.688131,-2072.576638
4242.532869,-370.102971,-9269.755526,74.020594
4242.533193,-592.164754,-7814.174080,-814.226536
4242.533517,1406.391290,-9269.755526,148.041188
4242.533842,1110.308913,-7277.907231,-222.061783
4242.534166,3108.864956,-9576.193725,296.082377
4242.534490,1998.556043,-8350.440928,0.000000
4242.534815,1480.411884,-10035.851024,0.000000
4242.535139,814.226536,-8886.707777,-1702.473667
4242.535463,-1480.411884,-8656.879127,0.000000
4242.535787,-1554.432478,-8963.317327,148.041188
4242.536112,-1554.432478,-7890.783629,-148.041188
4242.536436,814.226536,-8810.098227,592.164754
4242.536760,888.247130,-7967.393179,-444.123565
4242.537085,2368.659014,-8810.098227,-148.041188
4242.537409,1184.329507,-6818.249932,-1924.535449
4242.537733,2516.700203,-9193.145976,296.082377
4242.538058,814.226536,-7584.345430,74.020594
4242.538382,0.000000,-9116.536426,740.205942
4242.538706,1258.350101,-8733.488677,888.247130
4242.539030,1036.288319,-8810.098227,-296.082377
4242.539355,1258.350101,-9422.974625,-370.102971
4242.539679,0.000000,-8656.879127,222.061783
4242.540003,-592.164754,-8656.879127,-592.164754
4242.540328,-2812.782580,-8886.707777,-370.102971
4242.540652,0.000000,-8273.831378,0.000000
4242.540976,-1776.494261,-8120.612279,148.041188
4242.541300,-666.185348,-7890.783629,0.000000
4242.541625,1406.391290,-8350.440928,0.000000
4242.541949,1480.411884,-8733.488677,-814.226536
4242.542273,-370.102971,-8656.879127,-1628.453072
4242.542598,518.144159,-9039.926876,-1628.453072
4242.542922,-518.144159,-9499.584175,222.061783
4242.543246,0.000000,-8810.098227,0.000000
4242.543570,1924.535449,-9193.145976,592.164754
4242.543895,-518.144159,-7890.783629,74.020594
4242.544219,1258.350101,-8580.269578,-370.102971
4242.544543,2368.659014,-9882.631924,-666.185348
4242.544868,-74.020594,-8120.612279,-814.226536
4242.545192,0.000000,-8427.050478,-222.061783
4242.545516,-1258.350101,-7814.174080,592.164754
4242.545840,370.102971,-9269.755526,444.123565
4242.546165,666.185348,-7584.345430,-1184.329507
4242.546489,2368.659014,-8273.831378,-592.164754
4242.546813,1998.556043,-9116.536426,-1480.411884
4242.547137,1480.411884,-9422.974625,-518.144159
4242.547462,74.020594,-9039.926876,-1776.494261
4242.547786,-444.123565,-9806.022374,-740.205942
4242.548110,-1036.288319,-8886.707777,-296.082377
4242.548434,-1480.411884,-8810.098227,148.041188
4242.548758,444.123565,-9039.926876,-444.123565
4242.549083,666.185348,-8810.098227,0.000000
4242.549407,518.144159,-7584.345430,-1480.411884
4242.549731,3627.009116,-9116.536426,-592.164754
4242.550055,2220.617826,-7354.516781,-1184.329507
4242.550379,444.123565,-8580.269578,888.247130
4242.550704,962.267725,-7201.297681,-222.061783
4242.551028,1332.370696,-8963.317327,148.041188
4242.551352,74.020594,-8120.612279,-1776.494261
4242.551676,74.020594,-9806.022374,444.123565
4242.552000,-666.185348,-8197.221829,-1332.370696
4242.552325,-592.164754,-9039.926876,-740.205942
4242.552649,-1110.308913,-8350.440928,-1332.370696
4242.552973,-1184.329507,-9193.145976,-518.144159
4242.553297,-1110.308913,-8656.879127,444.123565
4242.553622,1702.473667,-8197.221829,0.000000
4242.553946,2590.720797,-8503.660028,-222.061783
4242.554270,2738.761985,-9193.145976,-296.082377
4242.554594,3034.844362,-8044.002729,-1036.288319
4242.554918,592.164754,-8656.879127,-444.123565
4242.555243,592.164754,-8273.831378,370.102971
4242.555567,0.000000,-9039.926876,370.102971
4242.555891,-518.144159,-9269.755526,592.164754
4242.556215,0.000000,-8197.221829,148.041188
4242.556539,-666.185348,-8273.831378,-666.185348
4242.556864,0.000000,-8656.879127,-888.247130
4242.557188,-888.247130,-8350.440928,74.020594
4242.557512,-518.144159,-7737.564530,0.000000
4242.557836,-592.164754,-7584.345430,296.082377
4242.558160,0.000000,-7967.393179,-370.102971
4242.558485,444.123565,-8656.879127,74.020594
4242.558809,1850.514855,-10112.460574,-1110.308913
4242.559133,2812.782580,-10265.679673,962.267725
4242.559457,0.000000,-8044.002729,-962.267725
4242.559781,1332.370696,-8810.098227,-148.041188
4242.560106,-1924.535449,-9576.193725,222.061783
4242.560430,-1628.453072,-9652.803275,592.164754
4242.560754,-1258.350101,-8733.488677,0.000000
4242.561078,-296.082377,-8197.221829,-518.144159
4242.561402,1258.350101,-7737.564530,-888.247130
4242.561727,0.000000,-7814.174080,-888.247130
4242.562051,1036.288319,-8963.317327,74.020594
4242.562375,-444.123565,-6818.249932,-1702.473667
4242.562699,1258.350101,-9806.022374,814.226536
4242.563023,370.102971,-7354.516781,444.123565
4242.563348,2294.638420,-9422.974625,814.226536
4242.563672,1332.370696,-8044.002729,-814.226536
4242.563996,1998.556043,-9652.803275,666.185348
4242.564320,1184.329507,-8197.221829,-1628.453072
4242.564644,0.000000,-9806.022374,-1406.391290
4242.564969,-666.185348,-7890.783629,-740.205942
4242.565293,-2146.597232,-8197.221829,0.000000
4242.565617,-1628.453072,-7890.783629,-1258.350101
4242.565941,148.041188,-8886.707777,1332.370696
4242.566265,370.102971,-7277.907231,-518.144159
4242.566590,1036.288319,-9882.631924,-518.144159
4242.566914,1332.370696,-8733.488677,-2368.659014
4242.567238,962.267725,-9193.145976,-296.082377
4242.567562,-518.144159,-8503.660028,-1184.329507
4242.567886,-370.102971,-9422.974625,518.144159
4242.568211,-666.185348,-8886.707777,0.000000
4242.568535,592.164754,-7967.393179,518.144159
4242.568859,1110.308913,-8427.050478,-962.267725
4242.569183,1480.411884,-9193.145976,-592.164754
4242.569507,1850.514855,-8044.002729,-666.185348
4242.569832,0.000000,-7354.516781,-1036.288319
4242.570156,1702.473667,-9116.536426,-222.061783
4242.570480,1332.370696,-9116.536426,-296.082377
4242.570804,1332.370696,-8580.269578,-740.205942
4242.571128,1924.535449,-8580.269578,-444.123565
4242.571453,740.205942,-9346.365076,-1258.350101
4242.571777,-962.267725,-8810.098227,-1406.391290
4242.572101,-592.164754,-9269.755526,-666.185348
4242.572425,-666.185348,-8733.488677,-1036.288319
4242.572749,-1184.329507,-9193.145976,74.020594
4242.573074,518.144159,-9499.584175,370.102971
4242.573398,740.205942,-8733.488677,-814.226536
4242.573722,1480.411884,-8580.269578,0.000000
4242.574046,3182.885551,-8503.660028,-666.185348
4242.574370,3923.091493,-8656.879127,-1332.370696
4242.574695,2368.659014,-8733.488677,-814.226536
4242.575019,444.123565,-8503.660028,296.082377
4242.575343,-370.102971,-9346.365076,-592.164754
4242.575667,-888.247130,-8580.269578,666.185348
4242.575991,-740.205942,-7507.735880,-1110.308913
4242.576316,-888.247130,-7814.174080,-888.247130
4242.576640,0.000000,-9806.022374,-1110.308913
4242.576964,0.000000,-7737.564530,-222.061783
4242.577288,-1998.556043,-7431.126331,-666.185348
4242.577613,592.164754,-8197.221829,-1332.370696
4242.577937,-148.041188,-9652.803275,518.144159
4242.578261,1258.350101,-7584.345430,-962.267725
4242.578585,2664.741391,-9116.536426,-962.267725
4242.578909,2220.617826,-10189.070123,-1036.288319
4242.579234,370.102971,-9193.145976,518.144159
4242.579558,370.102971,-6511.811733,370.102971
4242.579882,222.061783,-9729.412825,1998.556043
4242.580206,-3034.844362,-9193.145976,0.000000
4242.580530,-1628.453072,-7660.954980,74.020594
4242.580855,-888.247130,-9116.536426,-370.102971
4242.581179,0.000000,-8580.269578,1184.329507
4242.581503,0.000000,-8273.831378,296.082377
4242.581827,740.205942,-9346.365076,-148.041188
4242.582151,74.020594,-9269.755526,-1702.473667
4242.582476,-1258.350101,-8580.269578,-2294.638420
4242.582800,1258.350101,-8580.269578,518.144159
4242.583124,962.267725,-7660.954980,-814.226536
4242.583448,888.247130,-9806.022374,-444.123565
4242.583772,296.082377,-8656.879127,-740.205942
4242.584097,592.164754,-9422.974625,-592.164754
4242.584421,888.247130,-7354.516781,-1332.370696
4242.584745,1110.308913,-6435.202183,-222.061783
4242.585069,0.000000,-8427.050478,-666.185348
4242.585393,148.041188,-9193.145976,0.000000
4242.585718,1036.288319,-6741.640382,-2072.576638
4242.586042,1702.473667,-9806.022374,222.061783
4242.586366,0.000000,-8273.831378,-1554.432478
4242.586690,-222.061783,-9346.365076,-1184.329507
4242.587014,-592.164754,-9652.803275,-1258.350101
4242.587339,-1110.308913,-9346.365076,-444.123565
4242.587663,-666.185348,-8886.707777,-666.185348
4242.587987,-1702.473667,-9039.926876,0.000000
4242.588311,444.123565,-8656.879127,-370.102971
4242.588635,1480.411884,-9193.145976,-296.082377
4242.588960,2146.597232,-8350.440928,-888.247130
4242.589284,2442.679609,-8044.002729,-1554.432478
4242.589608,1406.391290,-8197.221829,0.000000
4242.589932,-296.082377,-9039.926876,444.123565
4242.590256,962.267725,-8810.098227,-222.061783
4242.590581,740.205942,-9729.412825,0.000000
4242.590905,518.144159,-8273.831378,-222.061783
4242.591229,2072.576638,-9576.193725,-518.144159
4242.591553,1554.432478,-8963.317327,-444.123565
4242.591877,-444.123565,-8197.221829,-592.164754
4242.592202,-370.102971,-8503.660028,0.000000
4242.592526,-740.205942,-7814.174080,-1184.329507
4242.592850,1332.370696,-9729.412825,444.123565
4242.593174,222.061783,-7354.516781,-518.144159
4242.593498,2886.803174,-9959.241474,814.226536
4242.593823,2072.576638,-6818.249932,-814.226536
4242.594147,2072.576638,-9499.584175,-518.144159
4242.594471,1184.329507,-7507.735880,-962.267725
4242.594795,962.267725,-10189.070123,1628.453072
4242.595119,666.185348,-7431.126331,-962.267725
4242.595444,0.000000,-9269.755526,-518.144159
4242.595768,-740.205942,-7354.516781,-1406.391290
4242.596092,1110.308913,-10342.289223,0.000000
4242.596416,0.000000,-6894.859482,-1924.535449
4242.596740,666.185348,-9193.145976,1110.308913
4242.597065,-740.205942,-6894.859482,-1110.308913
4242.597389,-888.247130,-8810.098227,1110.308913
4242.597713,222.061783,-7967.393179,0.000000
4242.598037,1628.453072,-9039.926876,-148.041188
4242.598361,962.267725,-9039.926876,-1628.453072
4242.598686,2072.576638,-8656.879127,0.000000
4242.599010,1628.453072,-9193.145976,-666.185348
4242.599334,296.082377,-8120.612279,-1258.350101
4242.599658,0.000000,-8580.269578,370.102971
4242.599983,-1110.308913,-7507.735880,74.020594
4242.600307,-592.164754,-9193.145976,-296.082377
4242.600631,814.226536,-8656.879127,74.020594
4242.600955,296.082377,-8656.879127,370.102971
4242.601279,0.000000,-7354.516781,-1850.514855
4242.601604,1258.350101,-9499.584175,-296.082377
4242.601928,-888.247130,-7507.735880,-1332.370696
4242.602252,-444.123565,-8273.831378,74.020594
4242.602576,148.041188,-7814.174080,444.123565
4242.602900,-370.102971,-9269.755526,148.041188
4242.603225,1406.391290,-8503.660028,-740.205942
4242.603549,1850.514855,-10035.851024,518.144159
4242.603873,-1184.329507,-9576.193725,-2072.576638
4242.604197,-1110.308913,-8963.317327,296.082377
4242.604521,-666.185348,-7354.516781,-148.041188
4242.604846,444.123565,-9729.412825,592.164754
4242.605170,222.061783,-7660.954980,-666.185348
4242.605494,1702.473667,-8427.050478,1110.308913
4242.605818,1110.308913,-7890.783629,-1184.329507
4242.606142,518.144159,-9193.145976,-222.061783
4242.606467,2294.638420,-9116.536426,-1850.514855
4242.606791,592.164754,-9499.584175,-2072.576638
4242.607115,-1332.370696,-9499.584175,148.041188
4242.607439,-888.247130,-8350.440928,-296.082377
4242.607763,-962.267725,-9346.365076,666.185348
4242.608088,1036.288319,-8733.488677,-518.144159
4242.608412,1998.556043,-8656.879127,-370.102971
4242.608736,1110.308913,-8273.831378,-1332.370696
4242.609060,1036.288319,-7737.564530,-666.185348
4242.609384,1480.411884,-7354.516781,-518.144159
4242.609709,1406.391290,-8044.002729,444.123565
4242.610033,1924.535449,-9269.755526,-296.082377
4242.610357,1184.329507,-8886.707777,-1702.473667
4242.610681,0.000000,-8427.050478,-296.082377
4242.611005,518.144159,-9269.755526,-1850.514855
4242.611330,-740.205942,-8810.098227,-740.205942
4242.611654,-888.247130,-8503.660028,-592.164754
4242.611978,-2220.617826,-9193.145976,-1036.288319
4242.612302,-1480.411884,-9039.926876,0.000000
4242.612626,518.144159,-8273.831378,0.000000
4242.612951,2812.782580,-8656.879127,-1258.350101
4242.613275,1850.514855,-8810.098227,-370.102971
4242.613599,1850.514855,-7814.174080,-1406.391290
4242.613923,2368.659014,-8503.660028,-1184.329507
4242.614247,962.267725,-9116.536426,-222.061783
4242.614572,444.123565,-10035.851024,888.247130
4242.614896,-444.123565,-7277.907231,-814.226536
4242.615220,444.123565,-9499.584175,888.247130
4242.615544,962.267725,-8273.831378,-1110.308913
4242.615868,296.082377,-9269.755526,296.082377
4242.616193,-1036.288319,-8273.831378,-1110.308913
4242.616517,-370.102971,-8963.317327,-1184.329507
4242.616841,-1702.473667,-7890.783629,-740.205942
4242.617165,-518.144159,-9729.412825,296.082377
4242.617489,1036.288319,-8427.050478,-370.102971
4242.617814,1332.370696,-9806.022374,-518.144159
4242.618138,1702.473667,-9039.926876,222.061783
4242.618462,2220.617826,-8886.707777,814.226536
4242.618786,1702.473667,-9116.536426,-2072.576638
4242.619110,592.164754,-9652.803275,592.164754
4242.619435,-370.102971,-7660.954980,-518.144159
4242.619759,-148.041188,-9729.412825,1480.411884
4242.620083,-1776.494261,-7584.345430,-962.267725
4242.620407,296.082377,-8427.050478,888.247130
4242.620731,-1258.350101,-7584.345430,-1258.350101
4242.621056,-888.247130,-8886.707777,-1036.288319
4242.621380,296.082377,-8044.002729,-518.144159
4242.621704,-296.082377,-8197.221829,74.020594
4242.622028,1850.514855,-8273.831378,370.102971
4242.622352,2960.823768,-9116.536426,592.164754
4242.622677,888.247130,-9039.926876,0.000000
4242.623001,2146.597232,-7814.174080,-888.247130
4242.623325,1554.432478,-9806.022374,0.000000
4242.623649,296.082377,-7507.735880,-1406.391290
4242.623974,-444.123565,-8120.612279,-444.123565
4242.624298,-1332.370696,-9116.536426,592.164754
4242.624622,-518.144159,-9193.145976,0.000000
4242.624946,-666.185348,-8197.221829,148.041188
4242.625270,74.020594,-7660.954980,0.000000
4242.625595,888.247130,-8350.440928,-518.144159
4242.625919,-148.041188,-9116.536426,-222.061783
4242.626243,666.185348,-7890.783629,-1702.473667
4242.626567,-444.123565,-9806.022374,-666.185348
4242.626891,1184.329507,-10112.460574,444.123565
4242.627216,1332.370696,-9269.755526,0.000000
4242.627540,1258.350101,-8580.269578,-740.205942
4242.627864,518.144159,-9652.803275,0.000000
4242.628188,222.061783,-9116.536426,-1110.308913
4242.628512,-962.267725,-9346.365076,-444.123565
4242.628837,74.020594,-7967.393179,-444.123565
4242.629161,-740.205942,-7737.564530,518.144159
4242.629485,-666.185348,-9269.755526,296.082377
4242.629809,1110.308913,-8350.440928,-296.082377
4242.630133,3034.844362,-8427.050478,-740.205942
4242.630458,962.267725,-9346.365076,-444.123565
4242.630782,666.185348,-8886.707777,-1036.288319
4242.631106,148.041188,-9346.365076,-1110.308913
4242.631430,-1406.391290,-9652.803275,-814.226536
4242.631754,-1628.453072,-9729.412825,-518.144159
4242.632079,-296.082377,-8963.317327,-296.082377
4242.632403,148.041188,-9116.536426,-370.102971
4242.632727,592.164754,-7814.174080,-1702.473667
4242.633051,1702.473667,-9729.412825,592.164754
4242.633375,2294.638420,-7277.907231,-1184.329507
4242.633700,1332.370696,-9193.145976,-592.164754
4242.634024,-148.041188,-7431.126331,-148.041188
4242.634348,592.164754,-8810.098227,0.000000
4242.634672,518.144159,-8810.098227,-1406.391290
4242.634996,962.267725,-8886.707777,148.041188
4242.635321,1628.453072,-8733.488677,-370.102971
4242.635645,1184.329507,-8580.269578,0.000000
4242.635969,-296.082377,-8427.050478,-444.123565
4242.636293,-148.041188,-8733.488677,-740.205942
4242.636617,-1184.329507,-8963.317327,-962.267725
4242.636942,1702.473667,-9039.926876,370.102971
4242.637266,222.061783,-8427.050478,-592.164754
4242.637590,1480.411884,-8580.269578,-444.123565
4242.637914,814.226536,-9269.755526,370.102971
4242.638238,-148.041188,-8503.660028,-814.226536
4242.638563,-740.205942,-9193.145976,-518.144159
4242.638887,1110.308913,-8656.879127,-740.205942
4242.639211,-148.041188,-8427.050478,0.000000
4242.639535,1332.370696,-9039.926876,148.041188
4242.639859,1036.288319,-8503.660028,-518.144159
4242.640184,1406.391290,-8197.221829,1480.411884
4242.640508,1184.329507,-8733.488677,-1258.350101
4242.640832,814.226536,-8810.098227,-1406.391290
4242.641156,-814.226536,-7354.516781,-666.185348
4242.641480,-1776.494261,-8273.831378,-666.185348
4242.641805,-888.247130,-8886.707777,-740.205942
4242.642129,0.000000,-8733.488677,-296.082377
4242.642453,1628.453072,-8120.612279,370.102971
4242.642777,2220.617826,-8733.488677,0.000000
4242.643101,-1258.350101,-9269.755526,-740.205942
4242.643426,2294.638420,-8503.660028,-666.185348
4242.643750,222.061783,-6741.640382,-222.061783
4242.644074,-1036.288319,-9729.412825,370.102971
4242.644398,-962.267725,-7890.783629,-592.164754
4242.644722,-962.267725,-8503.660028,-370.102971
4242.645047,-1258.350101,-8810.098227,0.000000
4242.645371,1036.288319,-8580.269578,0.000000
4242.645695,444.123565,-8350.440928,-592.164754
4242.646019,-592.164754,-8963.317327,-1406.391290
4242.646344,1332.370696,-8886.707777,-666.185348
4242.646668,1776.494261,-9422.974625,740.205942
4242.646992,740.205942,-7354.516781,-444.123565
4242.647316,1258.350101,-9882.631924,1776.494261
4242.647640,1406.391290,-7354.516781,-888.247130
4242.647964,1924.535449,-9346.365076,148.041188
4242.648289,2072.576638,-8197.221829,-2664.741391
4242.648613,-518.144159,-8963.317327,518.144159
4242.648937,-1406.391290,-7890.783629,-296.082377
4242.649261,-1332.370696,-10035.851024,-148.041188
4242.649585,-444.123565,-7890.783629,370.102971
4242.649909,666.185348,-8963.317327,-370.102971
4242.650234,1258.350101,-8963.317327,-1702.473667
4242.650558,1258.350101,-9346.365076,-962.267725
4242.650882,444.123565,-7354.516781,-1480.411884
4242.651206,-962.267725,-8350.440928,-814.226536
4242.651530,0.000000,-8963.317327,0.000000
4242.651854,1554.432478,-9039.926876,0.000000
4242.652179,0.000000,-9269.755526,-666.185348
4242.652503,1184.329507,-8886.707777,-592.164754
4242.652827,1924.535449,-8963.317327,-592.164754
4242.653151,1110.308913,-8427.050478,-1406.391290
4242.653475,296.082377,-7814.174080,-666.185348
4242.653799,0.000000,-8503.660028,222.061783
4242.654124,-296.082377,-7890.783629,-592.164754
4242.654448,1554.432478,-8886.707777,370.102971
4242.654772,1628.453072,-8044.002729,-518.144159
4242.655096,1850.514855,-8427.050478,-814.226536
4242.655420,962.267725,-7967.393179,-1628.453072
4242.655745,518.144159,-8350.440928,370.102971
4242.656069,962.267725,-8427.050478,-296.082377
4242.656393,-888.247130,-9269.755526,-740.205942
4242.656717,1036.288319,-9193.145976,888.247130
4242.657041,-888.247130,-8427.050478,-518.144159
4242.657365,444.123565,-9652.803275,74.020594
4242.657690,1702.473667,-8197.221829,-444.123565
4242.658014,1110.308913,-8886.707777,-222.061783
4242.658338,592.164754,-8427.050478,-962.267725
4242.658662,1110.308913,-7431.126331,-370.102971
4242.658986,296.082377,-8350.440928,-148.041188
4242.659310,0.000000,-8197.221829,148.041188
4242.659635,1702.473667,-8273.831378,962.267725
4242.659959,666.185348,-8886.707777,-518.144159
4242.660283,0.000000,-8273.831378,-1036.288319
4242.660607,-1480.411884,-8273.831378,-370.102971
4242.660931,-3108.864956,-8197.221829,-1332.370696
4242.661255,-2368.659014,-9039.926876,0.000000
4242.661580,-666.185348,-9269.755526,740.205942
4242.661904,-592.164754,-8427.050478,-296.082377
4242.662228,2220.617826,-8427.050478,-1258.350101
4242.662552,2072.576638,-9806.022374,444.123565
4242.662876,1258.350101,-8580.269578,-1480.411884
4242.663200,2590.720797,-9346.365076,-1036.288319
4242.663525,-148.041188,-8044.002729,74.020594
4242.663849,-2220.617826,-8656.879127,148.041188
4242.664173,-1110.308913,-9346.365076,-666.185348
4242.664497,-370.102971,-8810.098227,370.102971
4242.664821,-518.144159,-7354.516781,74.020594
4242.665145,1850.514855,-8810.098227,-1110.308913
4242.665470,-1924.535449,-8656.879127,296.082377
4242.665794,-1406.391290,-7124.688131,-666.185348
4242.666118,740.205942,-8273.831378,-296.082377
4242.666442,-740.205942,-9116.536426,0.000000
4242.666766,888.247130,-9269.755526,74.020594
4242.667090,1776.494261,-8503.660028,-962.267725
4242.667415,2072.576638,-10725.336972,962.267725
4242.667739,2368.659014,-7890.783629,-2146.597232
4242.668063,1480.411884,-9269.755526,74.020594
4242.668387,-1776.494261,-7507.735880,-2072.576638
4242.668711,-666.185348,-9959.241474,444.123565
4242.669036,-888.247130,-7584.345430,-666.185348
4242.669360,-1110.308913,-9193.145976,1480.411884
4242.669684,444.123565,-7584.345430,-1184.329507
4242.670008,888.247130,-8273.831378,-370.102971
4242.670332,1258.350101,-8427.050478,-1110.308913
4242.670656,666.185348,-8427.050478,-1554.432478
4242.670981,222.061783,-9499.584175,-444.123565
4242.671305,222.061783,-8273.831378,370.102971
4242.671629,1258.350101,-8810.098227,0.000000
4242.671953,2220.617826,-9193.145976,-444.123565
4242.672277,1924.535449,-9116.536426,-592.164754
4242.672601,74.020594,-8197.221829,370.102971
4242.672926,-296.082377,-9193.145976,-518.144159
4242.673250,370.102971,-7967.393179,-740.205942
4242.673574,3034.844362,-9269.755526,592.164754
4242.673898,-518.144159,-7737.564530,-518.144159
4242.674222,222.061783,-8427.050478,592.164754
4242.674546,1702.473667,-7507.735880,0.000000
4242.674871,1702.473667,-9806.022374,592.164754
4242.675195,962.267725,-8503.660028,-2146.597232
4242.675519,-1332.370696,-9499.584175,-962.267725
4242.675843,-2738.761985,-8810.098227,-1184.329507
4242.676167,-592.164754,-10725.336972,74.020594
4242.676491,222.061783,-8580.269578,-740.205942
4242.676816,-296.082377,-9499.584175,1776.494261
4242.677140,1628.453072,-7507.735880,-444.123565
4242.677464,666.185348,-9729.412825,0.000000
4242.677788,2368.659014,-8197.221829,-666.185348
4242.678112,2442.679609,-8427.050478,-296.082377
4242.678436,518.144159,-7354.516781,-592.164754
4242.678761,814.226536,-8810.098227,1036.288319
4242.679085,-444.123565,-7354.516781,-1036.288319
4242.679409,592.164754,-9499.584175,518.144159
4242.679733,1036.288319,-8733.488677,-1628.453072
4242.680057,518.144159,-9346.365076,-222.061783
4242.680381,-1036.288319,-7814.174080,-1554.432478
4242.680706,0.000000,-9039.926876,370.102971
4242.681030,-222.061783,-7354.516781,-444.123565
4242.681354,-148.041188,-10112.460574,1554.432478
4242.681678,814.226536,-7890.783629,-1258.350101
4242.682002,1480.411884,-9499.584175,518.144159
4242.682326,2072.576638,-8197.221829,-1036.288319
4242.682651,2072.576638,-8963.317327,-666.185348
4242.682975,1702.473667,-7660.954980,-666.185348
4242.683299,888.247130,-8350.440928,518.144159
4242.683623,-1036.288319,-9039.926876,-592.164754
4242.683947,296.082377,-8427.050478,444.123565
4242.684272,370.102971,-8733.488677,74.020594
4242.684596,1332.370696,-8963.317327,-370.102971
4242.684920,-296.082377,-8273.831378,-1258.350101
4242.685244,-888.247130,-8273.831378,222.061783
4242.685568,-666.185348,-8197.221829,-592.164754
4242.685892,-1702.473667,-8273.831378,-1036.288319
4242.686217,-444.123565,-8810.098227,962.267725
4242.686541,-222.061783,-7277.907231,-666.185348
4242.686865,4589.276840,-10342.289223,1036.288319
4242.687189,3182.885551,-8120.612279,-1110.308913
4242.687513,2590.720797,-10342.289223,1110.308913
4242.687837,-1258.350101,-7124.688131,-2960.823768
4242.688162,0.000000,-9116.536426,0.000000
4242.688486,-222.061783,-8886.707777,0.000000
4242.688810,-1480.411884,-8503.660028,0.000000
4242.689134,-592.164754,-9576.193725,888.247130
4242.689458,-1258.350101,-6818.249932,-1332.370696
4242.689782,-370.102971,-10648.727422,0.000000
4242.690107,-148.041188,-7431.126331,-3108.864956
4242.690431,296.082377,-9039.926876,814.226536
4242.690755,0.000000,-7277.907231,-1184.329507
4242.691079,0.000000,-9652.803275,0.000000
4242.691403,666.185348,-8120.612279,222.061783
4242.691727,1628.453072,-9499.584175,-148.041188
4242.692052,1924.535449,-9806.022374,-1406.391290
4242.692376,814.226536,-7967.393179,-592.164754
4242.692700,-370.102971,-8503.660028,-592.164754
4242.693024,740.205942,-8044.002729,-222.061783
4242.693348,-296.082377,-9193.145976,-370.102971
4242.693672,-814.226536,-8580.269578,74.020594
4242.693997,-148.041188,-8580.269578,222.061783
4242.694321,592.164754,-8350.440928,-1184.329507
4242.694645,444.123565,-9116.536426,-296.082377
4242.694969,1258.350101,-7890.783629,-2220.617826
4242.695293,-444.123565,-9806.022374,-962.267725
4242.695617,-296.082377,-9039.926876,-962.267725
4242.695942,1036.288319,-8886.707777,592.164754
4242.696266,296.082377,-9729.412825,0.000000
4242.696590,2072.576638,-9039.926876,-222.061783
4242.696914,2220.617826,-8886.707777,-370.102971
4242.697238,1258.350101,-8963.317327,-148.041188
4242.697563,222.061783,-8580.269578,-1110.308913
4242.697887,-222.061783,-8044.002729,0.000000
4242.698211,-1110.308913,-9116.536426,740.205942
4242.698535,0.000000,-7890.783629,-1110.308913
4242.698859,1702.473667,-9269.755526,518.144159
4242.699183,518.144159,-7814.174080,-1332.370696
4242.699508,592.164754,-9039.926876,444.123565
4242.699832,444.123565,-7660.954980,-592.164754
4242.700156,2368.659014,-9269.755526,-148.041188
4242.700480,-814.226536,-8656.879127,-1850.514855
4242.700804,296.082377,-9806.022374,1036.288319
4242.701128,740.205942,-8350.440928,74.020594
4242.701453,1036.288319,-8656.879127,-592.164754
4242.701777,3108.864956,-8733.488677,74.020594
4242.702101,1998.556043,-7584.345430,0.000000
4242.702425,814.226536,-8963.317327,-1110.308913
4242.702749,1406.391290,-7431.126331,0.000000
4242.703073,74.020594,-8120.612279,-222.061783
4242.703398,962.267725,-8810.098227,-296.082377
4242.703722,222.061783,-8120.612279,74.020594
4242.704046,-148.041188,-8350.440928,-962.267725
4242.704370,74.020594,-9729.412825,518.144159
4242.704694,0.000000,-8273.831378,-1258.350101
4242.705018,-1036.288319,-9269.755526,-518.144159
4242.705343,-592.164754,-7354.516781,-518.144159
4242.705667,222.061783,-9116.536426,370.102971
4242.705991,1258.350101,-7660.954980,-518.144159
4242.706315,1702.473667,-9039.926876,518.144159
4242.706639,1258.350101,-8580.269578,-888.247130
4242.706963,2146.597232,-9193.145976,-222.061783
4242.707288,1110.308913,-8580.269578,-962.267725
4242.707612,148.041188,-9269.755526,-74.020594
4242.707936,-296.082377,-7354.516781,-592.164754
4242.708260,-296.082377,-9193.145976,370.102971
4242.708584,-444.123565,-8963.317327,-962.267725
4242.708908,0.000000,-8044.002729,370.102971
4242.709233,-444.123565,-8350.440928,-296.082377
4242.709557,74.020594,-8427.050478,-1406.391290
4242.709881,222.061783,-9193.145976,-1480.411884
4242.710205,666.185348,-8427.050478,-740.205942
4242.710529,-518.144159,-9039.926876,-296.082377
4242.710854,1036.288319,-8350.440928,518.144159
4242.711178,370.102971,-7890.783629,148.041188
4242.711502,888.247130,-9652.803275,-296.082377
4242.711826,2886.803174,-9729.412825,74.020594
4242.712150,1480.411884,-8963.317327,-1184.329507
4242.712474,-1258.350101,-8044.002729,-1554.432478
4242.712799,-1480.411884,-9193.145976,-296.082377
4242.713123,-3108.864956,-8350.440928,-1110.308913
4242.713447,296.082377,-8580.269578,0.000000
4242.713771,74.020594,-7431.126331,0.000000
4242.714095,592.164754,-8963.317327,74.020594
4242.714419,518.144159,-7660.954980,-962.267725
4242.714744,518.144159,-9269.755526,0.000000
4242.715068,148.041188,-8580.269578,-592.164754
4242.715392,-1258.350101,-8273.831378,-962.267725
4242.715716,-1110.308913,-9269.755526,592.164754
4242.716040,518.144159,-8427.050478,0.000000
4242.716364,2146.597232,-8427.050478,-148.041188
4242.716689,1406.391290,-8350.440928,74.020594
4242.717013,1036.288319,-8350.440928,-814.226536
4242.717337,370.102971,-7584.345430,-888.247130
4242.717661,2294.638420,-7201.297681,0.000000
4242.717985,-666.185348,-8580.269578,518.144159
4242.718309,-1406.391290,-8273.831378,148.041188
4242.718634,370.102971,-7660.954980,-444.123565
4242.718958,592.164754,-8963.317327,-148.041188
4242.719282,1924.535449,-8044.002729,-962.267725
4242.719606,740.205942,-8963.317327,-1702.473667
4242.719930,-296.082377,-7507.735880,0.000000
4242.720254,518.144159,-9499.584175,0.000000
4242.720579,592.164754,-8273.831378,0.000000
4242.720903,1036.288319,-10112.460574,1110.308913
4242.721227,1406.391290,-7354.516781,-592.164754
4242.721551,2072.576638,-9806.022374,444.123565
4242.721875,296.082377,-7737.564530,-1776.494261
4242.722199,1480.411884,-9346.365076,0.000000
4242.722524,888.247130,-6894.859482,0.000000
4242.722848,1998.556043,-9576.193725,592.164754
4242.723172,0.000000,-8197.221829,-1776.494261
4242.723496,296.082377,-9422.974625,1702.473667
4242.723820,-222.061783,-7354.516781,-1480.411884
4242.724144,-444.123565,-9729.412825,148.041188
4242.724469,962.267725,-8810.098227,-1258.350101
4242.724793,-1702.473667,-8580.269578,-1332.370696
4242.725117,-1332.370696,-9116.536426,-1480.411884
4242.725441,-2960.823768,-8810.098227,814.226536
4242.725765,148.041188,-9116.536426,148.041188
4242.726090,1628.453072,-8273.831378,0.000000
4242.726414,3330.926739,-9039.926876,666.185348
4242.726738,-1406.391290,-7890.783629,-1924.535449
4242.727062,148.041188,-9806.022374,-1628.453072
4242.727386,1628.453072,-8350.440928,-1406.391290
4242.727710,518.144159,-9346.365076,518.144159
4242.728035,-740.205942,-7201.297681,518.144159
4242.728359,-296.082377,-8886.707777,-1480.411884
4242.728683,-1332.370696,-9652.803275,592.164754
4242.729007,1036.288319,-7354.516781,-1332.370696
4242.729331,-2220.617826,-9193.145976,0.000000
4242.729655,-888.247130,-6511.811733,-814.226536
4242.729980,-1184.329507,-8810.098227,222.061783
4242.730304,-592.164754,-8273.831378,-222.061783
4242.730628,1850.514855,-8350.440928,518.144159
4242.730952,1480.411884,-8886.707777,74.020594
4242.731276,1776.494261,-8580.269578,0.000000
4242.731600,3478.967927,-8350.440928,-518.144159
4242.731925,2664.741391,-9193.145976,-1406.391290
4242.732249,148.041188,-8580.269578,-592.164754
4242.732573,-148.041188,-8656.879127,0.000000
4242.732897,-1702.473667,-8503.660028,148.041188
4242.733221,-1110.308913,-8273.831378,-222.061783
4242.733545,-1036.288319,-9039.926876,-222.061783
4242.733870,-1628.453072,-8044.002729,0.000000
4242.734194,-222.061783,-8197.221829,74.020594
4242.734518,444.123565,-7354.516781,-666.185348
4242.734842,666.185348,-8120.612279,0.000000
4242.735166,518.144159,-7890.783629,-888.247130
4242.735490,1776.494261,-8580.269578,1628.453072
4242.735815,1702.473667,-8886.707777,-814.226536
4242.736139,1480.411884,-9652.803275,444.123565
4242.736463,1628.453072,-8580.269578,-370.102971
4242.736787,1628.453072,-9116.536426,-444.123565
4242.737111,1036.288319,-8427.050478,-592.164754
4242.737435,592.164754,-8044.002729,222.061783
4242.737760,-1258.350101,-8120.612279,0.000000
4242.738084,-740.205942,-8120.612279,370.102971
4242.738408,0.000000,-7584.345430,0.000000
4242.738732,222.061783,-8503.660028,222.061783
4242.739056,962.267725,-8273.831378,-1332.370696
4242.739381,1332.370696,-8886.707777,-666.185348
4242.739705,518.144159,-8810.098227,-592.164754
4242.740029,814.226536,-8580.269578,-370.102971
4242.740353,0.000000,-9269.755526,-148.041188
4242.740677,1110.308913,-8120.612279,0.000000
4242.741001,962.267725,-8886.707777,518.144159
4242.741326,1998.556043,-8427.050478,592.164754
4242.741650,1776.494261,-8044.002729,-518.144159
4242.741974,0.000000,-7814.174080,-1628.453072
4242.742298,0.000000,-8656.879127,0.000000
4242.742622,-814.226536,-8503.660028,-740.205942
4242.742946,-444.123565,-9039.926876,-296.082377
4242.743271,-666.185348,-8044.002729,0.000000
4242.743595,888.247130,-8580.269578,-740.205942
4242.743919,1258.350101,-8963.317327,-1184.329507
4242.744243,444.123565,-8733.488677,-1702.473667
4242.744567,1036.288319,-9422.974625,-1332.370696
4242.744891,-1184.329507,-8580.269578,-1184.329507
4242.745216,2146.597232,-9269.755526,-148.041188
4242.745540,1110.308913,-8120.612279,0.000000
4242.745864,2442.679609,-9499.584175,370.102971
4242.746188,2220.617826,-8580.269578,-444.123565
4242.746512,1628.453072,-8963.317327,-740.205942
4242.746836,888.247130,-8503.660028,-740.205942
4242.747161,888.247130,-8197.221829,-888.247130
4242.747485,296.082377,-8656.879127,0.000000
4242.747810,1628.453072,-7890.783629,-592.164754
4242.748135,888.247130,-9499.584175,-222.061783
4242.748459,-222.061783,-8733.488677,0.000000
4242.748783,1776.494261,-9806.022374,74.020594
4242.749107,-1036.288319,-8273.831378,-2072.576638
4242.749432,0.000000,-9652.803275,-518.144159
4242.749756,-518.144159,-7660.954980,-444.123565
4242.750080,-1332.370696,-9652.803275,0.000000
4242.750405,-592.164754,-7814.174080,-370.102971
4242.750729,444.123565,-9269.755526,444.123565
4242.751053,1628.453072,-9039.926876,888.247130
4242.751378,1110.308913,-8044.002729,-444.123565
4242.751702,1480.411884,-8350.440928,-1628.453072
4242.752026,-222.061783,-8044.002729,-444.123565
4242.752350,-814.226536,-7967.393179,74.020594
4242.752675,0.000000,-8580.269578,370.102971
4242.752999,148.041188,-7431.126331,1110.308913
4242.753323,518.144159,-9039.926876,444.123565
4242.753648,-2294.638420,-7890.783629,-814.226536
4242.753972,-370.102971,-10265.679673,-1184.329507
4242.754296,-666.185348,-8197.221829,-1332.370696
4242.754621,-444.123565,-9193.145976,-592.164754
4242.754945,-1998.556043,-7277.907231,1184.329507
4242.755269,2886.803174,-7967.393179,-222.061783
4242.755593,-592.164754,-10035.851024,666.185348
4242.755918,3330.926739,-8503.660028,0.000000
4242.756242,2590.720797,-8120.612279,-370.102971
4242.756566,592.164754,-8810.098227,-1406.391290
4242.756891,74.020594,-9729.412825,148.041188
4242.757215,-1554.432478,-6435.202183,-740.205942
4242.757539,-592.164754,-9959.241474,740.205942
4242.757863,-1258.350101,-7201.297681,-1480.411884
4242.758188,1776.494261,-8886.707777,1332.370696
4242.758512,888.247130,-7431.126331,-1110.308913
4242.758836,1258.350101,-9269.755526,-518.144159
4242.759161,1036.288319,-7277.907231,-1110.308913
4242.759485,-666.185348,-8580.269578,74.020594
4242.759809,-1036.288319,-9806.022374,0.000000
4242.760134,0.000000,-8886.707777,-1702.473667
4242.760458,1110.308913,-9806.022374,518.144159
4242.760782,-1480.411884,-8427.050478,-518.144159
4242.761106,1036.288319,-9959.241474,-814.226536
4242.761431,444.123565,-8503.660028,-444.123565
4242.761755,0.000000,-8197.221829,-370.102971
4242.762079,888.247130,-9039.926876,-1184.329507
4242.762404,592.164754,-7890.783629,-666.185348
4242.762728,1554.432478,-9422.974625,1110.308913
4242.763052,2220.617826,-7354.516781,-888.247130
4242.763377,1110.308913,-9499.584175,-222.061783
4242.763701,1480.411884,-8810.098227,-2368.659014
4242.764025,-148.041188,-9652.803275,-148.041188
4242.764349,-1110.308913,-8580.269578,-370.102971
4242.764674,-1776.494261,-9346.365076,-296.082377
4242.764998,-814.226536,-8733.488677,1110.308913
4242.765322,888.247130,-8273.831378,-74.020594
4242.765647,1850.514855,-9039.926876,148.041188
4242.765971,2886.803174,-8656.879127,-1110.308913
4242.766295,2072.576638,-7814.174080,-1628.453072
4242.766619,1628.453072,-7967.393179,-962.267725
4242.766944,962.267725,-8273.831378,-370.102971
4242.767268,1110.308913,-9039.926876,0.000000
4242.767592,222.061783,-8350.440928,-518.144159
4242.767917,888.247130,-9116.536426,222.061783
4242.768241,-296.082377,-8810.098227,-1184.329507
4242.768565,-74.020594,-8733.488677,0.000000
4242.768890,0.000000,-8427.050478,-666.185348
4242.769214,-962.267725,-8810.098227,-296.082377
4242.769538,296.082377,-9039.926876,-962.267725
4242.769862,-518.144159,-8427.050478,148.041188
4242.770187,1776.494261,-8656.879127,-296.082377
4242.770511,444.123565,-6971.469032,-148.041188
4242.770835,3108.864956,-10035.851024,888.247130
4242.771160,1554.432478,-7507.735880,-888.247130
4242.771484,740.205942,-9116.536426,-888.247130
4242.771808,-148.041188,-8656.879127,-222.061783
4242.772132,222.061783,-8656.879127,-296.082377
4242.772457,-962.267725,-8273.831378,592.164754
4242.772781,-592.164754,-8427.050478,666.185348
4242.773105,1110.308913,-8810.098227,0.000000
4242.773430,222.061783,-8350.440928,-1480.411884
4242.773754,-814.226536,-8656.879127,-518.144159
4242.774078,-1332.370696,-8427.050478,-222.061783
4242.774403,-2294.638420,-8963.317327,-222.061783
4242.774727,444.123565,-8503.660028,0.000000
4242.775051,740.205942,-8273.831378,592.164754
4242.775375,1776.494261,-9499.584175,296.082377
4242.775700,2072.576638,-8197.221829,0.000000
4242.776024,2368.659014,-8810.098227,-518.144159
4242.776348,1332.370696,-7814.174080,-1702.473667
4242.776673,-370.102971,-8580.269578,888.247130
4242.776997,222.061783,-7890.783629,-814.226536
4242.777321,0.000000,-8350.440928,296.082377
4242.777646,1036.288319,-7814.174080,-148.041188
4242.777970,1776.494261,-8273.831378,1036.288319
4242.778294,0.000000,-6971.469032,-888.247130
4242.778618,-518.144159,-7967.393179,-444.123565
4242.778943,148.041188,-9269.755526,-1184.329507
4242.779267,0.000000,-8273.831378,518.144159
4242.779591,-296.082377,-9346.365076,-814.226536
4242.779916,1702.473667,-8427.050478,592.164754
4242.780240,370.102971,-9116.536426,-370.102971
4242.780564,2294.638420,-9806.022374,-222.061783
4242.780888,962.267725,-8656.879127,-814.226536
4242.781213,1850.514855,-8963.317327,-666.185348
4242.781537,-814.226536,-8656.879127,-444.123565
4242.781861,-1332.370696,-7201.297681,0.000000
4242.782186,370.102971,-9652.803275,0.000000
4242.782510,-1332.370696,-6971.469032,-148.041188
4242.782834,0.000000,-9652.803275,370.102971
4242.783159,592.164754,-8197.221829,-1406.391290
4242.783483,518.144159,-9039.926876,-592.164754
4242.783807,-74.020594,-8120.612279,-1184.329507
4242.784131,1184.329507,-8963.317327,518.144159
4242.784456,592.164754,-8656.879127,-222.061783
4242.784780,2146.597232,-9346.365076,-1184.329507
4242.785104,2146.597232,-8580.269578,222.061783
4242.785429,1110.308913,-9499.584175,444.123565
4242.785753,3256.906145,-9652.803275,-1480.411884
4242.786077,1628.453072,-8197.221829,-518.144159
4242.786402,1480.411884,-7507.735880,-518.144159
4242.786726,-1480.411884,-8120.612279,0.000000
4242.787050,-1480.411884,-8350.440928,-518.144159
4242.787374,666.185348,-9039.926876,0.000000
4242.787699,-296.082377,-7431.126331,-296.082377
4242.788023,370.102971,-9576.193725,0.000000
4242.788347,148.041188,-7737.564530,-962.267725
4242.788672,1628.453072,-9346.365076,888.247130
4242.788996,-222.061783,-8044.002729,-1184.329507
4242.789320,222.061783,-9193.145976,296.082377
4242.789644,666.185348,-8044.002729,518.144159
4242.789969,296.082377,-8656.879127,-296.082377
4242.790293,1998.556043,-8733.488677,-148.041188
4242.790617,740.205942,-8427.050478,814.226536
4242.790942,1332.370696,-7814.174080,0.000000
4242.791266,296.082377,-7814.174080,-962.267725
4242.791590,74.020594,-8580.269578,222.061783
4242.791915,1036.288319,-8044.002729,444.123565
4242.792239,-148.041188,-6894.859482,444.123565
4242.792563,370.102971,-9116.536426,1702.473667
4242.792887,2294.638420,-7584.345430,0.000000
4242.793212,1702.473667,-8810.098227,-370.102971
4242.793536,-370.102971,-8963.317327,-1406.391290
4242.793860,1480.411884,-8810.098227,-518.144159
4242.794185,-74.020594,-8656.879127,-370.102971
4242.794509,-814.226536,-8044.002729,-592.164754
4242.794833,1850.514855,-9039.926876,296.082377
4242.795158,0.000000,-7507.735880,222.061783
4242.795482,1554.432478,-9193.145976,888.247130
4242.795806,1850.514855,-7967.393179,-1332.370696
4242.796130,1480.411884,-10035.851024,444.123565
4242.796455,1702.473667,-7048.078582,-296.082377
4242.796779,592.164754,-9806.022374,0.000000
4242.797103,-518.144159,-8503.660028,-1258.350101
4242.797428,-592.164754,-7890.783629,666.185348
4242.797752,962.267725,-7967.393179,-296.082377
4242.798076,-1110.308913,-9116.536426,-1110.308913
4242.798400,-1406.391290,-8733.488677,-1480.411884
4242.798725,-1554.432478,-8503.660028,-814.226536
4242.799049,-1406.391290,-9729.412825,-296.082377
4242.799373,-1406.391290,-8656.879127,-1036.288319
4242.799698,-444.123565,-7431.126331,370.102971
4242.800022,1924.535449,-9422.974625,444.123565
4242.800346,5403.503377,-9269.755526,-518.144159
4242.800671,1924.535449,-7431.126331,-1776.494261
4242.800995,3330.926739,-9422.974625,-222.061783
4242.801319,1258.350101,-6588.421283,-296.082377
4242.801643,962.267725,-10878.556072,-592.164754
4242.801968,0.000000,-8427.050478,-592.164754
4242.802292,-592.164754,-8580.269578,518.144159
4242.802616,0.000000,-7814.174080,-296.082377
4242.802941,-1406.391290,-8963.317327,-1628.453072
4242.803265,222.061783,-8886.707777,-518.144159
4242.803589,-888.247130,-7814.174080,222.061783
4242.803914,-2220.617826,-8886.707777,0.000000
4242.804238,148.041188,-9039.926876,-296.082377
4242.804562,1554.432478,-8580.269578,814.226536
4242.804886,1776.494261,-8427.050478,518.144159
4242.805211,2368.659014,-9652.803275,-1036.288319
4242.805535,592.164754,-9116.536426,-814.226536
4242.805859,814.226536,-7584.345430,-1258.350101
4242.806184,444.123565,-8503.660028,-296.082377
4242.806508,-592.164754,-8427.050478,-740.205942
4242.806832,-370.102971,-9652.803275,296.082377
4242.807156,-518.144159,-7660.954980,-296.082377
4242.807481,296.082377,-9652.803275,1036.288319
4242.807805,1480.411884,-7277.907231,-1406.391290
4242.808129,962.267725,-8886.707777,296.082377
4242.808454,-1480.411884,-7201.297681,-1776.494261
4242.808778,-518.144159,-9652.803275,962.267725
4242.809102,74.020594,-7277.907231,-1036.288319
4242.809427,518.144159,-9806.022374,814.226536
4242.809751,1258.350101,-9039.926876,0.000000
4242.810075,1480.411884,-9039.926876,222.061783
4242.810399,1776.494261,-7354.516781,-1258.350101
4242.810724,0.000000,-8656.879127,0.000000
4242.811048,1110.308913,-7660.954980,-518.144159
4242.811372,0.000000,-7890.783629,1110.308913
4242.811697,0.000000,-7507.735880,74.020594
4242.812021,-148.041188,-7660.954980,666.185348
4242.812345,666.185348,-8044.002729,-962.267725
4242.812669,1110.308913,-10112.460574,148.041188
4242.812994,-370.102971,-7660.954980,-1998.556043
4242.813318,962.267725,-9729.412825,1110.308913
4242.813642,-592.164754,-7814.174080,-1406.391290
4242.813967,-666.185348,-9346.365076,740.205942
4242.814291,962.267725,-8350.440928,-666.185348
4242.814615,444.123565,-8656.879127,0.000000
4242.814940,1554.432478,-8580.269578,0.000000
4242.815264,2220.617826,-8427.050478,-148.041188
4242.815588,3923.091493,-8350.440928,148.041188
4242.815912,-5773.606348,-7660.954980,-962.267725
4242.816237,2960.823768,-10189.070123,1332.370696
4242.816561,0.000000,-6435.202183,-962.267725
4242.816885,1332.370696,-10035.851024,0.000000
4242.817210,-370.102971,-7354.516781,-740.205942
4242.817534,-296.082377,-9499.584175,0.000000
4242.817858,-1480.411884,-8044.002729,0.000000
4242.818183,814.226536,-8963.317327,-1332.370696
4242.818507,-1332.370696,-9806.022374,-592.164754
4242.818831,-666.185348,-6894.859482,-1480.411884
4242.819155,444.123565,-9576.193725,666.185348
4242.819480,222.061783,-7354.516781,-1110.308913
4242.819804,1998.556043,-8580.269578,1110.308913
4242.820128,2368.659014,-7890.783629,-296.082377
4242.820453,222.061783,-8656.879127,0.000000
4242.820777,1702.473667,-8350.440928,-1332.370696
4242.821101,888.247130,-8810.098227,-888.247130
4242.821425,592.164754,-8350.440928,-1036.288319
4242.821750,-740.205942,-9499.584175,888.247130
4242.822074,-1110.308913,-7048.078582,-444.123565
4242.822398,0.000000,-8733.488677,0.000000
4242.822723,0.000000,-7890.783629,-1628.453072
4242.823047,-1110.308913,-9652.803275,-222.061783
4242.823371,-148.041188,-7048.078582,-740.205942
4242.823696,-1776.494261,-9959.241474,-666.185348
4242.824020,2368.659014,-9576.193725,-296.082377
4242.824344,1184.329507,-8350.440928,1184.329507
4242.824668,1628.453072,-9039.926876,-888.247130
4242.824993,1628.453072,-9806.022374,-370.102971
4242.825317,1554.432478,-8350.440928,-1258.350101
4242.825641,-222.061783,-8580.269578,-518.144159
4242.825966,-1036.288319,-8427.050478,0.000000
4242.826290,-666.185348,-9193.145976,0.000000
4242.826614,-1258.350101,-7354.516781,-962.267725
4242.826939,-1776.494261,-8427.050478,370.102971
4242.827263,-370.102971,-8810.098227,148.041188
4242.827587,296.082377,-8503.660028,-1110.308913
4242.827911,444.123565,-7967.393179,-1554.432478
4242.828236,148.041188,-8963.317327,444.123565
4242.828560,-592.164754,-8350.440928,-814.226536
4242.828884,592.164754,-9346.365076,222.061783
4242.829209,1332.370696,-8963.317327,0.000000
4242.829533,1628.453072,-8656.879127,-222.061783
4242.829857,2368.659014,-9039.926876,74.020594
4242.830181,888.247130,-7814.174080,-296.082377
4242.830506,1850.514855,-8503.660028,-444.123565
4242.830830,370.102971,-7354.516781,0.000000
4242.831154,-666.185348,-8503.660028,518.144159
4242.831479,-592.164754,-8273.831378,0.000000
4242.831803,0.000000,-7814.174080,222.061783
4242.832127,2442.679609,-9116.536426,0.000000
4242.832452,1036.288319,-7737.564530,-962.267725
4242.832776,888.247130,-9499.584175,-666.185348
4242.833100,0.000000,-9193.145976,-962.267725
4242.833424,0.000000,-8656.879127,-962.267725
4242.833749,1110.308913,-8733.488677,518.144159
4242.834073,1480.411884,-8044.002729,444.123565
4242.834397,518.144159,-8503.660028,222.061783
4242.834722,1406.391290,-8810.098227,-666.185348
4242.835046,2368.659014,-9346.365076,296.082377
4242.835370,222.061783,-8197.221829,-888.247130
4242.835695,-222.061783,-8350.440928,0.000000
4242.836019,-1332.370696,-7660.954980,-1406.391290
4242.836343,0.000000,-8810.098227,-444.123565
4242.836667,222.061783,-7967.393179,0.000000
4242.836992,444.123565,-8656.879127,-148.041188
4242.837316,1554.432478,-8886.707777,-962.267725
4242.837640,962.267725,-9652.803275,-148.041188
4242.837965,-1406.391290,-8120.612279,-666.185348
4242.838289,-1554.432478,-9269.755526,-888.247130
4242.838613,74.020594,-8963.317327,-814.226536
4242.838937,444.123565,-8963.317327,74.020594
4242.839262,592.164754,-8350.440928,-592.164754
4242.839586,814.226536,-9193.145976,-222.061783
4242.839910,0.000000,-7660.954980,-888.247130
4242.840235,1628.453072,-8810.098227,-370.102971
4242.840559,1406.391290,-7890.783629,-888.247130
4242.840883,1554.432478,-8503.660028,-740.205942
4242.841208,1924.535449,-8886.707777,-592.164754
4242.841532,666.185348,-8810.098227,518.144159
4242.841856,1258.350101,-7967.393179,-888.247130
4242.842180,888.247130,-8963.317327,-592.164754
4242.842505,-370.102971,-8733.488677,-1554.432478
4242.842829,0.000000,-8733.488677,444.123565
4242.843153,-222.061783,-8580.269578,-296.082377
4242.843478,0.000000,-8580.269578,-1110.308913
4242.843802,296.082377,-9193.145976,0.000000
4242.844126,148.041188,-7507.735880,-222.061783
4242.844451,2220.617826,-7660.954980,0.000000
4242.844775,1258.350101,-9039.926876,-962.267725
4242.845099,2368.659014,-8810.098227,-814.226536
4242.845423,148.041188,-8350.440928,-444.123565
4242.845748,444.123565,-8810.098227,0.000000
4242.846072,0.000000,-8120.612279,-888.247130
4242.846396,814.226536,-8656.879127,222.061783
4242.846721,-296.082377,-8810.098227,-222.061783
4242.847045,-296.082377,-8273.831378,-518.144159
4242.847369,-222.061783,-9422.974625,518.144159
4242.847693,-962.267725,-7737.564530,-814.226536
4242.848018,-1702.473667,-9193.145976,740.205942
4242.848342,-370.102971,-8197.221829,-1406.391290
4242.848666,2368.659014,-8197.221829,-444.123565
4242.848991,1924.535449,-7201.297681,-296.082377
4242.849315,444.123565,-9116.536426,444.123565
4242.849639,2960.823768,-8197.221829,-148.041188
4242.849963,3034.844362,-8733.488677,-222.061783
4242.850287,222.061783,-10189.070123,-370.102971
4242.850612,0.000000,-7737.564530,0.000000
4242.850936,0.000000,-8733.488677,518.144159
4242.851260,0.000000,-7814.174080,-1258.350101
4242.851584,1036.288319,-8580.269578,814.226536
4242.851909,-1184.329507,-7201.297681,592.164754
4242.852233,888.247130,-8044.002729,148.041188
4242.852557,74.020594,-8580.269578,-370.102971
4242.852881,1776.494261,-9193.145976,-222.061783
4242.853206,0.000000,-8120.612279,148.041188
4242.853530,0.000000,-8503.660028,-222.061783
4242.853854,0.000000,-9269.755526,592.164754
4242.854178,2442.679609,-7814.174080,-1258.350101
4242.854503,2812.782580,-10265.679673,444.123565
4242.854827,0.000000,-7431.126331,-1554.432478
4242.855151,2146.597232,-8656.879127,296.082377
4242.855475,-148.041188,-7431.126331,-962.267725
4242.855800,148.041188,-9806.022374,-592.164754
4242.856124,-1628.453072,-9422.974625,-148.041188
4242.856448,-814.226536,-8273.831378,1184.329507
4242.856772,962.267725,-6665.030833,-2886.803174
4242.857097,-1702.473667,-11338.213370,0.000000
4242.857421,-666.185348,-6665.030833,-740.205942
4242.857745,-148.041188,-9193.145976,-370.102971
4242.858069,222.061783,-8810.098227,-962.267725
4242.858394,592.164754,-9882.631924,74.020594
4242.858718,1258.350101,-8197.221829,-148.041188
4242.859042,592.164754,-9652.803275,148.041188
4242.859366,2590.720797,-8197.221829,-1406.391290
4242.859691,2590.720797,-8810.098227,-222.061783
4242.860015,2294.638420,-7814.174080,-814.226536
4242.860339,1480.411884,-9576.193725,0.000000
4242.860663,3404.947333,-9269.755526,-370.102971
4242.860988,-2812.782580,-7354.516781,-1258.350101
4242.861312,-518.144159,-9806.022374,1776.494261
4242.861636,2220.617826,-7124.688131,-1480.411884
4242.861960,-888.247130,-9039.926876,-518.144159
4242.862285,1110.308913,-7967.393179,-1554.432478
4242.862609,-2368.659014,-9116.536426,-1702.473667
4242.862933,-2368.659014,-9116.536426,814.226536
4242.863257,296.082377,-9193.145976,-1110.308913
4242.863582,1258.350101,-9806.022374,666.185348
4242.863906,-370.102971,-8197.221829,-888.247130
4242.864230,2812.782580,-8733.488677,296.082377
4242.864554,444.123565,-8427.050478,-962.267725
4242.864879,1036.288319,-8810.098227,0.000000
4242.865203,1480.411884,-7814.174080,-1110.308913
4242.865527,-1628.453072,-8427.050478,74.020594
4242.865851,-888.247130,-8120.612279,-888.247130
4242.866176,-1110.308913,-8656.879127,518.144159
4242.866500,-148.041188,-8810.098227,-148.041188
4242.866824,962.267725,-8427.050478,296.082377
4242.867148,518.144159,-7584.345430,-444.123565
4242.867473,148.041188,-8044.002729,-592.164754
4242.867797,0.000000,-8580.269578,222.061783
4242.868121,1480.411884,-8197.221829,0.000000
4242.868445,1480.411884,-7507.735880,814.226536
4242.868770,1776.494261,-9193.145976,0.000000
4242.869094,2960.823768,-9346.365076,74.020594
4242.869418,962.267725,-7814.174080,-518.144159
4242.869742,-1110.308913,-8580.269578,0.000000
4242.870066,-444.123565,-7124.688131,-296.082377
4242.870391,740.205942,-8580.269578,592.164754
4242.870715,0.000000,-7584.345430,0.000000
4242.871039,740.205942,-8886.707777,148.041188
4242.871363,1406.391290,-7890.783629,370.102971
4242.871688,1776.494261,-9346.365076,148.041188
4242.872012,0.000000,-7431.126331,0.000000
4242.872336,1184.329507,-8886.707777,-296.082377
4242.872660,-1406.391290,-8350.440928,222.061783
4242.872985,-814.226536,-8886.707777,-1036.288319
4242.873309,-370.102971,-10035.851024,-296.082377
4242.873633,1110.308913,-8350.440928,-1036.288319
4242.873957,-1480.411884,-9116.536426,592.164754
4242.874282,1628.453072,-8044.002729,-814.226536
4242.874606,962.267725,-8580.269578,-518.144159
4242.874930,518.144159,-7277.907231,-518.144159
4242.875254,518.144159,-8503.660028,-444.123565
4242.875579,-592.164754,-8733.488677,-370.102971
4242.875903,814.226536,-9422.974625,-518.144159
4242.876227,1332.370696,-7660.954980,-370.102971
4242.876551,-222.061783,-9193.145976,-518.144159
4242.876876,1628.453072,-9193.145976,-1184.329507
4242.877200,0.000000,-9116.536426,-1332.370696
4242.877524,-222.061783,-9346.365076,-1258.350101
4242.877848,0.000000,-9116.536426,-592.164754
4242.878173,74.020594,-8886.707777,0.000000
4242.878497,518.144159,-8886.707777,-1184.329507
4242.878821,888.247130,-9959.241474,-222.061783
4242.879145,1480.411884,-9422.974625,-740.205942
4242.879470,-444.123565,-8580.269578,-1332.370696
4242.879794,1480.411884,-9422.974625,-444.123565
4242.880118,888.247130,-8427.050478,-518.144159
4242.880442,148.041188,-8810.098227,-592.164754
4242.880767,0.000000,-8580.269578,-518.144159
4242.881091,74.020594,-9116.536426,-370.102971
4242.881415,518.144159,-8427.050478,-370.102971
4242.881739,1184.329507,-8656.879127,-592.164754
4242.882064,-666.185348,-9499.584175,-1036.288319
4242.882388,-1036.288319,-9346.365076,-518.144159
4242.882712,-666.185348,-9116.536426,-592.164754
4242.883036,-1850.514855,-9422.974625,-592.164754
4242.883361,-1036.288319,-7507.735880,0.000000
4242.883685,74.020594,-8273.831378,74.020594
4242.884009,1554.432478,-8656.879127,740.205942
4242.884333,1998.556043,-7431.126331,-296.082377
4242.884658,2294.638420,-8503.660028,-740.205942
4242.884982,296.082377,-8427.050478,592.164754
4242.885306,1406.391290,-8503.660028,-370.102971
4242.885630,518.144159,-9193.145976,0.000000
4242.885955,222.061783,-7507.735880,222.061783
4242.886279,1628.453072,-8503.660028,1110.308913
4242.886603,1036.288319,-7890.783629,-1036.288319
4242.886927,-444.123565,-7890.783629,0.000000
4242.887252,-2368.659014,-8427.050478,0.000000
4242.887576,-3552.988522,-9039.926876,222.061783
4242.887900,-1036.288319,-9039.926876,-296.082377
4242.888224,148.041188,-8886.707777,0.000000
4242.888549,0.000000,-8963.317327,-444.123565
4242.888873,1258.350101,-7814.174080,-296.082377
4242.889197,2294.638420,-8580.269578,296.082377
4242.889521,1110.308913,-8656.879127,-518.144159
4242.889845,1998.556043,-8580.269578,-592.164754
4242.890170,296.082377,-7814.174080,444.123565
4242.890494,-370.102971,-7967.393179,296.082377
