#time,accel_x,accel_y,accel_z
4202.582378,740.205942,-8656.879127,-518.144159
4202.582702,444.123565,-8733.488677,-370.102971
4202.583026,592.164754,-8427.050478,-148.041188
4202.583350,296.082377,-8733.488677,-296.082377
4202.583674,444.123565,-8427.050478,-444.123565
4202.583999,518.144159,-8503.660028,-148.041188
4202.584323,222.061783,-8197.221829,-740.205942
4202.584647,518.144159,-8810.098227,-592.164754
4202.584971,666.185348,-8656.879127,-444.123565
4202.585295,296.082377,-8503.660028,-222.061783
4202.585619,666.185348,-8656.879127,-740.205942
4202.585943,222.061783,-8810.098227,-370.102971
4202.586267,444.123565,-8656.879127,-370.102971
4202.586592,222.061783,-8503.660028,0.000000
4202.586916,666.185348,-8580.269578,-444.123565
4202.587240,296.082377,-8580.269578,-222.061783
4202.587564,444.123565,-8503.660028,-666.185348
4202.587888,518.144159,-8427.050478,-518.144159
4202.588212,518.144159,-8886.707777,-222.061783
4202.588536,1036.288319,-8656.879127,0.000000
4202.588860,444.123565,-8427.050478,-592.164754
4202.589185,444.123565,-8963.317327,-296.082377
4202.589509,592.164754,-8656.879127,-370.102971
4202.589833,666.185348,-8503.660028,-740.205942
4202.590157,222.061783,-8733.488677,-370.102971
4202.590481,296.082377,-8733.488677,-444.123565
4202.590805,518.144159,-8656.879127,-444.123565
4202.591129,444.123565,-8656.879127,-444.123565
4202.591453,592.164754,-8656.879127,-370.102971
4202.591778,444.123565,-8810.098227,-296.082377
4202.592102,666.185348,-8656.879127,-296.082377
4202.592426,0.000000,-8503.660028,0.000000
4202.592750,444.123565,-8810.098227,-296.082377
4202.593074,592.164754,-8273.831378,-814.226536
4202.593398,444.123565,-8580.269578,-148.041188
4202.593722,444.123565,-8273.831378,0.000000
4202.594046,518.144159,-9193.145976,-222.061783
4202.594371,222.061783,-8733.488677,-222.061783
4202.594695,370.102971,-8503.660028,-222.061783
4202.595019,518.144159,-8503.660028,-444.123565
4202.595343,444.123565,-8656.879127,-296.082377
4202.595667,296.082377,-8350.440928,-296.082377
4202.595991,518.144159,-8656.879127,-666.185348
4202.596315,444.123565,-8656.879127,-518.144159
4202.596639,370.102971,-8733.488677,-148.041188
4202.596964,0.000000,-8120.612279,-222.061783
4202.597288,444.123565,-8427.050478,-444.123565
4202.597612,222.061783,-8810.098227,-148.041188
4202.597936,222.061783,-8580.269578,0.000000
4202.598260,296.082377,-8503.660028,-962.267725
4202.598584,296.082377,-9039.926876,-370.102971
4202.598908,666.185348,-8197.221829,-148.041188
4202.599232,74.020594,-8733.488677,-370.102971
4202.599557,296.082377,-8733.488677,-222.061783
4202.599881,74.020594,-8197.221829,-444.123565
4202.600205,518.144159,-8656.879127,-518.144159
4202.600529,370.102971,-8810.098227,-222.061783
4202.600853,296.082377,-8427.050478,-296.082377
4202.601177,-666.185348,-8656.879127,-888.247130
4202.601501,-814.226536,-8580.269578,-444.123565
4202.601825,-814.226536,-8963.317327,-296.082377
4202.602150,-1702.473667,-8197.221829,-888.247130
4202.602474,-1628.453072,-8733.488677,-370.102971
4202.602798,-2146.597232,-8044.002729,0.000000
4202.603122,-1480.411884,-8580.269578,-222.061783
4202.603446,-1110.308913,-8273.831378,-888.247130
4202.603770,-1036.288319,-8810.098227,0.000000
4202.604094,-740.205942,-8044.002729,-666.185348
4202.604418,-1406.391290,-8886.707777,-296.082377
4202.604743,-2146.597232,-8580.269578,-666.185348
4202.605067,-2664.741391,-8503.660028,-444.123565
4202.605391,-3108.864956,-9346.365076,-518.144159
4202.605715,-3330.926739,-8886.707777,-74.020594
4202.606039,-3330.926739,-8427.050478,-222.061783
4202.606363,-3034.844362,-8733.488677,-370.102971
4202.606687,-2442.679609,-8580.269578,-740.205942
4202.607011,-1998.556043,-8580.269578,-444.123565
4202.607336,-1776.494261,-8810.098227,-296.082377
4202.607660,-2368.659014,-8427.050478,-222.061783
4202.607984,-2664.741391,-8886.707777,-740.205942
4202.608308,-2738.761985,-9346.365076,-444.123565
4202.608632,-3552.988522,-8886.707777,-148.041188
4202.608956,-3627.009116,-9422.974625,0.000000
4202.609280,-3404.947333,-8810.098227,-518.144159
4202.609604,-3478.967927,-9499.584175,0.000000
4202.609929,-2812.782580,-8580.269578,-296.082377
4202.610253,-2442.679609,-8656.879127,-370.102971
4202.610577,-1850.514855,-8733.488677,-370.102971
4202.610901,-2146.597232,-8580.269578,0.000000
4202.611225,-2368.659014,-8427.050478,-370.102971
4202.611549,-2368.659014,-8886.707777,-444.123565
4202.611873,-2516.700203,-8273.831378,-296.082377
4202.612197,-2516.700203,-8580.269578,-222.061783
4202.612522,-2368.659014,-9116.536426,-222.061783
4202.612846,-2368.659014,-8350.440928,0.000000
4202.613170,-1998.556043,-8810.098227,0.000000
4202.613494,-1332.370696,-8427.050478,-888.247130
4202.613818,-1184.329507,-9346.365076,-518.144159
4202.614142,-1184.329507,-8350.440928,-888.247130
4202.614466,-1406.391290,-8656.879127,-370.102971
4202.614791,-1924.535449,-8044.002729,-666.185348
4202.615115,-2516.700203,-8350.440928,-296.082377
4202.615439,-2368.659014,-8350.440928,-444.123565
4202.615763,-2590.720797,-8197.221829,-370.102971
4202.616087,-2368.659014,-8503.660028,-518.144159
4202.616411,-2072.576638,-8044.002729,-444.123565
4202.616735,-962.267725,-8810.098227,0.000000
4202.617059,-592.164754,-8273.831378,-888.247130
4202.617384,148.041188,-8120.612279,-814.226536
4202.617708,592.164754,-8350.440928,-592.164754
4202.618032,444.123565,-8197.221829,-518.144159
4202.618356,296.082377,-8580.269578,-444.123565
4202.618680,74.020594,-8580.269578,-296.082377
4202.619004,-444.123565,-8503.660028,-148.041188
4202.619328,0.000000,-8810.098227,-370.102971
4202.619652,444.123565,-9116.536426,-592.164754
4202.619977,888.247130,-8580.269578,-296.082377
4202.620301,1406.391290,-8810.098227,-296.082377
4202.620625,1628.453072,-8810.098227,-814.226536
4202.620949,1628.453072,-9269.755526,-888.247130
4202.621273,1332.370696,-8886.707777,-518.144159
4202.621597,740.205942,-8733.488677,-592.164754
4202.621921,-370.102971,-9729.412825,-740.205942
4202.622245,-1628.453072,-9346.365076,0.000000
4202.622570,-2812.782580,-9116.536426,-592.164754
4202.622894,-3552.988522,-9116.536426,-592.164754
4202.623218,-3404.947333,-8733.488677,-370.102971
4202.623542,-3627.009116,-9039.926876,-444.123565
4202.623866,-2516.700203,-8580.269578,-1406.391290
4202.624190,-2590.720797,-8427.050478,-1110.308913
4202.624514,-2072.576638,-8656.879127,-592.164754
4202.624838,-1554.432478,-8273.831378,-814.226536
4202.625163,-1776.494261,-8656.879127,-222.061783
4202.625487,-1332.370696,-8733.488677,-666.185348
4202.625811,-1776.494261,-9039.926876,0.000000
4202.626135,-1702.473667,-8963.317327,-518.144159
4202.626459,-1850.514855,-9576.193725,0.000000
4202.626783,-2072.576638,-8580.269578,-148.041188
4202.627107,-2072.576638,-9193.145976,-222.061783
4202.627431,-1480.411884,-8810.098227,-296.082377
4202.627756,-1258.350101,-8503.660028,-740.205942
4202.628080,-814.226536,-8810.098227,148.041188
4202.628404,-814.226536,-8580.269578,-518.144159
4202.628728,-1332.370696,-8656.879127,-666.185348
4202.629052,-2368.659014,-8503.660028,74.020594
4202.629376,-3256.906145,-8733.488677,222.061783
4202.629700,-4367.215058,-8886.707777,-222.061783
4202.630024,-4737.318029,-8350.440928,222.061783
4202.630349,-4367.215058,-8656.879127,296.082377
4202.630673,-3182.885551,-8580.269578,222.061783
4202.630997,-2294.638420,-8503.660028,74.020594
4202.631321,-740.205942,-8656.879127,0.000000
4202.631645,518.144159,-8273.831378,222.061783
4202.631969,-74.020594,-8120.612279,74.020594
4202.632293,592.164754,-9652.803275,888.247130
4202.632617,-740.205942,-8963.317327,-370.102971
4202.632942,-2812.782580,-8733.488677,518.144159
4202.633266,-4737.318029,-9039.926876,666.185348
4202.633590,-3849.070898,-10189.070123,-518.144159
4202.633914,-5551.544565,-8886.707777,222.061783
4202.634238,-5329.482782,-8810.098227,-370.102971
4202.634562,-4367.215058,-8197.221829,-592.164754
4202.634886,-3478.967927,-7431.126331,-370.102971
4202.635210,-1776.494261,-8427.050478,0.000000
4202.635535,1036.288319,-7584.345430,296.082377
4202.635859,2072.576638,-7814.174080,-1110.308913
4202.636183,2368.659014,-8120.612279,296.082377
4202.636507,2220.617826,-7354.516781,222.061783
4202.636831,2738.761985,-8580.269578,296.082377
4202.637155,2294.638420,-8810.098227,-296.082377
4202.637479,0.000000,-9039.926876,-222.061783
4202.637803,-1332.370696,-9346.365076,-740.205942
4202.638128,-2886.803174,-8963.317327,-1628.453072
4202.638452,-4811.338623,-9116.536426,-2072.576638
4202.638776,-4515.256246,-8733.488677,-1554.432478
4202.639100,-4145.153275,-8273.831378,-1998.556043
4202.639424,-3256.906145,-8044.002729,-1184.329507
4202.639748,-814.226536,-7660.954980,-962.267725
4202.640072,296.082377,-7737.564530,-592.164754
4202.640396,3627.009116,-8580.269578,0.000000
4202.640721,6513.812290,-9039.926876,-296.082377
4202.641045,4811.338623,-9346.365076,-296.082377
4202.641369,2368.659014,-9806.022374,-740.205942
4202.641693,-1036.288319,-9499.584175,-592.164754
4202.642017,-3404.947333,-10265.679673,-370.102971
4202.642341,-4885.359217,-10265.679673,-1480.411884
4202.642666,-8586.388927,-9576.193725,-740.205942
4202.642990,-6883.915261,-7507.735880,-888.247130
4202.643315,-4811.338623,-7967.393179,-1628.453072
4202.643639,-1184.329507,-7814.174080,-814.226536
4202.643963,2738.761985,-6818.249932,-1258.350101
4202.644288,6217.729913,-7354.516781,0.000000
4202.644612,7031.956449,-7431.126331,-592.164754
4202.644937,6439.791695,-9039.926876,74.020594
4202.645261,2516.700203,-9422.974625,-1184.329507
4202.645585,-2886.803174,-11721.261119,-1332.370696
4202.645910,-6217.729913,-11414.822920,-1184.329507
4202.646234,-10066.800811,-10418.898773,-962.267725
4202.646558,-12657.521608,-9499.584175,296.082377
4202.646883,-11399.171507,-7277.907231,-296.082377
4202.647207,-6957.935855,-7431.126331,0.000000
4202.647532,-1406.391290,-6741.640382,-666.185348
4202.647856,3997.112087,-5975.544884,-370.102971
4202.648180,7328.038826,-6281.983084,74.020594
4202.648505,7624.121203,-7124.688131,518.144159
4202.648829,7402.059420,-8963.317327,666.185348
4202.649153,2368.659014,-10189.070123,740.205942
4202.649478,-2590.720797,-10878.556072,518.144159
4202.649802,-7105.977043,-11874.480219,518.144159
4202.650127,-11769.274478,-11721.261119,296.082377
4202.650451,-11325.150913,-10955.165621,1036.288319
4202.650775,-10510.924376,-8197.221829,-592.164754
4202.651100,-4885.359217,-8044.002729,370.102971
4202.651424,-370.102971,-5439.278036,-1702.473667
4202.651748,2812.782580,-7048.078582,-444.123565
4202.652073,3923.091493,-5745.716235,-1184.329507
4202.652397,4071.132681,-7277.907231,0.000000
4202.652722,888.247130,-6665.030833,444.123565
4202.653046,-1776.494261,-8503.660028,1406.391290
4202.653370,-5551.544565,-9346.365076,592.164754
4202.653695,-5551.544565,-10342.289223,1184.329507
4202.654019,-5551.544565,-9959.241474,74.020594
4202.654343,-3923.091493,-10648.727422,814.226536
4202.654668,-2220.617826,-8197.221829,-1258.350101
4202.654992,1702.473667,-8503.660028,-518.144159
4202.655317,2738.761985,-6358.592633,-1850.514855
4202.655641,4589.276840,-7048.078582,-222.061783
4202.655965,5181.441594,-6818.249932,-296.082377
4202.656290,3182.885551,-7124.688131,0.000000
4202.656614,3627.009116,-8273.831378,1776.494261
4202.656938,2294.638420,-8044.002729,666.185348
4202.657263,1480.411884,-10035.851024,-222.061783
4202.657587,370.102971,-10112.460574,-1406.391290
4202.657912,0.000000,-10189.070123,-1110.308913
4202.658236,-1924.535449,-10112.460574,-1628.453072
4202.658560,-1036.288319,-9422.974625,-2442.679609
4202.658885,-1998.556043,-8273.831378,-2146.597232
4202.659209,666.185348,-7814.174080,-74.020594
4202.659533,1332.370696,-6435.202183,296.082377
4202.659858,4145.153275,-7048.078582,592.164754
4202.660182,5255.462188,-6588.421283,296.082377
4202.660507,5477.523971,-7660.954980,296.082377
4202.660831,4589.276840,-8120.612279,-1332.370696
4202.661155,2368.659014,-9806.022374,-1258.350101
4202.661480,-370.102971,-9729.412825,-2146.597232
4202.661804,-1998.556043,-10725.336972,-2220.617826
4202.662128,-592.164754,-10112.460574,-2368.659014
4202.662453,296.082377,-10342.289223,-1480.411884
4202.662777,1776.494261,-8580.269578,-370.102971
4202.663102,4441.235652,-7814.174080,-888.247130
4202.663426,5699.585753,-8350.440928,74.020594
4202.663750,6883.915261,-8656.879127,-740.205942
4202.664075,4959.379811,-7354.516781,0.000000
4202.664399,1998.556043,-7507.735880,-74.020594
4202.664724,444.123565,-7967.393179,-666.185348
4202.665048,-74.020594,-9422.974625,148.041188
4202.665372,-370.102971,-7507.735880,-1628.453072
4202.665697,-444.123565,-9882.631924,-1406.391290
4202.666021,-888.247130,-8810.098227,-1702.473667
4202.666345,888.247130,-10648.727422,-518.144159
4202.666670,444.123565,-9039.926876,-296.082377
4202.666994,962.267725,-8886.707777,74.020594
4202.667319,-222.061783,-8120.612279,-222.061783
4202.667643,0.000000,-8580.269578,1184.329507
4202.667967,-296.082377,-8580.269578,0.000000
4202.668292,-1332.370696,-7890.783629,296.082377
4202.668616,-740.205942,-8197.221829,0.000000
4202.668940,-592.164754,-8273.831378,222.061783
4202.669265,-962.267725,-9806.022374,-592.164754
4202.669589,-1184.329507,-9576.193725,-1184.329507
4202.669914,-2442.679609,-10418.898773,-518.144159
4202.670238,-3404.947333,-8963.317327,-592.164754
4202.670562,-3330.926739,-10878.556072,740.205942
4202.670887,-4737.318029,-7967.393179,666.185348
4202.671211,-3182.885551,-8656.879127,1776.494261
4202.671535,-1850.514855,-6818.249932,1110.308913
4202.671860,666.185348,-6894.859482,1776.494261
4202.672184,1998.556043,-7354.516781,296.082377
4202.672509,2664.741391,-8273.831378,0.000000
4202.672833,3256.906145,-7890.783629,-740.205942
4202.673157,1998.556043,-8733.488677,-1480.411884
4202.673482,592.164754,-10112.460574,0.000000
4202.673806,-962.267725,-9269.755526,148.041188
4202.674130,-4071.132681,-9499.584175,888.247130
4202.674455,-3923.091493,-8656.879127,962.267725
4202.674779,-296.082377,-8503.660028,1332.370696
4202.675104,296.082377,-8427.050478,148.041188
4202.675428,1480.411884,-8580.269578,-740.205942
4202.675752,962.267725,-7737.564530,-518.144159
4202.676077,370.102971,-7354.516781,-740.205942
4202.676401,-444.123565,-7354.516781,-1036.288319
4202.676725,-592.164754,-8120.612279,-370.102971
4202.677050,-296.082377,-8197.221829,0.000000
4202.677374,-666.185348,-7660.954980,222.061783
4202.677699,814.226536,-8120.612279,222.061783
4202.678023,592.164754,-9193.145976,740.205942
4202.678347,1998.556043,-11031.775171,0.000000
4202.678672,3404.947333,-10035.851024,-1332.370696
4202.678996,1924.535449,-8656.879127,0.000000
4202.679320,1332.370696,-7354.516781,-962.267725
4202.679645,2146.597232,-9269.755526,-740.205942
4202.679969,2072.576638,-7967.393179,-2072.576638
4202.680294,2294.638420,-7431.126331,-666.185348
4202.680618,3627.009116,-7507.735880,-1036.288319
4202.680942,3701.029710,-8580.269578,-1406.391290
4202.681267,3478.967927,-9346.365076,-518.144159
4202.681591,2812.782580,-9039.926876,-1406.391290
4202.681915,1702.473667,-10418.898773,-1776.494261
4202.682240,-370.102971,-8733.488677,-1702.473667
4202.682564,-296.082377,-9882.631924,-518.144159
4202.682889,-962.267725,-8810.098227,-962.267725
4202.683213,1628.453072,-8044.002729,0.000000
4202.683537,2072.576638,-7354.516781,-888.247130
4202.683862,4737.318029,-7584.345430,-1406.391290
4202.684186,5625.565159,-8120.612279,-1480.411884
4202.684510,4219.173869,-7814.174080,-962.267725
4202.684835,3627.009116,-8120.612279,-1036.288319
4202.685159,1924.535449,-8427.050478,-740.205942
4202.685484,444.123565,-9882.631924,-666.185348
4202.685808,-1776.494261,-9269.755526,74.020594
4202.686132,-1184.329507,-9269.755526,-888.247130
4202.686457,-2368.659014,-9269.755526,-740.205942
4202.686781,1110.308913,-9576.193725,-370.102971
4202.687106,2220.617826,-9039.926876,-740.205942
4202.687430,1554.432478,-8656.879127,74.020594
4202.687754,1184.329507,-8350.440928,-1332.370696
4202.688079,444.123565,-8580.269578,-518.144159
4202.688403,-888.247130,-8044.002729,-518.144159
4202.688727,-1406.391290,-8120.612279,222.061783
4202.689052,-3330.926739,-7431.126331,1110.308913
4202.689376,-2220.617826,-8503.660028,2072.576638
4202.689701,814.226536,-8886.707777,1110.308913
4202.690025,148.041188,-8886.707777,370.102971
4202.690349,2072.576638,-9422.974625,0.000000
4202.690674,1554.432478,-9039.926876,-148.041188
4202.690998,740.205942,-9652.803275,-1258.350101
4202.691322,-740.205942,-8350.440928,222.061783
4202.691647,-1184.329507,-8656.879127,1184.329507
4202.691971,-2960.823768,-8273.831378,1036.288319
4202.692296,-2072.576638,-7890.783629,518.144159
4202.692620,-962.267725,-8273.831378,1110.308913
4202.692944,222.061783,-8503.660028,0.000000
4202.693269,1036.288319,-8656.879127,444.123565
4202.693593,-4515.256246,-8273.831378,592.164754
4202.693917,518.144159,-9039.926876,0.000000
4202.694242,-2516.700203,-8197.221829,0.000000
4202.694566,-2812.782580,-9346.365076,592.164754
4202.694891,-1258.350101,-7354.516781,148.041188
4202.695215,-1554.432478,-8427.050478,296.082377
4202.695539,148.041188,-7277.907231,888.247130
4202.695864,1776.494261,-8350.440928,0.000000
4202.696188,1776.494261,-9576.193725,1258.350101
4202.696512,2146.597232,-7354.516781,-740.205942
4202.696837,1702.473667,-7967.393179,0.000000
4202.697161,518.144159,-8503.660028,-1036.288319
4202.697486,148.041188,-8886.707777,444.123565
4202.697810,74.020594,-8044.002729,-740.205942
4202.698134,-1628.453072,-9193.145976,-1406.391290
4202.698459,148.041188,-8810.098227,-148.041188
4202.698783,1924.535449,-8733.488677,-740.205942
4202.699107,2220.617826,-9269.755526,-1332.370696
4202.699432,2442.679609,-9269.755526,-666.185348
4202.699756,1998.556043,-8044.002729,-1850.514855
4202.700081,592.164754,-8733.488677,-962.267725
4202.700405,1480.411884,-8120.612279,-592.164754
4202.700729,814.226536,-8656.879127,-148.041188
4202.701054,1702.473667,-7890.783629,-592.164754
4202.701378,3108.864956,-7814.174080,-592.164754
4202.701702,2960.823768,-7890.783629,-962.267725
4202.702027,3034.844362,-9269.755526,-740.205942
4202.702351,2812.782580,-9422.974625,-2146.597232
4202.702676,2294.638420,-10035.851024,-1184.329507
4202.703000,1332.370696,-7890.783629,-888.247130
4202.703324,222.061783,-9269.755526,-666.185348
4202.703649,148.041188,-9269.755526,-1110.308913
4202.703973,-888.247130,-9039.926876,-296.082377
4202.704297,2738.761985,-9039.926876,-962.267725
4202.704622,2812.782580,-7814.174080,-888.247130
4202.704946,3701.029710,-8963.317327,-1110.308913
4202.705271,2812.782580,-8580.269578,-1776.494261
4202.705595,1110.308913,-9269.755526,-1258.350101
4202.705919,-1332.370696,-8503.660028,-2146.597232
4202.706244,-1554.432478,-9116.536426,-222.061783
4202.706568,-4219.173869,-7737.564530,-888.247130
4202.706892,-3256.906145,-9269.755526,370.102971
4202.707217,-1258.350101,-7584.345430,0.000000
4202.707541,296.082377,-8656.879127,222.061783
4202.707866,2442.679609,-8044.002729,-518.144159
4202.708190,3775.050304,-8886.707777,-222.061783
4202.708514,3182.885551,-8656.879127,-814.226536
4202.708839,2886.803174,-7890.783629,-592.164754
4202.709163,0.000000,-8963.317327,666.185348
4202.709488,-962.267725,-8963.317327,-296.082377
4202.709812,-1924.535449,-8733.488677,296.082377
4202.710136,-2072.576638,-8503.660028,0.000000
4202.710461,-1480.411884,-9806.022374,296.082377
4202.710785,-518.144159,-9193.145976,0.000000
4202.711109,-888.247130,-8886.707777,592.164754
4202.711434,-1332.370696,-8733.488677,0.000000
4202.711758,-888.247130,-8580.269578,0.000000
4202.712083,-2072.576638,-8427.050478,-222.061783
4202.712407,-1480.411884,-8044.002729,666.185348
4202.712731,-1480.411884,-6741.640382,1258.350101
4202.713056,-222.061783,-8350.440928,1184.329507
4202.713380,740.205942,-7660.954980,444.123565
4202.713704,592.164754,-8427.050478,740.205942
4202.714029,1036.288319,-8503.660028,1110.308913
4202.714353,-518.144159,-7967.393179,-740.205942
4202.714678,-888.247130,-10418.898773,740.205942
4202.715002,-296.082377,-7354.516781,-444.123565
4202.715326,-2590.720797,-8350.440928,888.247130
4202.715651,-962.267725,-8503.660028,592.164754
4202.715975,370.102971,-8733.488677,222.061783
4202.716299,2368.659014,-8273.831378,-370.102971
4202.716624,2072.576638,-8656.879127,0.000000
4202.716948,1776.494261,-7584.345430,-1036.288319
4202.717273,1184.329507,-9499.584175,-444.123565
4202.717597,518.144159,-8197.221829,-592.164754
4202.717921,-1332.370696,-8197.221829,0.000000
4202.718246,-1998.556043,-8120.612279,-1554.432478
4202.718570,-518.144159,-9882.631924,888.247130
4202.718894,370.102971,-7354.516781,-814.226536
4202.719219,1702.473667,-8350.440928,-296.082377
4202.719543,4367.215058,-8503.660028,-518.144159
4202.719868,4145.153275,-8350.440928,-888.247130
4202.720192,3923.091493,-9576.193725,-444.123565
4202.720516,3997.112087,-7890.783629,-1110.308913
4202.720841,1406.391290,-9116.536426,-740.205942
4202.721165,148.041188,-8197.221829,-1110.308913
4202.721489,222.061783,-9499.584175,-666.185348
4202.721814,-222.061783,-9422.974625,-1480.411884
4202.722138,518.144159,-8810.098227,-1036.288319
4202.722463,1036.288319,-9116.536426,-2220.617826
4202.722787,2072.576638,-10112.460574,-1184.329507
4202.723111,1258.350101,-8733.488677,-1258.350101
4202.723436,962.267725,-8733.488677,-1184.329507
4202.723760,296.082377,-9039.926876,-592.164754
4202.724084,-370.102971,-8273.831378,-1110.308913
4202.724409,-814.226536,-9193.145976,-148.041188
4202.724733,370.102971,-7431.126331,-148.041188
4202.725058,1702.473667,-8810.098227,-518.144159
4202.725382,2812.782580,-8733.488677,-888.247130
4202.725706,3256.906145,-8810.098227,-518.144159
4202.726031,2294.638420,-9576.193725,-740.205942
4202.726355,814.226536,-8120.612279,-2146.597232
4202.726679,444.123565,-9269.755526,-962.267725
4202.727004,-962.267725,-8580.269578,-1258.350101
4202.727328,-1924.535449,-9806.022374,0.000000
4202.727653,-1406.391290,-8197.221829,-814.226536
4202.727977,-1110.308913,-9116.536426,814.226536
4202.728301,1628.453072,-7814.174080,-518.144159
4202.728626,2368.659014,-9116.536426,74.020594
4202.728950,1924.535449,-9346.365076,-296.082377
4202.729275,1110.308913,-9116.536426,-888.247130
4202.729599,-740.205942,-8120.612279,-888.247130
4202.729923,-3256.906145,-7201.297681,592.164754
4202.730248,-3404.947333,-8120.612279,444.123565
4202.730572,-2368.659014,-8120.612279,296.082377
4202.730896,-2664.741391,-7354.516781,1184.329507
4202.731221,296.082377,-7737.564530,1480.411884
4202.731545,1036.288319,-8044.002729,-296.082377
4202.731870,1850.514855,-8427.050478,0.000000
4202.732194,3034.844362,-8963.317327,740.205942
4202.732518,1480.411884,-8120.612279,-666.185348
4202.732843,-1036.288319,-8810.098227,222.061783
4202.733167,-1332.370696,-8427.050478,-444.123565
4202.733491,-3701.029710,-9346.365076,444.123565
4202.733816,-1332.370696,-8580.269578,0.000000
4202.734140,-814.226536,-8197.221829,1110.308913
4202.734465,-740.205942,-8503.660028,740.205942
4202.734789,-1184.329507,-8197.221829,-888.247130
4202.735113,1554.432478,-8810.098227,-444.123565
4202.735438,740.205942,-7814.174080,-592.164754
4202.735762,444.123565,-8044.002729,148.041188
4202.736086,-148.041188,-7277.907231,0.000000
4202.736411,-1110.308913,-7507.735880,1480.411884
4202.736735,1110.308913,-7354.516781,222.061783
4202.737060,1480.411884,-8273.831378,74.020594
4202.737384,2960.823768,-9806.022374,148.041188
4202.737708,2368.659014,-8503.660028,-888.247130
4202.738033,1480.411884,-9269.755526,0.000000
4202.738357,444.123565,-8580.269578,-1924.535449
4202.738681,74.020594,-9652.803275,-222.061783
4202.739006,-148.041188,-8656.879127,-740.205942
4202.739330,0.000000,-9576.193725,-592.164754
4202.739655,-592.164754,-8656.879127,-1258.350101
4202.739979,2294.638420,-8580.269578,-888.247130
4202.740303,2738.761985,-9116.536426,-1036.288319
4202.740628,3330.926739,-8503.660028,-1036.288319
4202.740952,2294.638420,-9499.584175,-1036.288319
4202.741276,1184.329507,-8733.488677,-962.267725
4202.741601,-370.102971,-9422.974625,-1184.329507
4202.741925,-1702.473667,-8963.317327,-1406.391290
4202.742250,-1258.350101,-8503.660028,-518.144159
4202.742574,-444.123565,-7431.126331,0.000000
4202.742894,1036.288319,-7890.783629,0.000000
4202.743218,2590.720797,-8120.612279,-1036.288319
4202.743543,3849.070898,-9652.803275,-296.082377
4202.743867,4071.132681,-8120.612279,-2072.576638
4202.744191,3404.947333,-8963.317327,-666.185348
4202.744515,2442.679609,-9116.536426,-1628.453072
4202.744840,814.226536,-9346.365076,148.041188
4202.745164,222.061783,-9806.022374,-1258.350101
4202.745488,-1332.370696,-9269.755526,-296.082377
4202.745812,-592.164754,-9039.926876,-1110.308913
4202.746137,74.020594,-9422.974625,-814.226536
4202.746461,370.102971,-9652.803275,-1184.329507
4202.746785,518.144159,-9499.584175,370.102971
4202.747109,148.041188,-7814.174080,-370.102971
4202.747434,-148.041188,-8120.612279,-1036.288319
4202.747758,0.000000,-7660.954980,0.000000
4202.748082,-1850.514855,-7660.954980,222.061783
4202.748406,-1850.514855,-7814.174080,888.247130
4202.748731,-444.123565,-7890.783629,666.185348
4202.749055,74.020594,-8427.050478,518.144159
4202.749379,2590.720797,-7890.783629,-148.041188
4202.749704,2442.679609,-9039.926876,222.061783
4202.750028,518.144159,-8197.221829,-444.123565
4202.750352,74.020594,-8044.002729,-592.164754
4202.750676,-888.247130,-9193.145976,-370.102971
4202.751001,-1480.411884,-8656.879127,666.185348
4202.751325,-1258.350101,-7660.954980,222.061783
4202.751649,148.041188,-8350.440928,370.102971
4202.751973,74.020594,-7737.564530,222.061783
4202.752298,814.226536,-9269.755526,222.061783
4202.752622,592.164754,-8273.831378,-444.123565
4202.752946,-1036.288319,-9422.974625,-444.123565
4202.753270,-1332.370696,-8044.002729,-518.144159
4202.753595,-3108.864956,-7967.393179,0.000000
4202.753919,-2738.761985,-8656.879127,666.185348
4202.754243,-2072.576638,-8120.612279,1184.329507
4202.754567,-148.041188,-8120.612279,222.061783
4202.754892,2368.659014,-7814.174080,148.041188
4202.755216,3478.967927,-7660.954980,222.061783
4202.755540,3108.864956,-8733.488677,0.000000
4202.755864,3552.988522,-7584.345430,-740.205942
4202.756189,2664.741391,-8733.488677,0.000000
4202.756513,1110.308913,-8120.612279,-888.247130
4202.756837,-222.061783,-9269.755526,148.041188
4202.757162,-592.164754,-9193.145976,-666.185348
4202.757486,0.000000,-9193.145976,-74.020594
4202.757810,296.082377,-9116.536426,-148.041188
4202.758134,1036.288319,-8810.098227,0.000000
4202.758459,1850.514855,-9039.926876,-962.267725
4202.758783,1110.308913,-9959.241474,-888.247130
4202.759107,-592.164754,-8886.707777,-1332.370696
4202.759431,-740.205942,-7890.783629,-962.267725
4202.759756,-1924.535449,-8656.879127,-148.041188
4202.760080,-1480.411884,-7584.345430,-370.102971
4202.760404,0.000000,-8427.050478,222.061783
4202.760728,1480.411884,-7354.516781,-592.164754
4202.761053,3182.885551,-8580.269578,148.041188
4202.761377,3182.885551,-8963.317327,-1110.308913
4202.761701,4441.235652,-9346.365076,-1036.288319
4202.762025,2442.679609,-9039.926876,-370.102971
4202.762350,1258.350101,-9193.145976,-1110.308913
4202.762674,814.226536,-9116.536426,-296.082377
4202.762998,370.102971,-8886.707777,-1184.329507
4202.763322,740.205942,-9806.022374,-370.102971
4202.763647,74.020594,-7431.126331,-740.205942
4202.763971,296.082377,-8886.707777,0.000000
4202.764295,1332.370696,-8733.488677,-1036.288319
4202.764620,148.041188,-8733.488677,-1554.432478
4202.764944,74.020594,-8963.317327,-740.205942
4202.765268,-1184.329507,-8273.831378,-962.267725
4202.765592,-1258.350101,-8503.660028,-666.185348
4202.765917,-1036.288319,-9422.974625,0.000000
4202.766241,-666.185348,-7890.783629,222.061783
4202.766565,518.144159,-8120.612279,740.205942
4202.766889,2590.720797,-8350.440928,518.144159
4202.767214,3256.906145,-7814.174080,74.020594
4202.767538,2886.803174,-8197.221829,-518.144159
4202.767862,2294.638420,-8044.002729,-148.041188
4202.768186,1184.329507,-8120.612279,-370.102971
4202.768511,-740.205942,-8580.269578,-296.082377
4202.768835,-1332.370696,-8733.488677,222.061783
4202.769159,-2146.597232,-8197.221829,-296.082377
4202.769483,-592.164754,-8810.098227,1184.329507
4202.769808,148.041188,-8120.612279,-296.082377
4202.770132,1036.288319,-9652.803275,740.205942
4202.770456,1184.329507,-8886.707777,-444.123565
4202.770780,-222.061783,-8810.098227,-444.123565
4202.771105,-1036.288319,-8350.440928,-814.226536
4202.771429,-1258.350101,-8503.660028,222.061783
4202.771753,-1776.494261,-7890.783629,-666.185348
4202.772077,-962.267725,-8044.002729,296.082377
4202.772402,0.000000,-7354.516781,1184.329507
4202.772726,0.000000,-7277.907231,-296.082377
4202.773050,2146.597232,-8886.707777,148.041188
4202.773375,2960.823768,-8273.831378,-148.041188
4202.773699,3478.967927,-9346.365076,740.205942
4202.774023,3034.844362,-8656.879127,-888.247130
4202.774347,148.041188,-9499.584175,0.000000
4202.774672,-1480.411884,-8963.317327,-444.123565
4202.774996,-666.185348,-9193.145976,0.000000
4202.775320,0.000000,-8503.660028,-518.144159
4202.775644,740.205942,-8656.879127,222.061783
4202.775969,1998.556043,-8120.612279,-222.061783
4202.776293,0.000000,-8656.879127,-1776.494261
4202.776617,888.247130,-9422.974625,-518.144159
4202.776941,-370.102971,-8963.317327,-1480.411884
4202.777266,-2590.720797,-8656.879127,-1110.308913
4202.777590,-2812.782580,-8886.707777,370.102971
4202.777914,-1776.494261,-8656.879127,370.102971
4202.778238,-444.123565,-8886.707777,-740.205942
4202.778563,2294.638420,-8350.440928,-370.102971
4202.778887,2664.741391,-8580.269578,0.000000
4202.779211,3627.009116,-8580.269578,-962.267725
4202.779535,3997.112087,-8963.317327,-592.164754
4202.779860,2442.679609,-8810.098227,-814.226536
4202.780184,-814.226536,-8503.660028,-666.185348
4202.780508,-1554.432478,-8044.002729,-1332.370696
4202.780833,-962.267725,-8963.317327,0.000000
4202.781157,0.000000,-7814.174080,74.020594
4202.781481,740.205942,-8427.050478,-370.102971
4202.781805,-296.082377,-9959.241474,-666.185348
4202.782130,814.226536,-9422.974625,-1850.514855
4202.782454,888.247130,-11261.603821,-1184.329507
4202.782778,-1332.370696,-7584.345430,-1184.329507
4202.783102,222.061783,-8427.050478,-1110.308913
4202.783427,-2812.782580,-8963.317327,-814.226536
4202.783751,-1850.514855,-7890.783629,0.000000
4202.784075,1554.432478,-8350.440928,666.185348
4202.784399,296.082377,-8044.002729,-592.164754
4202.784724,2368.659014,-8733.488677,-222.061783
4202.785048,1924.535449,-7354.516781,74.020594
4202.785372,2146.597232,-9499.584175,0.000000
4202.785696,1998.556043,-7967.393179,-666.185348
4202.786021,296.082377,-8120.612279,-592.164754
4202.786345,-666.185348,-9422.974625,0.000000
4202.786669,-296.082377,-8963.317327,0.000000
4202.786993,-444.123565,-8886.707777,-1036.288319
4202.787318,-962.267725,-8044.002729,296.082377
4202.787642,1258.350101,-8733.488677,444.123565
4202.787966,2146.597232,-9193.145976,-666.185348
4202.788291,518.144159,-9269.755526,0.000000
4202.788615,444.123565,-8273.831378,-1480.411884
4202.788939,-518.144159,-7967.393179,-444.123565
4202.789263,-1480.411884,-8120.612279,888.247130
4202.789588,-1628.453072,-7507.735880,888.247130
4202.789912,-666.185348,-7737.564530,444.123565
4202.790236,518.144159,-7814.174080,370.102971
4202.790560,2294.638420,-7890.783629,222.061783
4202.790885,2886.803174,-8427.050478,296.082377
4202.791209,2368.659014,-8197.221829,0.000000
4202.791533,3478.967927,-8963.317327,-222.061783
4202.791857,2738.761985,-8427.050478,-1036.288319
4202.792182,1998.556043,-9193.145976,444.123565
4202.792506,-1776.494261,-8503.660028,-148.041188
4202.792830,-1406.391290,-9193.145976,-1036.288319
4202.793154,-2072.576638,-8503.660028,518.144159
4202.793479,888.247130,-8733.488677,-222.061783
4202.793803,1998.556043,-9193.145976,-592.164754
4202.794127,296.082377,-9499.584175,-1110.308913
4202.794451,444.123565,-8580.269578,-666.185348
4202.794776,-888.247130,-8503.660028,-1184.329507
4202.795100,-1406.391290,-8197.221829,-444.123565
4202.795424,-962.267725,-8580.269578,0.000000
4202.795749,-1702.473667,-7431.126331,0.000000
4202.796073,-1850.514855,-8350.440928,74.020594
4202.796397,1554.432478,-7814.174080,0.000000
4202.796721,2220.617826,-8886.707777,370.102971
4202.797046,2738.761985,-8503.660028,-592.164754
4202.797370,2590.720797,-8503.660028,-888.247130
4202.797694,1702.473667,-8580.269578,-592.164754
4202.798018,1184.329507,-8656.879127,-888.247130
4202.798343,-296.082377,-8810.098227,-370.102971
4202.798667,-1554.432478,-9193.145976,-222.061783
4202.798991,-592.164754,-8580.269578,-962.267725
4202.799315,592.164754,-8810.098227,-1184.329507
4202.799640,1036.288319,-9269.755526,-296.082377
4202.799964,888.247130,-9193.145976,-518.144159
4202.800288,444.123565,-8963.317327,-518.144159
4202.800612,0.000000,-8810.098227,-1258.350101
4202.800937,-1480.411884,-8886.707777,-740.205942
4202.801261,-1554.432478,-8350.440928,-592.164754
4202.801585,-1776.494261,-8350.440928,0.000000
4202.801909,-518.144159,-7354.516781,222.061783
4202.802234,888.247130,-7814.174080,444.123565
4202.802558,2886.803174,-9116.536426,74.020594
4202.802882,2590.720797,-8810.098227,-444.123565
4202.803207,3108.864956,-9269.755526,-592.164754
4202.803531,1406.391290,-8580.269578,-1036.288319
4202.803855,-518.144159,-8273.831378,-296.082377
4202.804179,-592.164754,-9499.584175,0.000000
4202.804504,-1406.391290,-8273.831378,-592.164754
4202.804828,-296.082377,-8963.317327,222.061783
4202.805152,148.041188,-7967.393179,-444.123565
4202.805476,740.205942,-8273.831378,-148.041188
4202.805801,962.267725,-8656.879127,-1258.350101
4202.806125,1850.514855,-9729.412825,-444.123565
4202.806449,-148.041188,-7660.954980,-962.267725
4202.806773,296.082377,-9193.145976,-296.082377
4202.807098,-2146.597232,-7584.345430,148.041188
4202.807422,-2368.659014,-8350.440928,444.123565
4202.807746,-74.020594,-7967.393179,0.000000
4202.808070,740.205942,-7277.907231,518.144159
4202.808395,2516.700203,-7354.516781,370.102971
4202.808719,3849.070898,-8580.269578,296.082377
4202.809043,4589.276840,-9039.926876,-518.144159
4202.809367,2590.720797,-7890.783629,-1036.288319
4202.809692,1406.391290,-9039.926876,-814.226536
4202.810016,74.020594,-8963.317327,-740.205942
4202.810340,-2072.576638,-9499.584175,-222.061783
4202.810665,-2442.679609,-8197.221829,0.000000
4202.810989,-1332.370696,-8963.317327,0.000000
4202.811313,-1776.494261,-8656.879127,-592.164754
4202.811637,1332.370696,-9652.803275,-814.226536
4202.811962,1110.308913,-8810.098227,-1480.411884
4202.812286,-296.082377,-9193.145976,-1036.288319
4202.812610,0.000000,-7890.783629,-740.205942
4202.812934,-1184.329507,-8120.612279,-296.082377
4202.813259,222.061783,-7814.174080,0.000000
4202.813583,1332.370696,-7354.516781,370.102971
4202.813907,1554.432478,-8350.440928,444.123565
4202.814231,2738.761985,-7890.783629,-222.061783
4202.814556,3775.050304,-9269.755526,740.205942
4202.814880,2146.597232,-8120.612279,-222.061783
4202.815204,2220.617826,-8886.707777,-666.185348
4202.815528,1924.535449,-9039.926876,-888.247130
4202.815853,0.000000,-9116.536426,-814.226536
4202.816177,-296.082377,-9652.803275,-1036.288319
4202.816501,-2072.576638,-8886.707777,-740.205942
4202.816825,-1702.473667,-8810.098227,148.041188
4202.817150,888.247130,-8273.831378,-666.185348
4202.817474,1184.329507,-9422.974625,0.000000
4202.817798,1110.308913,-8733.488677,-740.205942
4202.818123,2072.576638,-9422.974625,-1628.453072
4202.818447,-1554.432478,-9422.974625,-1184.329507
4202.818771,-814.226536,-8733.488677,-1332.370696
4202.819095,-2294.638420,-8810.098227,0.000000
4202.819420,-666.185348,-8350.440928,74.020594
4202.819744,888.247130,-7507.735880,518.144159
4202.820068,2368.659014,-7584.345430,74.020594
4202.820392,2738.761985,-9193.145976,0.000000
4202.820717,2738.761985,-8733.488677,-1258.350101
4202.821041,2368.659014,-8810.098227,-592.164754
4202.821365,814.226536,-8733.488677,-666.185348
4202.821689,-814.226536,-8656.879127,-814.226536
4202.822014,-2368.659014,-9652.803275,-222.061783
4202.822338,-2738.761985,-9806.022374,-666.185348
4202.822662,-2738.761985,-8503.660028,-444.123565
4202.822986,-296.082377,-9346.365076,-1036.288319
4202.823311,296.082377,-9576.193725,148.041188
4202.823635,1554.432478,-8733.488677,74.020594
4202.823959,962.267725,-8273.831378,-740.205942
4202.824283,1406.391290,-8580.269578,-592.164754
4202.824608,444.123565,-7584.345430,-370.102971
4202.824932,148.041188,-8656.879127,74.020594
4202.825256,444.123565,-6588.421283,0.000000
4202.825581,444.123565,-7967.393179,1258.350101
4202.825905,1998.556043,-7890.783629,0.000000
4202.826229,1702.473667,-8733.488677,592.164754
4202.826553,1776.494261,-8733.488677,-370.102971
4202.826878,1554.432478,-8886.707777,-592.164754
4202.827202,444.123565,-9422.974625,-814.226536
4202.827526,0.000000,-8733.488677,-222.061783
4202.827850,-1554.432478,-8963.317327,-74.020594
4202.828175,-1776.494261,-8044.002729,-518.144159
4202.828499,-740.205942,-8503.660028,0.000000
4202.828823,222.061783,-7507.735880,-1110.308913
4202.829147,2294.638420,-9039.926876,-1036.288319
4202.829472,1110.308913,-9882.631924,-444.123565
4202.829796,-592.164754,-8810.098227,-296.082377
4202.830120,814.226536,-8963.317327,-1184.329507
4202.830444,-1628.453072,-9039.926876,-518.144159
4202.830769,-814.226536,-8350.440928,-592.164754
4202.831093,-518.144159,-8427.050478,148.041188
4202.831417,148.041188,-8503.660028,666.185348
4202.831741,1554.432478,-7967.393179,1258.350101
4202.832066,2146.597232,-7660.954980,518.144159
4202.832390,4219.173869,-8810.098227,-370.102971
4202.832714,3404.947333,-8427.050478,-592.164754
4202.833039,2368.659014,-8503.660028,-2146.597232
4202.833363,0.000000,-8350.440928,-740.205942
4202.833687,-444.123565,-9346.365076,0.000000
4202.834011,-1702.473667,-8810.098227,-814.226536
4202.834336,-2442.679609,-9499.584175,296.082377
4202.834660,-592.164754,-8886.707777,-444.123565
4202.834984,148.041188,-7967.393179,-1036.288319
4202.835308,1110.308913,-9422.974625,-296.082377
4202.835633,2812.782580,-9346.365076,-740.205942
4202.835957,740.205942,-9422.974625,-888.247130
4202.836281,222.061783,-8273.831378,-1110.308913
4202.836605,-1776.494261,-8810.098227,0.000000
4202.836930,-740.205942,-8120.612279,-888.247130
4202.837254,-148.041188,-7814.174080,666.185348
4202.837578,-222.061783,-7814.174080,444.123565
4202.837902,1332.370696,-8044.002729,0.000000
4202.838227,1628.453072,-8044.002729,222.061783
4202.838551,3478.967927,-9346.365076,-814.226536
4202.838875,4071.132681,-8886.707777,-740.205942
4202.839199,962.267725,-8886.707777,-592.164754
4202.839524,-888.247130,-8963.317327,-1258.350101
4202.839848,-1184.329507,-9039.926876,-222.061783
4202.840172,-2368.659014,-8810.098227,-1036.288319
4202.840497,-1628.453072,-9116.536426,74.020594
4202.840821,-740.205942,-8120.612279,518.144159
4202.841145,0.000000,-8656.879127,-1332.370696
4202.841469,-296.082377,-9346.365076,-370.102971
4202.841794,1110.308913,-8810.098227,-888.247130
4202.842118,-222.061783,-8197.221829,-740.205942
4202.842442,-888.247130,-7354.516781,-666.185348
4202.842766,-666.185348,-8580.269578,740.205942
4202.843091,-592.164754,-7814.174080,296.082377
4202.843415,1184.329507,-7737.564530,74.020594
4202.843739,1184.329507,-7890.783629,296.082377
4202.844063,2368.659014,-8273.831378,666.185348
4202.844387,3478.967927,-7814.174080,222.061783
4202.844711,1998.556043,-8963.317327,-666.185348
4202.845036,1480.411884,-8656.879127,-592.164754
4202.845360,-74.020594,-8197.221829,-1332.370696
4202.845684,-1628.453072,-9499.584175,-592.164754
4202.846008,-888.247130,-8427.050478,-444.123565
4202.846332,-1480.411884,-7967.393179,-296.082377
4202.846656,0.000000,-8350.440928,0.000000
4202.846981,666.185348,-8963.317327,222.061783
4202.847305,1628.453072,-8810.098227,-296.082377
4202.847629,1110.308913,-8810.098227,-1036.288319
4202.847953,1110.308913,-8427.050478,0.000000
4202.848277,74.020594,-8273.831378,-740.205942
4202.848601,-296.082377,-8427.050478,-370.102971
4202.848926,0.000000,-8427.050478,740.205942
4202.849250,74.020594,-8197.221829,222.061783
4202.849574,814.226536,-7354.516781,-444.123565
4202.849898,2220.617826,-7967.393179,296.082377
4202.850222,2442.679609,-9039.926876,-1036.288319
4202.850546,3034.844362,-9346.365076,-962.267725
4202.850871,2812.782580,-9422.974625,-592.164754
4202.851195,148.041188,-8120.612279,-1036.288319
4202.851519,296.082377,-9346.365076,-1036.288319
4202.851843,-1258.350101,-8963.317327,-962.267725
4202.852167,-1184.329507,-8503.660028,-148.041188
4202.852491,148.041188,-8580.269578,-444.123565
4202.852815,444.123565,-9193.145976,-518.144159
4202.853140,740.205942,-9269.755526,-222.061783
4202.853464,296.082377,-8810.098227,-1184.329507
4202.853788,592.164754,-8963.317327,-444.123565
4202.854112,-592.164754,-7890.783629,-814.226536
4202.854436,-740.205942,-8580.269578,-296.082377
4202.854760,-2072.576638,-7507.735880,-518.144159
4202.855085,222.061783,-8810.098227,444.123565
4202.855409,1998.556043,-7890.783629,148.041188
4202.855733,3182.885551,-8197.221829,148.041188
4202.856057,2516.700203,-8427.050478,-370.102971
4202.856381,2220.617826,-9269.755526,-444.123565
4202.856705,1702.473667,-8810.098227,-1258.350101
4202.857030,1036.288319,-9422.974625,-370.102971
4202.857354,-1258.350101,-9193.145976,-814.226536
4202.857678,-1998.556043,-9269.755526,-814.226536
4202.858002,-1554.432478,-8656.879127,-148.041188
4202.858326,-1110.308913,-8120.612279,-296.082377
4202.858650,222.061783,-8427.050478,-222.061783
4202.858975,814.226536,-8580.269578,74.020594
4202.859299,1554.432478,-8963.317327,-1036.288319
4202.859623,814.226536,-9576.193725,-666.185348
4202.859947,222.061783,-7660.954980,-1406.391290
4202.860271,-1850.514855,-9269.755526,-1480.411884
4202.860595,-1998.556043,-7814.174080,888.247130
4202.860920,-592.164754,-7890.783629,1406.391290
4202.861244,-740.205942,-7660.954980,518.144159
4202.861568,2442.679609,-8427.050478,592.164754
4202.861892,2960.823768,-7354.516781,-740.205942
4202.862216,4145.153275,-9116.536426,518.144159
4202.862540,3330.926739,-7814.174080,-814.226536
4202.862865,1924.535449,-9576.193725,-888.247130
4202.863189,296.082377,-8427.050478,-148.041188
4202.863513,-1258.350101,-8503.660028,222.061783
4202.863837,-2294.638420,-8580.269578,-296.082377
4202.864161,-370.102971,-7967.393179,-222.061783
4202.864485,296.082377,-9269.755526,222.061783
4202.864810,222.061783,-8810.098227,-1036.288319
4202.865134,888.247130,-8656.879127,-296.082377
4202.865458,444.123565,-8427.050478,-370.102971
4202.865782,222.061783,-8733.488677,-1110.308913
4202.866106,-296.082377,-8044.002729,-222.061783
4202.866430,-1332.370696,-8044.002729,-666.185348
4202.866754,592.164754,-9193.145976,74.020594
4202.867079,2368.659014,-7277.907231,-370.102971
4202.867403,3849.070898,-8503.660028,592.164754
4202.867727,1850.514855,-7354.516781,0.000000
4202.868051,3404.947333,-8733.488677,222.061783
4202.868375,2368.659014,-9116.536426,-814.226536
4202.868699,296.082377,-9422.974625,-1184.329507
4202.869024,148.041188,-9116.536426,-1258.350101
4202.869348,-1258.350101,-9193.145976,-592.164754
4202.869672,-2146.597232,-8197.221829,-888.247130
4202.869996,-962.267725,-8044.002729,-814.226536
4202.870320,370.102971,-9576.193725,-740.205942
4202.870644,1332.370696,-8427.050478,-370.102971
4202.870969,1776.494261,-9269.755526,-444.123565
4202.871293,1554.432478,-9346.365076,-962.267725
4202.871617,296.082377,-9193.145976,-1184.329507
4202.871941,-296.082377,-8733.488677,-1258.350101
4202.872265,-962.267725,-8427.050478,0.000000
4202.872589,-1480.411884,-8197.221829,-222.061783
4202.872914,-592.164754,-8656.879127,0.000000
4202.873238,592.164754,-7584.345430,-666.185348
4202.873562,2812.782580,-8810.098227,74.020594
4202.873886,1480.411884,-8120.612279,-1036.288319
4202.874210,3775.050304,-9039.926876,0.000000
4202.874534,2072.576638,-8120.612279,-1258.350101
4202.874859,1776.494261,-9499.584175,-370.102971
4202.875183,296.082377,-9346.365076,-740.205942
4202.875507,-1776.494261,-8656.879127,0.000000
4202.875831,-2294.638420,-9039.926876,-1036.288319
4202.876155,-1036.288319,-8503.660028,-666.185348
4202.876479,-888.247130,-8963.317327,444.123565
4202.876804,518.144159,-8580.269578,-1110.308913
4202.877128,74.020594,-9882.631924,-740.205942
4202.877452,-1480.411884,-8427.050478,-1258.350101
4202.877776,-370.102971,-9116.536426,74.020594
4202.878100,-2294.638420,-7354.516781,-592.164754
4202.878424,-1036.288319,-8197.221829,222.061783
4202.878748,1184.329507,-7890.783629,296.082377
4202.879073,1258.350101,-6894.859482,444.123565
4202.879397,3182.885551,-8810.098227,370.102971
4202.879721,3849.070898,-7354.516781,1406.391290
4202.880045,3552.988522,-8733.488677,222.061783
4202.880369,2294.638420,-8810.098227,-444.123565
4202.880693,74.020594,-8886.707777,-296.082377
4202.881018,444.123565,-8427.050478,-518.144159
4202.881342,-888.247130,-8810.098227,74.020594
4202.881666,-2442.679609,-6588.421283,0.000000
4202.881990,1036.288319,-9039.926876,962.267725
4202.882314,148.041188,-8044.002729,-962.267725
4202.882638,1184.329507,-9039.926876,148.041188
4202.882963,1776.494261,-8044.002729,-666.185348
4202.883287,-962.267725,-7967.393179,-592.164754
4202.883611,-518.144159,-8733.488677,-1036.288319
4202.883935,-370.102971,-8733.488677,-296.082377
4202.884259,-1850.514855,-8427.050478,444.123565
4202.884583,-814.226536,-8656.879127,0.000000
4202.884908,-1110.308913,-7354.516781,1184.329507
4202.885232,1332.370696,-7584.345430,592.164754
4202.885556,2886.803174,-7737.564530,-888.247130
4202.885880,4885.359217,-9652.803275,0.000000
4202.886204,5033.400406,-8120.612279,0.000000
4202.886528,3182.885551,-7431.126331,-962.267725
4202.886853,444.123565,-8427.050478,222.061783
4202.887177,222.061783,-8810.098227,-666.185348
4202.887501,0.000000,-9269.755526,-888.247130
4202.887825,-1184.329507,-8656.879127,-444.123565
4202.888149,-592.164754,-8810.098227,-666.185348
4202.888473,-962.267725,-8427.050478,0.000000
4202.888798,-444.123565,-8963.317327,-1702.473667
4202.889122,-296.082377,-9652.803275,0.000000
4202.889446,-962.267725,-8273.831378,-2146.597232
4202.889770,-1184.329507,-9499.584175,-370.102971
4202.890094,-148.041188,-7737.564530,-814.226536
4202.890418,74.020594,-8120.612279,0.000000
4202.890743,888.247130,-8197.221829,-962.267725
4202.891067,2738.761985,-8503.660028,0.000000
4202.891391,3923.091493,-8350.440928,296.082377
4202.891715,3182.885551,-8810.098227,-222.061783
4202.892039,2368.659014,-8886.707777,-1184.329507
4202.892363,1554.432478,-9499.584175,-888.247130
4202.892687,518.144159,-8197.221829,-740.205942
4202.893012,-444.123565,-9499.584175,-1332.370696
4202.893336,-1480.411884,-9346.365076,-740.205942
4202.893660,-740.205942,-8427.050478,-370.102971
4202.893984,-296.082377,-8503.660028,-962.267725
4202.894308,740.205942,-9039.926876,-518.144159
4202.894632,148.041188,-8580.269578,-666.185348
4202.894957,222.061783,-9422.974625,-1184.329507
4202.895281,-444.123565,-8350.440928,-1036.288319
4202.895605,-1554.432478,-8044.002729,-518.144159
4202.895929,-2442.679609,-8810.098227,-296.082377
4202.896253,-2812.782580,-8427.050478,0.000000
4202.896577,-1480.411884,-9039.926876,-148.041188
4202.896902,1850.514855,-7584.345430,740.205942
4202.897226,2146.597232,-7431.126331,444.123565
4202.897550,3182.885551,-8350.440928,0.000000
4202.897874,4885.359217,-8120.612279,666.185348
4202.898198,3627.009116,-8350.440928,-518.144159
4202.898522,3478.967927,-9193.145976,-148.041188
4202.898847,74.020594,-7967.393179,0.000000
4202.899171,-1036.288319,-9499.584175,740.205942
4202.899495,0.000000,-8580.269578,222.061783
4202.899819,-1110.308913,-8120.612279,444.123565
4202.900143,-592.164754,-8197.221829,-592.164754
4202.900467,888.247130,-8810.098227,0.000000
4202.900792,-518.144159,-9576.193725,-592.164754
4202.901116,-518.144159,-9422.974625,-444.123565
4202.901440,-1554.432478,-7584.345430,-740.205942
4202.901764,-2590.720797,-8427.050478,-592.164754
4202.902088,-1554.432478,-7737.564530,0.000000
4202.902412,370.102971,-7890.783629,444.123565
4202.902737,296.082377,-8044.002729,666.185348
4202.903061,2220.617826,-7354.516781,814.226536
4202.903385,3849.070898,-8503.660028,0.000000
4202.903709,3404.947333,-8427.050478,74.020594
4202.904033,5699.585753,-8580.269578,888.247130
4202.904357,1776.494261,-7507.735880,-1184.329507
4202.904682,1110.308913,-9806.022374,0.000000
4202.905006,-222.061783,-8503.660028,-740.205942
4202.905330,-1110.308913,-9346.365076,-370.102971
4202.905654,-518.144159,-8273.831378,-370.102971
4202.905978,-296.082377,-8044.002729,-592.164754
4202.906302,370.102971,-8963.317327,-296.082377
4202.906626,0.000000,-8427.050478,-740.205942
4202.906951,592.164754,-9422.974625,-1184.329507
4202.907275,-666.185348,-8427.050478,-2072.576638
4202.907599,-2294.638420,-8810.098227,-1184.329507
4202.907923,-1850.514855,-8350.440928,-888.247130
4202.908247,-1924.535449,-8503.660028,518.144159
4202.908571,-296.082377,-7584.345430,-148.041188
4202.908896,3478.967927,-8656.879127,962.267725
4202.909220,444.123565,-7890.783629,-1480.411884
4202.909544,3923.091493,-9729.412825,-1554.432478
4202.909868,3108.864956,-9806.022374,-296.082377
4202.910192,1480.411884,-7660.954980,-1036.288319
4202.910516,2368.659014,-9116.536426,-962.267725
4202.910841,-1554.432478,-9576.193725,-296.082377
4202.911165,-1110.308913,-8580.269578,-814.226536
4202.911489,296.082377,-7507.735880,-1184.329507
4202.911813,-592.164754,-9039.926876,-962.267725
4202.912137,0.000000,-8656.879127,-962.267725
4202.912461,-296.082377,-8580.269578,-666.185348
4202.912786,-296.082377,-9576.193725,-1480.411884
4202.913110,-518.144159,-9729.412825,-888.247130
4202.913434,-1776.494261,-7737.564530,-1850.514855
4202.913758,-1702.473667,-9193.145976,-222.061783
4202.914082,-1924.535449,-7737.564530,-888.247130
4202.914406,-962.267725,-9039.926876,0.000000
4202.914731,-222.061783,-7431.126331,-518.144159
4202.915055,1628.453072,-8886.707777,740.205942
4202.915379,3701.029710,-8044.002729,-666.185348
4202.915703,1628.453072,-9269.755526,-370.102971
4202.916027,2368.659014,-8580.269578,-666.185348
4202.916351,296.082377,-8733.488677,-518.144159
4202.916676,592.164754,-9499.584175,0.000000
4202.917000,0.000000,-8810.098227,0.000000
4202.917324,-592.164754,-8197.221829,222.061783
4202.917648,-296.082377,-8427.050478,0.000000
4202.917972,1406.391290,-8503.660028,-370.102971
4202.918296,370.102971,-9039.926876,444.123565
4202.918620,-1036.288319,-8427.050478,-518.144159
4202.918945,-1110.308913,-8963.317327,0.000000
4202.919269,-1998.556043,-8503.660028,-740.205942
4202.919593,-1702.473667,-9269.755526,-148.041188
4202.919917,-1998.556043,-7890.783629,74.020594
4202.920241,-518.144159,-8120.612279,1332.370696
4202.920565,296.082377,-6588.421283,592.164754
4202.920890,1776.494261,-7890.783629,1850.514855
4202.921214,3256.906145,-8120.612279,0.000000
4202.921538,3997.112087,-8197.221829,592.164754
4202.921862,4441.235652,-7584.345430,-740.205942
4202.922186,2516.700203,-8886.707777,370.102971
4202.922510,2294.638420,-8273.831378,0.000000
4202.922835,0.000000,-8580.269578,148.041188
4202.923159,0.000000,-8733.488677,370.102971
4202.923483,-518.144159,-7737.564530,592.164754
4202.923807,-148.041188,-8197.221829,0.000000
4202.924131,370.102971,-9193.145976,0.000000
4202.924455,1554.432478,-8656.879127,-888.247130
4202.924780,-518.144159,-8886.707777,-222.061783
4202.925104,-814.226536,-7814.174080,-888.247130
4202.925428,-2220.617826,-9116.536426,0.000000
4202.925752,-1184.329507,-8886.707777,-666.185348
4202.926076,-222.061783,-7660.954980,-888.247130
4202.926400,296.082377,-9116.536426,814.226536
4202.926725,2072.576638,-7660.954980,0.000000
4202.927049,3330.926739,-8273.831378,444.123565
4202.927373,3108.864956,-8810.098227,-814.226536
4202.927697,2960.823768,-9193.145976,74.020594
4202.928021,2960.823768,-8733.488677,-2146.597232
4202.928345,518.144159,-9806.022374,-740.205942
4202.928670,-888.247130,-8886.707777,-814.226536
4202.928994,-666.185348,-9269.755526,-1332.370696
4202.929318,518.144159,-8580.269578,-370.102971
4202.929642,1258.350101,-7660.954980,-1332.370696
4202.929966,1110.308913,-9499.584175,-888.247130
4202.930290,1110.308913,-9039.926876,-814.226536
4202.930615,0.000000,-9576.193725,-1184.329507
4202.930939,-1110.308913,-8963.317327,-2442.679609
4202.931263,-1406.391290,-9576.193725,-1258.350101
4202.931587,-2590.720797,-8733.488677,-1850.514855
4202.931911,-1850.514855,-9039.926876,-518.144159
4202.932235,-1036.288319,-7890.783629,-296.082377
4202.932559,74.020594,-9039.926876,0.000000
4202.932884,2738.761985,-7967.393179,74.020594
4202.933208,2664.741391,-8580.269578,74.020594
4202.933532,3034.844362,-9269.755526,-296.082377
4202.933856,2442.679609,-8733.488677,-888.247130
4202.934180,888.247130,-9422.974625,-592.164754
4202.934504,-370.102971,-8963.317327,-444.123565
4202.934829,-740.205942,-8963.317327,-666.185348
4202.935153,-2220.617826,-8580.269578,-666.185348
4202.935477,0.000000,-8733.488677,74.020594
4202.935801,-1036.288319,-8197.221829,0.000000
4202.936125,-666.185348,-9039.926876,-518.144159
4202.936449,148.041188,-8350.440928,-222.061783
4202.936774,-518.144159,-8656.879127,-518.144159
4202.937098,-666.185348,-8350.440928,-370.102971
4202.937422,-1036.288319,-8120.612279,-370.102971
4202.937746,-740.205942,-9422.974625,888.247130
4202.938070,74.020594,-7890.783629,148.041188
4202.938394,1628.453072,-7584.345430,666.185348
4202.938719,2294.638420,-7354.516781,1184.329507
4202.939043,2590.720797,-8044.002729,814.226536
4202.939367,2442.679609,-8886.707777,0.000000
4202.939691,1998.556043,-7890.783629,296.082377
4202.940015,1850.514855,-8273.831378,740.205942
4202.940339,0.000000,-8120.612279,-148.041188
4202.940664,-518.144159,-8503.660028,0.000000
4202.940988,592.164754,-8273.831378,370.102971
4202.941312,370.102971,-7814.174080,370.102971
4202.941636,1258.350101,-8350.440928,0.000000
4202.941960,1184.329507,-8810.098227,740.205942
4202.942284,962.267725,-8656.879127,-518.144159
4202.942609,-296.082377,-9116.536426,-666.185348
4202.942933,-962.267725,-8503.660028,-1406.391290
4202.943257,-3034.844362,-8656.879127,-222.061783
4202.943581,-2368.659014,-7890.783629,0.000000
4202.943905,-1480.411884,-8503.660028,222.061783
4202.944230,1110.308913,-7660.954980,296.082377
4202.944554,2960.823768,-7354.516781,592.164754
4202.944878,3478.967927,-7660.954980,-592.164754
4202.945202,3034.844362,-9039.926876,-222.061783
4202.945527,3108.864956,-9193.145976,-1628.453072
4202.945851,3034.844362,-10342.289223,-592.164754
4202.946175,-1554.432478,-7507.735880,-592.164754
4202.946499,-296.082377,-9576.193725,-814.226536
4202.946824,-2146.597232,-9193.145976,-814.226536
4202.947148,-1332.370696,-9193.145976,-1332.370696
4202.947472,962.267725,-8886.707777,-1184.329507
4202.947797,-296.082377,-8656.879127,-1036.288319
4202.948121,-222.061783,-9576.193725,-814.226536
4202.948445,-148.041188,-8580.269578,-1406.391290
4202.948769,-148.041188,-8733.488677,-1332.370696
4202.949094,-1332.370696,-9346.365076,-1850.514855
4202.949418,-1850.514855,-8197.221829,-666.185348
4202.949742,-1258.350101,-9576.193725,0.000000
4202.950066,148.041188,-8810.098227,-518.144159
4202.950391,2220.617826,-8197.221829,296.082377
4202.950715,2738.761985,-9193.145976,0.000000
4202.951039,3923.091493,-9116.536426,-666.185348
4202.951364,2590.720797,-8733.488677,-1776.494261
4202.951688,1702.473667,-9269.755526,-666.185348
4202.952012,370.102971,-8044.002729,-1036.288319
4202.952336,-814.226536,-9806.022374,-592.164754
4202.952661,-370.102971,-8350.440928,0.000000
4202.952985,-148.041188,-7890.783629,-148.041188
4202.953309,0.000000,-9346.365076,-888.247130
4202.953633,296.082377,-9116.536426,-370.102971
4202.953958,444.123565,-8886.707777,-1184.329507
4202.954282,-1184.329507,-9499.584175,-1184.329507
4202.954606,-814.226536,-8886.707777,-222.061783
4202.954931,-1480.411884,-8503.660028,-962.267725
4202.955255,-2072.576638,-9039.926876,74.020594
4202.955579,-3034.844362,-8427.050478,148.041188
4202.955903,-888.247130,-8580.269578,444.123565
4202.956228,740.205942,-6665.030833,592.164754
4202.956552,3627.009116,-7890.783629,1036.288319
4202.956876,5033.400406,-8120.612279,0.000000
4202.957200,4367.215058,-7814.174080,0.000000
4202.957525,3404.947333,-8350.440928,0.000000
4202.957849,2738.761985,-8427.050478,-518.144159
4202.958173,592.164754,-8580.269578,-370.102971
4202.958498,-1628.453072,-8273.831378,-370.102971
4202.958822,-370.102971,-8810.098227,0.000000
4202.959146,-1258.350101,-8503.660028,222.061783
4202.959470,-444.123565,-8886.707777,0.000000
4202.959795,-814.226536,-8580.269578,-296.082377
4202.960119,-1332.370696,-9269.755526,-518.144159
4202.960443,-2220.617826,-8580.269578,-444.123565
4202.960767,-1110.308913,-7967.393179,0.000000
4202.961092,-666.185348,-8273.831378,-518.144159
4202.961416,-592.164754,-8733.488677,518.144159
4202.961740,592.164754,-8197.221829,296.082377
4202.962065,2072.576638,-8733.488677,0.000000
4202.962389,2738.761985,-7814.174080,0.000000
4202.962713,3552.988522,-8656.879127,0.000000
4202.963037,2812.782580,-8120.612279,0.000000
4202.963362,2664.741391,-8580.269578,0.000000
4202.963686,2442.679609,-8427.050478,-1036.288319
4202.964010,296.082377,-8656.879127,-666.185348
4202.964334,-370.102971,-8886.707777,-444.123565
4202.964659,-962.267725,-9039.926876,-370.102971
4202.964983,-888.247130,-7814.174080,-814.226536
4202.965307,370.102971,-8503.660028,444.123565
4202.965632,962.267725,-9193.145976,-370.102971
4202.965956,518.144159,-9499.584175,-1554.432478
4202.966280,-296.082377,-9576.193725,-1406.391290
4202.966604,-1258.350101,-9039.926876,-1184.329507
4202.966929,-2368.659014,-8963.317327,-814.226536
4202.967253,-2590.720797,-9422.974625,0.000000
4202.967577,-666.185348,-8810.098227,0.000000
4202.967901,296.082377,-8273.831378,0.000000
4202.968226,1776.494261,-8350.440928,-740.205942
4202.968550,3997.112087,-8273.831378,-444.123565
4202.968874,2516.700203,-8810.098227,0.000000
4202.969198,3701.029710,-8810.098227,-518.144159
4202.969523,1924.535449,-8044.002729,-592.164754
4202.969847,-444.123565,-8656.879127,-666.185348
4202.970171,-296.082377,-8886.707777,-666.185348
4202.970496,-2146.597232,-8656.879127,-1702.473667
4202.970820,-814.226536,-9346.365076,-370.102971
4202.971144,148.041188,-7584.345430,-296.082377
4202.971468,814.226536,-9039.926876,74.020594
4202.971793,740.205942,-8580.269578,-888.247130
4202.972117,0.000000,-9269.755526,-888.247130
4202.972441,-1406.391290,-8656.879127,-1258.350101
4202.972765,-1332.370696,-9193.145976,-962.267725
4202.973090,-1850.514855,-9039.926876,-666.185348
4202.973414,-1776.494261,-8656.879127,518.144159
4202.973738,296.082377,-7890.783629,-444.123565
4202.974063,2146.597232,-8427.050478,814.226536
4202.974387,2590.720797,-7431.126331,222.061783
4202.974711,4737.318029,-8656.879127,666.185348
4202.975035,3404.947333,-8273.831378,0.000000
4202.975360,2960.823768,-8656.879127,0.000000
4202.975684,1480.411884,-8044.002729,-148.041188
4202.976008,0.000000,-9422.974625,0.000000
4202.976332,-814.226536,-8656.879127,-296.082377
4202.976657,-666.185348,-8273.831378,-740.205942
4202.976981,-1258.350101,-8350.440928,148.041188
4202.977305,0.000000,-8120.612279,518.144159
4202.977630,-74.020594,-8503.660028,222.061783
4202.977954,-370.102971,-8580.269578,-740.205942
4202.978278,666.185348,-8886.707777,-666.185348
4202.978602,740.205942,-8503.660028,-1258.350101
4202.978927,74.020594,-8810.098227,-370.102971
4202.979251,-518.144159,-8656.879127,222.061783
4202.979575,0.000000,-8733.488677,296.082377
4202.979899,592.164754,-7660.954980,518.144159
4202.980224,1628.453072,-9346.365076,1628.453072
4202.980548,1850.514855,-8044.002729,-222.061783
4202.980872,1850.514855,-8810.098227,0.000000
4202.981197,962.267725,-8273.831378,-1184.329507
4202.981521,666.185348,-9039.926876,-370.102971
4202.981845,-888.247130,-8273.831378,-148.041188
4202.982169,-518.144159,-9346.365076,148.041188
4202.982494,-814.226536,-7584.345430,-962.267725
4202.982818,0.000000,-8733.488677,-296.082377
4202.983142,1184.329507,-8120.612279,-592.164754
4202.983466,1480.411884,-9193.145976,0.000000
4202.983791,962.267725,-9652.803275,-814.226536
4202.984115,-888.247130,-8810.098227,-962.267725
4202.984439,-2738.761985,-9576.193725,-592.164754
4202.984764,-3182.885551,-9039.926876,-740.205942
4202.985088,-2516.700203,-9422.974625,-74.020594
4202.985412,-1554.432478,-8733.488677,-148.041188
4202.985736,1036.288319,-7814.174080,-444.123565
4202.986061,2516.700203,-8350.440928,444.123565
4202.986385,4293.194464,-7967.393179,-148.041188
4202.986709,4071.132681,-9039.926876,0.000000
4202.987033,2590.720797,-8733.488677,-444.123565
4202.987358,1554.432478,-8886.707777,-1036.288319
4202.987682,444.123565,-8733.488677,-370.102971
4202.988006,-1184.329507,-9039.926876,-1184.329507
4202.988331,-2220.617826,-8886.707777,-740.205942
4202.988655,-1554.432478,-8503.660028,-296.082377
4202.988979,-444.123565,-8656.879127,-444.123565
4202.989303,370.102971,-8656.879127,-814.226536
4202.989628,74.020594,-8733.488677,-1110.308913
4202.989952,1184.329507,-9576.193725,-370.102971
4202.990276,-148.041188,-7507.735880,-1702.473667
4202.990600,0.000000,-9499.584175,-962.267725
4202.990925,-1332.370696,-8350.440928,-296.082377
4202.991249,-1480.411884,-9039.926876,0.000000
4202.991573,370.102971,-8120.612279,-296.082377
4202.991898,2294.638420,-7660.954980,1110.308913
4202.992222,2960.823768,-7967.393179,0.000000
4202.992546,3701.029710,-8350.440928,148.041188
4202.992870,3627.009116,-8120.612279,0.000000
4202.993195,2368.659014,-8427.050478,-1184.329507
4202.993519,370.102971,-7737.564530,-518.144159
4202.993843,0.000000,-9116.536426,370.102971
4202.994167,-444.123565,-9193.145976,-222.061783
4202.994492,-222.061783,-7507.735880,0.000000
4202.994816,1406.391290,-9806.022374,296.082377
4202.995140,222.061783,-7507.735880,-888.247130
4202.995465,666.185348,-9193.145976,-148.041188
4202.995789,222.061783,-9346.365076,0.000000
4202.996113,-222.061783,-8886.707777,-1036.288319
4202.996437,-962.267725,-8427.050478,-740.205942
4202.996762,-1702.473667,-8656.879127,222.061783
4202.997086,-592.164754,-8044.002729,888.247130
4202.997410,0.000000,-8427.050478,-370.102971
4202.997734,2220.617826,-8273.831378,74.020594
4202.998059,2516.700203,-7124.688131,-296.082377
4202.998383,3404.947333,-9269.755526,-518.144159
4202.998707,3256.906145,-8273.831378,740.205942
4202.999032,3108.864956,-8197.221829,444.123565
4202.999356,0.000000,-8273.831378,-814.226536
4202.999680,148.041188,-9269.755526,0.000000
4203.000004,-814.226536,-8733.488677,-888.247130
4203.000329,-444.123565,-9346.365076,-370.102971
4203.000653,-222.061783,-8273.831378,-666.185348
4203.000977,592.164754,-9039.926876,-592.164754
4203.001301,-222.061783,-9039.926876,-222.061783
4203.001626,740.205942,-8656.879127,-962.267725
4203.001950,74.020594,-9422.974625,-1184.329507
4203.002274,-1850.514855,-8886.707777,-1110.308913
4203.002599,-1554.432478,-9116.536426,-814.226536
4203.002923,-3034.844362,-9729.412825,148.041188
4203.003247,-1184.329507,-7890.783629,-148.041188
4203.003571,1332.370696,-8886.707777,0.000000
4203.003896,1776.494261,-8503.660028,-592.164754
4203.004220,3256.906145,-9269.755526,296.082377
4203.004544,1998.556043,-7737.564530,-962.267725
4203.004868,2220.617826,-9499.584175,-592.164754
4203.005193,-666.185348,-8350.440928,-1036.288319
4203.005517,-296.082377,-9346.365076,0.000000
4203.005841,-1036.288319,-8273.831378,-888.247130
4203.006165,-1332.370696,-8350.440928,-740.205942
4203.006490,444.123565,-9346.365076,-222.061783
4203.006814,888.247130,-7890.783629,-1036.288319
4203.007138,1406.391290,-9729.412825,0.000000
4203.007463,-740.205942,-9346.365076,-888.247130
4203.007787,-518.144159,-9039.926876,-592.164754
4203.008111,-814.226536,-8273.831378,-1184.329507
4203.008435,-1258.350101,-9422.974625,-370.102971
4203.008760,-1332.370696,-8810.098227,0.000000
4203.009084,-888.247130,-8503.660028,592.164754
4203.009408,1110.308913,-7737.564530,148.041188
4203.009732,5107.421000,-7814.174080,1332.370696
4203.010057,2368.659014,-9039.926876,0.000000
4203.010381,3330.926739,-6894.859482,-370.102971
4203.010705,1998.556043,-9499.584175,814.226536
4203.011030,1924.535449,-7737.564530,-1998.556043
4203.011354,1036.288319,-9269.755526,2220.617826
4203.011678,-1702.473667,-8273.831378,-814.226536
4203.012002,-1776.494261,-9422.974625,444.123565
4203.012327,-666.185348,-6818.249932,-1110.308913
4203.012651,1110.308913,-9959.241474,1406.391290
4203.012975,1184.329507,-7124.688131,-1036.288319
4203.013299,1332.370696,-9729.412825,370.102971
4203.013624,74.020594,-8427.050478,-518.144159
4203.013948,296.082377,-8656.879127,-518.144159
4203.014272,-1776.494261,-8656.879127,0.000000
4203.014597,-1480.411884,-8350.440928,0.000000
4203.014921,-1184.329507,-8120.612279,222.061783
4203.015245,962.267725,-7660.954980,74.020594
4203.015569,888.247130,-8580.269578,1258.350101
4203.015894,3182.885551,-7814.174080,0.000000
4203.016218,2590.720797,-7890.783629,74.020594
4203.016542,2738.761985,-8503.660028,-296.082377
4203.016866,2294.638420,-8580.269578,-592.164754
4203.017191,814.226536,-8350.440928,-518.144159
4203.017515,-296.082377,-9039.926876,518.144159
4203.017839,-1036.288319,-8503.660028,-1110.308913
4203.018164,-370.102971,-9346.365076,-666.185348
4203.018488,1332.370696,-8044.002729,-518.144159
4203.018812,0.000000,-8044.002729,-148.041188
4203.019136,-222.061783,-9346.365076,0.000000
4203.019461,148.041188,-8656.879127,-1036.288319
4203.019785,-296.082377,-9346.365076,-1258.350101
4203.020109,-222.061783,-8580.269578,-1850.514855
4203.020433,-444.123565,-9116.536426,-666.185348
4203.020758,-962.267725,-8656.879127,-296.082377
4203.021082,0.000000,-8503.660028,0.000000
4203.021406,1480.411884,-7890.783629,-222.061783
4203.021731,2516.700203,-9039.926876,148.041188
4203.022055,2146.597232,-8580.269578,-592.164754
4203.022379,3108.864956,-9116.536426,-222.061783
4203.022703,74.020594,-8273.831378,-1850.514855
4203.023028,592.164754,-9652.803275,-444.123565
4203.023352,-1480.411884,-8273.831378,-1036.288319
4203.023676,-1924.535449,-9806.022374,-666.185348
4203.024000,-1480.411884,-8350.440928,-518.144159
4203.024325,-666.185348,-9039.926876,-222.061783
4203.024649,0.000000,-8427.050478,-1036.288319
4203.024973,814.226536,-8886.707777,-444.123565
4203.025298,1110.308913,-9806.022374,-888.247130
4203.025622,-222.061783,-8197.221829,-1628.453072
4203.025946,-370.102971,-9116.536426,-148.041188
4203.026270,-1924.535449,-9039.926876,-1184.329507
4203.026595,-296.082377,-9116.536426,74.020594
4203.026919,-962.267725,-7967.393179,0.000000
4203.027243,814.226536,-8197.221829,518.144159
4203.027567,1480.411884,-7354.516781,296.082377
4203.027892,2368.659014,-8427.050478,444.123565
4203.028216,2368.659014,-7967.393179,0.000000
4203.028540,2442.679609,-8810.098227,-592.164754
4203.028865,1702.473667,-8580.269578,-444.123565
4203.029189,888.247130,-8197.221829,0.000000
4203.029513,0.000000,-8503.660028,-74.020594
4203.029837,-222.061783,-8656.879127,-888.247130
4203.030162,1110.308913,-8427.050478,148.041188
4203.030486,222.061783,-8197.221829,-444.123565
4203.030810,1258.350101,-8580.269578,518.144159
4203.031134,518.144159,-8120.612279,0.000000
4203.031459,-740.205942,-9116.536426,-518.144159
4203.031783,-1258.350101,-8580.269578,-888.247130
4203.032107,-740.205942,-8350.440928,-814.226536
4203.032432,-1628.453072,-8580.269578,74.020594
4203.032756,148.041188,-8273.831378,666.185348
4203.033080,0.000000,-8273.831378,0.000000
4203.033404,1480.411884,-8503.660028,444.123565
4203.033729,2812.782580,-7890.783629,518.144159
4203.034053,4219.173869,-8580.269578,148.041188
4203.034377,3108.864956,-8350.440928,74.020594
4203.034701,3330.926739,-8963.317327,0.000000
4203.035026,962.267725,-8044.002729,-888.247130
4203.035350,888.247130,-8963.317327,-74.020594
4203.035674,-1406.391290,-8120.612279,0.000000
4203.035999,-1184.329507,-7737.564530,0.000000
4203.036323,296.082377,-8427.050478,74.020594
4203.036647,518.144159,-9116.536426,-222.061783
4203.036971,592.164754,-9269.755526,-962.267725
4203.037296,-296.082377,-8503.660028,-1554.432478
4203.037620,0.000000,-9269.755526,-370.102971
4203.037944,-1628.453072,-7890.783629,-1406.391290
4203.038268,-814.226536,-9882.631924,0.000000
4203.038593,-1110.308913,-7890.783629,-222.061783
4203.038917,444.123565,-8886.707777,444.123565
4203.039241,1628.453072,-7584.345430,-740.205942
4203.039566,2960.823768,-8963.317327,370.102971
4203.039890,2812.782580,-8427.050478,-666.185348
4203.040214,1776.494261,-8733.488677,-740.205942
4203.040538,592.164754,-8810.098227,-888.247130
4203.040863,0.000000,-8656.879127,0.000000
4203.041187,-1554.432478,-8197.221829,-518.144159
4203.041511,-74.020594,-9193.145976,-666.185348
4203.041835,0.000000,-8503.660028,-740.205942
4203.042160,592.164754,-8197.221829,-370.102971
4203.042484,1924.535449,-8810.098227,-296.082377
4203.042808,888.247130,-8810.098227,-518.144159
4203.043132,222.061783,-9269.755526,-222.061783
4203.043457,-592.164754,-8733.488677,-2072.576638
4203.043781,-1480.411884,-9422.974625,-592.164754
4203.044105,-2886.803174,-8580.269578,-518.144159
4203.044430,-2368.659014,-8580.269578,74.020594
4203.044754,-888.247130,-7890.783629,296.082377
4203.045078,444.123565,-8427.050478,148.041188
4203.045402,2590.720797,-8044.002729,222.061783
4203.045726,3701.029710,-7890.783629,296.082377
4203.046050,3404.947333,-8350.440928,-370.102971
4203.046375,2886.803174,-8044.002729,-1332.370696
4203.046699,1110.308913,-9806.022374,0.000000
4203.047023,-592.164754,-9346.365076,-222.061783
4203.047347,222.061783,-8886.707777,-740.205942
4203.047671,-2146.597232,-8733.488677,-888.247130
4203.047996,-2442.679609,-8580.269578,0.000000
4203.048320,-888.247130,-7507.735880,-370.102971
4203.048644,0.000000,-8503.660028,0.000000
4203.048968,592.164754,-8580.269578,-296.082377
4203.049292,666.185348,-8733.488677,-518.144159
4203.049617,-888.247130,-8044.002729,-740.205942
4203.049941,74.020594,-9269.755526,0.000000
4203.050265,-666.185348,-9039.926876,-222.061783
4203.050589,-1332.370696,-8273.831378,-222.061783
4203.050913,370.102971,-7967.393179,-148.041188
4203.051238,592.164754,-8427.050478,666.185348
4203.051562,2960.823768,-9116.536426,518.144159
4203.051886,3849.070898,-8580.269578,-296.082377
4203.052210,3404.947333,-8120.612279,-296.082377
4203.052534,1924.535449,-8273.831378,-444.123565
4203.052858,1258.350101,-9422.974625,-962.267725
4203.053183,148.041188,-8503.660028,-222.061783
4203.053507,296.082377,-9193.145976,1258.350101
4203.053831,-222.061783,-6511.811733,0.000000
4203.054155,2812.782580,-8503.660028,-666.185348
4203.054479,814.226536,-9806.022374,-296.082377
4203.054804,444.123565,-8733.488677,-1110.308913
4203.055128,1628.453072,-9269.755526,-296.082377
4203.055452,-1628.453072,-8580.269578,-296.082377
4203.055776,-1332.370696,-9346.365076,222.061783
4203.056100,-2590.720797,-7660.954980,-888.247130
4203.056425,-1924.535449,-9959.241474,518.144159
4203.056749,-1110.308913,-8503.660028,0.000000
4203.057073,-296.082377,-7660.954980,370.102971
4203.057397,2220.617826,-8503.660028,296.082377
4203.057721,2960.823768,-8120.612279,-592.164754
4203.058046,2812.782580,-9729.412825,-148.041188
4203.058370,2072.576638,-8503.660028,-962.267725
4203.058694,814.226536,-9039.926876,-518.144159
4203.059018,-148.041188,-9499.584175,0.000000
4203.059342,666.185348,-9039.926876,-518.144159
4203.059666,-592.164754,-8580.269578,-740.205942
4203.059991,-296.082377,-8580.269578,0.000000
4203.060315,-370.102971,-7967.393179,0.000000
4203.060639,1110.308913,-8580.269578,-666.185348
4203.060963,296.082377,-8886.707777,-1110.308913
4203.061287,-296.082377,-9576.193725,-1480.411884
4203.061612,-1258.350101,-8350.440928,-740.205942
4203.061936,-1184.329507,-8427.050478,222.061783
4203.062260,-740.205942,-9269.755526,-444.123565
4203.062584,222.061783,-8810.098227,-592.164754
4203.062908,1258.350101,-8120.612279,0.000000
4203.063233,2664.741391,-8580.269578,-296.082377
4203.063557,1406.391290,-8810.098227,-592.164754
4203.063881,1258.350101,-8963.317327,740.205942
4203.064205,666.185348,-7737.564530,-444.123565
4203.064529,0.000000,-8886.707777,-370.102971
4203.064854,-296.082377,-8273.831378,-1332.370696
4203.065178,-592.164754,-9576.193725,444.123565
4203.065502,-518.144159,-8273.831378,-1184.329507
4203.065826,370.102971,-9193.145976,222.061783
4203.066150,-222.061783,-8044.002729,74.020594
4203.066474,1184.329507,-9269.755526,-148.041188
4203.066799,222.061783,-8733.488677,-1184.329507
4203.067123,370.102971,-9499.584175,-518.144159
4203.067447,-592.164754,-7584.345430,-1110.308913
4203.067771,-1110.308913,-8810.098227,0.000000
4203.068095,-2146.597232,-8120.612279,0.000000
4203.068420,-296.082377,-8273.831378,962.267725
4203.068744,814.226536,-7507.735880,296.082377
4203.069068,2368.659014,-8273.831378,148.041188
4203.069392,3256.906145,-8580.269578,296.082377
4203.069716,4071.132681,-8503.660028,-444.123565
4203.070041,3182.885551,-8427.050478,-444.123565
4203.070365,1702.473667,-8963.317327,-444.123565
4203.070689,1258.350101,-8963.317327,0.000000
4203.071013,-666.185348,-8350.440928,0.000000
4203.071337,0.000000,-9116.536426,-1406.391290
4203.071662,444.123565,-8044.002729,-666.185348
4203.071986,518.144159,-8273.831378,0.000000
4203.072310,814.226536,-8197.221829,-296.082377
4203.072634,0.000000,-8963.317327,-666.185348
4203.072958,-518.144159,-8580.269578,-814.226536
4203.073283,-1036.288319,-8810.098227,-370.102971
4203.073607,-666.185348,-8427.050478,-888.247130
4203.073931,-1184.329507,-8733.488677,-592.164754
4203.074255,-814.226536,-8503.660028,-222.061783
4203.074579,444.123565,-8580.269578,222.061783
4203.074903,1480.411884,-8197.221829,-814.226536
4203.075228,2812.782580,-8197.221829,518.144159
4203.075552,3182.885551,-9193.145976,74.020594
4203.075876,2220.617826,-8503.660028,-666.185348
4203.076200,2368.659014,-9116.536426,-1036.288319
4203.076524,-740.205942,-8810.098227,-1110.308913
4203.076849,-370.102971,-9346.365076,0.000000
4203.077173,-1406.391290,-7660.954980,-740.205942
4203.077497,-740.205942,-9346.365076,0.000000
4203.077821,-888.247130,-8197.221829,-740.205942
4203.078145,592.164754,-8810.098227,0.000000
4203.078470,370.102971,-8656.879127,-814.226536
4203.078794,0.000000,-8197.221829,-1036.288319
4203.079118,666.185348,-9193.145976,-1110.308913
4203.079442,-444.123565,-8580.269578,-962.267725
4203.079766,-666.185348,-9422.974625,-962.267725
4203.080091,-1184.329507,-8503.660028,296.082377
4203.080415,0.000000,-8197.221829,222.061783
4203.080739,1702.473667,-7890.783629,-592.164754
4203.081063,3108.864956,-8963.317327,370.102971
4203.081387,2516.700203,-8733.488677,-666.185348
4203.081711,2442.679609,-8886.707777,0.000000
4203.082036,-3849.070898,-7431.126331,-962.267725
4203.082360,1184.329507,-10418.898773,74.020594
4203.082684,-2442.679609,-7124.688131,-888.247130
4203.083008,-370.102971,-10342.289223,1184.329507
4203.083332,0.000000,-6971.469032,-1480.411884
4203.083657,296.082377,-10035.851024,666.185348
4203.083981,1332.370696,-7737.564530,-592.164754
4203.084305,1850.514855,-9422.974625,-444.123565
4203.084629,740.205942,-9039.926876,0.000000
4203.084953,370.102971,-8733.488677,-1332.370696
4203.085278,-1628.453072,-8273.831378,-666.185348
4203.085602,-3627.009116,-8273.831378,592.164754
4203.085926,-2738.761985,-8580.269578,370.102971
4203.086250,-1258.350101,-7431.126331,0.000000
4203.086574,814.226536,-8427.050478,1406.391290
4203.086899,2442.679609,-7201.297681,296.082377
4203.087223,4441.235652,-8044.002729,444.123565
4203.087547,4441.235652,-8197.221829,74.020594
4203.087871,4737.318029,-9193.145976,-740.205942
4203.088195,1776.494261,-8273.831378,-1406.391290
4203.088519,740.205942,-9882.631924,222.061783
4203.088844,-296.082377,-8197.221829,-444.123565
4203.089168,-592.164754,-8350.440928,0.000000
4203.089492,-962.267725,-8810.098227,148.041188
4203.089816,0.000000,-8427.050478,0.000000
4203.090140,-74.020594,-8273.831378,-962.267725
4203.090465,-370.102971,-9346.365076,-370.102971
4203.090789,370.102971,-8427.050478,-1110.308913
4203.091113,666.185348,-8273.831378,-1184.329507
4203.091437,-740.205942,-7890.783629,-148.041188
4203.091761,-1184.329507,-8656.879127,-222.061783
4203.092086,-740.205942,-8273.831378,-962.267725
4203.092410,74.020594,-8886.707777,296.082377
4203.092734,1702.473667,-8503.660028,-296.082377
4203.093058,2368.659014,-8733.488677,0.000000
4203.093382,2812.782580,-8580.269578,-1184.329507
4203.093707,1702.473667,-9193.145976,0.000000
4203.094031,666.185348,-8886.707777,-888.247130
4203.094355,-1258.350101,-8120.612279,-1110.308913
4203.094679,-222.061783,-9116.536426,-370.102971
4203.095003,-1480.411884,-8503.660028,-740.205942
4203.095328,-814.226536,-7890.783629,-962.267725
4203.095652,1036.288319,-8580.269578,-962.267725
4203.095976,1332.370696,-9269.755526,0.000000
4203.096300,1332.370696,-9269.755526,-1702.473667
4203.096624,74.020594,-8963.317327,0.000000
4203.096948,-740.205942,-9652.803275,-1036.288319
4203.097273,-518.144159,-8886.707777,-814.226536
4203.097597,-888.247130,-9576.193725,-518.144159
4203.097921,-1998.556043,-7890.783629,-222.061783
4203.098245,-296.082377,-9039.926876,0.000000
4203.098569,1258.350101,-7737.564530,-518.144159
4203.098894,2590.720797,-8733.488677,-222.061783
4203.099218,3256.906145,-8427.050478,-592.164754
4203.099542,2072.576638,-8810.098227,-740.205942
4203.099866,1184.329507,-8503.660028,-518.144159
4203.100190,2220.617826,-8886.707777,-666.185348
4203.100515,-370.102971,-10035.851024,-740.205942
4203.100839,-1332.370696,-9729.412825,-666.185348
4203.101163,-814.226536,-7890.783629,-444.123565
4203.101487,-296.082377,-9039.926876,-518.144159
4203.101811,370.102971,-7967.393179,-296.082377
4203.102136,222.061783,-8197.221829,-370.102971
4203.102460,-518.144159,-9576.193725,-666.185348
4203.102784,-518.144159,-8273.831378,-740.205942
4203.103108,-296.082377,-8427.050478,0.000000
4203.103432,-1332.370696,-8810.098227,-222.061783
4203.103756,-592.164754,-8580.269578,592.164754
4203.104081,0.000000,-7124.688131,-148.041188
4203.104405,4145.153275,-8810.098227,1332.370696
4203.104729,3256.906145,-8197.221829,222.061783
4203.105053,3701.029710,-8733.488677,370.102971
4203.105377,2368.659014,-8273.831378,0.000000
4203.105702,1406.391290,-8733.488677,0.000000
4203.106026,-148.041188,-8503.660028,-444.123565
4203.106350,-1258.350101,-8733.488677,296.082377
4203.106674,-592.164754,-8427.050478,296.082377
4203.106998,-666.185348,-8120.612279,-592.164754
4203.107323,1702.473667,-8273.831378,444.123565
4203.107647,1554.432478,-7354.516781,-148.041188
4203.107971,1924.535449,-8273.831378,666.185348
4203.108295,3034.844362,-8886.707777,-296.082377
4203.108619,666.185348,-8273.831378,-1184.329507
4203.108944,0.000000,-9269.755526,0.000000
4203.109268,-74.020594,-7814.174080,-962.267725
4203.109592,-1702.473667,-9652.803275,0.000000
4203.109916,-1110.308913,-8427.050478,0.000000
4203.110240,444.123565,-8273.831378,814.226536
4203.110564,1480.411884,-8427.050478,74.020594
4203.110889,2368.659014,-8427.050478,0.000000
4203.111213,3330.926739,-8503.660028,-592.164754
4203.111537,1480.411884,-8733.488677,-1332.370696
4203.111861,666.185348,-8963.317327,-222.061783
4203.112185,518.144159,-8503.660028,-740.205942
4203.112510,-222.061783,-10035.851024,-222.061783
4203.112834,-1258.350101,-8580.269578,-962.267725
4203.113158,-1110.308913,-9576.193725,-444.123565
4203.113482,-1258.350101,-8197.221829,-1406.391290
4203.113806,888.247130,-9729.412825,-296.082377
4203.114131,-888.247130,-8656.879127,-1776.494261
4203.114455,-222.061783,-9576.193725,0.000000
4203.114779,-666.185348,-7584.345430,-1628.453072
4203.115103,-592.164754,-9729.412825,-444.123565
4203.115427,-962.267725,-8427.050478,-888.247130
4203.115752,-666.185348,-8733.488677,-296.082377
4203.116076,296.082377,-7660.954980,-518.144159
4203.116400,3478.967927,-8350.440928,666.185348
4203.116724,2886.803174,-8273.831378,-740.205942
4203.117048,3034.844362,-9652.803275,-888.247130
4203.117372,1406.391290,-8120.612279,-1184.329507
4203.117697,666.185348,-9193.145976,-740.205942
4203.118021,-1332.370696,-9346.365076,-592.164754
4203.118345,-1554.432478,-9193.145976,-592.164754
4203.118669,-2664.741391,-8503.660028,-814.226536
4203.118993,-1332.370696,-8503.660028,-888.247130
4203.119318,0.000000,-8273.831378,74.020594
4203.119642,1702.473667,-8656.879127,-518.144159
4203.119966,1258.350101,-9039.926876,-518.144159
4203.120290,592.164754,-8810.098227,-1702.473667
4203.120614,0.000000,-9116.536426,-296.082377
4203.120939,-888.247130,-8120.612279,-296.082377
4203.121263,-148.041188,-8503.660028,666.185348
4203.121587,-296.082377,-8580.269578,0.000000
4203.121911,-592.164754,-8350.440928,222.061783
4203.122235,1924.535449,-8197.221829,222.061783
4203.122560,2368.659014,-7660.954980,518.144159
4203.122884,1998.556043,-8503.660028,370.102971
4203.123208,814.226536,-8197.221829,222.061783
4203.123532,962.267725,-8503.660028,-740.205942
4203.123856,666.185348,-8886.707777,-962.267725
4203.124181,-370.102971,-8886.707777,-444.123565
4203.124505,0.000000,-9269.755526,-148.041188
4203.124829,-444.123565,-8044.002729,666.185348
4203.125153,1702.473667,-8120.612279,-370.102971
4203.125477,2220.617826,-8197.221829,0.000000
4203.125801,1924.535449,-8580.269578,222.061783
4203.126126,1258.350101,-7890.783629,-1258.350101
4203.126450,0.000000,-8886.707777,-814.226536
4203.126774,0.000000,-8350.440928,-222.061783
4203.127098,-1258.350101,-8427.050478,0.000000
4203.127422,-1702.473667,-7967.393179,-370.102971
4203.127747,-1110.308913,-7967.393179,296.082377
4203.128071,962.267725,-7814.174080,0.000000
4203.128395,2072.576638,-8197.221829,-148.041188
4203.128719,3478.967927,-8963.317327,-592.164754
4203.129043,3034.844362,-8120.612279,-444.123565
4203.129368,1924.535449,-8580.269578,-814.226536
4203.129692,1110.308913,-9116.536426,-740.205942
4203.130016,296.082377,-8580.269578,-1258.350101
4203.130340,-814.226536,-9422.974625,0.000000
4203.130664,-1332.370696,-8810.098227,-1332.370696
4203.130989,-148.041188,-8810.098227,74.020594
4203.131313,0.000000,-7814.174080,0.000000
4203.131637,-444.123565,-8273.831378,222.061783
4203.131961,592.164754,-8656.879127,-222.061783
4203.132285,370.102971,-8963.317327,-1184.329507
4203.132609,0.000000,-9193.145976,-1332.370696
4203.132934,-962.267725,-9346.365076,-962.267725
4203.133258,-1184.329507,-7967.393179,0.000000
4203.133582,-296.082377,-8810.098227,0.000000
4203.133906,1258.350101,-8273.831378,370.102971
4203.134230,2294.638420,-8580.269578,444.123565
4203.134555,2886.803174,-8733.488677,-888.247130
4203.134879,2146.597232,-9499.584175,-1258.350101
4203.135203,1998.556043,-8810.098227,-1258.350101
4203.135527,222.061783,-8886.707777,-740.205942
4203.135851,-1184.329507,-9729.412825,-740.205942
4203.136176,-2220.617826,-9422.974625,-296.082377
4203.136500,-2738.761985,-8503.660028,-1184.329507
4203.136824,-666.185348,-8810.098227,-1258.350101
4203.137148,-296.082377,-8656.879127,-444.123565
4203.137472,-740.205942,-8656.879127,-1110.308913
4203.137797,-592.164754,-8350.440928,-1110.308913
4203.138121,592.164754,-10112.460574,444.123565
4203.138445,-1258.350101,-7354.516781,-666.185348
4203.138769,0.000000,-8810.098227,-296.082377
4203.139093,-1480.411884,-8656.879127,74.020594
4203.139417,74.020594,-8963.317327,148.041188
4203.139742,1184.329507,-6971.469032,-444.123565
4203.140066,2886.803174,-9729.412825,1258.350101
4203.140390,5477.523971,-7048.078582,518.144159
4203.140714,-1258.350101,-8197.221829,222.061783
4203.141038,2664.741391,-8350.440928,-222.061783
4203.141363,-1258.350101,-8427.050478,-518.144159
4203.141687,518.144159,-9806.022374,0.000000
4203.142011,-1258.350101,-8120.612279,-444.123565
4203.142335,-740.205942,-8580.269578,-222.061783
4203.142659,-1850.514855,-7890.783629,1184.329507
4203.142984,1406.391290,-8120.612279,-814.226536
4203.143308,2368.659014,-8733.488677,740.205942
4203.143632,1036.288319,-7967.393179,-296.082377
4203.143956,1332.370696,-8044.002729,-888.247130
4203.144280,740.205942,-9193.145976,-592.164754
4203.144605,444.123565,-8350.440928,296.082377
4203.144929,-666.185348,-8656.879127,-296.082377
4203.145253,-1258.350101,-7967.393179,814.226536
4203.145577,1184.329507,-8503.660028,1258.350101
4203.145901,2220.617826,-7354.516781,-296.082377
4203.146225,3108.864956,-8733.488677,740.205942
4203.146550,2664.741391,-7201.297681,-666.185348
4203.146874,2072.576638,-8503.660028,-370.102971
4203.147198,814.226536,-9499.584175,-962.267725
4203.147522,962.267725,-9499.584175,592.164754
4203.147846,-1554.432478,-8503.660028,-1258.350101
4203.148171,-2590.720797,-9499.584175,-222.061783
4203.148495,0.000000,-8656.879127,-814.226536
4203.148819,0.000000,-8810.098227,-592.164754
4203.149143,2146.597232,-8580.269578,-370.102971
4203.149467,1184.329507,-8044.002729,-666.185348
4203.149792,1998.556043,-9729.412825,0.000000
4203.150116,666.185348,-8197.221829,-1406.391290
4203.150440,74.020594,-9729.412825,-740.205942
4203.150764,-1184.329507,-7814.174080,-296.082377
4203.151088,-1332.370696,-8963.317327,-592.164754
4203.151412,370.102971,-8273.831378,-1258.350101
4203.151737,888.247130,-8197.221829,222.061783
4203.152061,2590.720797,-9116.536426,-148.041188
4203.152385,2516.700203,-8580.269578,-666.185348
4203.152709,2072.576638,-9652.803275,-370.102971
4203.153033,1036.288319,-8580.269578,-1480.411884
4203.153358,370.102971,-9346.365076,-888.247130
4203.153682,-740.205942,-9193.145976,-1406.391290
4203.154006,-1554.432478,-9269.755526,-222.061783
4203.154330,-2072.576638,-7660.954980,-1406.391290
4203.154654,-1406.391290,-9039.926876,148.041188
4203.154978,518.144159,-7737.564530,-1332.370696
4203.155303,888.247130,-9652.803275,-518.144159
4203.155627,370.102971,-8656.879127,-1554.432478
4203.155951,370.102971,-8273.831378,-592.164754
4203.156275,222.061783,-8733.488677,-888.247130
4203.156599,-1036.288319,-7814.174080,-740.205942
4203.156924,-148.041188,-9806.022374,74.020594
4203.157248,-370.102971,-8197.221829,-592.164754
4203.157572,962.267725,-8886.707777,814.226536
4203.157896,518.144159,-7431.126331,74.020594
4203.158220,2146.597232,-9116.536426,370.102971
4203.158544,1480.411884,-7967.393179,-740.205942
4203.158869,740.205942,-8733.488677,-592.164754
4203.159193,1702.473667,-9576.193725,-740.205942
4203.159517,-592.164754,-8733.488677,-296.082377
4203.159841,-296.082377,-10112.460574,0.000000
4203.160165,-814.226536,-7354.516781,-666.185348
4203.160490,888.247130,-9039.926876,370.102971
4203.160814,888.247130,-7584.345430,-888.247130
4203.161138,2294.638420,-8810.098227,1036.288319
4203.161462,148.041188,-8197.221829,-592.164754
4203.161786,592.164754,-8886.707777,-74.020594
4203.162111,222.061783,-8273.831378,0.000000
4203.162435,-1406.391290,-8350.440928,-444.123565
4203.162759,-1554.432478,-9422.974625,148.041188
4203.163083,-1554.432478,-7737.564530,1036.288319
4203.163407,1036.288319,-9116.536426,888.247130
4203.163731,2072.576638,-6588.421283,-518.144159
4203.164056,2738.761985,-9039.926876,222.061783
4203.164380,2664.741391,-7277.907231,370.102971
4203.164704,4663.297435,-9806.022374,666.185348
4203.165028,1184.329507,-6894.859482,-1850.514855
4203.165352,1924.535449,-10112.460574,1110.308913
4203.165677,74.020594,-7890.783629,-666.185348
4203.166001,-1554.432478,-9576.193725,-592.164754
4203.166325,-1480.411884,-8963.317327,-370.102971
4203.166649,-222.061783,-7967.393179,0.000000
4203.166973,-296.082377,-9652.803275,-370.102971
4203.167297,666.185348,-8656.879127,-518.144159
4203.167622,1850.514855,-8733.488677,-666.185348
4203.167946,1110.308913,-8580.269578,-1258.350101
4203.168270,-74.020594,-10112.460574,-518.144159
4203.168594,-518.144159,-7048.078582,-814.226536
4203.168918,-370.102971,-8963.317327,444.123565
4203.169243,74.020594,-7584.345430,-666.185348
4203.169567,3478.967927,-9269.755526,444.123565
4203.169891,2072.576638,-8044.002729,-1184.329507
4203.170215,1702.473667,-9806.022374,-592.164754
4203.170539,370.102971,-8273.831378,-1406.391290
4203.170863,444.123565,-9806.022374,-370.102971
4203.171188,-148.041188,-9499.584175,-1184.329507
4203.171512,-1702.473667,-9346.365076,-444.123565
4203.171836,-1258.350101,-8810.098227,-444.123565
4203.172160,-1998.556043,-7737.564530,-888.247130
4203.172484,0.000000,-9576.193725,-592.164754
4203.172809,1332.370696,-8044.002729,-1258.350101
4203.173133,2590.720797,-9806.022374,-666.185348
4203.173457,814.226536,-8656.879127,-1628.453072
4203.173781,1110.308913,-9422.974625,-666.185348
4203.174105,370.102971,-8350.440928,-1554.432478
4203.174430,-962.267725,-9116.536426,0.000000
4203.174754,-1702.473667,-8503.660028,-444.123565
4203.175078,-888.247130,-9039.926876,0.000000
4203.175402,-296.082377,-8120.612279,444.123565
4203.175726,1480.411884,-8044.002729,74.020594
4203.176050,1702.473667,-7890.783629,0.000000
4203.176375,2812.782580,-7967.393179,74.020594
4203.176699,3478.967927,-8886.707777,-1110.308913
4203.177023,1850.514855,-9116.536426,-1332.370696
4203.177347,222.061783,-8044.002729,0.000000
4203.177671,-370.102971,-8886.707777,518.144159
4203.177996,-1036.288319,-8197.221829,-222.061783
4203.178320,-592.164754,-8503.660028,518.144159
4203.178644,1480.411884,-8810.098227,-592.164754
4203.178968,222.061783,-8886.707777,-296.082377
4203.179292,-444.123565,-8580.269578,-74.020594
4203.179616,-148.041188,-8810.098227,-1184.329507
4203.179941,0.000000,-8350.440928,-148.041188
4203.180265,-1702.473667,-8273.831378,-222.061783
4203.180589,-1258.350101,-7967.393179,0.000000
4203.180913,-518.144159,-7584.345430,1036.288319
4203.181237,518.144159,-8427.050478,-370.102971
4203.181562,2590.720797,-8350.440928,74.020594
4203.181886,3701.029710,-7737.564530,-222.061783
4203.182210,2442.679609,-8427.050478,592.164754
4203.182534,1850.514855,-8656.879127,-1406.391290
4203.182858,1406.391290,-9269.755526,370.102971
4203.183182,74.020594,-8427.050478,0.000000
4203.183507,-1184.329507,-8810.098227,-370.102971
4203.183831,-1924.535449,-9269.755526,0.000000
4203.184155,-962.267725,-7737.564530,0.000000
4203.184479,518.144159,-8580.269578,-148.041188
4203.184803,1628.453072,-8963.317327,-1184.329507
4203.185128,2590.720797,-9039.926876,-740.205942
4203.185452,1924.535449,-8120.612279,-1332.370696
4203.185776,1258.350101,-9806.022374,296.082377
4203.186100,-1628.453072,-7737.564530,-370.102971
4203.186424,-962.267725,-10265.679673,370.102971
4203.186749,-666.185348,-8886.707777,-1406.391290
4203.187073,0.000000,-10035.851024,1702.473667
4203.187397,-296.082377,-6281.983084,-1702.473667
4203.187721,3552.988522,-10648.727422,-222.061783
4203.188045,1258.350101,-8810.098227,-1036.288319
4203.188369,1110.308913,-9499.584175,0.000000
4203.188694,1258.350101,-6971.469032,-1332.370696
4203.189018,222.061783,-9576.193725,0.000000
4203.189342,0.000000,-8656.879127,-444.123565
4203.189666,-518.144159,-9882.631924,-1110.308913
4203.189990,-1258.350101,-8963.317327,-740.205942
4203.190315,444.123565,-8963.317327,-296.082377
4203.190639,444.123565,-8503.660028,-666.185348
4203.190963,1850.514855,-9882.631924,-1258.350101
4203.191287,888.247130,-8197.221829,-1110.308913
4203.191611,-296.082377,-9269.755526,-1776.494261
4203.191935,-1406.391290,-9039.926876,-148.041188
4203.192260,-1184.329507,-7737.564530,222.061783
4203.192584,-370.102971,-8580.269578,148.041188
4203.192908,-1554.432478,-8733.488677,-814.226536
4203.193232,2442.679609,-8580.269578,-444.123565
4203.193556,2368.659014,-8044.002729,-148.041188
4203.193881,1924.535449,-9039.926876,-962.267725
4203.194205,2664.741391,-8580.269578,518.144159
4203.194529,888.247130,-8273.831378,-1184.329507
4203.194853,1184.329507,-9193.145976,-148.041188
4203.195177,-370.102971,-8656.879127,-1036.288319
4203.195501,-1628.453072,-9499.584175,444.123565
4203.195826,-962.267725,-7354.516781,-148.041188
4203.196150,1184.329507,-9729.412825,0.000000
4203.196474,370.102971,-8044.002729,0.000000
4203.196798,1258.350101,-8580.269578,0.000000
4203.197122,592.164754,-8886.707777,-740.205942
4203.197447,370.102971,-8810.098227,0.000000
4203.197771,222.061783,-7890.783629,-814.226536
4203.198095,74.020594,-9193.145976,296.082377
4203.198419,-2146.597232,-7967.393179,-518.144159
4203.198743,-1036.288319,-8503.660028,1258.350101
4203.199068,444.123565,-7660.954980,444.123565
4203.199392,1924.535449,-9039.926876,666.185348
4203.199716,2294.638420,-7890.783629,-1184.329507
4203.200040,2812.782580,-8656.879127,222.061783
4203.200364,1332.370696,-7584.345430,-888.247130
4203.200688,1924.535449,-9346.365076,222.061783
4203.201013,148.041188,-8197.221829,-296.082377
4203.201337,-592.164754,-8886.707777,0.000000
4203.201661,-962.267725,-7814.174080,-1332.370696
4203.201985,1110.308913,-9269.755526,0.000000
4203.202309,962.267725,-7431.126331,-740.205942
4203.202634,962.267725,-9422.974625,0.000000
4203.202958,370.102971,-7814.174080,-1406.391290
4203.203282,-296.082377,-9652.803275,0.000000
4203.203606,-296.082377,-7584.345430,-1924.535449
4203.203930,-888.247130,-9806.022374,222.061783
4203.204254,-1036.288319,-6971.469032,-518.144159
4203.204579,-1110.308913,-9576.193725,518.144159
4203.204903,0.000000,-7507.735880,-1258.350101
4203.205227,962.267725,-9499.584175,814.226536
4203.205551,2886.803174,-8273.831378,-962.267725
4203.205875,3330.926739,-9422.974625,0.000000
4203.206200,2220.617826,-8120.612279,-740.205942
4203.206524,1850.514855,-10035.851024,-666.185348
4203.206848,-222.061783,-8810.098227,-1406.391290
4203.207172,-962.267725,-9652.803275,-370.102971
4203.207496,-1924.535449,-8733.488677,-148.041188
4203.207821,-1554.432478,-9422.974625,-296.082377
4203.208145,-444.123565,-9422.974625,-1258.350101
4203.208469,296.082377,-8580.269578,-518.144159
4203.208793,444.123565,-8120.612279,-1258.350101
4203.209117,148.041188,-9346.365076,-592.164754
4203.209441,222.061783,-8427.050478,-2146.597232
4203.209766,148.041188,-9422.974625,0.000000
4203.210090,-370.102971,-8963.317327,74.020594
4203.210414,-1258.350101,-7967.393179,-296.082377
4203.210738,-592.164754,-9422.974625,148.041188
4203.211062,1258.350101,-8197.221829,0.000000
4203.211387,2664.741391,-9116.536426,-740.205942
4203.211711,1924.535449,-8427.050478,74.020594
4203.212035,1776.494261,-8656.879127,74.020594
4203.212359,592.164754,-8273.831378,-1110.308913
4203.212683,1406.391290,-9729.412825,-518.144159
4203.213007,444.123565,-8044.002729,-222.061783
4203.213332,-296.082377,-8656.879127,-148.041188
4203.213656,-740.205942,-8197.221829,-666.185348
4203.213980,962.267725,-8886.707777,222.061783
4203.214304,814.226536,-8350.440928,-592.164754
4203.214628,1110.308913,-9039.926876,-444.123565
4203.214953,1332.370696,-9193.145976,-148.041188
4203.215277,0.000000,-8656.879127,-814.226536
4203.215601,74.020594,-8503.660028,-666.185348
4203.215925,-1110.308913,-8197.221829,74.020594
4203.216249,-370.102971,-8044.002729,518.144159
4203.216573,-888.247130,-7584.345430,962.267725
4203.216898,1110.308913,-7890.783629,740.205942
4203.217222,2886.803174,-7814.174080,-148.041188
4203.217546,3923.091493,-8427.050478,0.000000
4203.217870,3182.885551,-9193.145976,-592.164754
4203.218194,2220.617826,-8197.221829,0.000000
4203.218519,2072.576638,-8963.317327,148.041188
4203.218843,0.000000,-8656.879127,-592.164754
4203.219167,-1110.308913,-9729.412825,148.041188
4203.219491,-2294.638420,-7431.126331,-518.144159
4203.219815,148.041188,-8580.269578,444.123565
4203.220140,74.020594,-8350.440928,-814.226536
4203.220464,1702.473667,-9346.365076,592.164754
4203.220788,814.226536,-7431.126331,-1554.432478
4203.221112,296.082377,-9576.193725,-740.205942
4203.221436,888.247130,-8427.050478,-1480.411884
4203.221760,0.000000,-8656.879127,370.102971
4203.222085,-740.205942,-7890.783629,-296.082377
4203.222409,370.102971,-8350.440928,1110.308913
4203.222733,148.041188,-8044.002729,0.000000
4203.223057,2220.617826,-8580.269578,222.061783
4203.223381,3034.844362,-8044.002729,-888.247130
4203.223706,2442.679609,-9269.755526,-592.164754
4203.224030,740.205942,-9039.926876,-1332.370696
4203.224354,-370.102971,-8503.660028,-740.205942
4203.224678,-666.185348,-9576.193725,-148.041188
4203.225002,-2072.576638,-7890.783629,-740.205942
4203.225326,-1258.350101,-8810.098227,74.020594
4203.225651,-2220.617826,-7124.688131,-222.061783
4203.225975,2294.638420,-9576.193725,-1258.350101
4203.226299,1036.288319,-9116.536426,-1480.411884
4203.226623,962.267725,-9422.974625,-666.185348
4203.226947,-370.102971,-7507.735880,-962.267725
4203.227272,-592.164754,-9116.536426,-1332.370696
4203.227596,-1628.453072,-9729.412825,-370.102971
4203.227920,-2368.659014,-7507.735880,-518.144159
4203.228244,-740.205942,-9422.974625,-518.144159
4203.228568,-740.205942,-8503.660028,-148.041188
4203.228892,2812.782580,-7967.393179,148.041188
4203.229217,3775.050304,-8963.317327,296.082377
4203.229541,2960.823768,-8197.221829,-518.144159
4203.229865,3552.988522,-8503.660028,-296.082377
4203.230189,1850.514855,-8503.660028,-814.226536
4203.230513,1406.391290,-9193.145976,-296.082377
4203.230838,-296.082377,-8350.440928,-592.164754
4203.231162,-2072.576638,-8810.098227,-666.185348
4203.231486,-2220.617826,-8580.269578,296.082377
4203.231810,-592.164754,-8427.050478,-666.185348
4203.232134,-370.102971,-9269.755526,0.000000
4203.232459,-148.041188,-8273.831378,-444.123565
4203.232783,814.226536,-9039.926876,-666.185348
4203.233107,0.000000,-8273.831378,-1554.432478
4203.233431,1406.391290,-8886.707777,518.144159
4203.233755,0.000000,-7814.174080,518.144159
4203.234079,-592.164754,-8580.269578,740.205942
4203.234404,222.061783,-8580.269578,370.102971
4203.234728,1776.494261,-8656.879127,222.061783
4203.235052,2590.720797,-8350.440928,444.123565
4203.235376,3552.988522,-8427.050478,0.000000
4203.235700,1554.432478,-8120.612279,0.000000
4203.236025,1850.514855,-8580.269578,-148.041188
4203.236349,296.082377,-8503.660028,-296.082377
4203.236673,-814.226536,-8886.707777,222.061783
4203.236997,74.020594,-8427.050478,0.000000
4203.237321,0.000000,-7967.393179,0.000000
4203.237645,1184.329507,-8120.612279,0.000000
4203.237970,1702.473667,-7354.516781,-814.226536
4203.238294,1776.494261,-8810.098227,0.000000
4203.238618,1850.514855,-8580.269578,-296.082377
4203.238942,666.185348,-9269.755526,-962.267725
4203.239266,296.082377,-8273.831378,-148.041188
4203.239591,-2220.617826,-8044.002729,-592.164754
4203.239915,-518.144159,-8733.488677,148.041188
4203.240239,0.000000,-7890.783629,148.041188
4203.240563,-2960.823768,-6665.030833,-222.061783
4203.240887,-296.082377,-10265.679673,592.164754
4203.241211,444.123565,-6281.983084,-2072.576638
4203.241536,1776.494261,-10572.117872,1702.473667
4203.241860,2812.782580,-7277.907231,-2664.741391
4203.242184,-222.061783,-9882.631924,-370.102971
4203.242508,-1628.453072,-9116.536426,-518.144159
4203.242832,-2442.679609,-8810.098227,-888.247130
4203.243157,-740.205942,-9652.803275,-222.061783
4203.243481,-2220.617826,-8810.098227,-1258.350101
4203.243805,592.164754,-8963.317327,-1110.308913
4203.244129,740.205942,-8656.879127,-1332.370696
4203.244453,296.082377,-9116.536426,0.000000
4203.244778,-148.041188,-7124.688131,-1184.329507
4203.245102,0.000000,-9346.365076,148.041188
4203.245426,-592.164754,-8427.050478,-1110.308913
4203.245750,-740.205942,-9193.145976,148.041188
4203.246075,296.082377,-9652.803275,148.041188
4203.246399,-148.041188,-8810.098227,296.082377
4203.246723,1332.370696,-8044.002729,-518.144159
4203.247047,1850.514855,-8886.707777,0.000000
4203.247372,1554.432478,-8886.707777,-666.185348
4203.247696,444.123565,-8044.002729,-1036.288319
4203.248020,370.102971,-8886.707777,-740.205942
4203.248345,-296.082377,-8810.098227,-814.226536
4203.248669,-370.102971,-8197.221829,-814.226536
4203.248993,-1776.494261,-8656.879127,0.000000
4203.249317,0.000000,-7890.783629,-444.123565
4203.249642,444.123565,-8733.488677,-592.164754
4203.249966,666.185348,-8810.098227,-222.061783
4203.250290,1258.350101,-8044.002729,-666.185348
4203.250615,0.000000,-8733.488677,-1480.411884
4203.250939,296.082377,-9039.926876,0.000000
4203.251263,0.000000,-7354.516781,-592.164754
4203.251588,-1554.432478,-9269.755526,814.226536
4203.251912,-518.144159,-7584.345430,666.185348
4203.252236,444.123565,-8273.831378,666.185348
4203.252560,1924.535449,-8044.002729,-148.041188
4203.252885,2960.823768,-7967.393179,740.205942
4203.253209,3552.988522,-8733.488677,0.000000
4203.253533,2590.720797,-7890.783629,-296.082377
4203.253858,2072.576638,-8427.050478,-1110.308913
4203.254182,518.144159,-8733.488677,74.020594
4203.254506,-370.102971,-7967.393179,-148.041188
4203.254830,-666.185348,-9039.926876,0.000000
4203.255155,-888.247130,-8120.612279,0.000000
4203.255479,888.247130,-8273.831378,74.020594
4203.255803,1924.535449,-8273.831378,-370.102971
4203.256128,2294.638420,-8886.707777,-518.144159
4203.256452,2220.617826,-9193.145976,-148.041188
4203.256776,740.205942,-8197.221829,-1110.308913
4203.257101,962.267725,-8886.707777,-148.041188
4203.257425,518.144159,-9346.365076,-148.041188
4203.257749,-296.082377,-8810.098227,888.247130
4203.258073,296.082377,-8350.440928,0.000000
4203.258398,814.226536,-8273.831378,0.000000
4203.258722,2516.700203,-9193.145976,-444.123565
4203.259046,1998.556043,-8197.221829,-518.144159
4203.259371,1776.494261,-8886.707777,-518.144159
4203.259695,296.082377,-8273.831378,-666.185348
4203.260019,592.164754,-9193.145976,-1110.308913
4203.260343,-962.267725,-8580.269578,-1628.453072
4203.260668,-1628.453072,-8810.098227,-148.041188
4203.260992,-2590.720797,-8197.221829,-370.102971
4203.261316,-962.267725,-8656.879127,-962.267725
4203.261641,518.144159,-8656.879127,-1036.288319
4203.261965,1110.308913,-9039.926876,-666.185348
4203.262289,74.020594,-9193.145976,-1480.411884
4203.262613,444.123565,-8963.317327,-814.226536
4203.262938,666.185348,-8886.707777,-1258.350101
4203.263262,-1184.329507,-9346.365076,0.000000
4203.263586,-1036.288319,-9346.365076,0.000000
4203.263911,-740.205942,-8197.221829,0.000000
4203.264235,296.082377,-8886.707777,-222.061783
4203.264559,1110.308913,-9422.974625,-592.164754
4203.264884,1332.370696,-9116.536426,148.041188
4203.265208,592.164754,-8120.612279,0.000000
4203.265532,296.082377,-9116.536426,-1406.391290
4203.265856,740.205942,-8886.707777,-888.247130
4203.266181,-592.164754,-8963.317327,-666.185348
4203.266505,-1554.432478,-8503.660028,-814.226536
4203.266829,-1776.494261,-8656.879127,0.000000
4203.267154,296.082377,-7814.174080,-148.041188
4203.267478,1924.535449,-8963.317327,148.041188
4203.267802,1258.350101,-8197.221829,-370.102971
4203.268126,1554.432478,-9193.145976,-222.061783
4203.268451,296.082377,-7890.783629,-814.226536
4203.268775,-444.123565,-9652.803275,-148.041188
4203.269099,-2368.659014,-8427.050478,-148.041188
4203.269424,-2220.617826,-8656.879127,592.164754
4203.269748,-1776.494261,-8197.221829,814.226536
4203.270072,-740.205942,-7814.174080,444.123565
4203.270396,592.164754,-7584.345430,148.041188
4203.270721,2590.720797,-8580.269578,0.000000
4203.271045,2738.761985,-8273.831378,148.041188
4203.271369,1258.350101,-8273.831378,-740.205942
4203.271694,1998.556043,-7967.393179,0.000000
4203.272018,370.102971,-8120.612279,148.041188
4203.272342,148.041188,-8350.440928,0.000000
4203.272667,-518.144159,-8810.098227,222.061783
4203.272991,962.267725,-8656.879127,-444.123565
4203.273315,1554.432478,-7967.393179,0.000000
4203.273639,2072.576638,-7354.516781,444.123565
4203.273964,1332.370696,-8273.831378,888.247130
4203.274288,3034.844362,-8580.269578,-740.205942
4203.274612,1554.432478,-8503.660028,-1480.411884
4203.274937,-666.185348,-8886.707777,-666.185348
4203.275261,518.144159,-8120.612279,518.144159
4203.275585,-1406.391290,-8273.831378,222.061783
4203.275909,-370.102971,-8656.879127,444.123565
4203.276234,1258.350101,-7890.783629,370.102971
4203.276558,1998.556043,-9116.536426,-296.082377
4203.276882,2590.720797,-8427.050478,-740.205942
4203.277207,3552.988522,-9193.145976,-370.102971
4203.277531,962.267725,-8427.050478,-1850.514855
4203.277855,0.000000,-9269.755526,-222.061783
4203.278179,-814.226536,-8273.831378,-518.144159
4203.278504,-296.082377,-9116.536426,222.061783
4203.278828,-814.226536,-7737.564530,-296.082377
4203.279152,0.000000,-9116.536426,-444.123565
4203.279477,2146.597232,-8656.879127,-1332.370696
4203.279801,1036.288319,-9039.926876,-1480.411884
4203.280125,2146.597232,-9806.022374,-814.226536
4203.280450,-296.082377,-8810.098227,-518.144159
4203.280774,-814.226536,-9499.584175,-1110.308913
4203.281098,-1924.535449,-9652.803275,-148.041188
4203.281422,-1036.288319,-9193.145976,-296.082377
4203.281747,-666.185348,-9116.536426,-740.205942
4203.282071,296.082377,-8427.050478,-592.164754
4203.282395,2442.679609,-8656.879127,0.000000
4203.282720,3034.844362,-8273.831378,-962.267725
4203.283044,2368.659014,-9499.584175,370.102971
4203.283368,2072.576638,-8120.612279,-1850.514855
4203.283692,1036.288319,-9422.974625,-962.267725
4203.284017,-222.061783,-8120.612279,-1184.329507
4203.284341,-740.205942,-9039.926876,-370.102971
4203.284665,-2738.761985,-8044.002729,-1184.329507
4203.284990,-1554.432478,-9269.755526,296.082377
4203.285314,296.082377,-8120.612279,-888.247130
4203.285638,148.041188,-9116.536426,296.082377
4203.285962,1110.308913,-7890.783629,-814.226536
4203.286287,1036.288319,-9422.974625,-444.123565
4203.286611,-1776.494261,-8427.050478,-1628.453072
4203.286935,0.000000,-9499.584175,592.164754
4203.287260,-1702.473667,-7814.174080,0.000000
4203.287584,-962.267725,-9806.022374,1110.308913
4203.287908,-888.247130,-7124.688131,-370.102971
4203.288233,592.164754,-9116.536426,1184.329507
4203.288557,2442.679609,-8273.831378,-518.144159
4203.288881,2442.679609,-8350.440928,0.000000
4203.289205,1480.411884,-7967.393179,518.144159
4203.289530,1406.391290,-7584.345430,-74.020594
4203.289854,-666.185348,-8733.488677,148.041188
4203.290178,0.000000,-8810.098227,0.000000
4203.290503,-592.164754,-8503.660028,0.000000
4203.290827,-74.020594,-8120.612279,-296.082377
4203.291151,1850.514855,-8427.050478,740.205942
4203.291475,2960.823768,-8427.050478,148.041188
4203.291800,2664.741391,-8273.831378,0.000000
4203.292124,3108.864956,-8503.660028,0.000000
4203.292448,962.267725,-7814.174080,-518.144159
4203.292773,222.061783,-8963.317327,740.205942
4203.293097,74.020594,-8120.612279,296.082377
4203.293421,-1258.350101,-8503.660028,518.144159
4203.293745,296.082377,-7584.345430,-148.041188
4203.294070,1776.494261,-8427.050478,296.082377
4203.294394,1702.473667,-8427.050478,-592.164754
4203.294718,2664.741391,-9039.926876,148.041188
4203.295043,962.267725,-8120.612279,-814.226536
4203.295367,2516.700203,-8963.317327,-444.123565
4203.295691,-222.061783,-9499.584175,-814.226536
4203.296016,-1332.370696,-8656.879127,-740.205942
4203.296340,-2220.617826,-8656.879127,0.000000
4203.296664,-1184.329507,-8197.221829,-444.123565
4203.296988,666.185348,-9193.145976,-592.164754
4203.297313,1406.391290,-8427.050478,-1184.329507
4203.297637,1332.370696,-9193.145976,-148.041188
4203.297961,1406.391290,-8733.488677,-1332.370696
4203.298286,666.185348,-9806.022374,-1480.411884
4203.298610,-814.226536,-9269.755526,-1258.350101
4203.298934,-962.267725,-8733.488677,0.000000
4203.299258,-2442.679609,-8886.707777,-222.061783
4203.299583,-1406.391290,-8886.707777,-592.164754
4203.299907,666.185348,-9499.584175,-444.123565
4203.300231,444.123565,-9116.536426,-370.102971
4203.300556,2738.761985,-8733.488677,-666.185348
4203.300880,2220.617826,-8656.879127,-814.226536
4203.301204,1628.453072,-9116.536426,-1332.370696
4203.301528,1554.432478,-8886.707777,-1480.411884
4203.301853,0.000000,-8503.660028,-296.082377
4203.302177,-740.205942,-8886.707777,0.000000
4203.302501,-962.267725,-8120.612279,-1110.308913
4203.302826,0.000000,-9806.022374,0.000000
4203.303150,-962.267725,-7507.735880,-1406.391290
4203.303474,74.020594,-9959.241474,148.041188
4203.303799,-296.082377,-8197.221829,-1702.473667
4203.304123,962.267725,-9499.584175,-666.185348
4203.304447,-962.267725,-8350.440928,-1036.288319
4203.304771,-1406.391290,-9422.974625,148.041188
4203.305096,-1628.453072,-8427.050478,296.082377
4203.305420,-148.041188,-8886.707777,148.041188
4203.305744,1406.391290,-8580.269578,222.061783
4203.306069,222.061783,-8120.612279,0.000000
4203.306393,1554.432478,-8886.707777,0.000000
4203.306717,962.267725,-7354.516781,0.000000
4203.307041,1332.370696,-8963.317327,74.020594
4203.307366,222.061783,-7507.735880,-370.102971
4203.307690,0.000000,-8963.317327,148.041188
4203.308014,-1184.329507,-8120.612279,-518.144159
4203.308339,-148.041188,-8427.050478,1036.288319
4203.308663,888.247130,-7277.907231,-296.082377
4203.308987,1406.391290,-8810.098227,148.041188
4203.309311,2294.638420,-7890.783629,222.061783
4203.309636,2146.597232,-8580.269578,0.000000
4203.309960,1258.350101,-8197.221829,0.000000
4203.310284,814.226536,-8580.269578,-148.041188
4203.310609,74.020594,-8733.488677,222.061783
4203.310933,-222.061783,-9116.536426,740.205942
4203.311257,-296.082377,-7890.783629,518.144159
4203.311582,1036.288319,-8273.831378,370.102971
4203.311906,1110.308913,-7584.345430,74.020594
4203.312230,3034.844362,-8580.269578,518.144159
4203.312554,2294.638420,-7890.783629,-296.082377
4203.312879,1332.370696,-9039.926876,-592.164754
4203.313203,518.144159,-8350.440928,-1184.329507
4203.313527,814.226536,-8503.660028,0.000000
4203.313852,-666.185348,-8120.612279,-1184.329507
4203.314176,-148.041188,-9116.536426,222.061783
4203.314500,-592.164754,-7431.126331,-592.164754
4203.314824,1110.308913,-9499.584175,0.000000
4203.315149,1480.411884,-8120.612279,-1184.329507
4203.315473,1554.432478,-8963.317327,74.020594
4203.315797,888.247130,-8120.612279,-1702.473667
4203.316122,0.000000,-9729.412825,-148.041188
4203.316446,-740.205942,-8350.440928,-1332.370696
4203.316770,-1554.432478,-9422.974625,-148.041188
4203.317094,-1554.432478,-8886.707777,-666.185348
4203.317419,-1036.288319,-9193.145976,296.082377
4203.317743,518.144159,-7967.393179,-740.205942
4203.318067,962.267725,-9116.536426,74.020594
4203.318392,1702.473667,-8273.831378,-1184.329507
4203.318716,1628.453072,-9652.803275,-1406.391290
4203.319040,1702.473667,-8580.269578,-2368.659014
4203.319365,1406.391290,-9422.974625,-518.144159
4203.319689,-518.144159,-8427.050478,-1110.308913
4203.320013,-518.144159,-9576.193725,-518.144159
4203.320337,-888.247130,-8733.488677,-592.164754
4203.320662,-740.205942,-8810.098227,-444.123565
4203.320986,222.061783,-8580.269578,-1110.308913
4203.321310,1702.473667,-9422.974625,-740.205942
4203.321635,1480.411884,-9116.536426,-1258.350101
4203.321959,222.061783,-8810.098227,-1776.494261
4203.322283,-518.144159,-9729.412825,-962.267725
4203.322607,-1850.514855,-9269.755526,-222.061783
4203.322932,-3182.885551,-7660.954980,1110.308913
4203.323256,-518.144159,-7737.564530,-1184.329507
4203.323580,-1036.288319,-10572.117872,370.102971
4203.323905,740.205942,-7354.516781,-592.164754
4203.324229,1406.391290,-8580.269578,-148.041188
4203.324553,666.185348,-8350.440928,-1036.288319
4203.324877,666.185348,-9039.926876,-296.082377
4203.325202,0.000000,-7584.345430,0.000000
4203.325526,-1924.535449,-9269.755526,0.000000
4203.325850,-1554.432478,-8273.831378,-666.185348
4203.326175,814.226536,-8120.612279,1258.350101
4203.326499,518.144159,-7507.735880,0.000000
4203.326823,666.185348,-8733.488677,0.000000
4203.327148,1480.411884,-8503.660028,444.123565
4203.327472,0.000000,-7967.393179,518.144159
4203.327796,1036.288319,-8044.002729,-888.247130
4203.328120,1628.453072,-8656.879127,-666.185348
4203.328445,-444.123565,-8350.440928,0.000000
4203.328769,-888.247130,-8197.221829,518.144159
4203.329093,-518.144159,-7660.954980,740.205942
4203.329418,1998.556043,-8503.660028,1258.350101
4203.329742,2220.617826,-7967.393179,518.144159
4203.330066,3330.926739,-8580.269578,370.102971
4203.330390,2738.761985,-7507.735880,-222.061783
4203.330715,3404.947333,-8197.221829,-518.144159
4203.331039,2590.720797,-8733.488677,-592.164754
4203.331363,1110.308913,-9116.536426,222.061783
4203.331688,-444.123565,-7890.783629,-1036.288319
4203.332012,-888.247130,-8886.707777,370.102971
4203.332336,74.020594,-7737.564530,-666.185348
4203.332660,814.226536,-9499.584175,-222.061783
4203.332985,1332.370696,-8044.002729,-370.102971
4203.333309,962.267725,-9039.926876,-444.123565
4203.333633,296.082377,-8963.317327,-1332.370696
4203.333958,1036.288319,-9116.536426,-740.205942
4203.334282,-2886.803174,-8733.488677,-1258.350101
4203.334606,-1110.308913,-9652.803275,-222.061783
4203.334931,-1184.329507,-8044.002729,-222.061783
4203.335255,1850.514855,-9882.631924,0.000000
4203.335579,1036.288319,-8656.879127,-666.185348
4203.335903,1998.556043,-9193.145976,74.020594
4203.336228,1184.329507,-8350.440928,-1110.308913
4203.336552,1998.556043,-9652.803275,-1258.350101
4203.336876,1924.535449,-8886.707777,-1554.432478
4203.337201,148.041188,-8656.879127,-888.247130
4203.337525,-444.123565,-9269.755526,-1036.288319
4203.337849,-1258.350101,-8886.707777,-296.082377
4203.338173,-370.102971,-8350.440928,-592.164754
4203.338498,518.144159,-8733.488677,-518.144159
4203.338822,666.185348,-8733.488677,-1036.288319
4203.339146,1702.473667,-9193.145976,-814.226536
4203.339471,1258.350101,-8810.098227,-1480.411884
4203.339795,518.144159,-9039.926876,-1184.329507
4203.340119,-1554.432478,-8963.317327,0.000000
4203.340443,-1184.329507,-8503.660028,0.000000
4203.340768,-2146.597232,-8886.707777,-148.041188
4203.341092,-296.082377,-8656.879127,222.061783
4203.341416,1332.370696,-7890.783629,148.041188
4203.341741,1998.556043,-8733.488677,-518.144159
4203.342065,1776.494261,-8810.098227,370.102971
4203.342389,1332.370696,-7967.393179,-370.102971
4203.342714,370.102971,-8733.488677,-888.247130
4203.343038,-296.082377,-8733.488677,-296.082377
4203.343362,-444.123565,-8197.221829,-444.123565
4203.343686,-1998.556043,-7584.345430,0.000000
4203.344011,-1110.308913,-8197.221829,296.082377
4203.344335,518.144159,-7737.564530,0.000000
4203.344659,1850.514855,-7737.564530,666.185348
4203.344984,2072.576638,-7814.174080,296.082377
4203.345308,1480.411884,-9116.536426,-444.123565
4203.345632,0.000000,-8120.612279,-740.205942
4203.345956,0.000000,-8733.488677,-148.041188
4203.346281,-962.267725,-8273.831378,0.000000
4203.346605,-1924.535449,-8886.707777,370.102971
4203.346929,-962.267725,-8273.831378,1184.329507
4203.347253,-740.205942,-7890.783629,0.000000
4203.347578,1406.391290,-8503.660028,888.247130
4203.347902,3256.906145,-7584.345430,814.226536
4203.348226,2738.761985,-7431.126331,148.041188
4203.348550,1998.556043,-7737.564530,-444.123565
4203.348874,2146.597232,-8733.488677,-888.247130
4203.349199,814.226536,-8044.002729,-518.144159
4203.349523,296.082377,-8656.879127,-222.061783
4203.349847,-518.144159,-8656.879127,0.000000
4203.350171,296.082377,-8810.098227,592.164754
4203.350496,370.102971,-8197.221829,-444.123565
4203.350820,1406.391290,-7967.393179,-370.102971
4203.351144,1258.350101,-8427.050478,-740.205942
4203.351468,962.267725,-8963.317327,-666.185348
4203.351792,888.247130,-8580.269578,-1554.432478
4203.352117,-444.123565,-8963.317327,-444.123565
4203.352441,-814.226536,-8810.098227,-296.082377
4203.352765,-1036.288319,-8580.269578,-666.185348
4203.353089,0.000000,-8810.098227,-518.144159
4203.353414,1110.308913,-8503.660028,-370.102971
4203.353738,1924.535449,-8503.660028,-592.164754
4203.354062,814.226536,-8580.269578,-518.144159
4203.354386,1850.514855,-9039.926876,-814.226536
4203.354711,1036.288319,-9193.145976,-1850.514855
4203.355035,444.123565,-9346.365076,-1480.411884
4203.355359,0.000000,-9193.145976,-666.185348
4203.355683,-1406.391290,-8350.440928,-1406.391290
4203.356007,-1110.308913,-9193.145976,-518.144159
4203.356332,1036.288319,-8580.269578,-1480.411884
4203.356656,1110.308913,-9039.926876,-814.226536
4203.356980,1332.370696,-9116.536426,-1184.329507
4203.357304,962.267725,-9269.755526,-1184.329507
4203.357629,666.185348,-9729.412825,-1258.350101
4203.357953,0.000000,-9269.755526,-592.164754
4203.358277,-1184.329507,-8503.660028,-740.205942
4203.358601,-1036.288319,-9116.536426,148.041188
4203.358925,-518.144159,-8503.660028,0.000000
4203.359250,444.123565,-8963.317327,-592.164754
4203.359574,1406.391290,-8197.221829,-370.102971
4203.359898,1702.473667,-9039.926876,148.041188
4203.360222,1110.308913,-8120.612279,-518.144159
4203.360547,518.144159,-8503.660028,74.020594
4203.360871,148.041188,-8503.660028,-370.102971
4203.361195,-222.061783,-8810.098227,-148.041188
4203.361519,-1036.288319,-8656.879127,0.000000
4203.361843,-666.185348,-8350.440928,-296.082377
4203.362168,74.020594,-7584.345430,592.164754
4203.362492,370.102971,-8044.002729,222.061783
4203.362816,1850.514855,-8197.221829,370.102971
4203.363140,888.247130,-7967.393179,-518.144159
4203.363465,592.164754,-9806.022374,148.041188
4203.363789,-1184.329507,-7660.954980,-666.185348
4203.364113,-962.267725,-8427.050478,740.205942
4203.364437,-814.226536,-7890.783629,518.144159
4203.364762,-666.185348,-7507.735880,592.164754
4203.365086,592.164754,-7737.564530,592.164754
4203.365410,1998.556043,-8503.660028,518.144159
4203.365734,2738.761985,-8044.002729,-222.061783
4203.366058,2146.597232,-8273.831378,0.000000
4203.366383,2442.679609,-7967.393179,-222.061783
4203.366707,1036.288319,-7967.393179,592.164754
4203.367031,74.020594,-8197.221829,-296.082377
4203.367355,-1924.535449,-8580.269578,222.061783
4203.367680,592.164754,-8197.221829,0.000000
4203.368004,-370.102971,-8273.831378,-148.041188
4203.368328,1702.473667,-8503.660028,-1110.308913
4203.368652,1110.308913,-8580.269578,-296.082377
4203.368976,1258.350101,-9116.536426,-888.247130
4203.369301,888.247130,-8427.050478,-518.144159
4203.369625,0.000000,-9116.536426,-666.185348
4203.369949,-1332.370696,-9652.803275,148.041188
4203.370273,-2590.720797,-8810.098227,-666.185348
4203.370598,-592.164754,-9116.536426,222.061783
4203.370922,-222.061783,-8503.660028,0.000000
4203.371246,444.123565,-8886.707777,-370.102971
4203.371570,1924.535449,-8350.440928,-888.247130
4203.371895,962.267725,-8503.660028,-518.144159
4203.372219,1998.556043,-8810.098227,-1036.288319
4203.372543,0.000000,-8656.879127,-1258.350101
4203.372867,592.164754,-9269.755526,-1036.288319
4203.373191,-1332.370696,-7814.174080,-1776.494261
4203.373516,-962.267725,-9806.022374,0.000000
4203.373840,222.061783,-8886.707777,-1480.411884
4203.374164,296.082377,-9576.193725,-1184.329507
4203.374488,888.247130,-8886.707777,-444.123565
4203.374813,814.226536,-7737.564530,-740.205942
4203.375137,814.226536,-8503.660028,-1998.556043
4203.375461,666.185348,-9116.536426,-666.185348
4203.375785,0.000000,-8580.269578,-962.267725
4203.376109,-888.247130,-8963.317327,-222.061783
4203.376434,0.000000,-7890.783629,-296.082377
4203.376758,1258.350101,-9039.926876,74.020594
4203.377082,1554.432478,-8120.612279,-814.226536
4203.377406,1924.535449,-9499.584175,74.020594
4203.377731,2590.720797,-8273.831378,-370.102971
4203.378055,740.205942,-8580.269578,-888.247130
4203.378379,1628.453072,-8580.269578,-296.082377
4203.378703,0.000000,-9039.926876,-370.102971
4203.379028,-962.267725,-8580.269578,-518.144159
4203.379352,-1406.391290,-8273.831378,222.061783
4203.379676,814.226536,-8044.002729,-370.102971
4203.380000,1036.288319,-8580.269578,222.061783
4203.380324,2072.576638,-7584.345430,-148.041188
4203.380649,3775.050304,-9039.926876,296.082377
4203.380973,-444.123565,-8273.831378,-1258.350101
4203.381297,1480.411884,-9729.412825,1258.350101
4203.381621,-814.226536,-8503.660028,-740.205942
4203.381946,-2072.576638,-9346.365076,962.267725
4203.382270,-1850.514855,-8350.440928,-74.020594
4203.382594,-592.164754,-7967.393179,814.226536
4203.382918,444.123565,-8120.612279,0.000000
4203.383242,1850.514855,-7660.954980,148.041188
4203.383567,2442.679609,-8273.831378,740.205942
4203.383891,2442.679609,-7584.345430,518.144159
4203.384215,148.041188,-8427.050478,0.000000
4203.384539,518.144159,-8197.221829,0.000000
4203.384864,-740.205942,-7890.783629,-666.185348
4203.385188,740.205942,-8273.831378,0.000000
4203.385512,-222.061783,-8273.831378,222.061783
4203.385836,1998.556043,-8503.660028,-148.041188
4203.386160,666.185348,-7890.783629,74.020594
