#time,accel_x,accel_y,accel_z
5508.339336,962.267725,-7890.783629,-1110.308913
5508.339660,296.082377,-8350.440928,-666.185348
5508.339984,0.000000,-8963.317327,-666.185348
5508.340309,-962.267725,-9346.365076,-1184.329507
5508.340633,-1850.514855,-9422.974625,-814.226536
5508.340957,-1850.514855,-9576.193725,-592.164754
5508.341281,-2368.659014,-9806.022374,-592.164754
5508.341606,-1924.535449,-9729.412825,-666.185348
5508.341930,-1036.288319,-9193.145976,-1110.308913
5508.342254,-148.041188,-8503.660028,-888.247130
5508.342578,592.164754,-7890.783629,-1258.350101
5508.342903,814.226536,-8120.612279,-1480.411884
5508.343227,444.123565,-8044.002729,-1036.288319
5508.343551,296.082377,-8044.002729,-1258.350101
5508.343875,-962.267725,-8580.269578,-1554.432478
5508.344200,-1036.288319,-9422.974625,-888.247130
5508.344524,-1850.514855,-9193.145976,-1036.288319
5508.344848,-1480.411884,-9959.241474,-1332.370696
5508.345172,-1998.556043,-9652.803275,-1110.308913
5508.345497,-1184.329507,-9346.365076,-888.247130
5508.345821,-962.267725,-8810.098227,-1184.329507
5508.346145,-592.164754,-8503.660028,-1036.288319
5508.346469,-1110.308913,-7814.174080,-1110.308913
5508.346794,-1110.308913,-7814.174080,-666.185348
5508.347118,-1924.535449,-7737.564530,-1258.350101
5508.347442,-2072.576638,-8273.831378,-518.144159
5508.347767,-2516.700203,-8350.440928,-296.082377
5508.348091,-2812.782580,-8963.317327,-518.144159
5508.348415,-3256.906145,-9269.755526,-296.082377
5508.348739,-3478.967927,-9422.974625,74.020594
5508.349064,-4071.132681,-9499.584175,0.000000
5508.349388,-3256.906145,-9806.022374,0.000000
5508.349712,-3256.906145,-9346.365076,0.000000
5508.350036,-2664.741391,-9039.926876,222.061783
5508.350361,-2960.823768,-8503.660028,148.041188
5508.350685,-2590.720797,-8503.660028,0.000000
5508.351009,-2812.782580,-8120.612279,222.061783
5508.351333,-2664.741391,-7814.174080,296.082377
5508.351658,-2664.741391,-8273.831378,222.061783
5508.351982,-2960.823768,-8503.660028,-296.082377
5508.352306,-3108.864956,-8810.098227,148.041188
5508.352630,-3330.926739,-8963.317327,0.000000
5508.352955,-3849.070898,-9116.536426,74.020594
5508.353279,-3478.967927,-9039.926876,370.102971
5508.353603,-3552.988522,-8886.707777,148.041188
5508.353927,-2664.741391,-8580.269578,518.144159
5508.354252,-2442.679609,-8044.002729,74.020594
5508.354576,-1628.453072,-8120.612279,888.247130
5508.354900,-1258.350101,-7431.126331,592.164754
5508.355224,-518.144159,-7814.174080,370.102971
5508.355549,-370.102971,-7967.393179,0.000000
5508.355873,-518.144159,-7890.783629,444.123565
5508.356197,0.000000,-8273.831378,0.000000
5508.356521,-592.164754,-8580.269578,74.020594
5508.356846,-962.267725,-8886.707777,0.000000
5508.357170,-1184.329507,-8963.317327,222.061783
5508.357494,-962.267725,-9422.974625,0.000000
5508.357818,-1258.350101,-9269.755526,0.000000
5508.358143,-740.205942,-8350.440928,0.000000
5508.358467,-888.247130,-8120.612279,-518.144159
5508.358791,-148.041188,-8350.440928,-222.061783
5508.359115,222.061783,-7814.174080,-1110.308913
5508.359440,74.020594,-7814.174080,-888.247130
5508.359764,-222.061783,-7890.783629,-814.226536
5508.360088,-370.102971,-8044.002729,-888.247130
5508.360413,-148.041188,-8273.831378,-888.247130
5508.360737,-888.247130,-8810.098227,-666.185348
5508.361061,-1184.329507,-9269.755526,-814.226536
5508.361385,-592.164754,-9116.536426,-1110.308913
5508.361710,-296.082377,-9039.926876,-666.185348
5508.362034,0.000000,-8580.269578,-1110.308913
5508.362358,0.000000,-8350.440928,-814.226536
5508.362682,666.185348,-8197.221829,-1554.432478
5508.363007,296.082377,-8503.660028,-1480.411884
5508.363331,-666.185348,-8350.440928,-1332.370696
5508.363655,-444.123565,-8044.002729,-1258.350101
5508.363979,-370.102971,-8963.317327,-1036.288319
5508.364304,-296.082377,-8810.098227,-1258.350101
5508.364628,592.164754,-8733.488677,-814.226536
5508.364952,74.020594,-9499.584175,-1258.350101
5508.365276,888.247130,-9729.412825,-1036.288319
5508.365601,962.267725,-9576.193725,-1332.370696
5508.365925,74.020594,-9882.631924,-296.082377
5508.366249,-592.164754,-9269.755526,-1332.370696
5508.366573,-1776.494261,-9039.926876,-1258.350101
5508.366898,-3182.885551,-8886.707777,-1332.370696
5508.367222,-4367.215058,-8580.269578,-1036.288319
5508.367546,-5181.441594,-8044.002729,-740.205942
5508.367870,-5403.503377,-8350.440928,-814.226536
5508.368195,-4885.359217,-8503.660028,-740.205942
5508.368519,-4441.235652,-8580.269578,-148.041188
5508.368843,-3552.988522,-8120.612279,-148.041188
5508.369167,-2442.679609,-9039.926876,-222.061783
5508.369492,-1998.556043,-8810.098227,-148.041188
5508.369816,-1184.329507,-8810.098227,0.000000
5508.370140,-592.164754,-8886.707777,-296.082377
5508.370464,74.020594,-9193.145976,518.144159
5508.370789,0.000000,-8580.269578,74.020594
5508.371113,-962.267725,-9116.536426,148.041188
5508.371437,-666.185348,-8580.269578,-148.041188
5508.371761,-1110.308913,-8350.440928,0.000000
5508.372086,-1332.370696,-8733.488677,-222.061783
5508.372410,-2368.659014,-8503.660028,444.123565
5508.372734,-1924.535449,-8427.050478,518.144159
5508.373059,-1554.432478,-7507.735880,592.164754
5508.373383,222.061783,-8197.221829,666.185348
5508.373707,1332.370696,-7890.783629,518.144159
5508.374031,2368.659014,-8580.269578,1036.288319
5508.374356,2368.659014,-8273.831378,592.164754
5508.374680,2516.700203,-8044.002729,1258.350101
5508.375004,1776.494261,-8044.002729,592.164754
5508.375328,1258.350101,-8350.440928,888.247130
5508.375653,518.144159,-7737.564530,814.226536
5508.375977,370.102971,-7967.393179,592.164754
5508.376301,296.082377,-7890.783629,148.041188
5508.376625,148.041188,-7584.345430,370.102971
5508.376950,1036.288319,-8044.002729,0.000000
5508.377274,1554.432478,-7967.393179,-296.082377
5508.377598,2590.720797,-8273.831378,-148.041188
5508.377922,2146.597232,-8427.050478,-444.123565
5508.378247,1998.556043,-8580.269578,-592.164754
5508.378571,1184.329507,-8503.660028,-962.267725
5508.378895,1480.411884,-8963.317327,-518.144159
5508.379219,1110.308913,-8120.612279,-592.164754
5508.379544,1332.370696,-8273.831378,-148.041188
5508.379868,888.247130,-7967.393179,0.000000
5508.380192,2368.659014,-8197.221829,-296.082377
5508.380516,2886.803174,-8197.221829,-296.082377
5508.380841,4515.256246,-7890.783629,-370.102971
5508.381165,5551.544565,-8197.221829,-592.164754
5508.381489,6365.771101,-9039.926876,-740.205942
5508.381813,5921.647536,-8733.488677,-1258.350101
5508.382138,5403.503377,-9193.145976,-1110.308913
5508.382462,4071.132681,-9652.803275,-1036.288319
5508.382786,2072.576638,-9269.755526,-1332.370696
5508.383110,370.102971,-10495.508323,-1850.514855
5508.383435,-1628.453072,-10265.679673,-1850.514855
5508.383759,-2220.617826,-9806.022374,-1998.556043
5508.384083,-2368.659014,-9576.193725,-1628.453072
5508.384407,-2368.659014,-9882.631924,-2072.576638
5508.384732,-1332.370696,-9193.145976,-1480.411884
5508.385056,-962.267725,-9193.145976,-814.226536
5508.385380,-370.102971,-8810.098227,-1110.308913
5508.385705,888.247130,-9806.022374,-1258.350101
5508.386029,1184.329507,-8733.488677,-222.061783
5508.386353,296.082377,-9346.365076,-444.123565
5508.386677,222.061783,-8810.098227,-592.164754
5508.387002,-370.102971,-9039.926876,0.000000
5508.387326,-296.082377,-9193.145976,-296.082377
5508.387650,-296.082377,-8427.050478,0.000000
5508.387974,-666.185348,-8656.879127,-296.082377
5508.388299,-148.041188,-8273.831378,-814.226536
5508.388623,-370.102971,-8963.317327,-370.102971
5508.388947,-592.164754,-9193.145976,-888.247130
5508.389271,-1110.308913,-9039.926876,-1110.308913
5508.389596,-2146.597232,-9116.536426,-592.164754
5508.389920,-3256.906145,-8810.098227,-296.082377
5508.390244,-4737.318029,-8273.831378,-592.164754
5508.390568,-4811.338623,-9116.536426,0.000000
5508.390893,-2220.617826,-8580.269578,-444.123565
5508.391217,-2590.720797,-8350.440928,962.267725
5508.391541,-1480.411884,-6894.859482,740.205942
5508.391865,666.185348,-7431.126331,666.185348
5508.392190,2146.597232,-6741.640382,1184.329507
5508.392514,3182.885551,-7201.297681,1036.288319
5508.392838,4737.318029,-7737.564530,888.247130
5508.393162,3108.864956,-7354.516781,1036.288319
5508.393487,2812.782580,-8503.660028,1332.370696
5508.393811,2072.576638,-8656.879127,814.226536
5508.394135,740.205942,-9193.145976,518.144159
5508.394459,-1406.391290,-9499.584175,740.205942
5508.394784,-2738.761985,-9116.536426,148.041188
5508.395108,-3627.009116,-9116.536426,0.000000
5508.395432,-3034.844362,-8656.879127,-222.061783
5508.395756,-2294.638420,-8273.831378,74.020594
5508.396081,-1258.350101,-7507.735880,-148.041188
5508.396405,0.000000,-7354.516781,296.082377
5508.396729,1036.288319,-7354.516781,0.000000
5508.397053,2072.576638,-7354.516781,0.000000
5508.397378,3330.926739,-7354.516781,444.123565
5508.397702,3775.050304,-8197.221829,370.102971
5508.398026,3627.009116,-8350.440928,148.041188
5508.398351,3775.050304,-8810.098227,518.144159
5508.398675,3108.864956,-8503.660028,0.000000
5508.398999,3330.926739,-8580.269578,-370.102971
5508.399323,3182.885551,-8656.879127,-444.123565
5508.399648,2960.823768,-8886.707777,-1184.329507
5508.399972,3182.885551,-8963.317327,-1036.288319
5508.400296,1554.432478,-8656.879127,-1480.411884
5508.400620,666.185348,-8733.488677,-2294.638420
5508.400945,-148.041188,-8580.269578,-2294.638420
5508.401269,-1406.391290,-9193.145976,-2146.597232
5508.401593,-370.102971,-9652.803275,-1998.556043
5508.401917,-962.267725,-9039.926876,-2072.576638
5508.402242,-888.247130,-9806.022374,-1480.411884
5508.402566,-370.102971,-9193.145976,-1554.432478
5508.402890,888.247130,-9576.193725,-1332.370696
5508.403214,2294.638420,-9269.755526,-1184.329507
5508.403539,3256.906145,-8580.269578,-888.247130
5508.403863,2960.823768,-8427.050478,-888.247130
5508.404187,3923.091493,-7737.564530,-592.164754
5508.404511,3701.029710,-8810.098227,-1036.288319
5508.404836,3849.070898,-9193.145976,-1406.391290
5508.405160,2294.638420,-8886.707777,-1554.432478
5508.405484,1258.350101,-9806.022374,-1554.432478
5508.405808,-148.041188,-9576.193725,-1332.370696
5508.406133,-2294.638420,-9729.412825,-1776.494261
5508.406457,-3330.926739,-9959.241474,-1258.350101
5508.406781,-3775.050304,-9269.755526,-1184.329507
5508.407105,-3034.844362,-9499.584175,-1110.308913
5508.407430,-2738.761985,-9346.365076,-1036.288319
5508.407754,-1924.535449,-8810.098227,-444.123565
5508.408078,-592.164754,-8427.050478,-296.082377
5508.408402,740.205942,-8503.660028,0.000000
5508.408727,1332.370696,-8197.221829,222.061783
5508.409051,1406.391290,-8197.221829,444.123565
5508.409375,814.226536,-8350.440928,666.185348
5508.409699,888.247130,-8197.221829,814.226536
5508.410024,592.164754,-8350.440928,740.205942
5508.410348,74.020594,-7967.393179,1332.370696
5508.410672,518.144159,-8427.050478,740.205942
5508.410997,-370.102971,-8503.660028,592.164754
5508.411321,1110.308913,-8350.440928,592.164754
5508.411645,-3330.926739,-8580.269578,0.000000
5508.411969,-296.082377,-8580.269578,296.082377
5508.412294,-2886.803174,-7737.564530,74.020594
5508.412618,-1554.432478,-8580.269578,296.082377
5508.412942,-2664.741391,-7507.735880,592.164754
5508.413266,-2812.782580,-7890.783629,444.123565
5508.413591,-1332.370696,-8350.440928,1332.370696
5508.413915,-1036.288319,-7048.078582,518.144159
5508.414239,-370.102971,-7967.393179,2146.597232
5508.414563,740.205942,-6741.640382,1258.350101
5508.414888,1776.494261,-7584.345430,1628.453072
5508.415212,3330.926739,-7507.735880,1258.350101
5508.415536,4441.235652,-7660.954980,1110.308913
5508.415860,4071.132681,-7584.345430,740.205942
5508.416185,3627.009116,-8427.050478,962.267725
5508.416509,3256.906145,-8273.831378,222.061783
5508.416833,1184.329507,-9193.145976,518.144159
5508.417157,-74.020594,-8427.050478,-370.102971
5508.417482,-1702.473667,-9116.536426,-444.123565
5508.417806,-2368.659014,-8886.707777,-962.267725
5508.418130,-3182.885551,-9039.926876,-740.205942
5508.418454,-2146.597232,-8273.831378,-1480.411884
5508.418779,-1554.432478,-9116.536426,-1036.288319
5508.419103,-814.226536,-8886.707777,-666.185348
5508.419427,1332.370696,-8427.050478,-592.164754
5508.419751,2368.659014,-8120.612279,-962.267725
5508.420076,2738.761985,-8503.660028,-592.164754
5508.420400,4071.132681,-8427.050478,-740.205942
5508.420724,4145.153275,-8503.660028,-592.164754
5508.421048,3775.050304,-8580.269578,-592.164754
5508.421373,3701.029710,-8427.050478,-1332.370696
5508.421697,3182.885551,-8810.098227,-1258.350101
5508.422021,2960.823768,-8733.488677,-1776.494261
5508.422346,2516.700203,-9193.145976,-1702.473667
5508.422670,1554.432478,-9116.536426,-2664.741391
5508.422994,-148.041188,-9422.974625,-2442.679609
5508.423319,-1258.350101,-9729.412825,-2738.761985
5508.423643,-2664.741391,-9806.022374,-2368.659014
5508.423967,-2368.659014,-10035.851024,-2664.741391
5508.424292,-3552.988522,-9576.193725,-2220.617826
5508.424616,-2812.782580,-9346.365076,-1850.514855
5508.424940,-1554.432478,-8963.317327,-2220.617826
5508.425265,0.000000,-8503.660028,-1776.494261
5508.425589,1184.329507,-8350.440928,-1480.411884
5508.425913,2590.720797,-8580.269578,-740.205942
5508.426238,3256.906145,-8503.660028,-888.247130
5508.426562,4071.132681,-8886.707777,-518.144159
5508.426886,4145.153275,-8427.050478,-296.082377
5508.427211,2886.803174,-9422.974625,-296.082377
5508.427535,2368.659014,-9193.145976,0.000000
5508.427859,1258.350101,-9346.365076,-370.102971
5508.428184,0.000000,-9652.803275,-518.144159
5508.428508,-1554.432478,-9039.926876,-518.144159
5508.428832,-2072.576638,-9269.755526,-666.185348
5508.429157,-2368.659014,-8810.098227,-814.226536
5508.429481,-2886.803174,-8580.269578,-518.144159
5508.429805,-2664.741391,-8656.879127,-740.205942
5508.430130,-2590.720797,-8580.269578,444.123565
5508.430454,-2072.576638,-8580.269578,222.061783
5508.430778,-1184.329507,-8503.660028,592.164754
5508.431102,74.020594,-7814.174080,1184.329507
5508.431427,0.000000,-7967.393179,1554.432478
5508.431751,444.123565,-7737.564530,1332.370696
5508.432075,1554.432478,-7890.783629,1258.350101
5508.432400,1702.473667,-6971.469032,1480.411884
5508.432724,1628.453072,-7354.516781,1480.411884
5508.433048,1924.535449,-7354.516781,1406.391290
5508.433373,1850.514855,-7890.783629,1258.350101
5508.433697,592.164754,-7890.783629,1110.308913
5508.434021,444.123565,-7660.954980,592.164754
5508.434346,-962.267725,-8197.221829,666.185348
5508.434670,-1628.453072,-8580.269578,1184.329507
5508.434994,-2294.638420,-8427.050478,74.020594
5508.435319,-2294.638420,-9882.631924,148.041188
5508.435643,-2368.659014,-8427.050478,296.082377
5508.435967,-1998.556043,-8427.050478,444.123565
5508.436292,-666.185348,-8044.002729,296.082377
5508.436616,-444.123565,-7660.954980,518.144159
5508.436940,814.226536,-7201.297681,444.123565
5508.437265,1924.535449,-7354.516781,370.102971
5508.437589,3404.947333,-8044.002729,444.123565
5508.437913,3627.009116,-7967.393179,296.082377
5508.438238,4219.173869,-8044.002729,370.102971
5508.438562,3997.112087,-8810.098227,0.000000
5508.438886,3330.926739,-8810.098227,-518.144159
5508.439211,2368.659014,-9346.365076,-518.144159
5508.439535,888.247130,-8886.707777,-1036.288319
5508.439859,-814.226536,-9346.365076,-1110.308913
5508.440184,-1628.453072,-9346.365076,-1036.288319
5508.440508,-2368.659014,-8963.317327,-1702.473667
5508.440832,-2146.597232,-9193.145976,-1702.473667
5508.441157,-1776.494261,-9193.145976,-1702.473667
5508.441481,-518.144159,-8963.317327,-1258.350101
5508.441805,0.000000,-8733.488677,-1554.432478
5508.442130,1110.308913,-8963.317327,-1184.329507
5508.442454,2368.659014,-8580.269578,-888.247130
5508.442778,2664.741391,-9346.365076,-1480.411884
5508.443103,2886.803174,-9193.145976,-1184.329507
5508.443427,2294.638420,-8963.317327,-1036.288319
5508.443751,1924.535449,-9576.193725,-1628.453072
5508.444075,1998.556043,-9039.926876,-1406.391290
5508.444400,2220.617826,-9116.536426,-1406.391290
5508.444724,1702.473667,-8963.317327,-1702.473667
5508.445048,1110.308913,-8963.317327,-1776.494261
5508.445373,296.082377,-9499.584175,-1924.535449
5508.445697,-518.144159,-8963.317327,-2368.659014
5508.446021,-1480.411884,-9193.145976,-2072.576638
5508.446346,-1998.556043,-9729.412825,-2146.597232
5508.446670,-2664.741391,-9652.803275,-1406.391290
5508.446994,-2590.720797,-9499.584175,-1110.308913
5508.447319,-1850.514855,-9116.536426,-1332.370696
5508.447643,-666.185348,-8503.660028,-814.226536
5508.447967,666.185348,-9422.974625,-370.102971
5508.448292,1628.453072,-8427.050478,-518.144159
5508.448616,2886.803174,-7814.174080,-370.102971
5508.448940,3849.070898,-7967.393179,0.000000
5508.449265,3478.967927,-8273.831378,-370.102971
5508.449589,3182.885551,-7814.174080,-148.041188
5508.449913,2516.700203,-8503.660028,518.144159
5508.450238,814.226536,-8427.050478,0.000000
5508.450562,-666.185348,-9039.926876,814.226536
5508.450886,-1776.494261,-9499.584175,0.000000
5508.451211,-3108.864956,-9116.536426,0.000000
5508.451535,-3108.864956,-8580.269578,-148.041188
5508.451859,-1998.556043,-8886.707777,296.082377
5508.452184,-1924.535449,-8273.831378,0.000000
5508.452508,-666.185348,-8120.612279,666.185348
5508.452832,0.000000,-7431.126331,666.185348
5508.453157,1036.288319,-7660.954980,888.247130
5508.453481,1702.473667,-7584.345430,1258.350101
5508.453805,1776.494261,-7890.783629,962.267725
5508.454130,1998.556043,-8197.221829,888.247130
5508.454454,740.205942,-7660.954980,1480.411884
5508.454778,666.185348,-8044.002729,888.247130
5508.455103,592.164754,-8733.488677,1702.473667
5508.455427,222.061783,-7967.393179,1332.370696
5508.455751,888.247130,-7814.174080,666.185348
5508.456076,1184.329507,-8044.002729,0.000000
5508.456400,518.144159,-8044.002729,0.000000
5508.456724,666.185348,-8733.488677,-444.123565
5508.457048,1110.308913,-8580.269578,0.000000
5508.457373,-592.164754,-8886.707777,-444.123565
5508.457697,-2072.576638,-8350.440928,-592.164754
5508.458021,-2294.638420,-9422.974625,1184.329507
5508.458346,-1480.411884,-8197.221829,-814.226536
5508.458670,-592.164754,-8810.098227,0.000000
5508.458994,0.000000,-7967.393179,-962.267725
5508.459319,888.247130,-9039.926876,296.082377
5508.459643,1480.411884,-7431.126331,0.000000
5508.459967,3923.091493,-8580.269578,-370.102971
5508.460292,3627.009116,-8580.269578,-296.082377
5508.460616,4071.132681,-8273.831378,-962.267725
5508.460940,4515.256246,-9346.365076,-592.164754
5508.461265,3256.906145,-9039.926876,-1110.308913
5508.461589,2442.679609,-9499.584175,-1110.308913
5508.461913,74.020594,-9576.193725,-1406.391290
5508.462238,-1184.329507,-10035.851024,-1702.473667
5508.462562,-2516.700203,-9729.412825,-1110.308913
5508.462886,-2590.720797,-9193.145976,-1702.473667
5508.463211,-2368.659014,-9116.536426,-1184.329507
5508.463535,-1184.329507,-8810.098227,-1480.411884
5508.463859,0.000000,-9116.536426,-1110.308913
5508.464184,962.267725,-8580.269578,-1258.350101
5508.464508,1850.514855,-8503.660028,-740.205942
5508.464832,3182.885551,-8656.879127,-666.185348
5508.465157,2442.679609,-9039.926876,-666.185348
5508.465481,2516.700203,-8886.707777,-592.164754
5508.465805,1850.514855,-8810.098227,0.000000
5508.466130,1184.329507,-9269.755526,-222.061783
5508.466454,1850.514855,-9039.926876,-444.123565
5508.466778,1184.329507,-8886.707777,-592.164754
5508.467103,888.247130,-8503.660028,-666.185348
5508.467427,518.144159,-8656.879127,-888.247130
5508.467751,0.000000,-9346.365076,0.000000
5508.468076,-592.164754,-8273.831378,-888.247130
5508.468400,-1480.411884,-8886.707777,-962.267725
5508.468724,-2072.576638,-9116.536426,-1332.370696
5508.469049,-2368.659014,-8503.660028,-962.267725
5508.469373,-2294.638420,-8427.050478,0.000000
5508.469697,-1924.535449,-8350.440928,-296.082377
5508.470021,-1628.453072,-8273.831378,0.000000
5508.470346,-148.041188,-8044.002729,148.041188
5508.470670,1184.329507,-7584.345430,444.123565
5508.470994,2294.638420,-7890.783629,222.061783
5508.471319,2738.761985,-7354.516781,444.123565
5508.471643,2812.782580,-7584.345430,740.205942
5508.471967,3404.947333,-8120.612279,370.102971
5508.472292,3478.967927,-8427.050478,592.164754
5508.472616,2442.679609,-8580.269578,370.102971
5508.472940,444.123565,-8273.831378,518.144159
5508.473265,-962.267725,-8580.269578,296.082377
5508.473589,-2368.659014,-9116.536426,-518.144159
5508.473913,-2442.679609,-8733.488677,-518.144159
5508.474238,-2812.782580,-8580.269578,0.000000
5508.474562,-2590.720797,-8503.660028,0.000000
5508.474886,-962.267725,-8503.660028,0.000000
5508.475211,-296.082377,-8044.002729,74.020594
5508.475535,222.061783,-8044.002729,370.102971
5508.475859,1554.432478,-7890.783629,592.164754
5508.476184,1480.411884,-7660.954980,1258.350101
5508.476508,1702.473667,-8044.002729,518.144159
5508.476832,1702.473667,-8503.660028,740.205942
5508.477157,1332.370696,-8427.050478,222.061783
5508.477481,1406.391290,-8503.660028,0.000000
5508.477805,2072.576638,-8273.831378,296.082377
5508.478130,1554.432478,-8580.269578,0.000000
5508.478454,444.123565,-8044.002729,-222.061783
5508.478778,1628.453072,-8886.707777,-296.082377
5508.479103,740.205942,-8656.879127,-1998.556043
5508.479427,148.041188,-9729.412825,-814.226536
5508.479751,-740.205942,-8503.660028,-1776.494261
5508.480076,-1924.535449,-9806.022374,-814.226536
5508.480400,-2294.638420,-8733.488677,-1406.391290
5508.480724,-2294.638420,-9039.926876,-888.247130
5508.481049,-1702.473667,-8427.050478,-962.267725
5508.481373,74.020594,-8273.831378,-592.164754
5508.481697,888.247130,-8350.440928,-444.123565
5508.482022,2812.782580,-8503.660028,-888.247130
5508.482346,2664.741391,-8197.221829,-518.144159
5508.482670,4145.153275,-8733.488677,-370.102971
5508.482994,4441.235652,-8963.317327,-962.267725
5508.483319,4145.153275,-8733.488677,-444.123565
5508.483643,3627.009116,-8656.879127,-962.267725
5508.483967,2220.617826,-9039.926876,-814.226536
5508.484292,444.123565,-9806.022374,-888.247130
5508.484616,-1036.288319,-9422.974625,-1406.391290
5508.484940,-1924.535449,-10112.460574,-1554.432478
5508.485265,-3182.885551,-9422.974625,-1110.308913
5508.485589,-2590.720797,-8963.317327,-370.102971
5508.485913,-1998.556043,-8733.488677,-666.185348
5508.486238,-370.102971,-9806.022374,-370.102971
5508.486562,0.000000,-8580.269578,-888.247130
5508.486886,888.247130,-8197.221829,0.000000
5508.487211,1332.370696,-8120.612279,0.000000
5508.487535,2738.761985,-8273.831378,-296.082377
5508.487859,2590.720797,-8120.612279,518.144159
5508.488184,2072.576638,-8427.050478,518.144159
5508.488508,1702.473667,-8120.612279,0.000000
5508.488832,1850.514855,-8197.221829,444.123565
5508.489157,1480.411884,-8427.050478,444.123565
5508.489481,1702.473667,-7967.393179,-222.061783
5508.489805,1702.473667,-8733.488677,-296.082377
5508.490130,814.226536,-8503.660028,74.020594
5508.490454,74.020594,-8197.221829,-1110.308913
5508.490778,-740.205942,-8886.707777,-370.102971
5508.491103,-1258.350101,-8350.440928,-740.205942
5508.491427,-2146.597232,-8886.707777,-222.061783
5508.491751,-1998.556043,-8580.269578,-518.144159
5508.492076,-2368.659014,-8580.269578,0.000000
5508.492400,-1406.391290,-8580.269578,0.000000
5508.492724,-888.247130,-7967.393179,0.000000
5508.493049,592.164754,-7890.783629,222.061783
5508.493373,1776.494261,-8120.612279,74.020594
5508.493697,2590.720797,-7814.174080,592.164754
5508.494022,3552.988522,-8120.612279,666.185348
5508.494346,3849.070898,-8044.002729,370.102971
5508.494670,3627.009116,-8656.879127,296.082377
5508.494995,3034.844362,-8580.269578,-518.144159
5508.495319,1554.432478,-9039.926876,-222.061783
5508.495643,-296.082377,-9039.926876,-518.144159
5508.495967,-2146.597232,-8886.707777,74.020594
5508.496292,-3108.864956,-8963.317327,-296.082377
5508.496616,-3256.906145,-8733.488677,-814.226536
5508.496940,-3108.864956,-8427.050478,-666.185348
5508.497265,-2664.741391,-8503.660028,-814.226536
5508.497589,-1184.329507,-9116.536426,0.000000
5508.497913,0.000000,-8580.269578,-296.082377
5508.498238,666.185348,-8350.440928,-296.082377
5508.498562,1776.494261,-8503.660028,0.000000
5508.498886,2516.700203,-9193.145976,-296.082377
5508.499211,2294.638420,-8656.879127,0.000000
5508.499535,2442.679609,-8733.488677,74.020594
5508.499859,2220.617826,-8427.050478,0.000000
5508.500184,1998.556043,-8656.879127,0.000000
5508.500508,2072.576638,-8197.221829,-888.247130
5508.500832,1332.370696,-8963.317327,-888.247130
5508.501157,888.247130,-8810.098227,-888.247130
5508.501481,296.082377,-8427.050478,-1110.308913
5508.501805,-444.123565,-9039.926876,-1036.288319
5508.502130,-1480.411884,-9193.145976,-1110.308913
5508.502454,-2072.576638,-9116.536426,-1258.350101
5508.502778,-3182.885551,-9116.536426,-1258.350101
5508.503103,-2886.803174,-9269.755526,-814.226536
5508.503427,-2146.597232,-8580.269578,-1406.391290
5508.503751,-740.205942,-8580.269578,-888.247130
5508.504076,222.061783,-7967.393179,-814.226536
5508.504400,1110.308913,-8580.269578,-444.123565
5508.504724,1776.494261,-8120.612279,0.000000
5508.505049,2812.782580,-8197.221829,0.000000
5508.505373,3775.050304,-8273.831378,-518.144159
5508.505697,3552.988522,-8427.050478,-222.061783
5508.506022,2812.782580,-8810.098227,148.041188
5508.506346,2590.720797,-8580.269578,-296.082377
5508.506670,962.267725,-8963.317327,-518.144159
5508.506995,296.082377,-9422.974625,-888.247130
5508.507319,-1258.350101,-9116.536426,-962.267725
5508.507643,-2664.741391,-8963.317327,-518.144159
5508.507968,-2738.761985,-8656.879127,-370.102971
5508.508292,-2146.597232,-8810.098227,-666.185348
5508.508616,-1036.288319,-8580.269578,-518.144159
5508.508940,0.000000,-8273.831378,0.000000
5508.509265,740.205942,-8350.440928,-370.102971
5508.509589,1554.432478,-8427.050478,222.061783
5508.509913,1850.514855,-8197.221829,518.144159
5508.510238,1628.453072,-8580.269578,666.185348
5508.510562,1924.535449,-8427.050478,666.185348
5508.510886,2072.576638,-8273.831378,296.082377
5508.511211,1480.411884,-8044.002729,74.020594
5508.511535,1850.514855,-8350.440928,370.102971
5508.511859,1184.329507,-8197.221829,222.061783
5508.512184,1406.391290,-8580.269578,74.020594
5508.512508,814.226536,-8120.612279,-370.102971
5508.512832,0.000000,-8503.660028,-296.082377
5508.513157,74.020594,-8656.879127,-518.144159
5508.513481,-1480.411884,-8810.098227,-296.082377
5508.513805,-2294.638420,-8810.098227,-888.247130
5508.514130,-1924.535449,-8886.707777,0.000000
5508.514454,-1702.473667,-8427.050478,-444.123565
5508.514778,-1110.308913,-8963.317327,0.000000
5508.515103,-1332.370696,-8350.440928,-296.082377
5508.515427,222.061783,-8044.002729,0.000000
5508.515751,1184.329507,-8273.831378,-296.082377
5508.516076,2220.617826,-8044.002729,296.082377
5508.516400,2590.720797,-7660.954980,0.000000
5508.516724,3478.967927,-8427.050478,148.041188
5508.517049,3849.070898,-8427.050478,-148.041188
5508.517373,3182.885551,-8044.002729,74.020594
5508.517697,2368.659014,-9116.536426,0.000000
5508.518022,666.185348,-9269.755526,-296.082377
5508.518346,-1110.308913,-9269.755526,-518.144159
5508.518670,-2072.576638,-9346.365076,-518.144159
5508.518995,-2072.576638,-9039.926876,-962.267725
5508.519319,-2516.700203,-9346.365076,-592.164754
5508.519643,-2146.597232,-8503.660028,-814.226536
5508.519968,-962.267725,-8810.098227,-444.123565
5508.520292,-666.185348,-8044.002729,-370.102971
5508.520616,444.123565,-8810.098227,-148.041188
5508.520941,1406.391290,-8197.221829,-592.164754
5508.521265,1998.556043,-8350.440928,-222.061783
5508.521589,1998.556043,-8044.002729,74.020594
5508.521913,1776.494261,-9039.926876,0.000000
5508.522238,1406.391290,-8120.612279,-296.082377
5508.522562,1480.411884,-8580.269578,0.000000
5508.522887,1554.432478,-8273.831378,-740.205942
5508.523211,1702.473667,-8656.879127,-296.082377
5508.523535,1110.308913,-8503.660028,-962.267725
5508.523860,370.102971,-8656.879127,-740.205942
5508.524184,-444.123565,-8197.221829,-1554.432478
5508.524508,-222.061783,-9116.536426,-592.164754
5508.524833,222.061783,-8886.707777,-1036.288319
5508.525157,-814.226536,-9116.536426,-666.185348
5508.525481,-1480.411884,-8120.612279,-1258.350101
5508.525806,-1924.535449,-8656.879127,-592.164754
5508.526130,-740.205942,-8886.707777,-666.185348
5508.526454,0.000000,-7814.174080,-888.247130
5508.526779,1258.350101,-8197.221829,0.000000
5508.527103,1332.370696,-7737.564530,-370.102971
5508.527428,2516.700203,-8503.660028,0.000000
5508.527752,3182.885551,-8427.050478,-444.123565
5508.528076,4071.132681,-8580.269578,-148.041188
5508.528401,3404.947333,-8197.221829,-148.041188
5508.528725,2812.782580,-8886.707777,-444.123565
5508.529049,1850.514855,-8963.317327,-592.164754
5508.529374,666.185348,-9269.755526,-740.205942
5508.529698,-962.267725,-9422.974625,-666.185348
5508.530022,-1850.514855,-9039.926876,-592.164754
5508.530347,-2886.803174,-8427.050478,-592.164754
5508.530671,-2664.741391,-8656.879127,-666.185348
5508.530995,-1480.411884,-8427.050478,-592.164754
5508.531320,-1184.329507,-8120.612279,-444.123565
5508.531644,444.123565,-8503.660028,-296.082377
5508.531969,888.247130,-8044.002729,-518.144159
5508.532293,1184.329507,-8963.317327,370.102971
5508.532617,1850.514855,-8427.050478,-222.061783
5508.532942,2368.659014,-8580.269578,592.164754
5508.533266,1628.453072,-8580.269578,444.123565
5508.533590,1776.494261,-8427.050478,222.061783
5508.533915,1924.535449,-8427.050478,74.020594
5508.534239,1628.453072,-8656.879127,0.000000
5508.534563,814.226536,-8580.269578,-592.164754
5508.534888,1480.411884,-8810.098227,-222.061783
5508.535212,74.020594,-8044.002729,-296.082377
5508.535536,0.000000,-8886.707777,-814.226536
5508.535861,-1554.432478,-8503.660028,-666.185348
5508.536185,-1702.473667,-8733.488677,-370.102971
5508.536510,-2220.617826,-8810.098227,-814.226536
5508.536834,-2146.597232,-9193.145976,-148.041188
5508.537158,-1924.535449,-8273.831378,0.000000
5508.537483,-888.247130,-8580.269578,-518.144159
5508.537807,-148.041188,-8273.831378,-296.082377
5508.538131,1258.350101,-8503.660028,0.000000
5508.538456,2072.576638,-8656.879127,74.020594
5508.538780,2812.782580,-8427.050478,0.000000
5508.539104,3182.885551,-8656.879127,0.000000
5508.539429,2960.823768,-8273.831378,-370.102971
5508.539753,3256.906145,-8810.098227,0.000000
5508.540077,2664.741391,-8963.317327,-1110.308913
5508.540402,1628.453072,-9652.803275,-518.144159
5508.540726,-296.082377,-8733.488677,-740.205942
5508.541051,-1036.288319,-9652.803275,-370.102971
5508.541375,-1998.556043,-8963.317327,-888.247130
5508.541699,-1924.535449,-9422.974625,-370.102971
5508.542024,-1850.514855,-8350.440928,-962.267725
5508.542348,-814.226536,-8427.050478,0.000000
5508.542672,-592.164754,-8197.221829,-888.247130
5508.542997,814.226536,-8810.098227,-74.020594
5508.543321,1110.308913,-8273.831378,0.000000
5508.543645,1998.556043,-8733.488677,0.000000
5508.543970,1406.391290,-8503.660028,74.020594
5508.544294,1998.556043,-8656.879127,518.144159
5508.544618,1184.329507,-8503.660028,74.020594
5508.544943,1036.288319,-8580.269578,0.000000
5508.545267,1702.473667,-8886.707777,0.000000
5508.545592,1480.411884,-8427.050478,-296.082377
5508.545916,1258.350101,-8580.269578,0.000000
5508.546240,296.082377,-8197.221829,-740.205942
5508.546565,666.185348,-8503.660028,-814.226536
5508.546889,-740.205942,-8503.660028,-1036.288319
5508.547213,-666.185348,-8733.488677,-370.102971
5508.547538,-1702.473667,-8427.050478,-888.247130
5508.547862,-1628.453072,-8656.879127,-444.123565
5508.548186,-1480.411884,-8656.879127,-592.164754
5508.548511,-518.144159,-8503.660028,-740.205942
5508.548835,-148.041188,-8427.050478,-296.082377
5508.549159,1258.350101,-8273.831378,74.020594
5508.549484,1924.535449,-7890.783629,-444.123565
5508.549808,2812.782580,-7507.735880,0.000000
5508.550133,3182.885551,-8273.831378,-148.041188
5508.550457,3701.029710,-8503.660028,-518.144159
5508.550781,2960.823768,-8733.488677,-592.164754
5508.551106,2072.576638,-8810.098227,-518.144159
5508.551430,1036.288319,-8886.707777,-740.205942
5508.551754,-444.123565,-9422.974625,-222.061783
5508.552079,-1628.453072,-9346.365076,-1036.288319
5508.552403,-2664.741391,-9039.926876,-888.247130
5508.552727,-2738.761985,-8656.879127,-518.144159
5508.553052,-2960.823768,-8810.098227,-740.205942
5508.553376,-1924.535449,-8503.660028,-740.205942
5508.553700,-740.205942,-8886.707777,-666.185348
5508.554025,0.000000,-8503.660028,-296.082377
5508.554349,518.144159,-8044.002729,-296.082377
5508.554673,1628.453072,-8580.269578,74.020594
5508.554998,1850.514855,-8350.440928,0.000000
5508.555322,1924.535449,-8733.488677,222.061783
5508.555647,1924.535449,-8580.269578,296.082377
5508.555971,1924.535449,-8197.221829,444.123565
5508.556295,1036.288319,-8044.002729,148.041188
5508.556620,1480.411884,-7890.783629,0.000000
5508.556944,2442.679609,-8733.488677,0.000000
5508.557268,1184.329507,-8273.831378,-1184.329507
5508.557593,962.267725,-8886.707777,-296.082377
5508.557917,-296.082377,-7584.345430,-1110.308913
5508.558241,-1258.350101,-8810.098227,-740.205942
5508.558566,-1184.329507,-9116.536426,-370.102971
5508.558890,-1850.514855,-8733.488677,-888.247130
5508.559214,-1776.494261,-9039.926876,0.000000
5508.559539,-1924.535449,-8503.660028,-518.144159
5508.559863,-1332.370696,-8120.612279,0.000000
5508.560188,296.082377,-8044.002729,-222.061783
5508.560512,1332.370696,-8503.660028,0.000000
5508.560836,2516.700203,-7967.393179,0.000000
5508.561161,2812.782580,-7737.564530,-370.102971
5508.561485,3256.906145,-8273.831378,518.144159
5508.561809,3997.112087,-8273.831378,296.082377
5508.562134,3404.947333,-8427.050478,0.000000
5508.562458,3182.885551,-9193.145976,-296.082377
5508.562782,1702.473667,-9269.755526,-518.144159
5508.563107,-370.102971,-9269.755526,-444.123565
5508.563431,-1850.514855,-9039.926876,-740.205942
5508.563755,-2368.659014,-9499.584175,-518.144159
5508.564080,-2812.782580,-8886.707777,-666.185348
5508.564404,-2294.638420,-8580.269578,-518.144159
5508.564729,-1184.329507,-8656.879127,-296.082377
5508.565053,-222.061783,-8273.831378,-444.123565
5508.565377,962.267725,-9269.755526,0.000000
5508.565702,2294.638420,-8120.612279,-222.061783
5508.566026,2516.700203,-8886.707777,370.102971
5508.566350,2590.720797,-8273.831378,444.123565
5508.566675,2590.720797,-8503.660028,740.205942
5508.566999,2220.617826,-9269.755526,0.000000
5508.567323,1776.494261,-9116.536426,0.000000
5508.567648,1406.391290,-8580.269578,0.000000
5508.567972,962.267725,-8656.879127,-296.082377
5508.568296,592.164754,-9039.926876,0.000000
5508.568621,74.020594,-8273.831378,-666.185348
5508.568945,-296.082377,-8810.098227,-740.205942
5508.569270,-740.205942,-8656.879127,-888.247130
5508.569594,-1406.391290,-8733.488677,-666.185348
5508.569918,-1924.535449,-8580.269578,-518.144159
5508.570243,-1850.514855,-8810.098227,-592.164754
5508.570567,-1924.535449,-8963.317327,-592.164754
5508.570891,-962.267725,-8886.707777,-592.164754
5508.571216,518.144159,-8886.707777,-592.164754
5508.571540,962.267725,-8197.221829,-296.082377
5508.571864,1850.514855,-8503.660028,0.000000
5508.572189,2812.782580,-7584.345430,-296.082377
5508.572513,2442.679609,-8120.612279,592.164754
5508.572837,3330.926739,-7814.174080,-888.247130
5508.573162,3256.906145,-8580.269578,222.061783
5508.573486,2886.803174,-8733.488677,-814.226536
5508.573811,1628.453072,-8810.098227,-740.205942
5508.574135,222.061783,-9116.536426,-666.185348
5508.574459,-1702.473667,-9116.536426,-962.267725
5508.574784,-2368.659014,-9422.974625,-592.164754
5508.575108,-3034.844362,-8733.488677,-1406.391290
5508.575432,-2812.782580,-9039.926876,0.000000
5508.575757,-2368.659014,-8427.050478,-962.267725
5508.576081,-814.226536,-9193.145976,-296.082377
5508.576405,0.000000,-8350.440928,-518.144159
5508.576730,1702.473667,-8733.488677,814.226536
5508.577054,2294.638420,-8197.221829,0.000000
5508.577378,2590.720797,-8656.879127,148.041188
5508.577703,2886.803174,-8427.050478,222.061783
5508.578027,1184.329507,-8656.879127,370.102971
5508.578352,666.185348,-8427.050478,296.082377
5508.578676,740.205942,-8044.002729,0.000000
5508.579000,740.205942,-8963.317327,148.041188
5508.579325,370.102971,-8120.612279,-666.185348
5508.579649,444.123565,-8580.269578,518.144159
5508.579973,0.000000,-8273.831378,-1036.288319
5508.580298,222.061783,-8733.488677,-814.226536
5508.580622,-666.185348,-8503.660028,-740.205942
5508.580946,-1406.391290,-8963.317327,-962.267725
5508.581271,-2146.597232,-8733.488677,-666.185348
5508.581595,-1998.556043,-8886.707777,-740.205942
5508.581919,-1998.556043,-8733.488677,-370.102971
5508.582244,-1332.370696,-8044.002729,-740.205942
5508.582568,0.000000,-8350.440928,0.000000
5508.582893,962.267725,-7660.954980,0.000000
5508.583217,2368.659014,-8044.002729,222.061783
5508.583541,3849.070898,-7967.393179,0.000000
5508.583866,4441.235652,-7660.954980,592.164754
5508.584190,3849.070898,-8273.831378,-296.082377
5508.584514,3997.112087,-8886.707777,0.000000
5508.584839,2590.720797,-8886.707777,-518.144159
5508.585163,1258.350101,-9576.193725,0.000000
5508.585487,-962.267725,-8886.707777,-370.102971
5508.585812,-1850.514855,-9806.022374,-518.144159
5508.586136,-2960.823768,-9039.926876,-888.247130
5508.586460,-3182.885551,-8810.098227,-666.185348
5508.586785,-3034.844362,-8503.660028,-592.164754
5508.587109,-1184.329507,-8273.831378,-518.144159
5508.587433,148.041188,-8350.440928,-592.164754
5508.587758,888.247130,-8733.488677,-666.185348
5508.588082,2368.659014,-8197.221829,222.061783
5508.588407,2294.638420,-8427.050478,-296.082377
5508.588731,2072.576638,-8886.707777,370.102971
5508.589055,1924.535449,-8733.488677,592.164754
5508.589380,2220.617826,-9422.974625,222.061783
5508.589704,1036.288319,-8733.488677,74.020594
5508.590028,1110.308913,-8656.879127,-370.102971
5508.590353,962.267725,-8810.098227,0.000000
5508.590677,888.247130,-8044.002729,-740.205942
5508.591001,0.000000,-8273.831378,-370.102971
5508.591326,-148.041188,-8580.269578,-592.164754
5508.591650,-148.041188,-8427.050478,-1036.288319
5508.591974,-592.164754,-9116.536426,-592.164754
5508.592299,-1110.308913,-9039.926876,-1110.308913
5508.592623,-1850.514855,-9039.926876,-814.226536
5508.592948,-1776.494261,-9193.145976,-888.247130
5508.593272,-2220.617826,-8886.707777,-370.102971
5508.593596,-1480.411884,-8503.660028,0.000000
5508.593921,-444.123565,-7814.174080,0.000000
5508.594245,1776.494261,-8044.002729,0.000000
5508.594569,2516.700203,-7660.954980,0.000000
5508.594894,3849.070898,-8120.612279,222.061783
5508.595218,4441.235652,-7967.393179,-74.020594
5508.595542,3923.091493,-8197.221829,-222.061783
5508.595867,3256.906145,-8733.488677,0.000000
5508.596191,1850.514855,-8810.098227,-370.102971
5508.596515,888.247130,-9116.536426,-740.205942
5508.596840,-1110.308913,-9269.755526,-1110.308913
5508.597164,-2738.761985,-9346.365076,-1184.329507
5508.597489,-3478.967927,-9193.145976,-666.185348
5508.597813,-3256.906145,-8886.707777,-444.123565
5508.598137,-2516.700203,-8503.660028,-518.144159
5508.598462,-1332.370696,-8503.660028,74.020594
5508.598786,0.000000,-8197.221829,-518.144159
5508.599110,888.247130,-8350.440928,-296.082377
5508.599435,3034.844362,-7814.174080,296.082377
5508.599759,1998.556043,-8350.440928,222.061783
5508.600083,3108.864956,-8580.269578,74.020594
5508.600408,1258.350101,-8427.050478,666.185348
5508.600732,2368.659014,-7967.393179,888.247130
5508.601056,518.144159,-7737.564530,444.123565
5508.601381,1332.370696,-8886.707777,444.123565
5508.601705,592.164754,-8044.002729,-592.164754
5508.602030,814.226536,-8580.269578,-444.123565
5508.602354,222.061783,-8427.050478,-740.205942
5508.602678,148.041188,-8427.050478,-962.267725
5508.603003,-518.144159,-8733.488677,-814.226536
5508.603327,-1332.370696,-8273.831378,-666.185348
5508.603651,-1554.432478,-8503.660028,-814.226536
5508.603976,-2072.576638,-8733.488677,-888.247130
5508.604300,-1850.514855,-9116.536426,-518.144159
5508.604624,-1258.350101,-8273.831378,-592.164754
5508.604949,-518.144159,-8963.317327,-444.123565
5508.605273,0.000000,-7584.345430,0.000000
5508.605597,2146.597232,-8273.831378,148.041188
5508.605922,2590.720797,-7890.783629,-370.102971
5508.606246,3478.967927,-8197.221829,444.123565
5508.606571,3997.112087,-7814.174080,-592.164754
5508.606895,3849.070898,-8963.317327,-518.144159
5508.607219,3701.029710,-8810.098227,-666.185348
5508.607544,2072.576638,-8810.098227,-814.226536
5508.607868,518.144159,-9576.193725,-740.205942
5508.608192,-1554.432478,-9116.536426,-740.205942
5508.608517,-2368.659014,-9959.241474,-814.226536
5508.608841,-4293.194464,-8427.050478,-1332.370696
5508.609165,-3108.864956,-9193.145976,-740.205942
5508.609490,-3034.844362,-8580.269578,-1480.411884
5508.609814,-1184.329507,-9039.926876,-444.123565
5508.610138,-814.226536,-8350.440928,-1036.288319
5508.610463,814.226536,-9039.926876,222.061783
5508.610787,1998.556043,-7890.783629,-444.123565
5508.611112,2886.803174,-9116.536426,0.000000
5508.611436,3182.885551,-8044.002729,592.164754
5508.611760,2664.741391,-8503.660028,444.123565
5508.612085,2368.659014,-7890.783629,-148.041188
5508.612409,1924.535449,-8503.660028,0.000000
5508.612733,1776.494261,-8503.660028,0.000000
5508.613058,666.185348,-8273.831378,-518.144159
5508.613382,518.144159,-8810.098227,-666.185348
5508.613706,370.102971,-8810.098227,-592.164754
5508.614031,-222.061783,-8427.050478,-518.144159
5508.614355,-1036.288319,-8427.050478,-1184.329507
5508.614679,-1110.308913,-8886.707777,-518.144159
5508.615004,-2072.576638,-7890.783629,-814.226536
5508.615328,-1776.494261,-9193.145976,-444.123565
5508.615653,-1924.535449,-8580.269578,-888.247130
5508.615977,-1480.411884,-8733.488677,-518.144159
5508.616301,-814.226536,-8120.612279,-666.185348
5508.616626,370.102971,-8273.831378,-148.041188
5508.616950,1554.432478,-8120.612279,0.000000
5508.617274,2368.659014,-8273.831378,518.144159
5508.617599,3701.029710,-8273.831378,-148.041188
5508.617923,3775.050304,-8197.221829,-148.041188
5508.618247,4589.276840,-8273.831378,0.000000
5508.618572,3182.885551,-8427.050478,0.000000
5508.618896,2368.659014,-9116.536426,-296.082377
5508.619220,888.247130,-8503.660028,-888.247130
5508.619545,-518.144159,-8963.317327,-444.123565
5508.619869,-1702.473667,-9193.145976,-444.123565
5508.620194,-2886.803174,-8656.879127,-592.164754
5508.620518,-2664.741391,-9269.755526,-222.061783
5508.620842,-2220.617826,-8580.269578,-296.082377
5508.621167,-1480.411884,-8656.879127,-148.041188
5508.621491,-592.164754,-8350.440928,148.041188
5508.621815,1110.308913,-8580.269578,222.061783
5508.622140,1702.473667,-8963.317327,0.000000
5508.622464,1850.514855,-8350.440928,74.020594
5508.622788,2294.638420,-8503.660028,296.082377
5508.623113,1628.453072,-8810.098227,0.000000
5508.623437,1702.473667,-9116.536426,74.020594
5508.623761,1776.494261,-8580.269578,0.000000
5508.624086,1406.391290,-8197.221829,-444.123565
5508.624410,1258.350101,-8580.269578,-518.144159
5508.624734,592.164754,-8503.660028,-1036.288319
5508.625059,370.102971,-8656.879127,-518.144159
5508.625383,-740.205942,-7967.393179,-962.267725
5508.625708,-1110.308913,-8886.707777,-666.185348
5508.626032,-1702.473667,-8733.488677,-740.205942
5508.626356,-2072.576638,-8886.707777,-592.164754
5508.626681,-2146.597232,-8733.488677,-518.144159
5508.627005,-1480.411884,-8733.488677,-592.164754
5508.627329,-666.185348,-8427.050478,-962.267725
5508.627654,592.164754,-9039.926876,-148.041188
5508.627978,1406.391290,-8197.221829,-370.102971
5508.628302,2368.659014,-8580.269578,-666.185348
5508.628627,3108.864956,-7967.393179,-444.123565
5508.628951,3182.885551,-8503.660028,0.000000
5508.629275,2886.803174,-8350.440928,-814.226536
5508.629600,2886.803174,-8963.317327,-370.102971
5508.629924,2294.638420,-8810.098227,-1110.308913
5508.630248,814.226536,-9039.926876,-518.144159
5508.630573,-222.061783,-9193.145976,-518.144159
5508.630897,-1480.411884,-9269.755526,-740.205942
5508.631222,-2664.741391,-8580.269578,-1036.288319
5508.631546,-2072.576638,-8733.488677,-592.164754
5508.631870,-1554.432478,-9116.536426,-962.267725
5508.632195,-444.123565,-8810.098227,-222.061783
5508.632519,0.000000,-8656.879127,-592.164754
5508.632843,1406.391290,-8963.317327,-592.164754
5508.633168,1850.514855,-8273.831378,-370.102971
5508.633492,2812.782580,-8503.660028,0.000000
5508.633816,2072.576638,-9039.926876,74.020594
5508.634141,1036.288319,-8886.707777,-148.041188
5508.634465,518.144159,-8733.488677,0.000000
5508.634789,-222.061783,-8197.221829,-222.061783
5508.635114,296.082377,-8886.707777,-296.082377
5508.635438,296.082377,-8120.612279,-814.226536
5508.635762,666.185348,-8580.269578,-444.123565
5508.636087,-148.041188,-8886.707777,-888.247130
5508.636411,-518.144159,-8886.707777,-962.267725
5508.636736,-814.226536,-8580.269578,-370.102971
5508.637060,-1036.288319,-9116.536426,-592.164754
5508.637384,-1480.411884,-9116.536426,-296.082377
5508.637709,-1258.350101,-8656.879127,0.000000
5508.638033,-814.226536,-8503.660028,-296.082377
5508.638357,-592.164754,-8273.831378,-370.102971
5508.638682,518.144159,-8350.440928,-296.082377
5508.639006,1036.288319,-7507.735880,-370.102971
5508.639330,2368.659014,-8120.612279,0.000000
5508.639655,2516.700203,-8350.440928,0.000000
5508.639979,2960.823768,-8580.269578,0.000000
5508.640303,3034.844362,-8503.660028,-222.061783
5508.640628,2516.700203,-8580.269578,0.000000
5508.640952,1998.556043,-8733.488677,-370.102971
5508.641277,592.164754,-9116.536426,-222.061783
5508.641601,-74.020594,-9116.536426,-592.164754
5508.641925,-1480.411884,-8810.098227,-666.185348
5508.642250,-1776.494261,-9039.926876,-444.123565
5508.642574,-2146.597232,-8350.440928,-296.082377
5508.642898,-1628.453072,-8580.269578,-518.144159
5508.643223,-962.267725,-9116.536426,74.020594
5508.643547,0.000000,-8503.660028,0.000000
5508.643871,740.205942,-8580.269578,0.000000
5508.644196,1776.494261,-8656.879127,-222.061783
5508.644520,1702.473667,-8886.707777,592.164754
5508.644844,1850.514855,-8810.098227,296.082377
5508.645169,1628.453072,-8810.098227,444.123565
5508.645493,1406.391290,-8427.050478,370.102971
5508.645817,1036.288319,-8580.269578,148.041188
5508.646142,1184.329507,-7967.393179,370.102971
5508.646466,1184.329507,-8580.269578,-444.123565
5508.646791,592.164754,-8503.660028,-444.123565
5508.647115,296.082377,-8503.660028,-518.144159
5508.647439,-148.041188,-8886.707777,-148.041188
5508.647764,-666.185348,-8733.488677,-518.144159
5508.648088,-1184.329507,-9116.536426,-518.144159
5508.648412,-1480.411884,-8963.317327,-814.226536
5508.648737,-1702.473667,-8733.488677,-1258.350101
5508.649061,-1036.288319,-9116.536426,-370.102971
5508.649385,-370.102971,-8273.831378,-592.164754
5508.649710,74.020594,-7967.393179,-592.164754
5508.650034,1184.329507,-8427.050478,-444.123565
5508.650358,2146.597232,-8273.831378,-370.102971
5508.650683,2590.720797,-8197.221829,-370.102971
5508.651007,3627.009116,-8580.269578,-222.061783
5508.651331,2812.782580,-8427.050478,-1110.308913
5508.651656,2220.617826,-9729.412825,-296.082377
5508.651980,1258.350101,-8810.098227,222.061783
5508.652305,1702.473667,-8810.098227,-888.247130
5508.652629,-222.061783,-9882.631924,-666.185348
5508.652953,-1332.370696,-8273.831378,-1036.288319
5508.653278,-1554.432478,-9269.755526,-296.082377
5508.653602,-2960.823768,-8810.098227,-1702.473667
5508.653926,-2368.659014,-9039.926876,-592.164754
5508.654251,-1850.514855,-8273.831378,-888.247130
5508.654575,-518.144159,-9269.755526,-148.041188
5508.654899,0.000000,-8503.660028,0.000000
5508.655224,1036.288319,-8503.660028,148.041188
5508.655548,1036.288319,-8810.098227,0.000000
5508.655872,2738.761985,-8963.317327,0.000000
5508.656197,2812.782580,-8580.269578,296.082377
5508.656521,1480.411884,-8580.269578,444.123565
5508.656845,1850.514855,-8503.660028,-370.102971
5508.657170,148.041188,-8656.879127,0.000000
5508.657494,444.123565,-8044.002729,-296.082377
5508.657819,592.164754,-7890.783629,-444.123565
5508.658143,-296.082377,-8044.002729,-888.247130
5508.658467,148.041188,-8427.050478,-592.164754
5508.658792,-148.041188,-7967.393179,-296.082377
5508.659116,-740.205942,-8810.098227,-962.267725
5508.659440,-592.164754,-8656.879127,-1036.288319
5508.659765,-1628.453072,-9039.926876,-518.144159
5508.660089,-1924.535449,-8503.660028,-592.164754
5508.660413,-1184.329507,-9039.926876,-518.144159
5508.660738,-962.267725,-8886.707777,-666.185348
5508.661062,1850.514855,-8120.612279,0.000000
5508.661386,-962.267725,-7890.783629,-666.185348
5508.661711,3034.844362,-8273.831378,888.247130
5508.662035,1036.288319,-7431.126331,-518.144159
5508.662360,3330.926739,-9806.022374,296.082377
5508.662684,3849.070898,-7737.564530,-222.061783
5508.663008,3552.988522,-9116.536426,0.000000
5508.663333,2516.700203,-8503.660028,-296.082377
5508.663657,1332.370696,-8273.831378,-1184.329507
5508.663981,-296.082377,-9806.022374,-444.123565
5508.664306,-1480.411884,-8427.050478,-1332.370696
5508.664630,-2368.659014,-8963.317327,-962.267725
5508.664954,-3108.864956,-8427.050478,-740.205942
5508.665279,-2294.638420,-8503.660028,-222.061783
5508.665603,-1776.494261,-8733.488677,-592.164754
5508.665927,-740.205942,-8427.050478,-148.041188
5508.666252,148.041188,-8350.440928,0.000000
5508.666576,2368.659014,-8580.269578,-444.123565
5508.666900,1110.308913,-8273.831378,666.185348
5508.667225,2886.803174,-9116.536426,222.061783
5508.667549,2146.597232,-8580.269578,444.123565
5508.667874,962.267725,-8656.879127,222.061783
5508.668198,1184.329507,-8580.269578,0.000000
5508.668522,0.000000,-8044.002729,370.102971
5508.668847,1702.473667,-8350.440928,0.000000
5508.669171,518.144159,-8503.660028,-444.123565
5508.669495,444.123565,-8503.660028,-370.102971
5508.669820,444.123565,-8197.221829,-740.205942
5508.670144,-148.041188,-9193.145976,-370.102971
5508.670468,-296.082377,-8503.660028,-444.123565
5508.670793,-888.247130,-8963.317327,-888.247130
5508.671117,-1554.432478,-9193.145976,-740.205942
5508.671441,-1776.494261,-8656.879127,-740.205942
5508.671766,-1554.432478,-8656.879127,-444.123565
5508.672090,-1036.288319,-8350.440928,-592.164754
5508.672414,-370.102971,-8503.660028,0.000000
5508.672739,1184.329507,-8427.050478,0.000000
5508.673063,1924.535449,-8503.660028,0.000000
5508.673388,3775.050304,-8503.660028,-222.061783
5508.673712,4219.173869,-8197.221829,0.000000
5508.674036,4145.153275,-8350.440928,0.000000
5508.674361,3034.844362,-8810.098227,-296.082377
5508.674685,2072.576638,-8963.317327,-296.082377
5508.675009,74.020594,-8810.098227,-888.247130
5508.675334,-1184.329507,-9422.974625,-592.164754
5508.675658,-2886.803174,-9269.755526,-888.247130
5508.675982,-2960.823768,-9269.755526,-666.185348
5508.676307,-3256.906145,-8350.440928,-1036.288319
5508.676631,-2294.638420,-8580.269578,-444.123565
5508.676955,-1406.391290,-8656.879127,-666.185348
5508.677280,0.000000,-7967.393179,222.061783
5508.677604,1628.453072,-8273.831378,-666.185348
5508.677928,2294.638420,-9116.536426,0.000000
5508.678253,2294.638420,-8810.098227,0.000000
5508.678577,2516.700203,-9269.755526,-370.102971
5508.678902,1036.288319,-8810.098227,74.020594
5508.679226,1036.288319,-9193.145976,0.000000
5508.679550,518.144159,-8503.660028,74.020594
5508.679875,592.164754,-8503.660028,148.041188
5508.680199,740.205942,-8120.612279,-518.144159
5508.680523,592.164754,-8273.831378,-296.082377
5508.680848,1332.370696,-8273.831378,-740.205942
5508.681172,888.247130,-8120.612279,-1110.308913
5508.681496,0.000000,-8963.317327,-518.144159
5508.681821,-814.226536,-8427.050478,-888.247130
5508.682145,-1628.453072,-9269.755526,-1110.308913
5508.682469,-2368.659014,-8733.488677,-888.247130
5508.682794,-2294.638420,-8810.098227,0.000000
5508.683118,-2072.576638,-8503.660028,-740.205942
5508.683442,-740.205942,-8580.269578,-666.185348
5508.683767,-222.061783,-8120.612279,-518.144159
5508.684091,1628.453072,-7890.783629,0.000000
5508.684416,2220.617826,-7890.783629,0.000000
5508.684740,3256.906145,-8656.879127,0.000000
5508.685064,3849.070898,-8656.879127,-444.123565
5508.685389,3849.070898,-8580.269578,-296.082377
5508.685713,2368.659014,-8963.317327,444.123565
5508.686037,1850.514855,-8963.317327,-814.226536
5508.686362,296.082377,-9422.974625,-740.205942
5508.686686,-1110.308913,-8733.488677,-666.185348
5508.687010,-2516.700203,-9729.412825,-962.267725
5508.687335,-3108.864956,-8810.098227,-1110.308913
5508.687659,-3182.885551,-8120.612279,-370.102971
5508.687983,-2220.617826,-8197.221829,-592.164754
5508.688308,-666.185348,-8350.440928,-296.082377
5508.688632,296.082377,-8273.831378,296.082377
5508.688957,1998.556043,-8273.831378,-518.144159
5508.689281,2516.700203,-8580.269578,0.000000
5508.689605,2812.782580,-8963.317327,592.164754
5508.689930,2294.638420,-9039.926876,814.226536
5508.690254,2146.597232,-8656.879127,518.144159
5508.690578,1332.370696,-8580.269578,74.020594
5508.690903,1480.411884,-8886.707777,0.000000
5508.691227,1036.288319,-7967.393179,-296.082377
5508.691551,222.061783,-8503.660028,-148.041188
5508.691876,370.102971,-8273.831378,-296.082377
5508.692200,0.000000,-7967.393179,-814.226536
5508.692524,0.000000,-8580.269578,-740.205942
5508.692849,-296.082377,-8120.612279,-740.205942
5508.693173,-1332.370696,-8886.707777,-740.205942
5508.693497,-1554.432478,-8503.660028,-888.247130
5508.693822,-1554.432478,-8886.707777,-518.144159
5508.694146,-1184.329507,-8886.707777,-444.123565
5508.694471,-518.144159,-8580.269578,-222.061783
5508.694795,0.000000,-8350.440928,-222.061783
5508.695119,888.247130,-8503.660028,74.020594
5508.695444,1924.535449,-7814.174080,-296.082377
5508.695768,3182.885551,-8580.269578,296.082377
5508.696092,3330.926739,-7967.393179,-296.082377
5508.696417,3849.070898,-8580.269578,74.020594
5508.696741,3627.009116,-8656.879127,-666.185348
5508.697065,3108.864956,-8963.317327,74.020594
5508.697390,1554.432478,-8580.269578,-962.267725
5508.697714,296.082377,-9422.974625,-296.082377
5508.698038,-1480.411884,-8733.488677,-666.185348
5508.698363,-2368.659014,-9346.365076,-148.041188
5508.698687,-3034.844362,-8656.879127,-962.267725
5508.699011,-2738.761985,-8886.707777,-592.164754
5508.699336,-2442.679609,-8580.269578,-518.144159
5508.699660,-1406.391290,-8580.269578,-148.041188
5508.699985,-222.061783,-8580.269578,-370.102971
5508.700309,666.185348,-8580.269578,74.020594
5508.700633,2072.576638,-8427.050478,0.000000
5508.700958,2812.782580,-8963.317327,0.000000
5508.701282,3404.947333,-8963.317327,296.082377
5508.701606,2368.659014,-8580.269578,296.082377
5508.701931,1702.473667,-8810.098227,0.000000
5508.702255,1110.308913,-8733.488677,148.041188
5508.702579,814.226536,-8350.440928,-518.144159
5508.702904,592.164754,-9039.926876,-222.061783
5508.703228,-296.082377,-8197.221829,-888.247130
5508.703552,-962.267725,-8810.098227,-444.123565
5508.703877,-962.267725,-8273.831378,-1184.329507
5508.704201,-1406.391290,-8503.660028,-518.144159
5508.704525,-1258.350101,-8350.440928,-962.267725
5508.704850,-2072.576638,-8427.050478,-592.164754
5508.705174,-1850.514855,-8656.879127,-740.205942
5508.705499,-1480.411884,-8044.002729,-592.164754
5508.705823,-592.164754,-8197.221829,-592.164754
5508.706147,370.102971,-7967.393179,-296.082377
5508.706472,1850.514855,-8427.050478,-222.061783
5508.706796,1924.535449,-8350.440928,74.020594
5508.707120,3330.926739,-8427.050478,0.000000
5508.707445,3330.926739,-8273.831378,74.020594
5508.707769,3330.926739,-8273.831378,0.000000
5508.708093,2812.782580,-8580.269578,-518.144159
5508.708418,2368.659014,-9039.926876,-814.226536
5508.708742,666.185348,-8810.098227,-666.185348
5508.709066,-592.164754,-8963.317327,-370.102971
5508.709391,-1628.453072,-8963.317327,-1184.329507
5508.709715,-2516.700203,-9193.145976,-1036.288319
5508.710039,-2590.720797,-8963.317327,-592.164754
5508.710364,-2664.741391,-8580.269578,-740.205942
5508.710688,-1628.453072,-8886.707777,-370.102971
5508.711013,-518.144159,-8427.050478,-148.041188
5508.711337,666.185348,-8580.269578,0.000000
5508.711661,1628.453072,-8503.660028,0.000000
5508.711986,2072.576638,-8044.002729,370.102971
5508.712310,2368.659014,-8580.269578,0.000000
5508.712634,2664.741391,-9269.755526,444.123565
5508.712959,2072.576638,-8886.707777,0.000000
5508.713283,1332.370696,-8273.831378,370.102971
5508.713607,1480.411884,-8580.269578,0.000000
5508.713932,740.205942,-7584.345430,-296.082377
5508.714256,666.185348,-8580.269578,-296.082377
5508.714580,-148.041188,-7814.174080,-814.226536
5508.714905,222.061783,-8810.098227,-1036.288319
5508.715229,-222.061783,-8273.831378,-888.247130
5508.715554,-1036.288319,-9039.926876,-222.061783
5508.715878,-1850.514855,-8427.050478,-814.226536
5508.716202,-1628.453072,-9039.926876,-592.164754
5508.716527,-1258.350101,-8427.050478,-592.164754
5508.716851,-740.205942,-9193.145976,-148.041188
5508.717175,-296.082377,-8197.221829,-444.123565
5508.717500,814.226536,-8197.221829,-444.123565
5508.717824,2146.597232,-8197.221829,-296.082377
5508.718148,2738.761985,-8427.050478,74.020594
5508.718473,2886.803174,-8733.488677,-296.082377
5508.718797,3330.926739,-8427.050478,0.000000
5508.719121,2960.823768,-8810.098227,-148.041188
5508.719446,2368.659014,-9116.536426,-592.164754
5508.719770,1554.432478,-9039.926876,-370.102971
5508.720094,74.020594,-9039.926876,-740.205942
5508.720419,-1258.350101,-9499.584175,-666.185348
5508.720743,-2146.597232,-8810.098227,-740.205942
5508.721068,-2442.679609,-9193.145976,-1184.329507
5508.721392,-2368.659014,-8733.488677,-296.082377
5508.721716,-2220.617826,-8197.221829,-518.144159
5508.722041,-888.247130,-8580.269578,-148.041188
5508.722365,0.000000,-8197.221829,-296.082377
5508.722689,370.102971,-8350.440928,-222.061783
5508.723014,1184.329507,-8810.098227,148.041188
5508.723338,1850.514855,-8733.488677,592.164754
5508.723662,2220.617826,-9116.536426,444.123565
5508.723987,1998.556043,-8886.707777,222.061783
5508.724311,1776.494261,-8656.879127,296.082377
5508.724635,740.205942,-8273.831378,148.041188
5508.724960,1036.288319,-8427.050478,0.000000
5508.725284,444.123565,-8427.050478,518.144159
5508.725608,1110.308913,-8580.269578,-222.061783
5508.725933,444.123565,-8427.050478,-518.144159
5508.726257,370.102971,-9039.926876,-740.205942
5508.726581,-1110.308913,-8197.221829,-814.226536
5508.726906,-962.267725,-8580.269578,-296.082377
5508.727230,-1850.514855,-8810.098227,-740.205942
5508.727554,-1924.535449,-9039.926876,-296.082377
5508.727879,-1702.473667,-8273.831378,-148.041188
5508.728203,-1258.350101,-8120.612279,74.020594
5508.728528,0.000000,-8044.002729,-296.082377
5508.728852,1036.288319,-7584.345430,-148.041188
5508.729176,2664.741391,-8350.440928,148.041188
5508.729501,2812.782580,-8120.612279,0.000000
5508.729825,3627.009116,-8580.269578,0.000000
5508.730149,4145.153275,-8273.831378,0.000000
5508.730474,3478.967927,-8963.317327,-370.102971
5508.730798,2072.576638,-9499.584175,-592.164754
5508.731122,1110.308913,-8886.707777,-814.226536
5508.731447,-1110.308913,-9193.145976,-740.205942
5508.731771,-2442.679609,-8733.488677,-518.144159
5508.732095,-2664.741391,-8963.317327,-1110.308913
5508.732420,-2146.597232,-8810.098227,-814.226536
5508.732744,-1850.514855,-8273.831378,-518.144159
5508.733068,-1036.288319,-8120.612279,-666.185348
5508.733393,370.102971,-8580.269578,0.000000
5508.733717,1554.432478,-8810.098227,0.000000
5508.734041,2368.659014,-8733.488677,222.061783
5508.734366,2442.679609,-8427.050478,-370.102971
5508.734690,2590.720797,-9039.926876,74.020594
5508.735014,1406.391290,-8656.879127,296.082377
5508.735339,1702.473667,-9269.755526,296.082377
5508.735663,518.144159,-8656.879127,-592.164754
5508.735987,222.061783,-8963.317327,74.020594
5508.736312,370.102971,-7814.174080,-518.144159
5508.736636,518.144159,-8197.221829,0.000000
5508.736960,148.041188,-8044.002729,-740.205942
5508.737285,444.123565,-8350.440928,-888.247130
5508.737609,0.000000,-8503.660028,-1332.370696
5508.737934,-296.082377,-8810.098227,-740.205942
5508.738258,-740.205942,-8503.660028,-962.267725
5508.738582,-1480.411884,-8656.879127,-666.185348
5508.738907,-1850.514855,-8810.098227,-666.185348
5508.739231,-1258.350101,-8580.269578,-592.164754
5508.739555,-222.061783,-8427.050478,0.000000
5508.739880,148.041188,-7890.783629,-296.082377
5508.740204,1036.288319,-8044.002729,148.041188
5508.740528,2516.700203,-7584.345430,-296.082377
5508.740853,3182.885551,-7737.564530,148.041188
5508.741177,3627.009116,-8044.002729,-592.164754
5508.741501,3627.009116,-8963.317327,0.000000
5508.741826,2886.803174,-8656.879127,-518.144159
5508.742150,1628.453072,-9422.974625,-518.144159
5508.742474,444.123565,-9346.365076,-666.185348
5508.742799,-1702.473667,-9346.365076,-592.164754
5508.743123,-2442.679609,-8886.707777,-666.185348
5508.743447,-3404.947333,-9039.926876,-370.102971
5508.743772,-2812.782580,-8273.831378,-518.144159
5508.744096,-2072.576638,-8350.440928,-592.164754
5508.744420,-518.144159,-8427.050478,-296.082377
5508.744745,148.041188,-8503.660028,0.000000
5508.745069,1258.350101,-7967.393179,0.000000
5508.745393,1850.514855,-8350.440928,370.102971
5508.745718,2368.659014,-8273.831378,148.041188
5508.746042,2294.638420,-8580.269578,592.164754
5508.746367,2072.576638,-8503.660028,74.020594
5508.746691,1036.288319,-8427.050478,518.144159
5508.747015,740.205942,-8886.707777,0.000000
5508.747340,592.164754,-8503.660028,-296.082377
5508.747664,296.082377,-8503.660028,-222.061783
5508.747988,444.123565,-7890.783629,-1110.308913
5508.748313,370.102971,-8503.660028,-518.144159
5508.748637,74.020594,-8580.269578,-740.205942
5508.748961,-222.061783,-8733.488677,-592.164754
5508.749286,-1036.288319,-8044.002729,-666.185348
5508.749610,-1628.453072,-9116.536426,-888.247130
5508.749934,-1184.329507,-8580.269578,-740.205942
5508.750259,-1332.370696,-8886.707777,0.000000
5508.750583,-1110.308913,-8733.488677,-370.102971
5508.750907,0.000000,-8044.002729,-296.082377
5508.751232,888.247130,-8120.612279,-222.061783
5508.751556,1998.556043,-8273.831378,-148.041188
5508.751880,1776.494261,-8044.002729,-148.041188
5508.752205,2368.659014,-8503.660028,444.123565
5508.752529,4737.318029,-8273.831378,-370.102971
5508.752853,3849.070898,-8733.488677,-222.061783
5508.753178,3256.906145,-9116.536426,-962.267725
5508.753502,1998.556043,-8886.707777,-518.144159
5508.753826,-296.082377,-9346.365076,-814.226536
5508.754151,-1480.411884,-9422.974625,-888.247130
5508.754475,-2590.720797,-9346.365076,-370.102971
5508.754799,-3923.091493,-8963.317327,-888.247130
5508.755124,-2294.638420,-9422.974625,-666.185348
5508.755448,-2368.659014,-8273.831378,0.000000
5508.755773,0.000000,-8886.707777,0.000000
5508.756097,0.000000,-8044.002729,-148.041188
5508.756421,2072.576638,-8350.440928,888.247130
5508.756746,2368.659014,-8197.221829,0.000000
5508.757070,3330.926739,-8886.707777,296.082377
5508.757394,2294.638420,-8273.831378,148.041188
5508.757719,1998.556043,-9193.145976,148.041188
5508.758043,1702.473667,-8427.050478,-518.144159
5508.758367,888.247130,-8503.660028,148.041188
5508.758692,740.205942,-8810.098227,0.000000
5508.759016,0.000000,-8503.660028,-814.226536
5508.759340,-148.041188,-8427.050478,74.020594
5508.759665,-296.082377,-8044.002729,-740.205942
5508.759989,518.144159,-8810.098227,-1258.350101
5508.760313,-814.226536,-8503.660028,-814.226536
5508.760638,-370.102971,-9269.755526,-962.267725
5508.760962,-1776.494261,-8580.269578,-888.247130
5508.761286,-1702.473667,-8886.707777,-592.164754
5508.761611,-1554.432478,-8350.440928,-444.123565
5508.761935,-1110.308913,-8427.050478,0.000000
5508.762259,518.144159,-8427.050478,-148.041188
5508.762584,2220.617826,-8044.002729,-296.082377
5508.762908,2442.679609,-8197.221829,148.041188
5508.763232,3478.967927,-8350.440928,-592.164754
5508.763557,3034.844362,-8350.440928,0.000000
5508.763881,3034.844362,-8197.221829,370.102971
5508.764206,2738.761985,-8350.440928,-296.082377
5508.764530,888.247130,-8733.488677,-296.082377
5508.764854,740.205942,-9882.631924,-740.205942
5508.765179,-666.185348,-8886.707777,-518.144159
5508.765503,-2072.576638,-8963.317327,-962.267725
5508.765827,-2368.659014,-9193.145976,-592.164754
5508.766152,-2072.576638,-8810.098227,-592.164754
5508.766476,-1776.494261,-8580.269578,-296.082377
5508.766800,-814.226536,-8427.050478,-222.061783
5508.767125,592.164754,-8580.269578,-370.102971
5508.767449,1406.391290,-8503.660028,296.082377
5508.767773,1554.432478,-8197.221829,74.020594
5508.768098,1480.411884,-8580.269578,0.000000
5508.768422,1406.391290,-8580.269578,296.082377
5508.768746,1332.370696,-9269.755526,222.061783
5508.769071,1406.391290,-8810.098227,-222.061783
5508.769395,444.123565,-8733.488677,74.020594
5508.769719,592.164754,-8427.050478,0.000000
5508.770044,148.041188,-8197.221829,-296.082377
5508.770368,444.123565,-9039.926876,-740.205942
5508.770692,888.247130,-8120.612279,-666.185348
5508.771017,592.164754,-8197.221829,-370.102971
5508.771341,-148.041188,-8886.707777,-888.247130
5508.771665,-1110.308913,-8273.831378,-666.185348
5508.771990,-1702.473667,-8733.488677,-1480.411884
5508.772314,-1998.556043,-8580.269578,-888.247130
5508.772638,-2072.576638,-8810.098227,0.000000
5508.772963,-1406.391290,-8503.660028,-592.164754
5508.773287,-666.185348,-8044.002729,-296.082377
5508.773612,296.082377,-7890.783629,-518.144159
5508.773936,1406.391290,-8044.002729,-296.082377
5508.774260,2812.782580,-7737.564530,0.000000
5508.774585,2738.761985,-7967.393179,0.000000
5508.774909,3478.967927,-8656.879127,-148.041188
5508.775233,3182.885551,-8810.098227,-592.164754
5508.775558,2886.803174,-9193.145976,-296.082377
5508.775882,1258.350101,-8810.098227,-666.185348
5508.776206,888.247130,-9729.412825,-740.205942
5508.776531,-1184.329507,-9422.974625,-740.205942
5508.776855,-1998.556043,-9422.974625,-592.164754
5508.777179,-2516.700203,-8810.098227,-888.247130
5508.777504,-2516.700203,-8580.269578,0.000000
5508.777828,-1924.535449,-8580.269578,-148.041188
5508.778152,-962.267725,-8580.269578,222.061783
5508.778477,0.000000,-8273.831378,-148.041188
5508.778801,1258.350101,-8350.440928,444.123565
5508.779125,2072.576638,-8733.488677,74.020594
5508.779450,2516.700203,-9116.536426,666.185348
5508.779774,2886.803174,-8427.050478,0.000000
5508.780098,2442.679609,-9039.926876,888.247130
5508.780423,1554.432478,-8350.440928,0.000000
5508.780747,1258.350101,-8810.098227,296.082377
5508.781071,1110.308913,-8197.221829,-296.082377
5508.781396,666.185348,-7890.783629,-148.041188
5508.781720,592.164754,-8120.612279,-518.144159
5508.782045,-148.041188,-8273.831378,-592.164754
5508.782369,74.020594,-8427.050478,-962.267725
5508.782693,-1554.432478,-8503.660028,-1036.288319
5508.783018,-962.267725,-9193.145976,-592.164754
5508.783342,-1776.494261,-8733.488677,-814.226536
5508.783666,-2146.597232,-8886.707777,-370.102971
5508.783991,-1258.350101,-8580.269578,-1036.288319
5508.784315,-370.102971,-9193.145976,-518.144159
5508.784639,0.000000,-8120.612279,-592.164754
5508.784964,1776.494261,-8273.831378,148.041188
5508.785288,1184.329507,-7967.393179,-518.144159
5508.785612,2738.761985,-8350.440928,0.000000
5508.785937,3330.926739,-7584.345430,-666.185348
5508.786261,3330.926739,-8580.269578,74.020594
5508.786585,3775.050304,-8503.660028,-740.205942
5508.786910,3478.967927,-8886.707777,-296.082377
5508.787234,1998.556043,-9269.755526,-888.247130
5508.787558,888.247130,-8963.317327,-592.164754
5508.787883,-1258.350101,-9039.926876,-814.226536
5508.788207,-2368.659014,-9346.365076,-444.123565
5508.788531,-3034.844362,-8733.488677,-962.267725
5508.788856,-3108.864956,-9269.755526,-370.102971
5508.789180,-2960.823768,-8503.660028,-518.144159
5508.789504,-1702.473667,-8733.488677,-222.061783
5508.789829,-148.041188,-8656.879127,-592.164754
5508.790153,518.144159,-8886.707777,0.000000
5508.790477,1702.473667,-8197.221829,222.061783
5508.790802,1850.514855,-8656.879127,0.000000
5508.791126,2368.659014,-9193.145976,74.020594
5508.791451,1776.494261,-8503.660028,444.123565
5508.791775,1406.391290,-8733.488677,74.020594
5508.792099,1184.329507,-8810.098227,148.041188
5508.792424,1184.329507,-8273.831378,-222.061783
5508.792748,962.267725,-8044.002729,-370.102971
5508.793072,962.267725,-8197.221829,-518.144159
5508.793397,222.061783,-7890.783629,-666.185348
5508.793721,296.082377,-8656.879127,0.000000
5508.794045,-518.144159,-8044.002729,-1036.288319
5508.794370,-1036.288319,-9346.365076,-296.082377
5508.794694,-1776.494261,-8733.488677,-666.185348
5508.795018,-1850.514855,-8810.098227,-296.082377
5508.795343,-1850.514855,-8656.879127,-370.102971
5508.795667,-1332.370696,-8273.831378,-222.061783
5508.795991,0.000000,-8273.831378,0.000000
5508.796316,814.226536,-8197.221829,-296.082377
5508.796640,2368.659014,-8197.221829,0.000000
5508.796964,2812.782580,-8197.221829,0.000000
5508.797289,3256.906145,-8273.831378,-148.041188
5508.797613,3404.947333,-8427.050478,0.000000
5508.797937,3182.885551,-8580.269578,0.000000
5508.798262,2294.638420,-8503.660028,-370.102971
5508.798586,1480.411884,-8886.707777,-148.041188
5508.798910,0.000000,-8810.098227,0.000000
5508.799235,-1406.391290,-9269.755526,-370.102971
5508.799559,-2368.659014,-8580.269578,-444.123565
5508.799884,-2368.659014,-8810.098227,-296.082377
5508.800208,-1628.453072,-8503.660028,-296.082377
5508.800532,-1110.308913,-8427.050478,74.020594
5508.800857,148.041188,-8810.098227,-518.144159
5508.801181,888.247130,-8273.831378,0.000000
5508.801505,2368.659014,-8656.879127,-222.061783
5508.801830,2442.679609,-8350.440928,296.082377
5508.802154,2072.576638,-8733.488677,-518.144159
5508.802478,2072.576638,-9499.584175,1036.288319
5508.802803,1036.288319,-8427.050478,74.020594
5508.803127,1924.535449,-8963.317327,-592.164754
5508.803451,888.247130,-8886.707777,-444.123565
5508.803776,962.267725,-8197.221829,-222.061783
5508.804100,1036.288319,-8503.660028,-666.185348
5508.804424,296.082377,-9039.926876,-740.205942
5508.804749,222.061783,-8427.050478,-444.123565
5508.805073,-740.205942,-8350.440928,-1036.288319
5508.805397,-888.247130,-9422.974625,-888.247130
5508.805722,-1480.411884,-8350.440928,-740.205942
5508.806046,-1850.514855,-8656.879127,-666.185348
5508.806370,-1924.535449,-8733.488677,-814.226536
5508.806695,-592.164754,-8580.269578,-888.247130
5508.807019,0.000000,-8580.269578,-888.247130
5508.807343,518.144159,-8733.488677,0.000000
5508.807668,1332.370696,-8197.221829,-222.061783
5508.807992,2294.638420,-8733.488677,-370.102971
5508.808316,2516.700203,-8503.660028,-814.226536
5508.808641,3108.864956,-8733.488677,-296.082377
5508.808965,2886.803174,-8427.050478,-666.185348
5508.809290,2442.679609,-9193.145976,-370.102971
5508.809614,1702.473667,-8963.317327,-1110.308913
5508.809938,444.123565,-9422.974625,-518.144159
5508.810263,-1554.432478,-8503.660028,-814.226536
5508.810587,-1554.432478,-9116.536426,-814.226536
5508.810911,-2368.659014,-8350.440928,-444.123565
5508.811236,-1998.556043,-8503.660028,-592.164754
5508.811560,-1332.370696,-8120.612279,-962.267725
5508.811884,-1184.329507,-8886.707777,-148.041188
5508.812209,74.020594,-9039.926876,-444.123565
5508.812533,222.061783,-8273.831378,0.000000
5508.812857,1406.391290,-9346.365076,0.000000
5508.813182,1406.391290,-8810.098227,0.000000
5508.813506,1332.370696,-8886.707777,666.185348
5508.813830,1184.329507,-8580.269578,74.020594
5508.814155,1184.329507,-8810.098227,370.102971
5508.814479,1110.308913,-8197.221829,0.000000
5508.814803,1258.350101,-8733.488677,-518.144159
5508.815128,888.247130,-7967.393179,-296.082377
5508.815452,370.102971,-8427.050478,-296.082377
5508.815776,444.123565,-8656.879127,-518.144159
5508.816101,-296.082377,-8120.612279,-592.164754
5508.816425,-1184.329507,-9039.926876,0.000000
5508.816749,-1702.473667,-8350.440928,-592.164754
5508.817074,-1850.514855,-8197.221829,-370.102971
5508.817398,-2294.638420,-8733.488677,-444.123565
5508.817723,-1480.411884,-8350.440928,0.000000
5508.818047,-592.164754,-8350.440928,-444.123565
5508.818371,148.041188,-8044.002729,-296.082377
5508.818696,2146.597232,-7660.954980,222.061783
5508.819020,2516.700203,-7967.393179,-370.102971
5508.819344,3256.906145,-8197.221829,0.000000
5508.819669,3849.070898,-8120.612279,0.000000
5508.819993,3108.864956,-9039.926876,-222.061783
5508.820317,3404.947333,-8733.488677,-296.082377
5508.820642,2220.617826,-8810.098227,-592.164754
5508.820966,1406.391290,-8886.707777,-592.164754
5508.821290,-148.041188,-8733.488677,-444.123565
5508.821615,-1258.350101,-8733.488677,-518.144159
5508.821939,-1998.556043,-8656.879127,-518.144159
5508.822263,-2368.659014,-8580.269578,-592.164754
5508.822588,-1850.514855,-9039.926876,-222.061783
5508.822912,-1258.350101,-7890.783629,-518.144159
5508.823236,0.000000,-8733.488677,222.061783
5508.823561,666.185348,-8120.612279,-222.061783
5508.823885,1776.494261,-9039.926876,222.061783
5508.824210,1924.535449,-8350.440928,-370.102971
5508.824534,2442.679609,-9652.803275,0.000000
5508.824859,1554.432478,-8503.660028,222.061783
5508.825183,1702.473667,-9499.584175,296.082377
5508.825507,962.267725,-8427.050478,0.000000
5508.825832,1258.350101,-9039.926876,74.020594
5508.826156,296.082377,-7890.783629,-518.144159
5508.826481,518.144159,-8503.660028,-148.041188
5508.826805,148.041188,-8503.660028,-518.144159
5508.827130,0.000000,-8427.050478,-518.144159
5508.827454,-296.082377,-8733.488677,-1406.391290
5508.827779,-666.185348,-8963.317327,-1110.308913
5508.828103,-1258.350101,-8886.707777,-666.185348
5508.828427,-2146.597232,-8580.269578,-740.205942
5508.828752,-1554.432478,-9039.926876,-518.144159
5508.829076,-1554.432478,-8656.879127,-592.164754
5508.829401,-370.102971,-8810.098227,-222.061783
5508.829725,740.205942,-8197.221829,0.000000
5508.830050,2368.659014,-8197.221829,-370.102971
5508.830374,1850.514855,-8120.612279,-222.061783
5508.830699,3034.844362,-8197.221829,-370.102971
5508.831023,3775.050304,-8656.879127,-518.144159
5508.831347,3404.947333,-8810.098227,-592.164754
5508.831672,2886.803174,-9116.536426,-666.185348
5508.831996,1332.370696,-9116.536426,-814.226536
5508.832321,74.020594,-9652.803275,-592.164754
5508.832645,-1628.453072,-9422.974625,-740.205942
5508.832970,-2442.679609,-9422.974625,-370.102971
5508.833294,-2812.782580,-8963.317327,-888.247130
5508.833619,-2738.761985,-9193.145976,-444.123565
5508.833943,-2146.597232,-8273.831378,-666.185348
5508.834267,-592.164754,-8350.440928,0.000000
5508.834592,740.205942,-8273.831378,-592.164754
5508.834916,1480.411884,-8503.660028,148.041188
5508.835241,1924.535449,-8427.050478,148.041188
5508.835565,2368.659014,-7890.783629,518.144159
5508.835890,1628.453072,-8656.879127,74.020594
5508.836214,1702.473667,-8733.488677,222.061783
5508.836539,1628.453072,-8733.488677,444.123565
5508.836863,370.102971,-8350.440928,444.123565
5508.837188,814.226536,-8580.269578,0.000000
5508.837512,666.185348,-7890.783629,-518.144159
5508.837836,962.267725,-8810.098227,-370.102971
5508.838161,888.247130,-8427.050478,-222.061783
5508.838485,444.123565,-8580.269578,-962.267725
5508.838810,-444.123565,-8273.831378,-592.164754
5508.839134,-740.205942,-8427.050478,-666.185348
5508.839459,-1184.329507,-8656.879127,-888.247130
5508.839783,-1554.432478,-8656.879127,0.000000
5508.840108,-1406.391290,-8350.440928,0.000000
5508.840432,-740.205942,-8197.221829,222.061783
5508.840756,148.041188,-8273.831378,-370.102971
5508.841081,1406.391290,-8044.002729,0.000000
5508.841405,2368.659014,-7890.783629,-518.144159
5508.841730,2812.782580,-8350.440928,-74.020594
5508.842054,3108.864956,-8120.612279,-370.102971
5508.842379,3182.885551,-8350.440928,-148.041188
5508.842703,3256.906145,-9039.926876,-592.164754
5508.843028,2368.659014,-9039.926876,-592.164754
5508.843352,1036.288319,-8886.707777,-444.123565
5508.843676,-592.164754,-8810.098227,-740.205942
5508.844001,-1554.432478,-8503.660028,-518.144159
5508.844325,-2146.597232,-8350.440928,-814.226536
5508.844650,-2294.638420,-8733.488677,-740.205942
5508.844974,-1998.556043,-8810.098227,-740.205942
5508.845299,-1480.411884,-8503.660028,-444.123565
5508.845623,-148.041188,-8810.098227,-222.061783
5508.845948,592.164754,-7967.393179,-444.123565
5508.846272,1776.494261,-8963.317327,0.000000
5508.846596,2146.597232,-8810.098227,-222.061783
5508.846921,2146.597232,-8886.707777,0.000000
5508.847245,1480.411884,-8580.269578,222.061783
5508.847570,1184.329507,-9193.145976,0.000000
5508.847894,888.247130,-8580.269578,-296.082377
5508.848219,1184.329507,-8733.488677,-518.144159
5508.848543,1110.308913,-8350.440928,-444.123565
5508.848868,888.247130,-8503.660028,-592.164754
5508.849192,814.226536,-8963.317327,-592.164754
5508.849517,222.061783,-8427.050478,-1184.329507
5508.849841,0.000000,-8656.879127,-1036.288319
5508.850165,-740.205942,-8733.488677,-962.267725
5508.850490,-962.267725,-8963.317327,-444.123565
5508.850814,-1998.556043,-8503.660028,-666.185348
5508.851139,-1702.473667,-9652.803275,-222.061783
5508.851463,-1776.494261,-8427.050478,-666.185348
5508.851788,-888.247130,-8656.879127,-518.144159
5508.852112,-296.082377,-8120.612279,-296.082377
5508.852437,740.205942,-7967.393179,0.000000
5508.852761,2664.741391,-8197.221829,74.020594
5508.853085,2590.720797,-7890.783629,148.041188
5508.853410,3552.988522,-8427.050478,-370.102971
5508.853734,3330.926739,-8810.098227,-518.144159
5508.854059,3034.844362,-9116.536426,0.000000
5508.854383,1850.514855,-8810.098227,-518.144159
5508.854708,962.267725,-9193.145976,-296.082377
5508.855032,-296.082377,-8580.269578,-740.205942
5508.855357,-1628.453072,-8963.317327,-518.144159
5508.855681,-2442.679609,-9269.755526,-814.226536
5508.856005,-3034.844362,-8273.831378,-444.123565
5508.856330,-1998.556043,-8810.098227,0.000000
5508.856654,-888.247130,-8427.050478,-74.020594
5508.856979,740.205942,-9269.755526,0.000000
5508.857303,1036.288319,-7584.345430,0.000000
5508.857628,2516.700203,-8733.488677,444.123565
5508.857952,1924.535449,-7814.174080,0.000000
5508.858277,2294.638420,-9729.412825,592.164754
5508.858601,1184.329507,-8120.612279,148.041188
5508.858925,592.164754,-8886.707777,370.102971
5508.859250,74.020594,-8120.612279,74.020594
5508.859574,518.144159,-8503.660028,222.061783
5508.859899,222.061783,-7967.393179,-148.041188
5508.860223,518.144159,-8273.831378,-296.082377
5508.860548,592.164754,-8427.050478,-1036.288319
5508.860872,592.164754,-8427.050478,-592.164754
5508.861197,74.020594,-8197.221829,-962.267725
5508.861521,0.000000,-8656.879127,-444.123565
5508.861846,-740.205942,-8963.317327,-814.226536
5508.862170,-888.247130,-8810.098227,-666.185348
5508.862494,-962.267725,-8580.269578,-888.247130
5508.862819,-1258.350101,-8580.269578,-296.082377
5508.863143,-740.205942,-8580.269578,148.041188
5508.863468,0.000000,-7967.393179,0.000000
5508.863792,1332.370696,-8350.440928,-148.041188
5508.864117,1998.556043,-7890.783629,-370.102971
5508.864441,3108.864956,-7890.783629,0.000000
5508.864766,3182.885551,-8503.660028,0.000000
5508.865090,3034.844362,-8886.707777,-814.226536
5508.865414,2664.741391,-8810.098227,-370.102971
5508.865739,1628.453072,-8886.707777,-962.267725
5508.866063,444.123565,-9806.022374,-592.164754
5508.866388,-1406.391290,-8733.488677,-518.144159
5508.866712,-1850.514855,-9806.022374,-888.247130
5508.867037,-2886.803174,-8580.269578,-1184.329507
5508.867361,-2442.679609,-9576.193725,-666.185348
5508.867686,-1850.514855,-7967.393179,-888.247130
5508.868010,-444.123565,-8810.098227,0.000000
5508.868334,370.102971,-8273.831378,-444.123565
5508.868659,1554.432478,-8733.488677,0.000000
5508.868983,1850.514855,-8044.002729,-814.226536
5508.869308,2146.597232,-9116.536426,296.082377
5508.869632,1628.453072,-8503.660028,-74.020594
5508.869957,1406.391290,-9039.926876,666.185348
5508.870281,1184.329507,-8427.050478,-518.144159
5508.870606,1036.288319,-8580.269578,0.000000
5508.870930,666.185348,-9422.974625,-888.247130
5508.871254,740.205942,-8656.879127,-444.123565
5508.871579,740.205942,-7967.393179,-666.185348
5508.871903,0.000000,-8580.269578,-592.164754
5508.872228,0.000000,-8886.707777,-1184.329507
5508.872552,-296.082377,-8197.221829,-592.164754
5508.872877,-296.082377,-9039.926876,-1110.308913
5508.873201,-1184.329507,-8886.707777,-592.164754
5508.873526,-1110.308913,-9039.926876,-518.144159
5508.873850,-1628.453072,-8886.707777,148.041188
5508.874175,-1036.288319,-8580.269578,-518.144159
5508.874499,0.000000,-8656.879127,-222.061783
5508.874823,1110.308913,-8120.612279,74.020594
5508.875148,1702.473667,-8580.269578,0.000000
5508.875472,2368.659014,-8044.002729,0.000000
5508.875797,3330.926739,-8120.612279,0.000000
5508.876121,3256.906145,-8197.221829,0.000000
5508.876446,3182.885551,-8733.488677,-296.082377
5508.876770,2294.638420,-8810.098227,-296.082377
5508.877095,1628.453072,-9193.145976,-370.102971
5508.877419,740.205942,-9116.536426,-370.102971
5508.877743,-1110.308913,-8886.707777,-666.185348
5508.878068,-2442.679609,-9422.974625,0.000000
5508.878392,-2886.803174,-8120.612279,-296.082377
5508.878717,-2516.700203,-9116.536426,74.020594
5508.879041,-1776.494261,-7967.393179,-518.144159
5508.879366,-370.102971,-9116.536426,296.082377
5508.879690,888.247130,-7967.393179,-518.144159
5508.880015,1924.535449,-8733.488677,222.061783
5508.880339,2146.597232,-8273.831378,0.000000
5508.880663,2368.659014,-8810.098227,666.185348
5508.880988,1702.473667,-8503.660028,740.205942
5508.881312,1258.350101,-8963.317327,0.000000
5508.881637,666.185348,-8733.488677,148.041188
5508.881961,814.226536,-8580.269578,148.041188
5508.882286,444.123565,-8963.317327,222.061783
5508.882610,444.123565,-8810.098227,-666.185348
5508.882935,0.000000,-8120.612279,-222.061783
5508.883259,-370.102971,-8120.612279,-1036.288319
5508.883583,-370.102971,-8810.098227,-518.144159
5508.883908,-888.247130,-8427.050478,-814.226536
5508.884232,-740.205942,-8886.707777,-666.185348
5508.884557,-1776.494261,-8427.050478,-1184.329507
5508.884881,-1036.288319,-9422.974625,-444.123565
5508.885206,-740.205942,-8044.002729,0.000000
5508.885530,-888.247130,-8733.488677,-222.061783
5508.885855,1480.411884,-8427.050478,296.082377
5508.886179,148.041188,-8197.221829,-370.102971
5508.886504,2072.576638,-8273.831378,-222.061783
5508.886828,2220.617826,-8350.440928,-296.082377
5508.887152,3034.844362,-8503.660028,0.000000
5508.887477,2664.741391,-8963.317327,-222.061783
5508.887801,2294.638420,-8886.707777,-740.205942
5508.888126,1702.473667,-9193.145976,-518.144159
5508.888450,444.123565,-9116.536426,-1184.329507
5508.888775,-370.102971,-9193.145976,-370.102971
5508.889099,-1924.535449,-8656.879127,-814.226536
5508.889424,-1554.432478,-8810.098227,-1036.288319
5508.889748,-2220.617826,-8886.707777,-296.082377
5508.890072,-1776.494261,-8503.660028,-592.164754
5508.890397,-592.164754,-9039.926876,74.020594
5508.890721,222.061783,-8273.831378,0.000000
5508.891046,1480.411884,-8427.050478,370.102971
5508.891370,1998.556043,-8120.612279,-296.082377
5508.891695,2294.638420,-8656.879127,74.020594
5508.892019,1850.514855,-8886.707777,370.102971
5508.892344,1406.391290,-8044.002729,518.144159
5508.892668,1110.308913,-8733.488677,-222.061783
5508.892992,444.123565,-8810.098227,0.000000
5508.893317,962.267725,-8120.612279,-74.020594
5508.893641,814.226536,-8044.002729,-370.102971
5508.893966,1184.329507,-8503.660028,-518.144159
5508.894290,666.185348,-8273.831378,-962.267725
5508.894615,444.123565,-8733.488677,-962.267725
5508.894939,-370.102971,-8580.269578,-666.185348
5508.895264,-666.185348,-8656.879127,-814.226536
5508.895588,-962.267725,-8503.660028,-1036.288319
5508.895912,-1776.494261,-8886.707777,-148.041188
5508.896237,-1406.391290,-8810.098227,-518.144159
5508.896561,-666.185348,-8350.440928,-888.247130
5508.896886,0.000000,-8427.050478,0.000000
5508.897210,666.185348,-8120.612279,-296.082377
5508.897535,1924.535449,-8580.269578,0.000000
5508.897859,3256.906145,-8273.831378,-370.102971
5508.898184,3478.967927,-8810.098227,-444.123565
5508.898508,2442.679609,-8273.831378,-962.267725
5508.898833,2516.700203,-9652.803275,-148.041188
5508.899157,1850.514855,-8810.098227,-666.185348
5508.899481,814.226536,-9346.365076,-518.144159
5508.899806,-370.102971,-8656.879127,-370.102971
5508.900130,-1110.308913,-8886.707777,-666.185348
5508.900455,-1924.535449,-8963.317327,-666.185348
5508.900779,-1702.473667,-8580.269578,-370.102971
5508.901104,-1480.411884,-8503.660028,-222.061783
5508.901428,-962.267725,-8350.440928,-148.041188
5508.901753,74.020594,-8886.707777,0.000000
5508.902077,222.061783,-7890.783629,0.000000
5508.902401,1924.535449,-8733.488677,370.102971
5508.902726,888.247130,-8197.221829,-518.144159
5508.903050,1480.411884,-9346.365076,444.123565
5508.903375,666.185348,-7890.783629,74.020594
5508.903699,1258.350101,-9116.536426,592.164754
5508.904024,814.226536,-7967.393179,-518.144159
5508.904348,814.226536,-8656.879127,444.123565
5508.904673,962.267725,-8044.002729,-814.226536
5508.904997,1406.391290,-8580.269578,0.000000
5508.905321,814.226536,-7814.174080,-962.267725
5508.905646,962.267725,-8656.879127,-370.102971
5508.905970,370.102971,-7890.783629,-1184.329507
5508.906295,-592.164754,-8427.050478,-296.082377
5508.906619,-1554.432478,-8427.050478,-814.226536
5508.906944,-2146.597232,-8886.707777,0.000000
5508.907268,-1850.514855,-8886.707777,-444.123565
5508.907593,-1110.308913,-8963.317327,0.000000
5508.907917,-592.164754,-7890.783629,0.000000
5508.908241,148.041188,-8273.831378,74.020594
5508.908566,1554.432478,-7660.954980,0.000000
5508.908890,2368.659014,-8273.831378,-148.041188
5508.909215,3182.885551,-7737.564530,-222.061783
5508.909539,3330.926739,-8120.612279,518.144159
5508.909864,2590.720797,-8197.221829,-370.102971
5508.910188,2294.638420,-8886.707777,0.000000
5508.910513,1702.473667,-8810.098227,-666.185348
5508.910837,370.102971,-9806.022374,-814.226536
5508.911162,-740.205942,-9116.536426,-666.185348
5508.911486,-2072.576638,-8963.317327,-666.185348
5508.911810,-1702.473667,-9193.145976,-666.185348
5508.912135,-2368.659014,-8350.440928,-296.082377
5508.912459,-740.205942,-8810.098227,-296.082377
5508.912784,-370.102971,-7890.783629,-814.226536
5508.913108,888.247130,-8733.488677,0.000000
5508.913433,962.267725,-7890.783629,-592.164754
5508.913757,1850.514855,-8886.707777,0.000000
5508.914082,1702.473667,-8656.879127,-148.041188
5508.914406,1184.329507,-9269.755526,74.020594
5508.914730,148.041188,-8810.098227,0.000000
5508.915055,1110.308913,-8886.707777,370.102971
5508.915379,814.226536,-8886.707777,-296.082377
5508.915704,962.267725,-8810.098227,-444.123565
5508.916028,1258.350101,-8503.660028,-962.267725
5508.916353,888.247130,-8350.440928,-518.144159
5508.916677,592.164754,-7890.783629,-1036.288319
5508.917002,592.164754,-8810.098227,-814.226536
5508.917326,222.061783,-8273.831378,-1258.350101
5508.917650,-222.061783,-8733.488677,-1184.329507
5508.917975,-740.205942,-8810.098227,-888.247130
5508.918299,-1406.391290,-8886.707777,-370.102971
5508.918624,-1258.350101,-9193.145976,-888.247130
5508.918948,-1184.329507,-8810.098227,-666.185348
5508.919273,-370.102971,-8427.050478,-370.102971
5508.919597,518.144159,-8273.831378,-222.061783
5508.919922,1776.494261,-8197.221829,0.000000
5508.920246,2294.638420,-7660.954980,-74.020594
5508.920570,3404.947333,-8273.831378,-592.164754
5508.920895,3034.844362,-7967.393179,-444.123565
5508.921219,2664.741391,-8656.879127,-814.226536
5508.921544,2072.576638,-8656.879127,-814.226536
5508.921868,1480.411884,-9959.241474,-666.185348
5508.922193,0.000000,-8886.707777,-1036.288319
5508.922517,-1258.350101,-9193.145976,-222.061783
5508.922842,-1850.514855,-9116.536426,-888.247130
5508.923166,-2294.638420,-9039.926876,-666.185348
5508.923491,-1554.432478,-8427.050478,-592.164754
5508.923815,-888.247130,-9039.926876,0.000000
5508.924139,-1184.329507,-7890.783629,0.000000
5508.924464,74.020594,-8197.221829,148.041188
5508.924788,1332.370696,-8733.488677,962.267725
5508.925112,1628.453072,-8503.660028,148.041188
5508.925437,1776.494261,-8733.488677,296.082377
5508.925761,1702.473667,-8427.050478,592.164754
5508.926086,1332.370696,-8963.317327,888.247130
5508.926410,296.082377,-9116.536426,-148.041188
5508.926734,814.226536,-8580.269578,222.061783
5508.927059,592.164754,-8273.831378,-296.082377
5508.927383,222.061783,-8580.269578,-814.226536
5508.927707,296.082377,-8427.050478,-296.082377
5508.928032,148.041188,-8427.050478,-740.205942
5508.928356,0.000000,-8810.098227,-1184.329507
5508.928680,-666.185348,-8273.831378,-814.226536
5508.929005,-1184.329507,-9346.365076,0.000000
5508.929329,-1406.391290,-8350.440928,-740.205942
5508.929653,-1110.308913,-8886.707777,-148.041188
5508.929978,-1776.494261,-8273.831378,-814.226536
5508.930302,-518.144159,-8886.707777,74.020594
5508.930627,74.020594,-7814.174080,74.020594
5508.930951,1406.391290,-8273.831378,74.020594
5508.931275,2072.576638,-7890.783629,-222.061783
5508.931600,2738.761985,-7967.393179,0.000000
5508.931924,2886.803174,-8273.831378,148.041188
5508.932248,2960.823768,-8427.050478,-296.082377
5508.932573,2738.761985,-8810.098227,-148.041188
5508.932897,1406.391290,-8733.488677,-592.164754
5508.933221,666.185348,-9422.974625,-444.123565
5508.933546,-518.144159,-9193.145976,-740.205942
5508.933870,-1628.453072,-8656.879127,-444.123565
5508.934194,-1924.535449,-9269.755526,-740.205942
5508.934519,-1998.556043,-8656.879127,-518.144159
5508.934843,-1036.288319,-8886.707777,-296.082377
5508.935168,-1184.329507,-8120.612279,-444.123565
5508.935492,222.061783,-8963.317327,0.000000
5508.935816,740.205942,-7890.783629,0.000000
5508.936141,1776.494261,-8503.660028,0.000000
5508.936465,1850.514855,-8197.221829,0.000000
5508.936789,1480.411884,-8963.317327,0.000000
5508.937114,1036.288319,-8503.660028,0.000000
5508.937438,962.267725,-9193.145976,814.226536
5508.937762,666.185348,-8427.050478,-148.041188
5508.938087,1480.411884,-8580.269578,-296.082377
5508.938411,1036.288319,-8580.269578,-666.185348
5508.938735,1036.288319,-8580.269578,-518.144159
5508.939060,888.247130,-8580.269578,-370.102971
5508.939384,592.164754,-8580.269578,-962.267725
5508.939709,222.061783,-8810.098227,-888.247130
5508.940033,-370.102971,-8273.831378,-1184.329507
5508.940357,-2146.597232,-8733.488677,0.000000
5508.940682,-1850.514855,-8273.831378,-740.205942
5508.941006,-1924.535449,-8580.269578,-370.102971
5508.941330,-1184.329507,-8886.707777,-518.144159
5508.941655,-740.205942,-8503.660028,296.082377
5508.941979,296.082377,-8197.221829,-296.082377
5508.942303,1480.411884,-8273.831378,-222.061783
5508.942628,2590.720797,-7967.393179,-148.041188
5508.942952,3478.967927,-8044.002729,-370.102971
5508.943276,3182.885551,-8350.440928,0.000000
5508.943601,3627.009116,-8350.440928,-296.082377
5508.943925,2812.782580,-8886.707777,0.000000
5508.944250,1406.391290,-8810.098227,-740.205942
5508.944574,296.082377,-8810.098227,0.000000
5508.944898,-1110.308913,-8580.269578,-1036.288319
5508.945223,-1924.535449,-9116.536426,-518.144159
5508.945547,-2146.597232,-8503.660028,-888.247130
5508.945871,-2146.597232,-9193.145976,0.000000
5508.946196,-1406.391290,-8273.831378,-296.082377
5508.946520,0.000000,-8580.269578,148.041188
5508.946844,888.247130,-8350.440928,-444.123565
5508.947169,1110.308913,-8273.831378,74.020594
5508.947493,2072.576638,-8197.221829,444.123565
5508.947817,1924.535449,-8580.269578,592.164754
5508.948142,1332.370696,-8886.707777,148.041188
5508.948466,1036.288319,-8427.050478,222.061783
5508.948791,1184.329507,-9806.022374,296.082377
5508.949115,148.041188,-8273.831378,0.000000
5508.949439,518.144159,-8580.269578,222.061783
5508.949764,0.000000,-8350.440928,-444.123565
5508.950088,592.164754,-8580.269578,-444.123565
5508.950412,74.020594,-8197.221829,-518.144159
5508.950737,-296.082377,-9116.536426,-888.247130
5508.951061,-666.185348,-8120.612279,-740.205942
5508.951385,-1258.350101,-8963.317327,-592.164754
5508.951710,-1702.473667,-8733.488677,-1332.370696
5508.952034,-1480.411884,-8733.488677,-296.082377
5508.952358,-1628.453072,-8733.488677,-814.226536
5508.952683,-1332.370696,-8810.098227,0.000000
5508.953007,-148.041188,-8044.002729,222.061783
5508.953331,592.164754,-8503.660028,148.041188
5508.953656,1258.350101,-7890.783629,-592.164754
5508.953980,2368.659014,-7967.393179,0.000000
5508.954305,3404.947333,-8197.221829,-296.082377
5508.954629,2960.823768,-8120.612279,-222.061783
5508.954953,3182.885551,-8886.707777,-814.226536
5508.955278,2590.720797,-9346.365076,-370.102971
5508.955602,1850.514855,-8656.879127,-888.247130
5508.955926,444.123565,-9116.536426,-666.185348
5508.956251,-888.247130,-8886.707777,-592.164754
5508.956575,-1554.432478,-9652.803275,-740.205942
5508.956899,-2738.761985,-8656.879127,-888.247130
5508.957224,-1998.556043,-8580.269578,0.000000
5508.957548,-1480.411884,-8044.002729,-518.144159
5508.957872,0.000000,-8733.488677,0.000000
5508.958197,666.185348,-8273.831378,-296.082377
5508.958521,1850.514855,-8733.488677,148.041188
5508.958846,2072.576638,-8656.879127,74.020594
5508.959170,2294.638420,-9116.536426,370.102971
5508.959494,1998.556043,-8886.707777,148.041188
5508.959819,1480.411884,-9269.755526,148.041188
5508.960143,1258.350101,-8503.660028,222.061783
5508.960467,592.164754,-8427.050478,0.000000
5508.960792,444.123565,-8197.221829,-370.102971
5508.961116,444.123565,-8120.612279,-666.185348
5508.961440,1110.308913,-7890.783629,-370.102971
5508.961765,592.164754,-8044.002729,-1036.288319
5508.962089,740.205942,-8733.488677,-740.205942
5508.962413,0.000000,-8197.221829,-962.267725
5508.962738,-814.226536,-9193.145976,-666.185348
5508.963062,-1480.411884,-8503.660028,-1184.329507
5508.963387,-1184.329507,-9039.926876,0.000000
5508.963711,-1628.453072,-8580.269578,-518.144159
5508.964035,-666.185348,-8580.269578,-296.082377
5508.964360,222.061783,-8503.660028,-444.123565
5508.964684,888.247130,-8273.831378,0.000000
5508.965008,2072.576638,-7584.345430,-518.144159
5508.965333,2146.597232,-8197.221829,148.041188
5508.965657,3256.906145,-8197.221829,-370.102971
5508.965981,2738.761985,-8427.050478,-444.123565
5508.966306,2590.720797,-8580.269578,-148.041188
5508.966630,1776.494261,-8503.660028,-740.205942
5508.966954,814.226536,-9576.193725,-666.185348
5508.967279,-592.164754,-9039.926876,-888.247130
5508.967603,-1850.514855,-8810.098227,-592.164754
5508.967928,-2516.700203,-9116.536426,-370.102971
5508.968252,-2368.659014,-8733.488677,-296.082377
5508.968576,-1628.453072,-9193.145976,0.000000
5508.968901,-740.205942,-8273.831378,0.000000
5508.969225,370.102971,-8656.879127,-148.041188
5508.969549,888.247130,-8197.221829,-370.102971
5508.969874,1924.535449,-8733.488677,148.041188
5508.970198,1332.370696,-8503.660028,0.000000
5508.970522,1258.350101,-8886.707777,148.041188
5508.970847,814.226536,-8810.098227,222.061783
5508.971171,814.226536,-8810.098227,-222.061783
5508.971495,0.000000,-9193.145976,-296.082377
5508.971820,1110.308913,-8273.831378,0.000000
5508.972144,148.041188,-8273.831378,0.000000
5508.972469,222.061783,-8273.831378,-444.123565
5508.972793,666.185348,-7967.393179,-296.082377
5508.973117,444.123565,-8197.221829,-1036.288319
5508.973442,444.123565,-8886.707777,-666.185348
5508.973766,-296.082377,-8197.221829,-814.226536
5508.974090,-666.185348,-9576.193725,-518.144159
5508.974415,-1480.411884,-8350.440928,-962.267725
5508.974739,-1258.350101,-9499.584175,-370.102971
5508.975063,-1258.350101,-8580.269578,-518.144159
5508.975388,-592.164754,-8427.050478,0.000000
5508.975712,0.000000,-7660.954980,-370.102971
5508.976036,1258.350101,-8044.002729,-518.144159
5508.976361,2442.679609,-8273.831378,-222.061783
5508.976685,2368.659014,-8044.002729,-296.082377
5508.977010,3256.906145,-8733.488677,-666.185348
5508.977334,2738.761985,-8350.440928,-518.144159
5508.977658,2368.659014,-9039.926876,-444.123565
5508.977983,1406.391290,-8810.098227,-1036.288319
5508.978307,740.205942,-9346.365076,-444.123565
5508.978631,-592.164754,-9039.926876,-740.205942
5508.978956,-1110.308913,-8963.317327,-296.082377
5508.979280,-1924.535449,-9116.536426,-592.164754
5508.979604,-1998.556043,-8120.612279,0.000000
5508.979929,-148.041188,-8810.098227,-666.185348
5508.980253,0.000000,-9422.974625,0.000000
5508.980577,1036.288319,-8120.612279,-518.144159
5508.980902,1480.411884,-8503.660028,74.020594
5508.981226,1480.411884,-8580.269578,-296.082377
5508.981551,1628.453072,-8886.707777,296.082377
5508.981875,1036.288319,-8580.269578,0.000000
5508.982199,740.205942,-9039.926876,518.144159
5508.982524,814.226536,-8733.488677,0.000000
5508.982848,518.144159,-8886.707777,0.000000
5508.983172,1480.411884,-8427.050478,0.000000
5508.983497,1110.308913,-8350.440928,-518.144159
5508.983821,1258.350101,-8810.098227,-592.164754
5508.984145,296.082377,-8427.050478,-296.082377
5508.984470,148.041188,-8733.488677,-740.205942
5508.984794,-666.185348,-8656.879127,-1332.370696
5508.985118,-1702.473667,-8656.879127,-740.205942
5508.985443,-1850.514855,-8886.707777,-666.185348
5508.985767,-1998.556043,-8350.440928,-592.164754
5508.986091,-1702.473667,-8886.707777,-148.041188
5508.986416,-1036.288319,-8580.269578,0.000000
5508.986740,0.000000,-7890.783629,-444.123565
5508.987065,962.267725,-8044.002729,296.082377
5508.987389,1998.556043,-7737.564530,0.000000
5508.987713,2738.761985,-8503.660028,74.020594
5508.988038,3182.885551,-7890.783629,-370.102971
5508.988362,3034.844362,-8580.269578,0.000000
5508.988686,2516.700203,-8427.050478,-962.267725
5508.989011,2812.782580,-9652.803275,-148.041188
5508.989335,1258.350101,-8427.050478,-740.205942
5508.989659,148.041188,-9652.803275,0.000000
5508.989984,-1332.370696,-8427.050478,-740.205942
5508.990308,-2294.638420,-9499.584175,-74.020594
5508.990632,-2294.638420,-8273.831378,-666.185348
5508.990957,-1850.514855,-9269.755526,0.000000
5508.991281,-1406.391290,-7431.126331,0.000000
5508.991606,-444.123565,-8580.269578,74.020594
5508.991930,962.267725,-8350.440928,148.041188
5508.992254,1628.453072,-8733.488677,0.000000
5508.992579,2072.576638,-8580.269578,518.144159
5508.992903,1776.494261,-8350.440928,592.164754
5508.993227,296.082377,-9269.755526,222.061783
5508.993552,444.123565,-8580.269578,0.000000
5508.993876,888.247130,-8886.707777,444.123565
5508.994200,518.144159,-8273.831378,74.020594
5508.994525,222.061783,-8273.831378,-370.102971
5508.994849,740.205942,-8044.002729,-518.144159
5508.995173,1184.329507,-8733.488677,-592.164754
5508.995498,666.185348,-8427.050478,-1110.308913
5508.995822,518.144159,-8656.879127,-666.185348
5508.996147,-296.082377,-7967.393179,-666.185348
5508.996471,-888.247130,-9576.193725,-962.267725
5508.996795,-1332.370696,-8580.269578,-1036.288319
5508.997120,-1702.473667,-8963.317327,0.000000
5508.997444,-1110.308913,-8273.831378,-888.247130
5508.997768,-518.144159,-8810.098227,0.000000
5508.998093,0.000000,-7814.174080,-518.144159
5508.998417,1924.535449,-8197.221829,296.082377
5508.998741,1924.535449,-7507.735880,-444.123565
5508.999066,3627.009116,-8580.269578,0.000000
5508.999390,4145.153275,-8273.831378,-666.185348
5508.999714,3478.967927,-8733.488677,-592.164754
5509.000039,2590.720797,-9193.145976,-814.226536
5509.000363,1628.453072,-8963.317327,-814.226536
5509.000688,518.144159,-9193.145976,-962.267725
5509.001012,-814.226536,-9039.926876,-888.247130
5509.001336,-1406.391290,-9269.755526,-740.205942
5509.001661,-2368.659014,-8963.317327,-1110.308913
5509.001985,-1850.514855,-8810.098227,-666.185348
5509.002309,-1628.453072,-8427.050478,-740.205942
5509.002634,-222.061783,-9039.926876,-296.082377
5509.002958,592.164754,-8427.050478,-222.061783
5509.003282,1702.473667,-8503.660028,74.020594
5509.003607,2072.576638,-8580.269578,-296.082377
5509.003931,1554.432478,-8273.831378,0.000000
5509.004255,1554.432478,-8963.317327,0.000000
5509.004580,592.164754,-9116.536426,148.041188
5509.004904,962.267725,-8886.707777,74.020594
5509.005229,148.041188,-8427.050478,222.061783
5509.005553,444.123565,-8427.050478,0.000000
5509.005877,296.082377,-8656.879127,-518.144159
5509.006202,1406.391290,-8810.098227,-1036.288319
5509.006526,666.185348,-8120.612279,-740.205942
5509.006850,444.123565,-8350.440928,-740.205942
5509.007175,74.020594,-8656.879127,-888.247130
5509.007499,-888.247130,-8503.660028,-592.164754
5509.007823,-1036.288319,-9039.926876,-592.164754
5509.008148,-1628.453072,-8350.440928,-592.164754
5509.008472,-1332.370696,-9422.974625,-296.082377
5509.008796,-1406.391290,-8427.050478,-370.102971
5509.009121,0.000000,-8656.879127,518.144159
5509.009445,0.000000,-7660.954980,-444.123565
5509.009770,2220.617826,-8886.707777,518.144159
5509.010094,3034.844362,-6818.249932,0.000000
5509.010418,3330.926739,-9193.145976,296.082377
5509.010743,2590.720797,-7890.783629,-740.205942
5509.011067,2516.700203,-8580.269578,74.020594
5509.011391,2220.617826,-8886.707777,-666.185348
5509.011716,1332.370696,-8733.488677,-222.061783
5509.012040,0.000000,-8963.317327,-370.102971
5509.012364,-1480.411884,-8427.050478,-444.123565
5509.012689,-1924.535449,-8733.488677,-666.185348
5509.013013,-2664.741391,-8350.440928,-444.123565
5509.013337,-1702.473667,-8350.440928,0.000000
5509.013662,-1406.391290,-7814.174080,-296.082377
5509.013986,222.061783,-9499.584175,74.020594
5509.014311,666.185348,-7890.783629,-592.164754
5509.014635,1628.453072,-9116.536426,222.061783
5509.014959,1258.350101,-8044.002729,-296.082377
5509.015284,1776.494261,-9499.584175,1036.288319
5509.015608,1258.350101,-8580.269578,0.000000
5509.015932,888.247130,-9346.365076,666.185348
5509.016257,1184.329507,-8503.660028,-370.102971
5509.016581,1258.350101,-8656.879127,148.041188
5509.016905,1332.370696,-8273.831378,74.020594
5509.017230,1036.288319,-8120.612279,-296.082377
5509.017554,888.247130,-8580.269578,-592.164754
5509.017878,370.102971,-8503.660028,-962.267725
5509.018203,296.082377,-8503.660028,-1110.308913
5509.018527,-370.102971,-9039.926876,-962.267725
5509.018852,-1110.308913,-8810.098227,-740.205942
5509.019176,-1184.329507,-8886.707777,-1036.288319
5509.019500,-1998.556043,-8810.098227,-444.123565
5509.019825,-1258.350101,-8427.050478,-518.144159
5509.020149,-666.185348,-8503.660028,-370.102971
5509.020473,74.020594,-8273.831378,-222.061783
5509.020798,1036.288319,-8273.831378,-444.123565
5509.021122,2220.617826,-8120.612279,-518.144159
5509.021446,3108.864956,-8120.612279,-296.082377
5509.021771,2960.823768,-8810.098227,-370.102971
5509.022095,2590.720797,-9039.926876,-444.123565
5509.022419,2072.576638,-8580.269578,-740.205942
5509.022744,2368.659014,-9422.974625,-518.144159
5509.023068,666.185348,-8963.317327,-1258.350101
5509.023392,0.000000,-9422.974625,-666.185348
5509.023717,-1184.329507,-9039.926876,-740.205942
5509.024041,-1998.556043,-8963.317327,-888.247130
5509.024366,-1924.535449,-8350.440928,-592.164754
5509.024690,-1406.391290,-8503.660028,-148.041188
5509.025014,-888.247130,-8503.660028,-296.082377
5509.025339,518.144159,-8733.488677,-518.144159
5509.025663,1110.308913,-8427.050478,-222.061783
5509.025987,1554.432478,-8733.488677,74.020594
5509.026312,1406.391290,-8273.831378,0.000000
5509.026636,1480.411884,-9193.145976,370.102971
5509.026961,1036.288319,-8427.050478,0.000000
5509.027285,740.205942,-8350.440928,370.102971
5509.027610,74.020594,-8350.440928,0.000000
5509.027934,370.102971,-8886.707777,0.000000
5509.028258,592.164754,-8044.002729,-592.164754
5509.028583,1036.288319,-8427.050478,-370.102971
5509.028907,518.144159,-8427.050478,-666.185348
5509.029232,74.020594,-8580.269578,-370.102971
5509.029556,-222.061783,-8733.488677,-666.185348
5509.029881,-222.061783,-8810.098227,-814.226536
5509.030205,-518.144159,-8733.488677,-1036.288319
5509.030529,-1406.391290,-8503.660028,-518.144159
5509.030854,-1480.411884,-8656.879127,222.061783
5509.031178,-1258.350101,-8350.440928,-148.041188
5509.031503,-888.247130,-8503.660028,-148.041188
5509.031827,370.102971,-8273.831378,0.000000
5509.032152,1036.288319,-8197.221829,148.041188
5509.032476,1776.494261,-8044.002729,0.000000
5509.032800,3108.864956,-8044.002729,0.000000
5509.033125,3552.988522,-8810.098227,74.020594
5509.033449,2960.823768,-8580.269578,-444.123565
5509.033774,2590.720797,-8963.317327,-296.082377
5509.034098,1554.432478,-8580.269578,-518.144159
5509.034423,814.226536,-9346.365076,-296.082377
5509.034747,-1332.370696,-8580.269578,-1036.288319
5509.035071,-1628.453072,-9193.145976,-370.102971
5509.035396,-2886.803174,-8197.221829,-1110.308913
5509.035720,-2442.679609,-9346.365076,-370.102971
5509.036045,-1924.535449,-8580.269578,-814.226536
5509.036369,-592.164754,-9116.536426,0.000000
5509.036694,296.082377,-8427.050478,-888.247130
5509.037018,1184.329507,-8656.879127,148.041188
5509.037342,1776.494261,-8963.317327,-444.123565
5509.037667,2072.576638,-8810.098227,74.020594
5509.037991,1776.494261,-8656.879127,-148.041188
5509.038316,444.123565,-8733.488677,74.020594
5509.038640,1036.288319,-9193.145976,0.000000
5509.038965,0.000000,-8350.440928,-444.123565
5509.039289,1332.370696,-9959.241474,296.082377
5509.039613,370.102971,-7660.954980,-592.164754
5509.039938,962.267725,-9116.536426,148.041188
5509.040262,740.205942,-7890.783629,-1332.370696
5509.040587,666.185348,-9193.145976,-740.205942
5509.040911,296.082377,-8427.050478,-1184.329507
5509.041236,-296.082377,-8810.098227,-740.205942
5509.041560,-370.102971,-9193.145976,-1184.329507
5509.041884,-1258.350101,-9116.536426,-740.205942
5509.042209,-222.061783,-9193.145976,-296.082377
5509.042533,-1036.288319,-8656.879127,-444.123565
5509.042858,-296.082377,-8656.879127,74.020594
5509.043182,814.226536,-7660.954980,-222.061783
5509.043507,2220.617826,-8886.707777,0.000000
5509.043831,2812.782580,-7814.174080,-370.102971
5509.044155,2960.823768,-8580.269578,0.000000
5509.044480,3034.844362,-8427.050478,-592.164754
5509.044804,2960.823768,-8810.098227,-444.123565
5509.045129,1998.556043,-9116.536426,-666.185348
5509.045453,740.205942,-8733.488677,-296.082377
5509.045778,0.000000,-8656.879127,-666.185348
5509.046102,-1702.473667,-9193.145976,-592.164754
5509.046427,-1480.411884,-9346.365076,-296.082377
5509.046751,-1924.535449,-8350.440928,-444.123565
5509.047075,-1332.370696,-8580.269578,-296.082377
5509.047400,-1110.308913,-8197.221829,-444.123565
5509.047724,296.082377,-8963.317327,0.000000
5509.048049,888.247130,-8044.002729,-370.102971
5509.048373,1406.391290,-8886.707777,222.061783
5509.048698,1480.411884,-8656.879127,-296.082377
5509.049022,1406.391290,-8963.317327,74.020594
5509.049346,1406.391290,-9039.926876,0.000000
5509.049671,888.247130,-8810.098227,444.123565
5509.049995,222.061783,-8886.707777,-148.041188
5509.050320,592.164754,-8656.879127,222.061783
5509.050644,1554.432478,-8503.660028,-296.082377
5509.050969,814.226536,-8120.612279,-444.123565
5509.051293,1184.329507,-8273.831378,-222.061783
5509.051617,518.144159,-7584.345430,-518.144159
5509.051942,222.061783,-8886.707777,-444.123565
5509.052266,-888.247130,-8427.050478,-888.247130
5509.052591,-1258.350101,-8656.879127,-444.123565
5509.052915,-1924.535449,-8273.831378,-740.205942
5509.053240,-1480.411884,-8963.317327,0.000000
5509.053564,-1036.288319,-8580.269578,-222.061783
5509.053888,-740.205942,-8580.269578,-148.041188
5509.054213,296.082377,-8273.831378,-370.102971
5509.054537,888.247130,-7967.393179,-518.144159
5509.054862,2368.659014,-8197.221829,222.061783
5509.055186,2516.700203,-7814.174080,-148.041188
5509.055511,2738.761985,-8886.707777,0.000000
5509.055835,2294.638420,-8350.440928,-518.144159
5509.056159,2442.679609,-9039.926876,-222.061783
5509.056484,2072.576638,-8810.098227,-1036.288319
5509.056808,592.164754,-9116.536426,-518.144159
5509.057133,-740.205942,-8580.269578,-592.164754
5509.057457,-1480.411884,-9039.926876,-592.164754
5509.057782,-2146.597232,-8656.879127,-814.226536
5509.058106,-2072.576638,-9039.926876,-296.082377
5509.058430,-1850.514855,-8350.440928,-444.123565
5509.058755,-888.247130,-8580.269578,0.000000
5509.059079,370.102971,-8810.098227,0.000000
5509.059404,1628.453072,-8810.098227,-444.123565
5509.059728,2146.597232,-8656.879127,-370.102971
5509.060053,2072.576638,-9116.536426,370.102971
5509.060377,1850.514855,-8580.269578,-148.041188
5509.060701,2072.576638,-9193.145976,444.123565
5509.061026,814.226536,-8580.269578,-148.041188
5509.061350,740.205942,-8886.707777,296.082377
5509.061675,740.205942,-8427.050478,-518.144159
5509.061999,1036.288319,-8733.488677,0.000000
5509.062324,888.247130,-8350.440928,-370.102971
5509.062648,222.061783,-8503.660028,-666.185348
5509.062972,444.123565,-8350.440928,-962.267725
5509.063297,518.144159,-8503.660028,-888.247130
5509.063621,-592.164754,-8733.488677,-666.185348
5509.063946,-814.226536,-8273.831378,-666.185348
5509.064270,-888.247130,-8963.317327,-814.226536
5509.064595,-1258.350101,-9039.926876,-666.185348
5509.064919,-1332.370696,-9039.926876,-296.082377
5509.065243,-222.061783,-7737.564530,-518.144159
5509.065568,1110.308913,-8427.050478,148.041188
5509.065892,1850.514855,-8044.002729,-1036.288319
5509.066217,2368.659014,-8197.221829,-222.061783
5509.066541,2368.659014,-7660.954980,-592.164754
5509.066866,2960.823768,-9193.145976,370.102971
5509.067190,3034.844362,-8197.221829,-814.226536
5509.067514,2812.782580,-8886.707777,-222.061783
5509.067839,1406.391290,-8427.050478,-1036.288319
5509.068163,296.082377,-9499.584175,-518.144159
5509.068488,-1554.432478,-8886.707777,-1258.350101
5509.068812,-1998.556043,-9193.145976,0.000000
5509.069137,-2886.803174,-7967.393179,-666.185348
5509.069461,-2294.638420,-9346.365076,0.000000
5509.069786,-1702.473667,-7890.783629,-740.205942
5509.070110,0.000000,-8656.879127,0.000000
5509.070434,444.123565,-7890.783629,-740.205942
5509.070759,1110.308913,-8580.269578,222.061783
5509.071083,1776.494261,-8503.660028,0.000000
5509.071408,1258.350101,-8733.488677,74.020594
5509.071732,1554.432478,-9039.926876,0.000000
5509.072057,222.061783,-8427.050478,222.061783
5509.072381,888.247130,-9039.926876,296.082377
5509.072705,148.041188,-7890.783629,-148.041188
5509.073030,888.247130,-8733.488677,444.123565
5509.073354,592.164754,-7660.954980,-370.102971
5509.073679,888.247130,-8810.098227,-370.102971
5509.074003,444.123565,-8273.831378,-592.164754
5509.074328,0.000000,-8886.707777,-592.164754
5509.074652,-518.144159,-8733.488677,-1184.329507
5509.074976,-1332.370696,-8273.831378,0.000000
5509.075301,-1406.391290,-8656.879127,-518.144159
5509.075625,-2072.576638,-8580.269578,-296.082377
5509.075950,-1184.329507,-8503.660028,0.000000
5509.076274,-1628.453072,-8427.050478,-296.082377
5509.076599,74.020594,-8810.098227,0.000000
5509.076923,962.267725,-7814.174080,-296.082377
5509.077247,2442.679609,-8733.488677,0.000000
5509.077572,2442.679609,-8350.440928,-740.205942
5509.077896,3701.029710,-8503.660028,814.226536
5509.078221,2812.782580,-8120.612279,-740.205942
5509.078545,3034.844362,-9193.145976,-592.164754
5509.078870,2146.597232,-9346.365076,-592.164754
5509.079194,888.247130,-8963.317327,-888.247130
5509.079518,0.000000,-8886.707777,-370.102971
5509.079843,-1776.494261,-8810.098227,-666.185348
5509.080167,-2220.617826,-8810.098227,-740.205942
5509.080492,-3108.864956,-8197.221829,-888.247130
5509.080816,-1406.391290,-8733.488677,-592.164754
5509.081141,-814.226536,-8044.002729,0.000000
5509.081465,296.082377,-8733.488677,-592.164754
5509.081789,1184.329507,-8427.050478,74.020594
5509.082114,2072.576638,-8656.879127,0.000000
5509.082438,2442.679609,-8580.269578,-518.144159
5509.082763,2516.700203,-9116.536426,370.102971
5509.083087,2294.638420,-8427.050478,0.000000
5509.083412,1110.308913,-9193.145976,0.000000
5509.083736,370.102971,-8580.269578,-444.123565
5509.084060,444.123565,-8810.098227,0.000000
5509.084385,518.144159,-8656.879127,-370.102971
5509.084709,666.185348,-9039.926876,-222.061783
5509.085034,592.164754,-8273.831378,-518.144159
5509.085358,666.185348,-8197.221829,-740.205942
5509.085683,888.247130,-8580.269578,-1332.370696
5509.086007,666.185348,-8810.098227,-592.164754
5509.086331,222.061783,-8580.269578,-444.123565
5509.086656,-1110.308913,-8580.269578,-962.267725
5509.086980,-1258.350101,-9039.926876,-296.082377
5509.087305,-666.185348,-8810.098227,-814.226536
5509.087629,-592.164754,-9116.536426,-814.226536
5509.087954,0.000000,-8733.488677,0.000000
5509.088278,1258.350101,-8350.440928,-222.061783
5509.088602,2368.659014,-8580.269578,-296.082377
5509.088927,2072.576638,-8656.879127,-148.041188
5509.089251,2442.679609,-8350.440928,-222.061783
5509.089576,2812.782580,-8503.660028,0.000000
5509.089900,2368.659014,-8503.660028,-740.205942
5509.090225,2072.576638,-9116.536426,-296.082377
5509.090549,1184.329507,-8810.098227,-592.164754
5509.090874,-592.164754,-9193.145976,-814.226536
5509.091198,-1776.494261,-9039.926876,-222.061783
5509.091522,-2368.659014,-8810.098227,-444.123565
5509.091847,-2368.659014,-8810.098227,-296.082377
5509.092171,-1924.535449,-8120.612279,-592.164754
5509.092496,-888.247130,-8427.050478,-148.041188
5509.092820,222.061783,-8120.612279,0.000000
5509.093145,1850.514855,-8044.002729,74.020594
5509.093469,2146.597232,-8273.831378,592.164754
5509.093793,1998.556043,-8580.269578,222.061783
5509.094118,2220.617826,-8656.879127,222.061783
5509.094442,1406.391290,-8886.707777,592.164754
5509.094767,1184.329507,-8963.317327,74.020594
5509.095091,74.020594,-8810.098227,296.082377
5509.095416,222.061783,-8580.269578,222.061783
5509.095740,0.000000,-8120.612279,-222.061783
5509.096064,814.226536,-8197.221829,-370.102971
5509.096389,74.020594,-8427.050478,-518.144159
5509.096713,444.123565,-8044.002729,-444.123565
5509.097038,-666.185348,-8580.269578,-592.164754
5509.097362,-444.123565,-8886.707777,-296.082377
5509.097687,-1036.288319,-8427.050478,-444.123565
5509.098011,-1406.391290,-8580.269578,-740.205942
5509.098335,-1258.350101,-8886.707777,-222.061783
5509.098660,-1258.350101,-8120.612279,-222.061783
5509.098984,0.000000,-9116.536426,0.000000
5509.099309,518.144159,-7660.954980,-370.102971
5509.099633,2146.597232,-8886.707777,74.020594
5509.099958,2368.659014,-7814.174080,-370.102971
5509.100282,2812.782580,-9039.926876,74.020594
5509.100606,2812.782580,-8197.221829,-740.205942
5509.100931,2294.638420,-8810.098227,-518.144159
5509.101255,1702.473667,-8886.707777,-888.247130
5509.101580,1036.288319,-9346.365076,-592.164754
5509.101904,0.000000,-8886.707777,-592.164754
5509.102229,-1184.329507,-9116.536426,-740.205942
5509.102553,-1776.494261,-9039.926876,-814.226536
5509.102877,-1850.514855,-8733.488677,-1036.288319
5509.103202,-1628.453072,-9269.755526,-518.144159
5509.103526,-740.205942,-8656.879127,-370.102971
5509.103851,518.144159,-8656.879127,74.020594
5509.104175,740.205942,-8273.831378,-444.123565
5509.104500,2294.638420,-9116.536426,0.000000
5509.104824,2072.576638,-8427.050478,-518.144159
5509.105148,2294.638420,-8886.707777,0.000000
5509.105473,1258.350101,-8733.488677,0.000000
5509.105797,1258.350101,-9193.145976,444.123565
5509.106122,592.164754,-8656.879127,-518.144159
5509.106446,740.205942,-8886.707777,0.000000
5509.106771,888.247130,-8503.660028,-740.205942
5509.107095,888.247130,-8503.660028,0.000000
5509.107419,592.164754,-8733.488677,-888.247130
5509.107744,592.164754,-8197.221829,-666.185348
5509.108068,0.000000,-8427.050478,-518.144159
5509.108393,-222.061783,-8503.660028,-666.185348
5509.108717,-444.123565,-8580.269578,-592.164754
5509.109042,-1480.411884,-8886.707777,-444.123565
5509.109366,-1406.391290,-8733.488677,-518.144159
5509.109690,-740.205942,-8427.050478,-666.185348
5509.110015,-1110.308913,-8503.660028,0.000000
5509.110339,296.082377,-8197.221829,74.020594
5509.110664,888.247130,-7890.783629,0.000000
5509.110988,2220.617826,-8427.050478,-148.041188
5509.111313,2812.782580,-8427.050478,74.020594
5509.111637,3256.906145,-8197.221829,-148.041188
5509.111961,3182.885551,-8810.098227,0.000000
5509.112286,2442.679609,-8427.050478,-222.061783
5509.112610,1406.391290,-8886.707777,-740.205942
5509.112935,222.061783,-8350.440928,-888.247130
5509.113259,-296.082377,-8733.488677,-592.164754
5509.113584,-1332.370696,-8503.660028,-740.205942
5509.113908,-2146.597232,-8886.707777,-296.082377
5509.114233,-1702.473667,-8120.612279,-74.020594
5509.114557,-1554.432478,-8656.879127,0.000000
5509.114881,-444.123565,-7967.393179,0.000000
5509.115206,666.185348,-8503.660028,-74.020594
5509.115530,1332.370696,-8197.221829,-148.041188
5509.115855,1998.556043,-9039.926876,0.000000
5509.116179,1998.556043,-8427.050478,0.000000
5509.116504,1406.391290,-8503.660028,296.082377
5509.116828,1036.288319,-8733.488677,222.061783
5509.117152,962.267725,-8963.317327,-148.041188
5509.117477,74.020594,-8503.660028,0.000000
5509.117801,222.061783,-8810.098227,74.020594
5509.118126,148.041188,-7967.393179,-592.164754
5509.118450,592.164754,-7431.126331,148.041188
5509.118775,370.102971,-7890.783629,-814.226536
5509.119099,888.247130,-8503.660028,-370.102971
5509.119423,296.082377,-8197.221829,-962.267725
5509.119748,0.000000,-8503.660028,-518.144159
5509.120072,-592.164754,-8503.660028,-1480.411884
5509.120397,-1702.473667,-8810.098227,-740.205942
5509.120721,-1184.329507,-8886.707777,-296.082377
5509.121046,-1406.391290,-8733.488677,-444.123565
5509.121370,-740.205942,-9806.022374,-518.144159
5509.121694,0.000000,-8427.050478,-296.082377
5509.122019,1110.308913,-8273.831378,0.000000
5509.122343,2368.659014,-8580.269578,-592.164754
5509.122668,3182.885551,-8197.221829,-222.061783
5509.122992,3404.947333,-8656.879127,0.000000
5509.123317,2812.782580,-8427.050478,-962.267725
5509.123641,2368.659014,-9193.145976,-370.102971
5509.123965,1110.308913,-8580.269578,-1184.329507
5509.124290,518.144159,-9422.974625,-740.205942
5509.124614,-1554.432478,-8886.707777,-1406.391290
5509.124939,-1702.473667,-9269.755526,-518.144159
5509.125263,-2590.720797,-8273.831378,-1036.288319
5509.125587,-1998.556043,-9959.241474,-592.164754
5509.125912,-1776.494261,-8656.879127,-888.247130
5509.126236,-296.082377,-8580.269578,296.082377
5509.126561,444.123565,-8273.831378,-370.102971
5509.126885,1776.494261,-8810.098227,222.061783
5509.127209,2516.700203,-8580.269578,-518.144159
5509.127534,2294.638420,-8810.098227,0.000000
5509.127858,2368.659014,-8503.660028,-296.082377
5509.128182,518.144159,-8886.707777,444.123565
5509.128507,592.164754,-9346.365076,74.020594
5509.128831,370.102971,-8580.269578,148.041188
5509.129155,814.226536,-8810.098227,-222.061783
5509.129480,740.205942,-8120.612279,0.000000
5509.129804,888.247130,-9116.536426,-444.123565
5509.130128,962.267725,-8580.269578,0.000000
5509.130453,0.000000,-7967.393179,-740.205942
5509.130777,0.000000,-8580.269578,-962.267725
5509.131101,-296.082377,-9039.926876,-888.247130
5509.131426,-1480.411884,-8197.221829,-666.185348
5509.131750,-962.267725,-8810.098227,-296.082377
5509.132074,-814.226536,-8197.221829,-666.185348
5509.132399,-370.102971,-9346.365076,0.000000
5509.132723,0.000000,-7660.954980,-370.102971
5509.133048,814.226536,-8963.317327,814.226536
5509.133372,2220.617826,-7737.564530,0.000000
5509.133696,2812.782580,-8273.831378,0.000000
5509.134021,2812.782580,-7890.783629,-222.061783
5509.134345,3182.885551,-8580.269578,-296.082377
5509.134669,2664.741391,-8273.831378,-222.061783
5509.134994,2146.597232,-8810.098227,-370.102971
5509.135318,1110.308913,-8733.488677,-444.123565
5509.135642,-222.061783,-9039.926876,0.000000
5509.135967,-1184.329507,-8580.269578,-740.205942
5509.136291,-1850.514855,-9039.926876,-592.164754
5509.136615,-1850.514855,-8350.440928,-518.144159
5509.136940,-1850.514855,-9346.365076,148.041188
5509.137264,-1184.329507,-8656.879127,-296.082377
5509.137588,-148.041188,-8886.707777,-370.102971
5509.137913,1036.288319,-9039.926876,-296.082377
5509.138237,1406.391290,-9039.926876,74.020594
5509.138561,1110.308913,-8656.879127,148.041188
5509.138886,888.247130,-8273.831378,0.000000
5509.139210,1110.308913,-8427.050478,0.000000
5509.139535,1110.308913,-8963.317327,0.000000
5509.139859,518.144159,-8733.488677,370.102971
5509.140183,962.267725,-8580.269578,0.000000
5509.140508,814.226536,-8656.879127,-296.082377
5509.140832,888.247130,-8503.660028,-518.144159
5509.141156,444.123565,-8963.317327,74.020594
5509.141481,592.164754,-8427.050478,-888.247130
5509.141805,0.000000,-8427.050478,-518.144159
5509.142129,-740.205942,-8580.269578,-1184.329507
5509.142454,-1480.411884,-8503.660028,-518.144159
5509.142778,-1924.535449,-8580.269578,-962.267725
5509.143102,-1554.432478,-9039.926876,-740.205942
5509.143427,-1554.432478,-8656.879127,-518.144159
