#time,accel_x,accel_y,accel_z
4145.311557,-592.164754,-9422.974625,-1110.308913
4145.311882,-444.123565,-9652.803275,-814.226536
4145.312206,-962.267725,-9499.584175,-814.226536
4145.312530,-1184.329507,-9039.926876,-518.144159
4145.312855,-1184.329507,-8963.317327,-962.267725
4145.313179,-1258.350101,-9039.926876,-888.247130
4145.313503,-1110.308913,-8733.488677,-1110.308913
4145.313828,-740.205942,-8580.269578,-592.164754
4145.314152,-888.247130,-8963.317327,-1184.329507
4145.314476,-1184.329507,-9116.536426,-1036.288319
4145.314801,-740.205942,-9422.974625,-1332.370696
4145.315125,-592.164754,-9269.755526,-1110.308913
4145.315449,-888.247130,-9652.803275,-1258.350101
4145.315774,-1332.370696,-9346.365076,-666.185348
4145.316098,-2368.659014,-9116.536426,-962.267725
4145.316422,-3108.864956,-9346.365076,-296.082377
4145.316747,-2590.720797,-8810.098227,-444.123565
4145.317071,-2442.679609,-8886.707777,-666.185348
4145.317395,-1998.556043,-8580.269578,-444.123565
4145.317720,-1850.514855,-8120.612279,-370.102971
4145.318044,-1554.432478,-8273.831378,-814.226536
4145.318368,-2146.597232,-8733.488677,-222.061783
4145.318692,-2516.700203,-8427.050478,-444.123565
4145.319017,-3182.885551,-8580.269578,-296.082377
4145.319341,-4145.153275,-9116.536426,148.041188
4145.319665,-4441.235652,-8580.269578,296.082377
4145.319989,-4663.297435,-8656.879127,444.123565
4145.320313,-4219.173869,-8733.488677,370.102971
4145.320638,-3627.009116,-8273.831378,370.102971
4145.320962,-3108.864956,-8427.050478,0.000000
4145.321286,-2664.741391,-8350.440928,518.144159
4145.321610,-2516.700203,-7814.174080,222.061783
4145.321934,-2516.700203,-8273.831378,148.041188
4145.322259,-3182.885551,-8044.002729,74.020594
4145.322583,-3330.926739,-8656.879127,592.164754
4145.322907,-3775.050304,-8044.002729,370.102971
4145.323231,-3849.070898,-8810.098227,592.164754
4145.323555,-3552.988522,-8503.660028,888.247130
4145.323880,-2664.741391,-8273.831378,740.205942
4145.324204,-2294.638420,-8350.440928,148.041188
4145.324528,-1332.370696,-7967.393179,444.123565
4145.324852,-666.185348,-7814.174080,74.020594
4145.325177,-444.123565,-8044.002729,-296.082377
4145.325501,-888.247130,-8273.831378,74.020594
4145.325825,-814.226536,-8044.002729,0.000000
4145.326149,-1258.350101,-8503.660028,-148.041188
4145.326473,-1554.432478,-8733.488677,0.000000
4145.326798,-1628.453072,-9039.926876,-148.041188
4145.327122,-1924.535449,-8733.488677,-296.082377
4145.327446,-1850.514855,-8886.707777,-592.164754
4145.327770,-1480.411884,-9269.755526,-740.205942
4145.328094,-592.164754,-8963.317327,-962.267725
4145.328419,-444.123565,-8810.098227,-1036.288319
4145.328743,-740.205942,-8580.269578,-1332.370696
4145.329067,-296.082377,-8963.317327,-1110.308913
4145.329391,0.000000,-8120.612279,-1184.329507
4145.329715,0.000000,-9346.365076,-1036.288319
4145.330040,-370.102971,-8427.050478,-1184.329507
4145.330364,-518.144159,-8810.098227,-962.267725
4145.330688,-296.082377,-8810.098227,-962.267725
4145.331012,148.041188,-8963.317327,-1184.329507
4145.331337,222.061783,-9193.145976,-1628.453072
4145.331661,518.144159,-9039.926876,-1258.350101
4145.331985,888.247130,-9039.926876,-1554.432478
4145.332309,888.247130,-9346.365076,-1554.432478
4145.332633,444.123565,-8886.707777,-1628.453072
4145.332958,296.082377,-8810.098227,-1332.370696
4145.333282,-1036.288319,-8963.317327,-1332.370696
4145.333606,-1406.391290,-8656.879127,-1850.514855
4145.333930,-2072.576638,-9193.145976,-592.164754
4145.334254,-2220.617826,-8580.269578,-1406.391290
4145.334579,-2072.576638,-9039.926876,-814.226536
4145.334903,-1702.473667,-8733.488677,-1110.308913
4145.335227,-1184.329507,-8656.879127,-518.144159
4145.335551,-1332.370696,-8810.098227,-666.185348
4145.335875,-1184.329507,-9346.365076,-296.082377
4145.336200,-1184.329507,-8427.050478,-370.102971
4145.336524,-1332.370696,-8886.707777,-518.144159
4145.336848,-1332.370696,-9116.536426,0.000000
4145.337172,-1332.370696,-8503.660028,74.020594
4145.337497,-1184.329507,-9269.755526,444.123565
4145.337821,-962.267725,-7967.393179,444.123565
4145.338145,-444.123565,-9269.755526,444.123565
4145.338469,-296.082377,-8273.831378,0.000000
4145.338793,-1110.308913,-8810.098227,518.144159
4145.339118,-1554.432478,-8733.488677,-222.061783
4145.339442,-2146.597232,-9116.536426,0.000000
4145.339766,-3552.988522,-8733.488677,74.020594
4145.340090,-4293.194464,-8503.660028,296.082377
4145.340414,-4811.338623,-8350.440928,740.205942
4145.340739,-4737.318029,-8427.050478,518.144159
4145.341063,-3849.070898,-8503.660028,962.267725
4145.341387,-3108.864956,-7354.516781,592.164754
4145.341711,-2368.659014,-7967.393179,740.205942
4145.342035,-1924.535449,-7354.516781,592.164754
4145.342360,-1332.370696,-7890.783629,518.144159
4145.342684,-1332.370696,-7507.735880,296.082377
4145.343008,-1406.391290,-8427.050478,592.164754
4145.343332,-1702.473667,-8273.831378,444.123565
4145.343657,-962.267725,-8580.269578,222.061783
4145.343981,-1554.432478,-8350.440928,592.164754
4145.344305,-1110.308913,-8963.317327,444.123565
4145.344629,-1406.391290,-8503.660028,-296.082377
4145.344953,-2146.597232,-9576.193725,-592.164754
4145.345278,-2368.659014,-8503.660028,-518.144159
4145.345602,-2886.803174,-8350.440928,-1258.350101
4145.345926,-4145.153275,-8580.269578,-666.185348
4145.346250,-4367.215058,-7814.174080,-740.205942
4145.346574,-3330.926739,-8656.879127,-666.185348
4145.346899,-2886.803174,-8427.050478,-592.164754
4145.347223,-1850.514855,-8656.879127,-296.082377
4145.347547,-740.205942,-8273.831378,-592.164754
4145.347871,888.247130,-8350.440928,0.000000
4145.348195,2368.659014,-8350.440928,-518.144159
4145.348520,2664.741391,-8580.269578,-666.185348
4145.348844,2072.576638,-9729.412825,-1110.308913
4145.349168,1036.288319,-8427.050478,-1332.370696
4145.349492,-814.226536,-9422.974625,-1480.411884
4145.349817,-3182.885551,-9806.022374,-1850.514855
4145.350141,-4293.194464,-9576.193725,-1702.473667
4145.350465,-5477.523971,-9039.926876,-1628.453072
4145.350789,-4367.215058,-9193.145976,-962.267725
4145.351113,-2960.823768,-8580.269578,-1628.453072
4145.351438,-814.226536,-9039.926876,-1258.350101
4145.351762,1850.514855,-8580.269578,-1258.350101
4145.352086,2886.803174,-8810.098227,-444.123565
4145.352410,4737.318029,-8656.879127,-1332.370696
4145.352734,3849.070898,-9116.536426,-592.164754
4145.353059,3404.947333,-9729.412825,-888.247130
4145.353383,740.205942,-9806.022374,-1036.288319
4145.353707,-1110.308913,-9729.412825,-592.164754
4145.354031,-4071.132681,-9193.145976,-814.226536
4145.354355,-5551.544565,-8810.098227,-444.123565
4145.354680,-5625.565159,-7814.174080,-592.164754
4145.355004,-5847.626942,-7890.783629,-444.123565
4145.355328,-3108.864956,-7201.297681,-1036.288319
4145.355652,0.000000,-7201.297681,-1258.350101
4145.355977,3701.029710,-7737.564530,-518.144159
4145.356301,6143.709319,-6894.859482,-518.144159
4145.356625,7772.162391,-8733.488677,74.020594
4145.356949,7698.141797,-8810.098227,0.000000
4145.357273,5403.503377,-10265.679673,0.000000
4145.357598,1702.473667,-9882.631924,-296.082377
4145.357922,-2590.720797,-9576.193725,148.041188
4145.358246,-6217.729913,-9882.631924,888.247130
4145.358570,-8364.327145,-8427.050478,518.144159
4145.358894,-7624.121203,-7890.783629,518.144159
4145.359219,-5477.523971,-7277.907231,296.082377
4145.359543,-1332.370696,-6358.592633,740.205942
4145.359867,4811.338623,-5822.325785,74.020594
4145.360191,9474.636058,-6818.249932,740.205942
4145.360515,11103.089130,-7277.907231,666.185348
4145.360840,11473.192101,-8810.098227,1258.350101
4145.361164,9326.594869,-9576.193725,1332.370696
4145.361488,5255.462188,-10801.946522,0.000000
4145.361812,-666.185348,-11261.603821,148.041188
4145.362137,-6069.688724,-10801.946522,814.226536
4145.362461,-10214.842000,-9652.803275,0.000000
4145.362785,-12879.583391,-9193.145976,518.144159
4145.363109,-10288.862594,-7354.516781,296.082377
4145.363433,-7105.977043,-5898.935335,444.123565
4145.363758,-222.061783,-5132.839837,-296.082377
4145.364082,6069.688724,-5132.839837,-296.082377
4145.364406,11473.192101,-5975.544884,-222.061783
4145.364730,14137.933492,-7048.078582,814.226536
4145.365054,12879.583391,-8580.269578,592.164754
4145.365379,9030.512492,-11184.994271,814.226536
4145.365703,1924.535449,-11951.089769,-1258.350101
4145.366027,-4663.297435,-12640.575717,-888.247130
4145.366351,-10362.883188,-11108.384721,-518.144159
4145.366675,-13323.706956,-10265.679673,0.000000
4145.367000,-12287.418637,-8656.879127,-370.102971
4145.367324,-7328.038826,-6894.859482,-592.164754
4145.367648,-1850.514855,-5669.106685,-888.247130
4145.367972,5773.606348,-5132.839837,-962.267725
4145.368296,11769.274478,-5439.278036,-888.247130
4145.368621,14656.077652,-7354.516781,-666.185348
4145.368945,14878.139434,-8044.002729,0.000000
4145.369269,10140.821405,-10955.165621,-222.061783
4145.369593,5255.462188,-12793.794817,-1036.288319
4145.369918,-2664.741391,-13713.109414,-1036.288319
4145.370242,-10436.903782,-12870.404366,-1924.535449
4145.370566,-15174.221811,-11184.994271,-1258.350101
4145.370890,-16284.530724,-9269.755526,-1332.370696
4145.371214,-13397.727550,-8427.050478,-1184.329507
4145.371539,-7105.977043,-5362.668486,-518.144159
4145.371863,1110.308913,-5515.887586,296.082377
4145.372187,7254.018232,-3983.696590,-888.247130
4145.372511,13619.789333,-6128.763984,-740.205942
4145.372835,16432.571912,-7507.735880,-1110.308913
4145.373160,12953.603985,-10495.508323,740.205942
4145.373484,9326.594869,-11721.261119,-296.082377
4145.373808,740.205942,-13253.452115,-518.144159
4145.374132,-5995.668130,-13406.671215,-1406.391290
4145.374456,-13397.727550,-10035.851024,-1258.350101
4145.374781,-15692.365970,-10495.508323,0.000000
4145.375105,-12879.583391,-8273.831378,-888.247130
4145.375429,-8438.347739,-6511.811733,-592.164754
4145.375753,592.164754,-4519.963438,0.000000
4145.376078,5995.668130,-3677.258390,740.205942
4145.376402,14508.036463,-5515.887586,592.164754
4145.376726,18135.045579,-4903.011187,-666.185348
4145.377050,16876.695478,-8350.440928,1184.329507
4145.377374,11547.212695,-10265.679673,370.102971
4145.377699,3478.967927,-11951.089769,296.082377
4145.378023,-3701.029710,-14096.157163,-666.185348
4145.378347,-10510.924376,-12334.137518,-2146.597232
4145.378671,-16876.695478,-10801.946522,-1110.308913
4145.378995,-17098.757260,-8503.660028,0.000000
4145.379320,-12435.459826,-7354.516781,1184.329507
4145.379644,-5699.585753,-4136.915689,444.123565
4145.379968,3552.988522,-4136.915689,1258.350101
4145.380292,9992.780217,-3370.820191,518.144159
4145.380616,18209.066173,-4979.620737,518.144159
4145.380941,19541.436869,-5975.544884,-148.041188
4145.381265,14804.118840,-8810.098227,888.247130
4145.381589,8808.450710,-11721.261119,296.082377
4145.381913,-1184.329507,-13713.109414,-444.123565
4145.382238,-9252.574275,-14785.643111,-962.267725
4145.382562,-16580.613101,-11568.042020,-2072.576638
4145.382886,-17838.963202,-11414.822920,-1480.411884
4145.383210,-14211.954086,-7584.345430,-222.061783
4145.383534,-6143.709319,-5286.058936,666.185348
4145.383859,2960.823768,-3907.087040,740.205942
4145.384183,11177.109724,-3753.867940,444.123565
4145.384507,18727.210333,-4519.963438,-296.082377
4145.384831,19911.539840,-5898.935335,-222.061783
4145.385155,16358.551318,-7048.078582,0.000000
4145.385480,10066.800811,-11184.994271,888.247130
4145.385804,2294.638420,-12870.404366,-370.102971
4145.386128,-8438.347739,-15781.567259,-1332.370696
4145.386452,-16210.510130,-14709.033562,-2294.638420
4145.386776,-19245.354492,-12257.527968,-1850.514855
4145.387101,-16580.613101,-10189.070123,-888.247130
4145.387425,-10510.924376,-7048.078582,666.185348
4145.387749,-2072.576638,-4596.572988,1332.370696
4145.388073,6661.853478,-2757.943793,592.164754
4145.388398,14211.954086,-3600.648841,-370.102971
4145.388722,19467.416275,-6128.763984,-370.102971
4145.389046,17764.942608,-8273.831378,-1554.432478
4145.389370,11843.295072,-10342.289223,-1332.370696
4145.389694,1924.535449,-11951.089769,0.000000
4145.390019,-7105.977043,-14862.252661,-740.205942
4145.390343,-14434.015869,-15015.471761,-1628.453072
4145.390667,-19319.375086,-12257.527968,-1628.453072
4145.390991,-17690.922014,-10725.336972,-962.267725
4145.391315,-11695.253884,-7660.954980,518.144159
4145.391640,-2516.700203,-5132.839837,1184.329507
4145.391964,6513.812290,-3064.381992,1110.308913
4145.392288,16728.654289,-1838.629195,148.041188
4145.392612,19763.498651,-4903.011187,-1850.514855
4145.392936,19985.560434,-7048.078582,-1702.473667
4145.393261,13471.748144,-9193.145976,1332.370696
4145.393585,4737.318029,-9806.022374,-1332.370696
4145.393909,-3923.091493,-13559.890315,1036.288319
4145.394233,-12805.562797,-14479.204912,-1480.411884
4145.394558,-18727.210333,-14402.595362,-2220.617826
4145.394882,-20281.642811,-10572.117872,-666.185348
4145.395206,-15544.324782,-9269.755526,592.164754
4145.395530,-6883.915261,-5056.230287,1776.494261
4145.395854,3404.947333,-2681.334243,1036.288319
4145.396179,9918.759623,-2374.896044,1554.432478
4145.396503,18949.272115,-2451.505594,-148.041188
4145.396827,21762.054695,-4826.401637,-148.041188
4145.397151,17542.880825,-7354.516781,-370.102971
4145.397475,9770.718434,-9499.584175,-296.082377
4145.397800,-1258.350101,-12870.404366,888.247130
4145.398124,-10510.924376,-15245.300410,222.061783
4145.398448,-17172.777854,-13636.499864,-1110.308913
4145.398772,-19837.519246,-12487.356617,-444.123565
4145.399096,-17912.983796,-9422.974625,0.000000
4145.399421,-9252.574275,-6358.592633,1406.391290
4145.399745,1332.370696,-4366.744339,740.205942
4145.400069,10584.944971,-2451.505594,740.205942
4145.400393,18949.272115,-2911.162892,0.000000
4145.400718,22946.384202,-3677.258390,-962.267725
4145.401042,20725.766376,-7277.907231,-666.185348
4145.401366,15026.180623,-8120.612279,-1480.411884
4145.401690,1850.514855,-11644.651570,0.000000
4145.402014,-9030.512492,-14172.766713,74.020594
4145.402339,-15248.242405,-16088.005458,-1702.473667
4145.402663,-21391.951724,-13483.280765,-3034.844362
4145.402987,-20799.786970,-11797.870669,-296.082377
4145.403311,-14508.036463,-7048.078582,-296.082377
4145.403635,-5847.626942,-5975.544884,1406.391290
4145.403960,5329.482782,-2374.896044,-444.123565
4145.404284,16506.592507,-4366.744339,1332.370696
4145.404608,21836.075289,-2911.162892,-2220.617826
4145.404932,22206.178260,-7354.516781,-1332.370696
4145.405256,17394.839637,-8350.440928,-1110.308913
4145.405581,9918.759623,-10418.898773,-296.082377
4145.405905,-3478.967927,-12870.404366,-222.061783
4145.406229,-15100.201217,-15781.567259,0.000000
4145.406553,-22724.322419,-13023.623466,-1776.494261
4145.406878,-21095.869347,-14019.547613,-1258.350101
4145.407202,-16062.468941,-9346.365076,-1628.453072
4145.407526,-8364.327145,-7354.516781,296.082377
4145.407850,2590.720797,-4366.744339,-518.144159
4145.408174,11325.150913,-2298.286494,222.061783
4145.408499,21391.951724,-4903.011187,-1554.432478
4145.408823,23316.487173,-4979.620737,-1480.411884
4145.409147,19615.457463,-8580.269578,-592.164754
4145.409471,11621.233289,-9269.755526,-222.061783
4145.409795,370.102971,-12104.308868,0.000000
4145.410120,-10955.047942,-15015.471761,-666.185348
4145.410444,-18949.272115,-14325.985813,-1702.473667
4145.410768,-21910.095883,-13406.671215,-2442.679609
4145.411092,-19097.313304,-9959.241474,-296.082377
4145.411416,-12583.501014,-7431.126331,1036.288319
4145.411741,-3404.947333,-4903.011187,1036.288319
4145.412065,6587.832884,-3217.601092,1110.308913
4145.412389,16062.468941,-4136.915689,-444.123565
4145.412713,21021.848753,-3524.039291,-1184.329507
4145.413038,20577.725188,-6665.030833,296.082377
4145.413362,14582.057057,-8656.879127,-296.082377
4145.413686,5181.441594,-10648.727422,814.226536
4145.414010,-8142.265362,-13483.280765,74.020594
4145.414334,-15692.365970,-14938.862211,-814.226536
4145.414659,-20355.663405,-13636.499864,-1628.453072
4145.414983,-20873.807564,-11108.384721,-370.102971
4145.415307,-12583.501014,-8197.221829,962.267725
4145.415631,-5033.400406,-5822.325785,1110.308913
4145.415955,5847.626942,-2834.553343,1924.535449
4145.416280,14878.139434,-2987.772442,1184.329507
4145.416604,21688.034101,-3294.210641,-740.205942
4145.416928,21169.889941,-4596.572988,0.000000
4145.417252,17172.777854,-8273.831378,148.041188
4145.417576,8068.244768,-9806.022374,74.020594
4145.417901,-2738.761985,-11261.603821,-370.102971
4145.418225,-11177.109724,-15704.957709,518.144159
4145.418549,-18875.251521,-12257.527968,-3182.885551
4145.418873,-20725.766376,-14096.157163,-888.247130
4145.419197,-18061.024985,-8810.098227,-666.185348
4145.419522,-10288.862594,-7431.126331,1924.535449
4145.419846,-962.267725,-2757.943793,814.226536
4145.420170,9252.574275,-3907.087040,1332.370696
4145.420494,18357.107362,-2681.334243,-1036.288319
4145.420818,23020.404796,-4290.134789,-296.082377
4145.421143,19615.457463,-7660.954980,-1036.288319
4145.421467,14211.954086,-9039.926876,0.000000
4145.421791,2886.803174,-13253.452115,-296.082377
4145.422115,-6661.853478,-14172.766713,-1480.411884
4145.422439,-18061.024985,-14249.376263,-1628.453072
4145.422764,-22206.178260,-12793.794817,-1480.411884
4145.423088,-19911.539840,-13253.452115,-1554.432478
4145.423412,-11251.130318,-7507.735880,-666.185348
4145.423736,-2368.659014,-6741.640382,1036.288319
4145.424060,7031.956449,-3370.820191,-148.041188
4145.424384,17172.777854,-4213.525239,0.000000
4145.424709,20725.766376,-4290.134789,-2516.700203
4145.425033,21539.992912,-6205.373534,-222.061783
4145.425357,15988.448347,-7354.516781,-1480.411884
4145.425681,7698.141797,-12257.527968,1036.288319
4145.426005,-6513.812290,-11951.089769,-2886.803174
4145.426330,-14434.015869,-15781.567259,-888.247130
4145.426654,-20503.704593,-13406.671215,-2812.782580
4145.426978,-19763.498651,-12947.013916,-2516.700203
4145.427302,-15322.262999,-9269.755526,-296.082377
4145.427626,-7105.977043,-5439.278036,296.082377
4145.427950,-592.164754,-5592.497135,-222.061783
4145.428275,15026.180623,-4443.353888,814.226536
4145.428599,18431.127956,-5822.325785,-888.247130
4145.428923,18653.189738,-5132.839837,-1776.494261
4145.429247,18579.169144,-6358.592633,1480.411884
4145.429571,9030.512492,-9806.022374,-962.267725
4145.429896,2294.638420,-13636.499864,-296.082377
4145.430220,-8364.327145,-11644.651570,-2146.597232
4145.430544,-18653.189738,-15168.690860,-148.041188
4145.430868,-21391.951724,-9039.926876,-2886.803174
4145.431192,-14878.139434,-14172.766713,0.000000
4145.431517,-11103.089130,-5745.716235,222.061783
4145.431841,-222.061783,-5975.544884,592.164754
4145.432165,8512.368333,-2604.724693,814.226536
4145.432489,16654.633695,-4519.963438,1258.350101
4145.432813,21836.075289,-4903.011187,-2442.679609
4145.433137,18949.272115,-6435.202183,888.247130
4145.433462,13175.665768,-7354.516781,-518.144159
4145.433786,6957.935855,-12257.527968,2220.617826
4145.434110,-8290.306550,-10495.508323,-3923.091493
4145.434434,-13693.809927,-16471.053207,1184.329507
4145.434758,-19985.560434,-10189.070123,-2220.617826
4145.435083,-20207.622217,-11031.775171,-666.185348
4145.435407,-14063.912898,-9193.145976,-370.102971
4145.435731,-8290.306550,-4596.572988,814.226536
4145.436055,3478.967927,-4749.792088,2072.576638
4145.436379,12731.542202,-3140.991542,1480.411884
4145.436704,19097.313304,-7814.174080,-1184.329507
4145.437028,20947.828159,-5132.839837,-1332.370696
4145.437352,17172.777854,-7967.393179,1924.535449
4145.437676,10066.800811,-9729.412825,74.020594
4145.438000,-2368.659014,-11261.603821,-666.185348
4145.438324,-9030.512492,-13789.718964,222.061783
4145.438649,-17542.880825,-12410.747068,-1998.556043
4145.438973,-21169.889941,-10189.070123,-1110.308913
4145.439297,-16136.489536,-10342.289223,-148.041188
4145.439621,-9622.677246,-6588.421283,518.144159
4145.439945,1554.432478,-5209.449386,1258.350101
4145.440270,11843.295072,-3983.696590,740.205942
4145.440594,18801.230927,-6205.373534,-592.164754
4145.440918,20725.766376,-6128.763984,-1554.432478
4145.441242,20133.601622,-8120.612279,148.041188
4145.441566,11251.130318,-7354.516781,222.061783
4145.441890,1702.473667,-12104.308868,888.247130
4145.442215,-10214.842000,-11797.870669,-3182.885551
4145.442539,-15322.262999,-15168.690860,-666.185348
4145.442863,-20799.786970,-10801.946522,-2886.803174
4145.443187,-20429.683999,-11261.603821,-518.144159
4145.443511,-14063.912898,-8120.612279,-1184.329507
4145.443836,-6513.812290,-4903.011187,518.144159
4145.444160,11177.109724,-5822.325785,4145.153275
4145.444484,15692.365970,-2681.334243,-2368.659014
4145.444808,21688.034101,-9422.974625,-1258.350101
4145.445132,21243.910535,-5209.449386,-1406.391290
4145.445457,16136.489536,-10342.289223,814.226536
4145.445781,8290.306550,-10878.556072,296.082377
4145.446105,-4663.297435,-12487.356617,-1332.370696
4145.446429,-12657.521608,-14019.547613,-1258.350101
4145.446753,-20207.622217,-10342.289223,-1332.370696
4145.447077,-22280.198854,-11568.042020,-2146.597232
4145.447402,-13915.871710,-10725.336972,-1332.370696
4145.447726,-6439.791695,-4903.011187,740.205942
4145.448050,3108.864956,-5592.497135,222.061783
4145.448374,13841.851115,-5056.230287,1776.494261
4145.448698,19097.313304,-4596.572988,-518.144159
4145.449023,21984.116477,-8580.269578,-2220.617826
4145.449347,19023.292709,-7201.297681,148.041188
4145.449671,10066.800811,-9576.193725,1480.411884
4145.449995,-1776.494261,-11184.994271,-1554.432478
4145.450319,-9918.759623,-12104.308868,-296.082377
4145.450643,-19245.354492,-11874.480219,-2368.659014
4145.450968,-21762.054695,-10342.289223,-1184.329507
4145.451292,-16802.674883,-10265.679673,-592.164754
4145.451616,-12287.418637,-7201.297681,-592.164754
4145.451940,-1258.350101,-5209.449386,2886.803174
4145.452264,11177.109724,-3370.820191,2516.700203
4145.452589,18209.066173,-6665.030833,444.123565
4145.452913,21465.972318,-5286.058936,-2146.597232
4145.453237,20947.828159,-7967.393179,592.164754
4145.453561,13841.851115,-7584.345430,1184.329507
4145.453885,4885.359217,-11261.603821,962.267725
4145.454210,-10807.006753,-10342.289223,-2590.720797
4145.454534,-18357.107362,-13100.233016,1332.370696
4145.454858,-19615.457463,-10265.679673,-2072.576638
4145.455182,-17616.901420,-12410.747068,-1998.556043
4145.455506,-11399.171507,-6665.030833,-444.123565
4145.455830,-2368.659014,-5286.058936,1554.432478
4145.456155,5847.626942,-5286.058936,814.226536
4145.456479,15470.304188,-5439.278036,2368.659014
4145.456803,21391.951724,-6741.640382,-592.164754
4145.457127,19763.498651,-5439.278036,-1184.329507
4145.457451,16580.613101,-7201.297681,-962.267725
4145.457776,8290.306550,-10572.117872,740.205942
4145.458100,-5107.421000,-11414.822920,-1258.350101
4145.458424,-13249.686362,-13789.718964,0.000000
4145.458748,-21465.972318,-11491.432470,-2146.597232
4145.459072,-20207.622217,-10725.336972,-1258.350101
4145.459397,-15766.386565,-10342.289223,-1480.411884
4145.459721,-9474.636058,-5975.544884,74.020594
4145.460045,1184.329507,-5286.058936,2590.720797
4145.460369,12065.356855,-5362.668486,2072.576638
4145.460693,19911.539840,-7201.297681,-1998.556043
4145.461017,20725.766376,-6818.249932,-3552.988522
4145.461342,18283.086767,-7277.907231,518.144159
4145.461666,10807.006753,-10572.117872,370.102971
4145.461990,1850.514855,-12104.308868,-222.061783
4145.462314,-13693.809927,-11721.261119,-3627.009116
4145.462638,-18283.086767,-14249.376263,0.000000
4145.462963,-20133.601622,-8656.879127,-2146.597232
4145.463287,-17024.736666,-12410.747068,-1258.350101
4145.463611,-9326.594869,-6971.469032,-592.164754
4145.463935,-3182.885551,-4826.401637,0.000000
4145.464259,12657.521608,-6358.592633,3478.967927
4145.464583,17764.942608,-3447.429741,-2442.679609
4145.464908,21836.075289,-10648.727422,-2220.617826
4145.465232,19615.457463,-5592.497135,-1406.391290
4145.465556,11103.089130,-9193.145976,592.164754
4145.465880,666.185348,-11338.213370,-1628.453072
4145.466204,-7179.997637,-11414.822920,518.144159
4145.466529,-15692.365970,-13483.280765,-1850.514855
4145.466853,-20725.766376,-10265.679673,-2886.803174
4145.467177,-19319.375086,-12257.527968,-666.185348
4145.467501,-14285.974681,-7354.516781,-1480.411884
4145.467825,-3330.926739,-6205.373534,3034.844362
4145.468150,7624.121203,-4673.182538,0.000000
4145.468474,17098.757260,-5975.544884,1998.556043
4145.468798,21169.889941,-4213.525239,-1702.473667
4145.469122,21614.013506,-8810.098227,-518.144159
4145.469446,14656.077652,-7201.297681,-1628.453072
4145.469770,5403.503377,-12180.918418,1184.329507
4145.470095,-4737.318029,-10495.508323,74.020594
4145.470419,-14952.160028,-12640.575717,222.061783
4145.470743,-21317.931130,-11184.994271,-1406.391290
4145.471067,-19689.478057,-11797.870669,-962.267725
4145.471391,-14804.118840,-8044.002729,-1184.329507
4145.471716,-3404.947333,-7354.516781,1776.494261
4145.472040,6143.709319,-4826.401637,1406.391290
4145.472364,14211.954086,-4290.134789,962.267725
4145.472688,20355.663405,-6281.983084,0.000000
4145.473012,21317.931130,-6435.202183,-1628.453072
4145.473336,16876.695478,-9576.193725,0.000000
4145.473661,8216.285956,-9193.145976,-1628.453072
4145.473985,-2886.803174,-12410.747068,888.247130
4145.474309,-13693.809927,-11568.042020,-592.164754
4145.474633,-18135.045579,-13713.109414,-592.164754
4145.474957,-20873.807564,-10035.851024,-1776.494261
4145.475282,-16728.654289,-8044.002729,592.164754
4145.475606,-9696.697840,-7124.688131,740.205942
4145.475930,-296.082377,-2987.772442,1184.329507
4145.476254,13693.809927,-6358.592633,3552.988522
4145.476578,18357.107362,-4060.306139,-2368.659014
4145.476903,21317.931130,-7431.126331,74.020594
4145.477227,18949.272115,-7814.174080,-1998.556043
4145.477551,13323.706956,-11184.994271,1332.370696
4145.477875,-1332.370696,-7660.954980,-2812.782580
4145.478199,-8660.409521,-15628.348159,1924.535449
4145.478523,-16876.695478,-10725.336972,-2442.679609
4145.478848,-20503.704593,-13330.061665,-1184.329507
4145.479172,-17468.860231,-9269.755526,-592.164754
4145.479496,-12879.583391,-6818.249932,-222.061783
4145.479820,-2368.659014,-6435.202183,1036.288319
4145.480144,8364.327145,-4596.572988,-1332.370696
4145.480469,18949.272115,-6665.030833,1258.350101
4145.480793,22058.137072,-4596.572988,-296.082377
4145.481117,21021.848753,-7890.783629,-1850.514855
4145.481441,15914.427753,-9116.536426,518.144159
4145.481765,6291.750507,-10648.727422,-740.205942
4145.482089,-5033.400406,-13559.890315,-592.164754
4145.482414,-14285.974681,-11491.432470,-740.205942
4145.482738,-22280.198854,-12563.966167,-1258.350101
4145.483062,-21317.931130,-11184.994271,-1924.535449
4145.483386,-16506.592507,-7967.393179,-370.102971
4145.483710,-8586.388927,-7048.078582,444.123565
4145.484035,1184.329507,-4213.525239,148.041188
4145.484359,13175.665768,-5056.230287,1850.514855
4145.484683,20355.663405,-7814.174080,-1184.329507
4145.485007,22650.301825,-6358.592633,-1258.350101
4145.485331,18653.189738,-9806.022374,-666.185348
4145.485656,11399.171507,-9806.022374,-370.102971
4145.485980,-2220.617826,-11721.261119,-1258.350101
4145.486304,-10584.944971,-13406.671215,518.144159
4145.486628,-19023.292709,-11491.432470,-370.102971
4145.486952,-20207.622217,-10418.898773,-1554.432478
4145.487276,-15396.283594,-9269.755526,-666.185348
4145.487601,-12065.356855,-5898.935335,-370.102971
4145.487925,962.267725,-5286.058936,518.144159
4145.488249,7105.977043,-4136.915689,-1110.308913
4145.488573,19319.375086,-8427.050478,296.082377
4145.488897,20503.704593,-5209.449386,-1480.411884
4145.489222,21243.910535,-8197.221829,296.082377
4145.489546,13323.706956,-8197.221829,-518.144159
4145.489870,4737.318029,-11721.261119,0.000000
4145.490194,-10732.986159,-12257.527968,-1480.411884
4145.490518,-17616.901420,-12717.185267,-592.164754
4145.490843,-20873.807564,-11951.089769,-1036.288319
4145.491167,-20133.601622,-9499.584175,-1924.535449
4145.491491,-15322.262999,-7124.688131,592.164754
4145.491815,-7846.182985,-4443.353888,-740.205942
4145.492139,6291.750507,-4903.011187,3997.112087
4145.492463,12509.480420,-3677.258390,-1110.308913
4145.492788,23094.425390,-9422.974625,-296.082377
4145.493112,20651.745782,-6205.373534,-740.205942
4145.493436,16580.613101,-9116.536426,666.185348
4145.493760,10362.883188,-10801.946522,1554.432478
4145.494084,-1332.370696,-11184.994271,-1554.432478
4145.494409,-11843.295072,-13330.061665,-666.185348
4145.494733,-17542.880825,-9882.631924,-1258.350101
4145.495057,-20873.807564,-10265.679673,1406.391290
4145.495381,-16802.674883,-7431.126331,-2368.659014
4145.495705,-9104.533087,-7124.688131,0.000000
4145.496029,2664.741391,-2681.334243,-1036.288319
4145.496354,10436.903782,-6588.421283,444.123565
4145.496678,20133.601622,-7890.783629,1110.308913
4145.497002,21243.910535,-7967.393179,-666.185348
4145.497326,17838.963202,-7507.735880,-814.226536
4145.497650,11399.171507,-9806.022374,1110.308913
4145.497975,1110.308913,-12487.356617,-1406.391290
4145.498299,-10436.903782,-12947.013916,-1110.308913
4145.498623,-15988.448347,-10342.289223,-1184.329507
4145.498947,-21762.054695,-11951.089769,-1184.329507
4145.499271,-19097.313304,-7584.345430,-1776.494261
4145.499596,-12657.521608,-7354.516781,-1628.453072
4145.499920,-4737.318029,-3907.087040,296.082377
4145.500244,8586.388927,-5439.278036,2516.700203
4145.500568,18505.148550,-6052.154434,1184.329507
4145.500892,21984.116477,-7507.735880,-518.144159
4145.501216,19097.313304,-7967.393179,-148.041188
4145.501541,12805.562797,-10418.898773,0.000000
4145.501865,4663.297435,-11414.822920,-370.102971
4145.502189,-5773.606348,-11797.870669,-1110.308913
4145.502513,-14434.015869,-12257.527968,-740.205942
4145.502837,-19985.560434,-10112.460574,-1554.432478
4145.503162,-18727.210333,-9806.022374,-2368.659014
4145.503486,-12435.459826,-8503.660028,-1258.350101
4145.503810,-3478.967927,-4519.963438,148.041188
4145.504134,6587.832884,-5822.325785,1184.329507
4145.504458,17246.798449,-5592.497135,592.164754
4145.504782,19467.416275,-7354.516781,0.000000
4145.505107,21762.054695,-7890.783629,-1776.494261
4145.505431,15914.427753,-8733.488677,0.000000
4145.505755,8586.388927,-10648.727422,0.000000
4145.506079,-5329.482782,-10265.679673,-1258.350101
4145.506403,-14137.933492,-11874.480219,-592.164754
4145.506728,-20133.601622,-11951.089769,-1184.329507
4145.507052,-20133.601622,-10035.851024,-2294.638420
4145.507376,-16358.551318,-8503.660028,-666.185348
4145.507700,-11325.150913,-5745.716235,-518.144159
4145.508024,740.205942,-4519.963438,1332.370696
4145.508349,13175.665768,-5592.497135,3108.864956
4145.508673,20429.683999,-6894.859482,-296.082377
4145.508997,23094.425390,-9576.193725,-370.102971
4145.509321,19837.519246,-7814.174080,-1850.514855
4145.509645,11843.295072,-11644.651570,1332.370696
4145.509969,1036.288319,-9882.631924,-1628.453072
4145.510294,-9178.553681,-13023.623466,74.020594
4145.510618,-17468.860231,-10955.165621,-888.247130
4145.510942,-20799.786970,-9422.974625,-740.205942
4145.511266,-17616.901420,-9269.755526,-962.267725
4145.511590,-10807.006753,-6052.154434,-962.267725
4145.511915,-2590.720797,-5056.230287,1628.453072
4145.512239,8808.450710,-5056.230287,888.247130
4145.512563,17616.901420,-6588.421283,1184.329507
4145.512887,22206.178260,-7814.174080,-1554.432478
4145.513211,20799.786970,-8273.831378,-592.164754
4145.513535,14434.015869,-9039.926876,-296.082377
4145.513860,5255.462188,-10878.556072,-222.061783
4145.514184,-9622.677246,-11338.213370,-1776.494261
4145.514508,-18061.024985,-12257.527968,-74.020594
4145.514832,-20947.828159,-10495.508323,-1850.514855
4145.515156,-21169.889941,-9806.022374,-1924.535449
4145.515481,-17542.880825,-7354.516781,-740.205942
4145.515805,-7846.182985,-4749.792088,-148.041188
4145.516129,5033.400406,-5515.887586,3552.988522
4145.516453,14434.015869,-5822.325785,370.102971
4145.516777,21762.054695,-8656.879127,-666.185348
4145.517102,22576.281231,-7277.907231,-1110.308913
4145.517426,16876.695478,-8350.440928,-444.123565
4145.517750,9696.697840,-12257.527968,-592.164754
4145.518074,-2590.720797,-11951.089769,-1628.453072
4145.518398,-12583.501014,-12410.747068,-148.041188
4145.518722,-20429.683999,-9806.022374,-1110.308913
4145.519047,-20207.622217,-10035.851024,-666.185348
4145.519371,-17542.880825,-8886.707777,-1998.556043
4145.519695,-7772.162391,-5898.935335,0.000000
4145.520019,1110.308913,-5132.839837,-296.082377
4145.520344,12805.562797,-6435.202183,1406.391290
4145.520668,20429.683999,-6894.859482,-666.185348
4145.520992,22502.260637,-8503.660028,-2220.617826
4145.521317,19097.313304,-9193.145976,-814.226536
4145.521641,11843.295072,-9576.193725,222.061783
4145.521965,2368.659014,-11491.432470,-888.247130
4145.522289,-9844.739029,-10955.165621,-1258.350101
4145.522614,-18135.045579,-10648.727422,-1110.308913
4145.522938,-22058.137072,-10035.851024,-1258.350101
4145.523262,-18431.127956,-8733.488677,0.000000
4145.523587,-13323.706956,-5592.497135,-296.082377
4145.523911,-3552.988522,-5822.325785,1036.288319
4145.524235,9548.656652,-4826.401637,2294.638420
4145.524559,18505.148550,-6052.154434,370.102971
4145.524884,22206.178260,-7660.954980,-1332.370696
4145.525208,19763.498651,-7354.516781,0.000000
4145.525532,13841.851115,-11568.042020,-814.226536
4145.525856,5847.626942,-11644.651570,444.123565
4145.526181,-9844.739029,-11031.775171,-2664.741391
4145.526505,-15322.262999,-13100.233016,-74.020594
4145.526829,-19319.375086,-8810.098227,-592.164754
4145.527154,-18357.107362,-10418.898773,-2294.638420
4145.527478,-11843.295072,-7507.735880,148.041188
4145.527802,-5181.441594,-3983.696590,-518.144159
4145.528126,6143.709319,-5362.668486,1554.432478
4145.528451,18357.107362,-5362.668486,1850.514855
4145.528775,22058.137072,-8044.002729,-962.267725
4145.529099,21836.075289,-7660.954980,-1110.308913
4145.529424,16580.613101,-7431.126331,370.102971
4145.529748,6217.729913,-12180.918418,-1184.329507
4145.530072,-4071.132681,-11031.775171,-814.226536
4145.530396,-14878.139434,-11414.822920,-1110.308913
4145.530721,-20725.766376,-11261.603821,-1036.288319
4145.531045,-19689.478057,-9422.974625,-592.164754
4145.531369,-16284.530724,-8197.221829,-1036.288319
4145.531693,-9770.718434,-6128.763984,814.226536
4145.532018,2516.700203,-3294.210641,1554.432478
4145.532342,12509.480420,-6971.469032,1480.411884
4145.532666,20059.581028,-6665.030833,-592.164754
4145.532991,20873.807564,-8810.098227,-370.102971
4145.533315,15322.262999,-7584.345430,-1258.350101
4145.533639,10066.800811,-13176.842566,74.020594
4145.533963,-1110.308913,-11338.213370,-2886.803174
4145.534288,-9992.780217,-13636.499864,518.144159
4145.534612,-18209.066173,-8963.317327,-2664.741391
4145.534936,-20281.642811,-10572.117872,74.020594
4145.535261,-15618.345376,-8427.050478,-1184.329507
4145.535585,-9030.512492,-6281.983084,962.267725
4145.535909,-444.123565,-4443.353888,222.061783
4145.536233,9918.759623,-4903.011187,1998.556043
4145.536558,18875.251521,-5362.668486,148.041188
4145.536882,21539.992912,-7737.564530,-740.205942
4145.537206,19985.560434,-7584.345430,-444.123565
4145.537530,11843.295072,-9346.365076,-1850.514855
4145.537855,2590.720797,-12947.013916,-1480.411884
4145.538179,-7476.080014,-11491.432470,-1702.473667
4145.538503,-16358.551318,-12257.527968,-518.144159
4145.538828,-22650.301825,-8886.707777,-1924.535449
4145.539152,-18875.251521,-11338.213370,-222.061783
4145.539476,-13249.686362,-5898.935335,-1332.370696
4145.539800,-3923.091493,-6052.154434,1628.453072
4145.540125,7031.956449,-4060.306139,1628.453072
4145.540449,17542.880825,-6052.154434,592.164754
4145.540773,21243.910535,-6588.421283,-1554.432478
4145.541097,21391.951724,-9959.241474,1036.288319
4145.541422,14952.160028,-7737.564530,-1480.411884
4145.541746,6661.853478,-11951.089769,1258.350101
4145.542070,-6513.812290,-10189.070123,-3627.009116
4145.542395,-14211.954086,-13789.718964,148.041188
4145.542719,-17838.963202,-9269.755526,-814.226536
4145.543043,-18949.272115,-9882.631924,-518.144159
4145.543367,-15396.283594,-8810.098227,-740.205942
4145.543692,-8586.388927,-4826.401637,592.164754
4145.544016,1776.494261,-5439.278036,0.000000
4145.544340,17246.798449,-6511.811733,2368.659014
4145.544665,22058.137072,-5132.839837,-1184.329507
4145.544989,21688.034101,-7967.393179,222.061783
4145.545313,17912.983796,-7431.126331,-1924.535449
4145.545637,9252.574275,-13176.842566,-1332.370696
4145.545962,-148.041188,-12717.185267,-1554.432478
4145.546286,-9178.553681,-11874.480219,-222.061783
4145.546610,-19245.354492,-11184.994271,0.000000
4145.546934,-21317.931130,-8886.707777,-1036.288319
4145.547259,-17468.860231,-10112.460574,222.061783
4145.547583,-12583.501014,-5132.839837,-1184.329507
4145.547907,-3849.070898,-5209.449386,1258.350101
4145.548232,10140.821405,-4826.401637,1628.453072
4145.548556,19171.333898,-7584.345430,814.226536
4145.548880,23760.610738,-6894.859482,-1924.535449
4145.549204,19171.333898,-8427.050478,888.247130
4145.549529,12657.521608,-9806.022374,-1258.350101
4145.549853,5033.400406,-12793.794817,222.061783
4145.550177,-8290.306550,-11644.651570,-2368.659014
4145.550502,-15100.201217,-13100.233016,592.164754
4145.550826,-20355.663405,-8427.050478,-1332.370696
4145.551150,-19763.498651,-10495.508323,-296.082377
4145.551474,-14359.995275,-7507.735880,74.020594
4145.551799,-6513.812290,-4826.401637,74.020594
4145.552123,6365.771101,-6971.469032,666.185348
4145.552447,16654.633695,-5286.058936,370.102971
4145.552771,20503.704593,-7737.564530,0.000000
4145.553096,20799.786970,-7967.393179,-962.267725
4145.553420,15544.324782,-7584.345430,148.041188
4145.553744,9178.553681,-12870.404366,74.020594
4145.554069,-2368.659014,-11261.603821,-2072.576638
4145.554393,-11621.233289,-13023.623466,-1184.329507
4145.554717,-17764.942608,-9193.145976,-2368.659014
4145.555041,-19541.436869,-9576.193725,-592.164754
4145.555366,-18505.148550,-9039.926876,-370.102971
4145.555690,-9474.636058,-6128.763984,1184.329507
4145.556014,444.123565,-4673.182538,1702.473667
4145.556339,10807.006753,-5362.668486,-1702.473667
4145.556663,20133.601622,-8810.098227,1184.329507
4145.556987,20429.683999,-6894.859482,-1554.432478
4145.557311,17172.777854,-10418.898773,0.000000
4145.557636,10584.944971,-11031.775171,-592.164754
4145.557960,222.061783,-12793.794817,-592.164754
4145.558284,-7179.997637,-10572.117872,-1110.308913
4145.558608,-16876.695478,-9959.241474,-3034.844362
4145.558933,-18431.127956,-12104.308868,222.061783
4145.559257,-16876.695478,-7048.078582,-962.267725
4145.559581,-11621.233289,-7890.783629,444.123565
4145.559906,-4071.132681,-4443.353888,0.000000
4145.560230,8586.388927,-4903.011187,1924.535449
4145.560554,18357.107362,-5745.716235,444.123565
4145.560878,23094.425390,-8044.002729,-592.164754
4145.561203,19171.333898,-8273.831378,-962.267725
4145.561527,13471.748144,-10572.117872,-666.185348
4145.561851,4959.379811,-11338.213370,-888.247130
4145.562175,-4441.235652,-12257.527968,-592.164754
4145.562500,-14804.118840,-9729.412825,-1702.473667
4145.562824,-20503.704593,-9039.926876,-518.144159
4145.563148,-18579.169144,-9039.926876,-962.267725
4145.563473,-15248.242405,-8427.050478,-962.267725
4145.563797,-7698.141797,-6281.983084,-370.102971
4145.564121,1406.391290,-5592.497135,1332.370696
4145.564445,16728.654289,-6511.811733,1554.432478
4145.564770,20281.642811,-5439.278036,296.082377
4145.565094,21836.075289,-7967.393179,0.000000
4145.565418,14730.098246,-7584.345430,-296.082377
4145.565743,7328.038826,-12257.527968,0.000000
4145.566067,-1702.473667,-11874.480219,-1702.473667
4145.566391,-12879.583391,-10725.336972,-1332.370696
4145.566715,-18949.272115,-9269.755526,0.000000
4145.567040,-19393.395680,-7814.174080,-888.247130
4145.567364,-15618.345376,-10418.898773,-518.144159
4145.567688,-8438.347739,-5898.935335,0.000000
4145.568012,-1036.288319,-4673.182538,518.144159
4145.568337,12953.603985,-6052.154434,1554.432478
4145.568661,20503.704593,-5669.106685,1110.308913
4145.568985,23242.466579,-9039.926876,-296.082377
4145.569310,17987.004391,-7814.174080,-1924.535449
4145.569634,10955.047942,-12104.308868,-370.102971
4145.569958,1036.288319,-12257.527968,-2072.576638
4145.570282,-9548.656652,-11644.651570,-1776.494261
4145.570607,-17912.983796,-11108.384721,-1184.329507
4145.570931,-21836.075289,-8197.221829,-666.185348
4145.571255,-18949.272115,-7967.393179,296.082377
4145.571580,-13323.706956,-8886.707777,-222.061783
4145.571904,-6735.874072,-3983.696590,0.000000
4145.572228,8216.285956,-7277.907231,2220.617826
4145.572552,17838.963202,-5439.278036,1258.350101
4145.572877,21317.931130,-7584.345430,-296.082377
4145.573201,19763.498651,-7431.126331,-1258.350101
4145.573525,13915.871710,-9116.536426,-370.102971
4145.573849,5181.441594,-12104.308868,-1480.411884
4145.574174,-5329.482782,-11874.480219,-888.247130
4145.574498,-13767.830521,-10495.508323,-518.144159
4145.574822,-19393.395680,-9499.584175,-666.185348
4145.575147,-19393.395680,-9346.365076,-222.061783
4145.575471,-13397.727550,-7890.783629,-740.205942
4145.575795,-5107.421000,-5592.497135,370.102971
4145.576119,5403.503377,-4673.182538,1702.473667
4145.576444,16802.674883,-8427.050478,888.247130
4145.576768,20133.601622,-5822.325785,-1184.329507
4145.577092,21614.013506,-10648.727422,518.144159
4145.577417,15322.262999,-7354.516781,-3256.906145
4145.577741,9326.594869,-12717.185267,-370.102971
4145.578065,-1776.494261,-10418.898773,-1332.370696
4145.578389,-12287.418637,-12563.966167,-1628.453072
4145.578714,-18653.189738,-8886.707777,-592.164754
4145.579038,-20503.704593,-9039.926876,814.226536
4145.579362,-19319.375086,-8273.831378,-1332.370696
4145.579686,-12139.377449,-6511.811733,-888.247130
4145.580011,-1258.350101,-5898.935335,1110.308913
4145.580335,13471.748144,-6818.249932,222.061783
4145.580659,20799.786970,-6205.373534,-296.082377
4145.580984,22132.157666,-7814.174080,0.000000
4145.581308,18875.251521,-7431.126331,-592.164754
4145.581632,11843.295072,-11261.603821,444.123565
4145.581956,2516.700203,-11491.432470,-1924.535449
4145.582281,-5477.523971,-11951.089769,-296.082377
4145.582605,-17616.901420,-9193.145976,-1850.514855
4145.582929,-19393.395680,-10342.289223,740.205942
4145.583254,-15988.448347,-8273.831378,-592.164754
4145.583578,-12953.603985,-7660.954980,-1258.350101
4145.583902,-4441.235652,-6358.592633,1480.411884
4145.584226,3627.009116,-3983.696590,518.144159
4145.584551,19245.354492,-9193.145976,296.082377
4145.584875,21317.931130,-7584.345430,-1998.556043
4145.585199,21021.848753,-8273.831378,-592.164754
4145.585523,13471.748144,-7354.516781,-444.123565
4145.585848,5921.647536,-11721.261119,-740.205942
4145.586172,-4219.173869,-12793.794817,444.123565
4145.586496,-14211.954086,-10035.851024,-2146.597232
4145.586821,-18875.251521,-9806.022374,0.000000
4145.587145,-18875.251521,-8503.660028,-592.164754
4145.587469,-16284.530724,-7124.688131,-296.082377
4145.587793,-7698.141797,-6971.469032,-370.102971
4145.588118,2738.761985,-5975.544884,1628.453072
4145.588442,14211.954086,-6511.811733,814.226536
4145.588766,20947.828159,-6511.811733,-962.267725
4145.589090,20281.642811,-7660.954980,0.000000
4145.589415,16062.468941,-8733.488677,-2072.576638
4145.589739,8882.471304,-11031.775171,-370.102971
4145.590063,-518.144159,-10801.946522,-1036.288319
4145.590388,-11177.109724,-12257.527968,-740.205942
4145.590712,-17912.983796,-9269.755526,-518.144159
4145.591036,-18875.251521,-9193.145976,-592.164754
4145.591360,-15988.448347,-9039.926876,-1406.391290
4145.591685,-10362.883188,-7201.297681,-444.123565
4145.592009,296.082377,-4673.182538,1776.494261
4145.592333,10510.924376,-6052.154434,2146.597232
4145.592658,16728.654289,-6818.249932,-1406.391290
4145.592982,21095.869347,-8963.317327,0.000000
4145.593306,17987.004391,-7814.174080,-1998.556043
4145.593630,10214.842000,-11721.261119,-296.082377
4145.593955,1480.411884,-11261.603821,-444.123565
4145.594279,-7920.203579,-12793.794817,-592.164754
4145.594603,-14582.057057,-9269.755526,-1776.494261
4145.594927,-21317.931130,-8733.488677,0.000000
4145.595252,-18357.107362,-8503.660028,0.000000
4145.595576,-11695.253884,-8580.269578,-518.144159
4145.595900,-5551.544565,-4596.572988,0.000000
4145.596225,8142.265362,-6052.154434,1628.453072
4145.596549,16580.613101,-5132.839837,814.226536
4145.596873,19837.519246,-7124.688131,-148.041188
4145.597197,19023.292709,-8120.612279,-296.082377
4145.597522,11473.192101,-9576.193725,-518.144159
4145.597846,3330.926739,-12640.575717,-1480.411884
4145.598170,-4663.297435,-11108.384721,-1184.329507
4145.598495,-14285.974681,-11261.603821,888.247130
4145.598819,-18579.169144,-8580.269578,-740.205942
4145.599143,-16802.674883,-9806.022374,0.000000
4145.599467,-13027.624579,-6818.249932,370.102971
4145.599792,-5477.523971,-6205.373534,444.123565
4145.600116,8216.285956,-4903.011187,1628.453072
4145.600440,16580.613101,-5132.839837,1184.329507
4145.600764,21465.972318,-5592.497135,518.144159
4145.601089,20725.766376,-8197.221829,0.000000
4145.601413,15322.262999,-8733.488677,-1702.473667
4145.601737,7402.059420,-12870.404366,222.061783
4145.602062,-4737.318029,-10342.289223,-3552.988522
4145.602386,-11769.274478,-13559.890315,2368.659014
4145.602710,-18431.127956,-8197.221829,-2294.638420
4145.603034,-18875.251521,-11031.775171,814.226536
4145.603359,-15766.386565,-6818.249932,-666.185348
4145.603683,-10066.800811,-7124.688131,962.267725
4145.604007,4145.153275,-5056.230287,888.247130
4145.604332,14582.057057,-4596.572988,740.205942
4145.604656,18579.169144,-6281.983084,0.000000
4145.604980,21021.848753,-6818.249932,666.185348
4145.605304,16802.674883,-7814.174080,-1110.308913
4145.605629,9622.677246,-12104.308868,0.000000
4145.605953,2072.576638,-10648.727422,-2886.803174
4145.606277,-9696.697840,-12334.137518,-888.247130
4145.606601,-17024.736666,-10035.851024,-814.226536
4145.606926,-18653.189738,-10495.508323,296.082377
4145.607250,-16654.633695,-8886.707777,-296.082377
4145.607574,-11991.336260,-7354.516781,444.123565
4145.607899,-3923.091493,-5056.230287,370.102971
4145.608223,9622.677246,-7124.688131,1036.288319
4145.608547,20355.663405,-6128.763984,-296.082377
4145.608871,22354.219448,-6588.421283,-1332.370696
4145.609196,18283.086767,-7890.783629,222.061783
4145.609520,11547.212695,-9116.536426,-1924.535449
4145.609844,4589.276840,-13406.671215,-814.226536
4145.610169,-6069.688724,-11108.384721,-1850.514855
4145.610493,-13989.892304,-12180.918418,-592.164754
4145.610817,-19985.560434,-7584.345430,-518.144159
4145.611141,-19911.539840,-9652.803275,0.000000
4145.611466,-14952.160028,-8503.660028,148.041188
4145.611790,-6661.853478,-5515.887586,444.123565
4145.612114,3478.967927,-5056.230287,740.205942
4145.612438,15544.324782,-5286.058936,-370.102971
4145.612763,19837.519246,-6588.421283,-1628.453072
4145.613087,17838.963202,-7431.126331,-1258.350101
4145.613411,15322.262999,-10035.851024,-222.061783
4145.613736,6661.853478,-12334.137518,-1628.453072
4145.614060,-2072.576638,-11874.480219,-1628.453072
4145.614384,-11917.315666,-10725.336972,-1850.514855
4145.614708,-17838.963202,-10572.117872,666.185348
4145.615033,-19171.333898,-8733.488677,0.000000
4145.615357,-14359.995275,-8503.660028,0.000000
4145.615681,-8734.430116,-7354.516781,296.082377
4145.616005,74.020594,-5132.839837,296.082377
4145.616330,10288.862594,-5515.887586,148.041188
4145.616654,20133.601622,-6358.592633,1110.308913
4145.616978,21317.931130,-7354.516781,-1406.391290
4145.617303,17616.901420,-8810.098227,-222.061783
4145.617627,10288.862594,-10035.851024,-592.164754
4145.617951,2072.576638,-11951.089769,-666.185348
4145.618275,-9030.512492,-11721.261119,-1406.391290
4145.618600,-16062.468941,-10955.165621,-296.082377
4145.618924,-18357.107362,-9422.974625,444.123565
4145.619248,-16802.674883,-9422.974625,0.000000
4145.619573,-13397.727550,-7048.078582,444.123565
4145.619898,-4293.194464,-5209.449386,222.061783
4145.620223,7846.182985,-5515.887586,74.020594
4145.620547,17987.004391,-7584.345430,-740.205942
4145.620871,20947.828159,-6588.421283,-1332.370696
4145.621196,18061.024985,-8120.612279,2368.659014
4145.621520,12065.356855,-7354.516781,-1924.535449
4145.621844,6439.791695,-12793.794817,0.000000
4145.622169,-4515.256246,-11184.994271,-2146.597232
4145.622493,-15470.304188,-12027.699319,-592.164754
4145.622817,-18431.127956,-8810.098227,0.000000
4145.623142,-18727.210333,-9806.022374,222.061783
4145.623466,-12139.377449,-9039.926876,74.020594
4145.623790,-3849.070898,-5515.887586,-1850.514855
4145.624114,7179.997637,-7814.174080,1776.494261
4145.624439,14285.974681,-4673.182538,-666.185348
4145.624763,21021.848753,-7814.174080,74.020594
4145.625087,19245.354492,-7354.516781,-1184.329507
4145.625412,13767.830521,-8197.221829,-222.061783
4145.625736,8438.347739,-12257.527968,-1702.473667
4145.626060,-2960.823768,-12717.185267,-2072.576638
4145.626385,-11843.295072,-11491.432470,0.000000
4145.626709,-18579.169144,-9193.145976,-1258.350101
4145.627033,-20577.725188,-10035.851024,74.020594
4145.627358,-15100.201217,-8810.098227,0.000000
4145.627682,-7550.100608,-6281.983084,-1110.308913
4145.628006,4663.297435,-6588.421283,2516.700203
4145.628330,11547.212695,-4290.134789,-888.247130
4145.628655,19171.333898,-7201.297681,-1036.288319
4145.628979,21391.951724,-5975.544884,-1258.350101
4145.629303,14063.912898,-7431.126331,0.000000
4145.629628,9770.718434,-12793.794817,-888.247130
4145.629952,-814.226536,-9882.631924,-2368.659014
4145.630276,-10362.883188,-13789.718964,0.000000
4145.630601,-17690.922014,-8733.488677,-1554.432478
4145.630925,-18505.148550,-11338.213370,1480.411884
4145.631249,-16210.510130,-9806.022374,-1480.411884
4145.631574,-9844.739029,-8350.440928,2368.659014
4145.631898,-2664.741391,-4826.401637,-1998.556043
4145.632222,11547.212695,-8120.612279,3034.844362
4145.632546,16950.716072,-4213.525239,-1702.473667
4145.632871,22132.157666,-8656.879127,148.041188
4145.633195,16506.592507,-5362.668486,-1184.329507
4145.633519,11103.089130,-10648.727422,-444.123565
4145.633844,3108.864956,-11874.480219,-1924.535449
4145.634168,-8734.430116,-10495.508323,-1332.370696
4145.634492,-15470.304188,-12487.356617,592.164754
4145.634817,-19689.478057,-8044.002729,0.000000
4145.635141,-17394.839637,-11261.603821,222.061783
4145.635465,-14878.139434,-7048.078582,-296.082377
4145.635790,-7328.038826,-6588.421283,370.102971
4145.636114,4663.297435,-6128.763984,814.226536
4145.636438,15618.345376,-4903.011187,740.205942
4145.636762,21910.095883,-5975.544884,-962.267725
4145.637087,18579.169144,-6741.640382,-592.164754
4145.637411,14285.974681,-7890.783629,-1480.411884
4145.637735,5847.626942,-13406.671215,-1258.350101
4145.638060,-4811.338623,-11108.384721,-2960.823768
4145.638384,-10807.006753,-13483.280765,1036.288319
4145.638708,-18431.127956,-8427.050478,-592.164754
4145.639033,-20503.704593,-11108.384721,1776.494261
4145.639357,-14952.160028,-8120.612279,-1332.370696
4145.639681,-9400.615463,-7814.174080,1184.329507
4145.640006,2664.741391,-5669.106685,-518.144159
4145.640330,14063.912898,-5898.935335,1480.411884
4145.640654,18801.230927,-6358.592633,-1924.535449
4145.640978,21317.931130,-7967.393179,-1554.432478
4145.641303,18283.086767,-7660.954980,296.082377
4145.641627,9548.656652,-11108.384721,-1184.329507
4145.641951,2738.761985,-12717.185267,-888.247130
4145.642276,-8068.244768,-11338.213370,-1554.432478
4145.642600,-15988.448347,-12027.699319,-814.226536
4145.642924,-19245.354492,-7048.078582,296.082377
4145.643249,-17912.983796,-9806.022374,888.247130
4145.643573,-13767.830521,-6665.030833,148.041188
4145.643897,-3923.091493,-5975.544884,1258.350101
4145.644222,8956.491898,-5822.325785,74.020594
4145.644546,14730.098246,-6588.421283,-814.226536
4145.644870,20651.745782,-6971.469032,-1998.556043
4145.645194,17246.798449,-7277.907231,-370.102971
4145.645519,13027.624579,-9729.412825,-1258.350101
4145.645843,6513.812290,-12257.527968,-2220.617826
4145.646167,-4293.194464,-13406.671215,-1110.308913
4145.646492,-15322.262999,-11031.775171,-1480.411884
4145.646816,-17764.942608,-9193.145976,-592.164754
4145.647140,-18283.086767,-10189.070123,518.144159
4145.647465,-13397.727550,-6665.030833,296.082377
4145.647789,-4663.297435,-6281.983084,-444.123565
4145.648113,6291.750507,-6052.154434,1184.329507
4145.648438,11769.274478,-6358.592633,-1406.391290
4145.648762,22724.322419,-8733.488677,-888.247130
4145.649086,17246.798449,-5975.544884,-1480.411884
4145.649411,15248.242405,-10648.727422,740.205942
4145.649735,8512.368333,-10648.727422,-2072.576638
4145.650059,-2442.679609,-13100.233016,-1406.391290
4145.650383,-8068.244768,-12027.699319,-666.185348
4145.650708,-16802.674883,-8733.488677,-1628.453072
4145.651032,-20281.642811,-10035.851024,1406.391290
4145.651356,-16654.633695,-6894.859482,-148.041188
4145.651681,-10584.944971,-6665.030833,518.144159
4145.652005,1628.453072,-6435.202183,1332.370696
4145.652329,9770.718434,-4903.011187,-814.226536
4145.652654,16802.674883,-7431.126331,-592.164754
4145.652978,18209.066173,-5822.325785,-1110.308913
4145.653302,14285.974681,-9116.536426,444.123565
4145.653627,9474.636058,-11031.775171,-1480.411884
4145.653951,2368.659014,-11568.042020,-1036.288319
4145.654275,-6365.771101,-11951.089769,-814.226536
4145.654599,-15174.221811,-9806.022374,-1776.494261
4145.654924,-17542.880825,-9116.536426,1110.308913
4145.655248,-16284.530724,-8273.831378,0.000000
4145.655572,-11473.192101,-7431.126331,1184.329507
4145.655897,-2960.823768,-5898.935335,962.267725
4145.656221,9992.780217,-4519.963438,2220.617826
4145.656545,16136.489536,-5209.449386,-666.185348
4145.656870,20799.786970,-8044.002729,-666.185348
4145.657194,17838.963202,-7124.688131,-1258.350101
4145.657518,12435.459826,-11184.994271,222.061783
4145.657843,4515.256246,-12180.918418,-370.102971
4145.658167,-9696.697840,-11261.603821,-2738.761985
4145.658491,-12657.521608,-12870.404366,1628.453072
4145.658815,-17764.942608,-8503.660028,-888.247130
4145.659140,-17838.963202,-11031.775171,-148.041188
4145.659464,-14137.933492,-6205.373534,-222.061783
4145.659788,-6957.935855,-6358.592633,1702.473667
4145.660113,3775.050304,-3983.696590,1406.391290
4145.660437,12583.501014,-5898.935335,740.205942
4145.660761,17838.963202,-7048.078582,0.000000
4145.661086,17394.839637,-7277.907231,-370.102971
4145.661410,13545.768739,-10725.336972,-1332.370696
4145.661734,8808.450710,-12487.356617,-1406.391290
4145.662059,-1184.329507,-11721.261119,-1776.494261
4145.662383,-11547.212695,-11721.261119,-1406.391290
4145.662707,-19171.333898,-9193.145976,444.123565
4145.663031,-18209.066173,-8886.707777,1480.411884
4145.663356,-13989.892304,-8197.221829,-666.185348
4145.663680,-8956.491898,-5975.544884,-370.102971
4145.664004,3108.864956,-6052.154434,296.082377
4145.664329,12139.377449,-4903.011187,740.205942
4145.664653,18357.107362,-5898.935335,148.041188
4145.664977,19393.395680,-8273.831378,1184.329507
4145.665302,16950.716072,-7124.688131,-1776.494261
4145.665626,10362.883188,-13789.718964,-962.267725
4145.665950,1332.370696,-14096.157163,-2664.741391
4145.666275,-5329.482782,-12793.794817,-814.226536
4145.666599,-15692.365970,-9806.022374,-962.267725
4145.666923,-20429.683999,-8963.317327,370.102971
4145.667247,-18209.066173,-6818.249932,592.164754
4145.667572,-13101.645173,-6894.859482,666.185348
4145.667896,-814.226536,-5669.106685,370.102971
4145.668220,8660.409521,-4673.182538,-444.123565
4145.668545,15026.180623,-6128.763984,-1554.432478
4145.668869,17912.983796,-5745.716235,-666.185348
4145.669193,17616.901420,-10189.070123,0.000000
4145.669518,12879.583391,-11874.480219,-3034.844362
4145.669842,3997.112087,-14785.643111,-888.247130
4145.670166,-3404.947333,-12640.575717,-3108.864956
4145.670491,-13841.851115,-11108.384721,222.061783
4145.670815,-18949.272115,-7737.564530,-1036.288319
4145.671139,-18949.272115,-7890.783629,814.226536
4145.671463,-12435.459826,-5822.325785,518.144159
4145.671788,-4515.256246,-6358.592633,740.205942
4145.672112,6735.874072,-4519.963438,-370.102971
4145.672436,13323.706956,-4903.011187,-962.267725
4145.672761,21243.910535,-7354.516781,0.000000
4145.673085,18209.066173,-8427.050478,-518.144159
4145.673409,15692.365970,-11261.603821,-740.205942
4145.673734,5847.626942,-12487.356617,-1702.473667
4145.674058,-444.123565,-15398.519510,-1258.350101
4145.674382,-7920.203579,-11338.213370,-814.226536
4145.674707,-16654.633695,-9806.022374,0.000000
4145.675031,-19319.375086,-8197.221829,666.185348
4145.675355,-16432.571912,-4826.401637,444.123565
4145.675680,-9030.512492,-6205.373534,1850.514855
4145.676004,1924.535449,-4979.620737,-740.205942
4145.676328,10214.842000,-5592.497135,-222.061783
4145.676652,15544.324782,-7201.297681,-1110.308913
4145.676977,17246.798449,-8120.612279,-1110.308913
4145.677301,15618.345376,-12257.527968,296.082377
4145.677625,10881.027347,-13330.061665,-2368.659014
4145.677950,2516.700203,-14709.033562,-1184.329507
4145.678274,-5625.565159,-10418.898773,-1332.370696
4145.678598,-14508.036463,-9346.365076,0.000000
4145.678923,-17468.860231,-8044.002729,-296.082377
4145.679247,-16876.695478,-7201.297681,0.000000
4145.679571,-10584.944971,-5822.325785,2220.617826
4145.679896,-3701.029710,-4826.401637,1406.391290
4145.680220,6661.853478,-4290.134789,370.102971
4145.680544,14582.057057,-6894.859482,-1480.411884
4145.680868,17838.963202,-8886.707777,-1184.329507
4145.681193,16802.674883,-9193.145976,-740.205942
4145.681517,10214.842000,-11338.213370,-1184.329507
4145.681841,6661.853478,-13406.671215,-1480.411884
4145.682166,-1924.535449,-12717.185267,-888.247130
4145.682490,-10362.883188,-9116.536426,-370.102971
4145.682814,-18135.045579,-7201.297681,-148.041188
4145.683139,-17246.798449,-8810.098227,666.185348
4145.683463,-13471.748144,-6665.030833,0.000000
4145.683787,-6735.874072,-5898.935335,1702.473667
4145.684112,2590.720797,-5056.230287,1480.411884
4145.684436,9104.533087,-4903.011187,222.061783
4145.684760,17987.004391,-8120.612279,296.082377
4145.685084,17246.798449,-8503.660028,-1480.411884
4145.685409,14508.036463,-12104.308868,-1480.411884
4145.685733,8216.285956,-13483.280765,-2738.761985
4145.686057,-740.205942,-12870.404366,-1702.473667
4145.686382,-8068.244768,-11261.603821,-222.061783
4145.686706,-15322.262999,-8273.831378,-666.185348
4145.687030,-17024.736666,-8350.440928,-148.041188
4145.687355,-14878.139434,-5975.544884,-444.123565
4145.687679,-8734.430116,-6435.202183,1702.473667
4145.688003,444.123565,-4673.182538,888.247130
4145.688328,9770.718434,-6205.373534,666.185348
4145.688652,14878.139434,-7584.345430,-1480.411884
4145.688976,19837.519246,-9652.803275,-2368.659014
4145.689300,14508.036463,-9116.536426,-1406.391290
4145.689625,10584.944971,-12257.527968,-962.267725
4145.689949,1776.494261,-12410.747068,-2294.638420
4145.690273,-7105.977043,-11414.822920,0.000000
4145.690598,-13175.665768,-10342.289223,-148.041188
4145.690922,-18135.045579,-7354.516781,0.000000
4145.691246,-15840.407159,-7660.954980,444.123565
4145.691571,-12509.480420,-6588.421283,-444.123565
4145.691895,-1776.494261,-6588.421283,1406.391290
4145.692219,5107.421000,-4519.963438,222.061783
4145.692544,13767.830521,-7660.954980,1110.308913
4145.692868,16654.633695,-7814.174080,-592.164754
4145.693192,16136.489536,-10572.117872,-222.061783
4145.693516,13545.768739,-11031.775171,-3182.885551
4145.693841,5181.441594,-13789.718964,-1702.473667
4145.694165,-3923.091493,-11797.870669,-1554.432478
4145.694489,-10214.842000,-10878.556072,518.144159
4145.694814,-15840.407159,-7584.345430,222.061783
4145.695138,-17098.757260,-8197.221829,74.020594
4145.695462,-13323.706956,-5362.668486,0.000000
4145.695787,-4515.256246,-5745.716235,1110.308913
4145.696111,4959.379811,-5362.668486,222.061783
4145.696435,14434.015869,-6588.421283,-666.185348
4145.696760,16506.592507,-6894.859482,-1480.411884
4145.697084,16728.654289,-9269.755526,-592.164754
4145.697408,14211.954086,-9729.412825,-1924.535449
4145.697733,8660.409521,-13789.718964,-444.123565
4145.698057,-296.082377,-11951.089769,-2368.659014
4145.698381,-7402.059420,-11644.651570,-296.082377
4145.698705,-14582.057057,-7737.564530,0.000000
4145.699030,-18653.189738,-8120.612279,1554.432478
4145.699354,-15396.283594,-6281.983084,-1184.329507
4145.699678,-10214.842000,-6971.469032,0.000000
4145.700003,74.020594,-5669.106685,1184.329507
4145.700327,8956.491898,-6128.763984,814.226536
4145.700651,14137.933492,-8120.612279,-666.185348
4145.700976,16580.613101,-8810.098227,0.000000
4145.701300,15766.386565,-9729.412825,-2294.638420
4145.701624,10066.800811,-14402.595362,-2442.679609
4145.701949,4145.153275,-12257.527968,-2664.741391
4145.702273,-4145.153275,-12257.527968,296.082377
4145.702597,-13175.665768,-9346.365076,592.164754
4145.702921,-17838.963202,-7814.174080,740.205942
4145.703246,-15470.304188,-7201.297681,962.267725
4145.703570,-10510.924376,-5286.058936,0.000000
4145.703894,-2516.700203,-5898.935335,1036.288319
4145.704219,7179.997637,-5669.106685,296.082377
4145.704543,14730.098246,-5286.058936,-1850.514855
4145.704867,17172.777854,-9499.584175,74.020594
4145.705192,17098.757260,-8044.002729,-2738.761985
4145.705516,12657.521608,-12410.747068,-148.041188
4145.705840,5033.400406,-12334.137518,-1776.494261
4145.706165,-2812.782580,-13559.890315,-1924.535449
4145.706489,-11103.089130,-11184.994271,-444.123565
4145.706813,-17246.798449,-7048.078582,814.226536
4145.707137,-18727.210333,-6741.640382,444.123565
4145.707462,-15914.427753,-6971.469032,0.000000
4145.707786,-7920.203579,-5592.497135,1406.391290
4145.708110,1480.411884,-4290.134789,1406.391290
4145.708435,10732.986159,-5745.716235,444.123565
4145.708759,17912.983796,-7431.126331,-814.226536
4145.709083,18949.272115,-8503.660028,-1110.308913
4145.709408,14285.974681,-10112.460574,-1554.432478
4145.709732,8586.388927,-13713.109414,-1480.411884
4145.710056,962.267725,-12793.794817,-1924.535449
4145.710381,-8068.244768,-13100.233016,0.000000
4145.710705,-14211.954086,-8810.098227,148.041188
4145.711029,-18283.086767,-7814.174080,888.247130
4145.711353,-15322.262999,-6588.421283,-148.041188
4145.711678,-8364.327145,-5975.544884,370.102971
4145.712002,-370.102971,-3753.867940,1258.350101
4145.712326,8216.285956,-5822.325785,1776.494261
4145.712651,14211.954086,-6665.030833,-2072.576638
4145.712975,19097.313304,-9806.022374,-740.205942
4145.713299,14952.160028,-8580.269578,-2220.617826
4145.713624,9918.759623,-12487.356617,-666.185348
4145.713948,3182.885551,-11951.089769,-1406.391290
4145.714272,-5403.503377,-12257.527968,-1776.494261
4145.714597,-11991.336260,-11261.603821,-518.144159
4145.714921,-16802.674883,-6281.983084,888.247130
4145.715245,-16950.716072,-6435.202183,1406.391290
4145.715569,-12139.377449,-5822.325785,-1184.329507
4145.715894,-2368.659014,-6281.983084,1702.473667
4145.716218,4367.215058,-4213.525239,0.000000
4145.716542,12213.398043,-6665.030833,740.205942
4145.716867,16506.592507,-7890.783629,-444.123565
4145.717191,16580.613101,-8963.317327,-1480.411884
4145.717515,12361.439231,-11568.042020,-2072.576638
4145.717840,6957.935855,-13559.890315,-2960.823768
4145.718164,-1332.370696,-12027.699319,-518.144159
4145.718488,-10066.800811,-9346.365076,370.102971
4145.718813,-16950.716072,-9193.145976,962.267725
4145.719137,-16876.695478,-7660.954980,-888.247130
4145.719461,-13767.830521,-6741.640382,370.102971
4145.719785,-6143.709319,-5439.278036,1036.288319
4145.720110,3552.988522,-5056.230287,962.267725
4145.720434,11621.233289,-5209.449386,-370.102971
4145.720759,16802.674883,-7507.735880,-1332.370696
4145.721083,17838.963202,-9576.193725,-2220.617826
4145.721408,14804.118840,-11108.384721,-1480.411884
4145.721732,11029.068536,-12027.699319,-222.061783
4145.722056,2220.617826,-11414.822920,-1554.432478
4145.722381,-8216.285956,-12487.356617,-1406.391290
4145.722705,-13693.809927,-9039.926876,0.000000
4145.723030,-17987.004391,-6588.421283,1924.535449
4145.723354,-16136.489536,-7354.516781,518.144159
4145.723679,-9474.636058,-6741.640382,-740.205942
4145.724003,-296.082377,-4213.525239,1258.350101
4145.724327,6957.935855,-4443.353888,296.082377
4145.724652,13915.871710,-7201.297681,0.000000
4145.724976,17468.860231,-8197.221829,-1110.308913
4145.725301,16210.510130,-9806.022374,-2368.659014
4145.725625,9104.533087,-13406.671215,-2294.638420
4145.725950,3330.926739,-13789.718964,-3256.906145
4145.726274,-4589.276840,-12717.185267,444.123565
4145.726599,-13545.768739,-9806.022374,-444.123565
4145.726923,-17764.942608,-8580.269578,1406.391290
4145.727247,-16358.551318,-6818.249932,592.164754
4145.727572,-10732.986159,-5975.544884,148.041188
4145.727896,-3478.967927,-5439.278036,2220.617826
4145.728221,8142.265362,-4290.134789,370.102971
4145.728545,13249.686362,-6358.592633,-962.267725
4145.728870,16728.654289,-8197.221829,-1480.411884
4145.729194,19171.333898,-9959.241474,-1850.514855
4145.729518,13471.748144,-11414.822920,-1406.391290
4145.729843,6883.915261,-11414.822920,-1184.329507
4145.730167,-2516.700203,-12410.747068,-1702.473667
4145.730492,-10510.924376,-13176.842566,-666.185348
4145.730816,-16432.571912,-8197.221829,444.123565
4145.731141,-16432.571912,-6665.030833,1184.329507
4145.731465,-15914.427753,-6894.859482,148.041188
4145.731790,-6587.832884,-3907.087040,1184.329507
4145.732114,1110.308913,-4596.572988,2812.782580
4145.732438,9622.677246,-4213.525239,-666.185348
4145.732763,13989.892304,-8197.221829,-962.267725
4145.733087,15766.386565,-8350.440928,-2442.679609
4145.733412,13323.706956,-12563.966167,-1924.535449
4145.733736,10140.821405,-13253.452115,-3701.029710
4145.734061,-592.164754,-12717.185267,888.247130
4145.734385,-7846.182985,-10189.070123,-1258.350101
4145.734709,-12509.480420,-11644.651570,0.000000
4145.735034,-17912.983796,-7814.174080,-296.082377
4145.735358,-12657.521608,-5362.668486,1184.329507
4145.735683,-8142.265362,-5056.230287,1702.473667
4145.736007,-1554.432478,-4903.011187,1110.308913
4145.736332,8956.491898,-4290.134789,1184.329507
4145.736656,15914.427753,-5286.058936,-1480.411884
4145.736980,15396.283594,-11721.261119,-962.267725
4145.737305,15248.242405,-9039.926876,-2072.576638
4145.737629,11029.068536,-13789.718964,-962.267725
4145.737954,3182.885551,-13559.890315,-1184.329507
4145.738278,-4219.173869,-11721.261119,-444.123565
4145.738603,-11917.315666,-10878.556072,-518.144159
4145.738927,-18209.066173,-7737.564530,-518.144159
4145.739252,-15692.365970,-7124.688131,148.041188
4145.739576,-11917.315666,-4519.963438,1406.391290
4145.739900,-3108.864956,-5592.497135,3627.009116
4145.740225,4885.359217,-2451.505594,-296.082377
4145.740549,13027.624579,-6511.811733,-370.102971
4145.740874,16654.633695,-8963.317327,-1554.432478
4145.741198,15174.221811,-10189.070123,-1850.514855
4145.741523,11029.068536,-12180.918418,-888.247130
4145.741847,5995.668130,-12180.918418,-740.205942
4145.742171,-2368.659014,-12947.013916,0.000000
4145.742496,-11103.089130,-10648.727422,-1406.391290
4145.742820,-15174.221811,-8656.879127,-888.247130
4145.743145,-15914.427753,-6971.469032,0.000000
4145.743469,-11621.233289,-5898.935335,1036.288319
4145.743794,-4515.256246,-5898.935335,814.226536
4145.744118,4367.215058,-4749.792088,2220.617826
4145.744443,9104.533087,-3370.820191,0.000000
4145.744767,18135.045579,-9652.803275,-1332.370696
4145.745091,17987.004391,-10572.117872,-1258.350101
4145.745416,14211.954086,-10878.556072,-1184.329507
4145.745740,9770.718434,-12027.699319,-444.123565
4145.746065,-1184.329507,-12410.747068,-1776.494261
4145.746389,-9104.533087,-13483.280765,518.144159
4145.746714,-16358.551318,-8580.269578,-1628.453072
4145.747038,-16432.571912,-8503.660028,-444.123565
4145.747362,-13989.892304,-4903.011187,74.020594
4145.747687,-7031.956449,-3677.258390,2146.597232
4145.748011,-2220.617826,-4903.011187,1036.288319
4145.748336,10807.006753,-4826.401637,0.000000
4145.748660,14434.015869,-7584.345430,148.041188
4145.748985,16506.592507,-9193.145976,-1406.391290
4145.749309,14878.139434,-10418.898773,148.041188
4145.749634,8882.471304,-13176.842566,-1702.473667
4145.749958,814.226536,-13713.109414,-2368.659014
4145.750282,-7698.141797,-12563.966167,-1554.432478
4145.750607,-13693.809927,-10955.165621,-962.267725
4145.750931,-16580.613101,-6358.592633,-148.041188
4145.751256,-13989.892304,-6128.763984,1184.329507
4145.751580,-8068.244768,-4903.011187,1258.350101
4145.751905,1480.411884,-3600.648841,1480.411884
4145.752229,9030.512492,-5745.716235,-518.144159
4145.752553,13101.645173,-5669.106685,-740.205942
4145.752878,17098.757260,-10495.508323,888.247130
4145.753202,16062.468941,-9806.022374,-1924.535449
4145.753527,11695.253884,-12870.404366,-592.164754
4145.753851,3478.967927,-12487.356617,-1406.391290
4145.754176,-6439.791695,-13483.280765,-296.082377
4145.754500,-13545.768739,-11184.994271,-1998.556043
4145.754825,-15544.324782,-8580.269578,-740.205942
4145.755149,-16728.654289,-6894.859482,666.185348
4145.755473,-12139.377449,-5745.716235,666.185348
4145.755798,-4145.153275,-4596.572988,1110.308913
4145.756122,4589.276840,-4443.353888,592.164754
4145.756447,11843.295072,-5209.449386,-740.205942
4145.756771,16136.489536,-7660.954980,296.082377
4145.757096,17912.983796,-8427.050478,-518.144159
4145.757420,12287.418637,-11721.261119,-592.164754
4145.757744,6069.688724,-13100.233016,-1850.514855
4145.758069,-3330.926739,-13713.109414,-518.144159
4145.758393,-9400.615463,-11874.480219,-1998.556043
4145.758718,-14730.098246,-9806.022374,740.205942
4145.759042,-16654.633695,-6511.811733,222.061783
4145.759367,-14211.954086,-8120.612279,518.144159
4145.759691,-5033.400406,-4979.620737,1406.391290
4145.760015,1998.556043,-4136.915689,666.185348
4145.760340,11769.274478,-4519.963438,-666.185348
4145.760664,16876.695478,-5975.544884,-1702.473667
4145.760989,17616.901420,-9499.584175,-1776.494261
4145.761313,13989.892304,-10572.117872,-740.205942
4145.761638,9696.697840,-11721.261119,-370.102971
4145.761962,148.041188,-13713.109414,148.041188
4145.762287,-7402.059420,-11338.213370,-2220.617826
4145.762611,-14952.160028,-12410.747068,370.102971
4145.762935,-18579.169144,-7660.954980,-740.205942
4145.763260,-16580.613101,-8120.612279,1776.494261
4145.763584,-9400.615463,-5975.544884,962.267725
4145.763909,-3701.029710,-4749.792088,1702.473667
4145.764233,7624.121203,-4596.572988,-592.164754
4145.764558,14730.098246,-5209.449386,-962.267725
4145.764882,17394.839637,-7967.393179,-666.185348
4145.765206,16136.489536,-8886.707777,-1924.535449
4145.765531,10140.821405,-12334.137518,0.000000
4145.765855,3923.091493,-13023.623466,-666.185348
4145.766180,-2886.803174,-12487.356617,-1406.391290
4145.766504,-13619.789333,-10878.556072,-222.061783
4145.766829,-16654.633695,-9806.022374,-666.185348
4145.767153,-17246.798449,-8120.612279,592.164754
4145.767478,-9770.718434,-6971.469032,1480.411884
4145.767802,-3997.112087,-4060.306139,1184.329507
4145.768126,6587.832884,-4519.963438,962.267725
4145.768451,13619.789333,-2681.334243,-1184.329507
4145.768775,18061.024985,-7048.078582,-814.226536
4145.769100,17172.777854,-8503.660028,-1924.535449
4145.769424,14063.912898,-10189.070123,-518.144159
4145.769749,6661.853478,-12947.013916,-740.205942
4145.770073,-592.164754,-13023.623466,-2368.659014
4145.770397,-11621.233289,-11491.432470,-666.185348
4145.770722,-18431.127956,-9882.631924,518.144159
4145.771046,-16136.489536,-8733.488677,-148.041188
4145.771371,-13619.789333,-7890.783629,592.164754
4145.771695,-7772.162391,-5515.887586,1554.432478
4145.772020,1480.411884,-3983.696590,1554.432478
4145.772344,8364.327145,-4596.572988,-888.247130
4145.772669,16580.613101,-8197.221829,-1258.350101
4145.772993,17394.839637,-7507.735880,-2886.803174
4145.773317,13619.789333,-10801.946522,-740.205942
4145.773642,9252.574275,-9499.584175,-1332.370696
4145.773966,0.000000,-13483.280765,-370.102971
4145.774291,-8808.450710,-12334.137518,-1036.288319
4145.774615,-15544.324782,-10878.556072,518.144159
4145.774940,-15692.365970,-9116.536426,296.082377
4145.775264,-15248.242405,-8273.831378,370.102971
4145.775588,-6883.915261,-6281.983084,1554.432478
4145.775913,1480.411884,-3753.867940,962.267725
4145.776237,7624.121203,-5362.668486,518.144159
4145.776562,17098.757260,-4979.620737,-1184.329507
4145.776886,15840.407159,-6511.811733,-1776.494261
4145.777211,15174.221811,-9882.631924,-1554.432478
4145.777535,8142.265362,-9882.631924,-666.185348
4145.777859,1776.494261,-13713.109414,-1184.329507
4145.778184,-4737.318029,-12870.404366,-1258.350101
4145.778508,-13175.665768,-11108.384721,-1258.350101
4145.778833,-16802.674883,-9959.241474,-296.082377
4145.779157,-16506.592507,-7354.516781,370.102971
4145.779482,-10362.883188,-8503.660028,1332.370696
4145.779806,-3478.967927,-4673.182538,888.247130
4145.780131,5255.462188,-4290.134789,1554.432478
4145.780455,13915.871710,-5362.668486,-962.267725
4145.780779,15248.242405,-7124.688131,-1184.329507
4145.781104,14878.139434,-8963.317327,-1628.453072
4145.781428,10732.986159,-9346.365076,-1332.370696
4145.781753,5773.606348,-12180.918418,-740.205942
4145.782077,-1036.288319,-12563.966167,-1110.308913
4145.782402,-12435.459826,-11644.651570,-592.164754
4145.782726,-14878.139434,-11031.775171,-666.185348
4145.783050,-15470.304188,-8963.317327,-296.082377
4145.783375,-11177.109724,-8350.440928,1332.370696
4145.783699,-3701.029710,-6128.763984,1628.453072
4145.784024,4441.235652,-3907.087040,2812.782580
4145.784348,12953.603985,-3907.087040,-148.041188
4145.784673,16358.551318,-5745.716235,-2442.679609
4145.784997,17320.819043,-9652.803275,-1998.556043
4145.785322,12435.459826,-8886.707777,-1554.432478
4145.785646,6365.771101,-11644.651570,74.020594
4145.785970,814.226536,-12104.308868,-2294.638420
4145.786295,-8438.347739,-13406.671215,814.226536
4145.786619,-15840.407159,-9806.022374,-444.123565
4145.786944,-16432.571912,-9346.365076,444.123565
4145.787268,-14063.912898,-7584.345430,740.205942
4145.787593,-7402.059420,-7507.735880,1776.494261
4145.787917,0.000000,-4443.353888,888.247130
4145.788241,7920.203579,-3600.648841,2146.597232
4145.788566,14582.057057,-4903.011187,-740.205942
4145.788890,16358.551318,-7584.345430,-1776.494261
4145.789215,14878.139434,-9959.241474,-1184.329507
4145.789539,8364.327145,-9269.755526,-1776.494261
4145.789864,2664.741391,-14096.157163,-518.144159
4145.790188,-6217.729913,-12563.966167,-2072.576638
4145.790513,-13027.624579,-11951.089769,74.020594
4145.790837,-16432.571912,-9499.584175,-518.144159
4145.791161,-15988.448347,-9039.926876,814.226536
4145.791486,-8660.409521,-7507.735880,740.205942
4145.791810,-3182.885551,-4903.011187,814.226536
4145.792135,7179.997637,-4673.182538,1406.391290
4145.792459,13027.624579,-5056.230287,-1924.535449
4145.792784,16950.716072,-5822.325785,-1480.411884
4145.793108,18653.189738,-7660.954980,-1702.473667
4145.793432,11177.109724,-8580.269578,-1406.391290
4145.793757,4589.276840,-12793.794817,666.185348
4145.794081,-888.247130,-13100.233016,-1998.556043
4145.794406,-11769.274478,-13100.233016,-296.082377
4145.794730,-16802.674883,-10572.117872,-222.061783
4145.795055,-16506.592507,-9116.536426,-148.041188
4145.795379,-15692.365970,-8503.660028,74.020594
4145.795704,-7105.977043,-6818.249932,1184.329507
4145.796028,1628.453072,-4749.792088,1332.370696
4145.796352,10955.047942,-4290.134789,222.061783
4145.796677,15470.304188,-4826.401637,-1480.411884
4145.797001,17468.860231,-7967.393179,-1776.494261
4145.797326,13027.624579,-8350.440928,-1480.411884
4145.797650,8660.409521,-11031.775171,-592.164754
4145.797975,2442.679609,-14555.814462,-1628.453072
4145.798299,-7920.203579,-13253.452115,-222.061783
4145.798623,-13545.768739,-10801.946522,-148.041188
4145.798948,-17172.777854,-8886.707777,296.082377
4145.799272,-15248.242405,-8733.488677,0.000000
4145.799597,-7254.018232,-6511.811733,1036.288319
4145.799921,888.247130,-5056.230287,2220.617826
4145.800246,9696.697840,-3524.039291,222.061783
4145.800570,15766.386565,-5898.935335,-814.226536
4145.800894,17987.004391,-8197.221829,-2664.741391
4145.801219,16802.674883,-10035.851024,-1554.432478
4145.801543,10214.842000,-9729.412825,-1332.370696
4145.801868,5255.462188,-13330.061665,0.000000
4145.802192,-4293.194464,-12334.137518,-1258.350101
4145.802517,-13175.665768,-12717.185267,-962.267725
4145.802841,-17616.901420,-9039.926876,-740.205942
4145.803166,-17616.901420,-7737.564530,592.164754
4145.803490,-11843.295072,-7201.297681,222.061783
4145.803814,-6291.750507,-4826.401637,1332.370696
4145.804139,3256.906145,-4290.134789,1036.288319
4145.804463,10955.047942,-5056.230287,-1332.370696
4145.804788,16654.633695,-6665.030833,-518.144159
4145.805112,17098.757260,-7814.174080,-2294.638420
4145.805437,12657.521608,-10648.727422,-1480.411884
4145.805761,7402.059420,-11568.042020,-740.205942
4145.806085,222.061783,-12947.013916,-1258.350101
4145.806410,-9474.636058,-13406.671215,-1184.329507
4145.806734,-15026.180623,-9729.412825,222.061783
4145.807059,-17542.880825,-7967.393179,814.226536
4145.807383,-13397.727550,-7431.126331,0.000000
4145.807708,-5255.462188,-6205.373534,962.267725
4145.808032,3182.885551,-4443.353888,2368.659014
4145.808357,11843.295072,-4136.915689,666.185348
4145.808681,16284.530724,-5056.230287,-1406.391290
4145.809005,18061.024985,-7967.393179,-888.247130
4145.809330,14582.057057,-9269.755526,-1480.411884
4145.809654,7920.203579,-11951.089769,0.000000
4145.809979,444.123565,-13559.890315,-1036.288319
4145.810303,-7920.203579,-12410.747068,-1702.473667
4145.810628,-15100.201217,-12793.794817,-296.082377
4145.810952,-19245.354492,-8656.879127,-370.102971
4145.811276,-16284.530724,-8197.221829,1110.308913
4145.811601,-9178.553681,-6588.421283,592.164754
4145.811925,-370.102971,-5515.887586,1998.556043
4145.812250,7328.038826,-3217.601092,74.020594
4145.812574,12805.562797,-4519.963438,370.102971
4145.812899,16284.530724,-6205.373534,-1702.473667
4145.813223,15692.365970,-8120.612279,-1480.411884
4145.813548,10140.821405,-10035.851024,0.000000
4145.813872,4811.338623,-12257.527968,-1184.329507
4145.814196,-5329.482782,-13636.499864,-814.226536
4145.814521,-13693.809927,-10801.946522,-370.102971
4145.814845,-16654.633695,-10725.336972,-444.123565
4145.815170,-17320.819043,-8580.269578,0.000000
4145.815494,-10510.924376,-7431.126331,2072.576638
4145.815819,-4293.194464,-4519.963438,666.185348
4145.816143,6809.894666,-3983.696590,1776.494261
4145.816467,13767.830521,-4826.401637,-1850.514855
4145.816792,18801.230927,-7890.783629,-1776.494261
4145.817116,17024.736666,-8810.098227,-1776.494261
4145.817441,12583.501014,-9039.926876,-1480.411884
4145.817765,6217.729913,-13100.233016,370.102971
4145.818090,-2220.617826,-12257.527968,-1480.411884
4145.818414,-11251.130318,-13483.280765,148.041188
4145.818738,-16580.613101,-10801.946522,-1258.350101
4145.819063,-18653.189738,-10112.460574,814.226536
4145.819387,-15840.407159,-7431.126331,-222.061783
4145.819712,-7105.977043,-6971.469032,1184.329507
4145.820036,1924.535449,-3983.696590,1850.514855
4145.820361,11917.315666,-3064.381992,148.041188
4145.820685,17542.880825,-5439.278036,-1110.308913
4145.821009,17987.004391,-7737.564530,-962.267725
4145.821334,13545.768739,-9116.536426,-2072.576638
4145.821658,8808.450710,-11261.603821,-592.164754
4145.821982,1480.411884,-13942.938064,-2072.576638
4145.822307,-7772.162391,-13789.718964,-1332.370696
4145.822631,-15988.448347,-9806.022374,-888.247130
4145.822955,-18061.024985,-9269.755526,370.102971
4145.823280,-15988.448347,-8810.098227,-148.041188
4145.823604,-8882.471304,-6665.030833,740.205942
4145.823928,1628.453072,-4366.744339,2886.803174
4145.824252,10658.965565,-2834.553343,296.082377
4145.824577,15840.407159,-5669.106685,-2294.638420
4145.824901,18061.024985,-7890.783629,-1480.411884
4145.825225,15766.386565,-9116.536426,-1554.432478
4145.825550,10881.027347,-10725.336972,-148.041188
4145.825874,4219.173869,-12257.527968,-1036.288319
4145.826198,-4293.194464,-12180.918418,-1258.350101
4145.826523,-13323.706956,-12410.747068,0.000000
4145.826847,-17764.942608,-9039.926876,-1036.288319
4145.827171,-19245.354492,-8733.488677,296.082377
4145.827495,-11621.233289,-8044.002729,1110.308913
4145.827820,-5847.626942,-4136.915689,1184.329507
4145.828144,6143.709319,-4673.182538,2072.576638
4145.828468,12509.480420,-3600.648841,-2590.720797
4145.828793,17616.901420,-8503.660028,-1258.350101
4145.829117,15988.448347,-6205.373534,-2146.597232
4145.829441,12509.480420,-10189.070123,888.247130
4145.829766,6809.894666,-11568.042020,-1406.391290
4145.830090,-888.247130,-12640.575717,-1110.308913
4145.830414,-10066.800811,-12717.185267,148.041188
4145.830738,-15470.304188,-8963.317327,-1036.288319
4145.831063,-18061.024985,-9193.145976,888.247130
4145.831387,-12731.542202,-7354.516781,-296.082377
4145.831711,-6439.791695,-6052.154434,2664.741391
4145.832036,3552.988522,-4443.353888,1036.288319
4145.832360,12065.356855,-5286.058936,-888.247130
4145.832684,16580.613101,-6128.763984,-1184.329507
4145.833009,17468.860231,-6052.154434,-1480.411884
4145.833333,13841.851115,-9269.755526,0.000000
4145.833657,7772.162391,-11951.089769,-1036.288319
4145.833981,1776.494261,-14325.985813,-1554.432478
4145.834306,-8142.265362,-12487.356617,-814.226536
4145.834630,-16284.530724,-10648.727422,-1184.329507
4145.834954,-18949.272115,-9959.241474,296.082377
4145.835279,-16284.530724,-9039.926876,-444.123565
4145.835603,-9474.636058,-7584.345430,1776.494261
4145.835927,-740.205942,-4519.963438,1850.514855
4145.836252,8216.285956,-5439.278036,1184.329507
4145.836576,13471.748144,-3370.820191,-2516.700203
4145.836900,16432.571912,-7967.393179,0.000000
4145.837225,14878.139434,-7124.688131,-2664.741391
4145.837549,9992.780217,-10418.898773,-296.082377
4145.837873,6069.688724,-13330.061665,-1480.411884
4145.838197,-5551.544565,-13100.233016,-666.185348
4145.838522,-12583.501014,-10265.679673,-1480.411884
4145.838846,-17024.736666,-10495.508323,0.000000
4145.839170,-16062.468941,-9576.193725,-1258.350101
4145.839495,-11547.212695,-7048.078582,888.247130
4145.839819,-4441.235652,-5822.325785,3330.926739
4145.840143,8290.306550,-3524.039291,0.000000
4145.840468,13767.830521,-4826.401637,-2590.720797
4145.840792,16580.613101,-5592.497135,-592.164754
4145.841116,17394.839637,-5975.544884,-1184.329507
4145.841440,11473.192101,-9116.536426,-888.247130
4145.841765,7179.997637,-13789.718964,-518.144159
4145.842089,-1628.453072,-12640.575717,-1850.514855
4145.842413,-9992.780217,-13023.623466,0.000000
4145.842738,-18135.045579,-9346.365076,-740.205942
4145.843062,-18653.189738,-9116.536426,-148.041188
4145.843386,-14952.160028,-7890.783629,962.267725
4145.843711,-6291.750507,-7584.345430,2886.803174
4145.844035,2960.823768,-4060.306139,1406.391290
4145.844359,8956.491898,-3830.477490,74.020594
4145.844683,16136.489536,-4673.182538,-1036.288319
4145.845008,17987.004391,-6281.983084,-1628.453072
4145.845332,13767.830521,-9269.755526,-592.164754
4145.845656,10584.944971,-12104.308868,-1998.556043
4145.845981,3034.844362,-15168.690860,-814.226536
4145.846305,-8216.285956,-12793.794817,-740.205942
4145.846629,-12731.542202,-10572.117872,0.000000
4145.846954,-17468.860231,-9576.193725,-740.205942
4145.847278,-15544.324782,-8886.707777,-296.082377
4145.847602,-8290.306550,-5975.544884,1702.473667
4145.847926,1110.308913,-5209.449386,3478.967927
4145.848251,8660.409521,-3524.039291,-444.123565
4145.848575,14804.118840,-6818.249932,-2368.659014
4145.848899,15322.262999,-7201.297681,-2294.638420
4145.849224,16284.530724,-8503.660028,-1110.308913
4145.849548,10881.027347,-8886.707777,-1924.535449
4145.849872,4885.359217,-14709.033562,-592.164754
4145.850197,-6217.729913,-12410.747068,-1184.329507
4145.850521,-13397.727550,-12257.527968,-296.082377
4145.850845,-17764.942608,-9729.412825,-814.226536
4145.851169,-17024.736666,-8273.831378,-296.082377
4145.851494,-9326.594869,-7737.564530,1850.514855
4145.851818,-1702.473667,-4673.182538,888.247130
4145.852142,4441.235652,-4979.620737,1332.370696
4145.852467,11769.274478,-2757.943793,-148.041188
4145.852791,15840.407159,-5898.935335,-1036.288319
4145.853115,17468.860231,-8427.050478,-2146.597232
4145.853440,12435.459826,-9346.365076,-1184.329507
4145.853764,7254.018232,-12563.966167,-2072.576638
4145.854088,-1998.556043,-15168.690860,-1776.494261
4145.854413,-11251.130318,-12257.527968,-740.205942
4145.854737,-14878.139434,-10189.070123,666.185348
4145.855061,-19393.395680,-8044.002729,-814.226536
4145.855385,-13249.686362,-9576.193725,444.123565
4145.855710,-5477.523971,-4519.963438,666.185348
4145.856034,5107.421000,-5209.449386,2368.659014
4145.856358,11251.130318,-3677.258390,-2516.700203
4145.856683,14730.098246,-5362.668486,-296.082377
4145.857007,17246.798449,-7890.783629,-1332.370696
4145.857331,14211.954086,-9422.974625,-1258.350101
4145.857656,9104.533087,-12793.794817,-518.144159
4145.857980,814.226536,-13483.280765,-962.267725
4145.858304,-7994.224174,-13559.890315,-1554.432478
4145.858628,-15544.324782,-11491.432470,-740.205942
4145.858953,-18061.024985,-9729.412825,-296.082377
4145.859277,-15174.221811,-7967.393179,296.082377
4145.859601,-11251.130318,-6741.640382,1184.329507
4145.859926,-1554.432478,-5439.278036,444.123565
4145.860250,8734.430116,-5132.839837,0.000000
4145.860574,13249.686362,-3907.087040,0.000000
4145.860899,16802.674883,-6588.421283,-2072.576638
4145.861223,14804.118840,-9193.145976,-1998.556043
4145.861547,9548.656652,-12104.308868,148.041188
4145.861871,5255.462188,-12947.013916,-1998.556043
4145.862196,-4367.215058,-15245.300410,-962.267725
4145.862520,-11695.253884,-10801.946522,-962.267725
4145.862844,-16802.674883,-8886.707777,74.020594
4145.863169,-16358.551318,-9422.974625,-592.164754
4145.863493,-11103.089130,-7354.516781,1332.370696
4145.863817,-2146.597232,-3447.429741,2960.823768
4145.864142,5181.441594,-3677.258390,1110.308913
4145.864466,13471.748144,-5745.716235,-1850.514855
4145.864790,16284.530724,-4596.572988,-1480.411884
4145.865114,17468.860231,-9193.145976,-518.144159
4145.865439,13841.851115,-8350.440928,-1480.411884
4145.865763,6439.791695,-13713.109414,592.164754
4145.866087,-370.102971,-12180.918418,-1776.494261
4145.866412,-11843.295072,-12870.404366,-518.144159
4145.866736,-17394.839637,-10878.556072,-1702.473667
4145.867060,-17468.860231,-9499.584175,518.144159
4145.867385,-13397.727550,-7048.078582,888.247130
4145.867709,-4293.194464,-6894.859482,1850.514855
4145.868033,518.144159,-3064.381992,1184.329507
4145.868357,10066.800811,-4903.011187,888.247130
4145.868682,13693.809927,-4979.620737,-2812.782580
4145.869006,16506.592507,-8350.440928,-666.185348
4145.869330,14285.974681,-9806.022374,-962.267725
4145.869655,9548.656652,-10189.070123,-518.144159
4145.869979,1850.514855,-13023.623466,-1036.288319
4145.870303,-7476.080014,-14096.157163,-1184.329507
4145.870628,-13767.830521,-10112.460574,0.000000
4145.870952,-18061.024985,-8273.831378,0.000000
4145.871276,-14804.118840,-10495.508323,-370.102971
4145.871601,-8142.265362,-5439.278036,1776.494261
4145.871925,518.144159,-4213.525239,3701.029710
4145.872249,10362.883188,-2987.772442,-592.164754
4145.872573,14804.118840,-5439.278036,-888.247130
4145.872898,17616.901420,-6971.469032,-1480.411884
4145.873222,15988.448347,-9269.755526,-814.226536
4145.873546,11029.068536,-10801.946522,-1480.411884
4145.873871,3404.947333,-15015.471761,-666.185348
4145.874195,-5551.544565,-13483.280765,-888.247130
4145.874519,-14508.036463,-12334.137518,-1554.432478
4145.874844,-17987.004391,-10955.165621,-814.226536
4145.875168,-16136.489536,-7967.393179,222.061783
4145.875492,-11473.192101,-6588.421283,1480.411884
4145.875816,-3701.029710,-5056.230287,1258.350101
4145.876141,5995.668130,-4673.182538,0.000000
4145.876465,12361.439231,-3447.429741,0.000000
4145.876789,17024.736666,-6128.763984,-1998.556043
4145.877114,15470.304188,-7660.954980,-1480.411884
4145.877438,11695.253884,-11338.213370,-1036.288319
4145.877762,5921.647536,-12487.356617,-1924.535449
4145.878087,-2738.761985,-14862.252661,-1184.329507
4145.878411,-10732.986159,-12563.966167,-1184.329507
4145.878735,-15988.448347,-10112.460574,-370.102971
4145.879059,-16950.716072,-9422.974625,-222.061783
4145.879384,-11177.109724,-7354.516781,1110.308913
4145.879708,-4589.276840,-4290.134789,1332.370696
4145.880032,5699.585753,-5132.839837,1554.432478
4145.880357,11917.315666,-3907.087040,-1258.350101
4145.880681,16506.592507,-5745.716235,-1702.473667
4145.881005,15470.304188,-7890.783629,-740.205942
4145.881330,14211.954086,-10725.336972,-814.226536
4145.881654,7920.203579,-11491.432470,-222.061783
4145.881978,444.123565,-14019.547613,-1554.432478
4145.882302,-9474.636058,-14709.033562,0.000000
4145.882627,-16506.592507,-9959.241474,-740.205942
4145.882951,-16876.695478,-10801.946522,-370.102971
4145.883275,-14730.098246,-7660.954980,444.123565
4145.883600,-5921.647536,-5898.935335,2368.659014
4145.883924,740.205942,-4519.963438,1406.391290
4145.884248,7846.182985,-3294.210641,1110.308913
4145.884573,14285.974681,-4673.182538,-1258.350101
4145.884897,16432.571912,-6665.030833,-1850.514855
4145.885221,13841.851115,-8580.269578,-518.144159
4145.885545,9252.574275,-11491.432470,-1184.329507
4145.885870,2664.741391,-13330.061665,-1628.453072
4145.886194,-5551.544565,-14555.814462,-814.226536
4145.886518,-12583.501014,-10801.946522,-1776.494261
4145.886843,-16802.674883,-9269.755526,962.267725
4145.887167,-16432.571912,-8044.002729,-1036.288319
4145.887491,-9474.636058,-8044.002729,1406.391290
4145.887816,0.000000,-3370.820191,2738.761985
4145.888140,6957.935855,-3983.696590,814.226536
4145.888464,13989.892304,-4903.011187,-2294.638420
4145.888789,16802.674883,-6128.763984,-1036.288319
4145.889113,15470.304188,-8427.050478,-1406.391290
4145.889437,14285.974681,-10725.336972,0.000000
4145.889761,5995.668130,-11491.432470,-740.205942
4145.890086,-2368.659014,-14709.033562,-148.041188
4145.890410,-12139.377449,-11951.089769,-1554.432478
4145.890734,-16950.716072,-11951.089769,-1332.370696
4145.891059,-18135.045579,-9499.584175,-296.082377
4145.891383,-13841.851115,-6588.421283,1998.556043
4145.891707,-5329.482782,-5822.325785,2072.576638
4145.892032,1110.308913,-3600.648841,740.205942
4145.892356,11473.192101,-3064.381992,888.247130
4145.892680,14878.139434,-5132.839837,-2442.679609
4145.893004,18209.066173,-7737.564530,-1332.370696
4145.893329,12139.377449,-9652.803275,-518.144159
4145.893653,9400.615463,-12870.404366,0.000000
4145.893977,1554.432478,-13483.280765,-2368.659014
4145.894302,-8660.409521,-16011.395908,-592.164754
4145.894626,-13027.624579,-9499.584175,-1406.391290
4145.894950,-17024.736666,-9652.803275,-814.226536
4145.895275,-14211.954086,-8580.269578,0.000000
4145.895599,-7179.997637,-5822.325785,3627.009116
4145.895923,1998.556043,-2068.457845,1406.391290
4145.896247,9178.553681,-5132.839837,222.061783
4145.896572,17246.798449,-4366.744339,-2664.741391
4145.896896,16580.613101,-7354.516781,-1258.350101
4145.897220,14285.974681,-9729.412825,-1702.473667
4145.897545,10510.924376,-11031.775171,-740.205942
4145.897869,2812.782580,-14632.424012,-740.205942
4145.898193,-4811.338623,-14096.157163,-592.164754
4145.898518,-11843.295072,-12793.794817,-370.102971
4145.898842,-17542.880825,-8810.098227,-2072.576638
4145.899166,-17468.860231,-8273.831378,518.144159
4145.899490,-8734.430116,-5898.935335,2368.659014
4145.899815,-1110.308913,-4979.620737,2812.782580
4145.900139,3256.906145,-2528.115143,814.226536
4145.900463,13323.706956,-2911.162892,518.144159
4145.900788,16136.489536,-6128.763984,-2442.679609
4145.901112,16728.654289,-9269.755526,-2294.638420
4145.901436,11325.150913,-10725.336972,0.000000
4145.901761,6439.791695,-12717.185267,-1628.453072
4145.902085,-2960.823768,-13406.671215,-1036.288319
4145.902409,-9992.780217,-13176.842566,-962.267725
4145.902733,-14508.036463,-10495.508323,-1036.288319
4145.903058,-16802.674883,-8733.488677,-740.205942
4145.903382,-11103.089130,-7890.783629,962.267725
4145.903706,-3182.885551,-4290.134789,2886.803174
4145.904031,5255.462188,-3217.601092,1628.453072
4145.904355,11991.336260,-3370.820191,-1776.494261
4145.904679,15544.324782,-6052.154434,-1036.288319
4145.905004,16210.510130,-7890.783629,-2294.638420
4145.905328,12879.583391,-9806.022374,-148.041188
4145.905652,10066.800811,-11951.089769,-814.226536
4145.905977,0.000000,-14019.547613,-1258.350101
4145.906301,-11251.130318,-14325.985813,-1258.350101
4145.906625,-15766.386565,-11951.089769,-666.185348
4145.906949,-17764.942608,-9576.193725,-518.144159
4145.907274,-15026.180623,-7967.393179,740.205942
4145.907598,-8216.285956,-6052.154434,1480.411884
4145.907922,888.247130,-4903.011187,3256.906145
4145.908247,7772.162391,-2834.553343,-296.082377
4145.908571,14656.077652,-3983.696590,-962.267725
4145.908895,15322.262999,-7814.174080,-1628.453072
4145.909220,14582.057057,-8427.050478,-1850.514855
4145.909544,9104.533087,-12257.527968,518.144159
4145.909868,4515.256246,-13176.842566,-3478.967927
4145.910192,-6883.915261,-16471.053207,-148.041188
4145.910517,-12065.356855,-10418.898773,-2072.576638
4145.910841,-15248.242405,-9959.241474,888.247130
4145.911165,-15174.221811,-8733.488677,-1628.453072
4145.911490,-10584.944971,-6511.811733,2146.597232
4145.911814,-2664.741391,-2757.943793,1776.494261
4145.912138,6661.853478,-4826.401637,962.267725
4145.912463,12435.459826,-4673.182538,-1850.514855
4145.912787,17764.942608,-4903.011187,-1702.473667
4145.913111,15692.365970,-8350.440928,-1036.288319
4145.913435,13249.686362,-10112.460574,-444.123565
4145.913760,6439.791695,-12793.794817,-1036.288319
4145.914084,-1998.556043,-13636.499864,-1480.411884
4145.914408,-11621.233289,-14785.643111,-518.144159
4145.914733,-17098.757260,-8886.707777,-2516.700203
4145.915057,-17098.757260,-11797.870669,592.164754
4145.915381,-12805.562797,-6741.640382,592.164754
4145.915706,-7476.080014,-5056.230287,2960.823768
4145.916030,2738.761985,-3294.210641,1036.288319
4145.916354,8216.285956,-3907.087040,0.000000
4145.916678,15396.283594,-5669.106685,-2146.597232
4145.917003,17394.839637,-7737.564530,-1628.453072
4145.917327,12509.480420,-9576.193725,-296.082377
4145.917651,8882.471304,-12640.575717,0.000000
4145.917976,1702.473667,-13406.671215,-2442.679609
4145.918300,-8956.491898,-16471.053207,-740.205942
4145.918624,-12361.439231,-9806.022374,-1850.514855
4145.918949,-17172.777854,-9729.412825,962.267725
4145.919273,-13101.645173,-8044.002729,0.000000
4145.919597,-4663.297435,-5975.544884,3330.926739
4145.919922,0.000000,-1455.581446,1702.473667
4145.920246,8660.409521,-4366.744339,1332.370696
4145.920570,14211.954086,-4749.792088,-3552.988522
4145.920894,17468.860231,-8197.221829,0.000000
4145.921219,15174.221811,-9269.755526,-1776.494261
4145.921543,10881.027347,-12257.527968,0.000000
4145.921867,3256.906145,-12334.137518,-1258.350101
4145.922192,-4737.318029,-13559.890315,-740.205942
4145.922516,-12213.398043,-12027.699319,-888.247130
4145.922840,-18209.066173,-9729.412825,-296.082377
4145.923165,-15618.345376,-9499.584175,592.164754
4145.923489,-10362.883188,-6281.983084,518.144159
4145.923813,-740.205942,-5132.839837,2960.823768
4145.924138,3330.926739,-1991.848295,444.123565
4145.924462,13397.727550,-4136.915689,-444.123565
4145.924786,14285.974681,-5745.716235,-2590.720797
4145.925111,17172.777854,-8503.660028,-666.185348
4145.925435,11769.274478,-8886.707777,0.000000
4145.925759,6735.874072,-12104.308868,-814.226536
4145.926084,-2442.679609,-14249.376263,-1036.288319
4145.926408,-11473.192101,-13330.061665,-2294.638420
4145.926732,-15766.386565,-11721.261119,0.000000
4145.927056,-16654.633695,-8810.098227,-1184.329507
4145.927381,-11177.109724,-9269.755526,1406.391290
4145.927705,-4811.338623,-2298.286494,1924.535449
4145.928029,6217.729913,-4903.011187,2294.638420
4145.928354,10436.903782,-3140.991542,-2664.741391
4145.928678,17024.736666,-6052.154434,-1258.350101
4145.929002,17468.860231,-7048.078582,-740.205942
4145.929327,12065.356855,-9806.022374,0.000000
4145.929651,8586.388927,-12563.966167,-962.267725
4145.929975,-148.041188,-14325.985813,-2442.679609
4145.930300,-9474.636058,-14709.033562,-1480.411884
4145.930624,-15914.427753,-10265.679673,-962.267725
4145.930948,-18949.272115,-11031.775171,222.061783
4145.931273,-14063.912898,-8273.831378,592.164754
4145.931597,-9474.636058,-5209.449386,1850.514855
4145.931921,888.247130,-4673.182538,2590.720797
4145.932246,7920.203579,-2374.896044,-1036.288319
4145.932570,15988.448347,-6588.421283,-888.247130
4145.932894,16654.633695,-6971.469032,-3478.967927
4145.933219,13323.706956,-9576.193725,592.164754
4145.933543,8068.244768,-11031.775171,-740.205942
4145.933867,3701.029710,-12410.747068,-666.185348
4145.934192,-6365.771101,-14632.424012,-1036.288319
4145.934516,-13471.748144,-11108.384721,-2442.679609
4145.934840,-17024.736666,-10112.460574,0.000000
4145.935165,-14434.015869,-8810.098227,0.000000
4145.935489,-8438.347739,-7048.078582,2590.720797
4145.935813,1332.370696,-3140.991542,2072.576638
4145.936138,5551.544565,-4596.572988,-222.061783
4145.936462,13619.789333,-4826.401637,-1628.453072
4145.936786,16358.551318,-5132.839837,-962.267725
4145.937110,15026.180623,-7584.345430,-518.144159
4145.937435,12879.583391,-11261.603821,148.041188
4145.937759,5107.421000,-12257.527968,-888.247130
4145.938083,-3701.029710,-14096.157163,-296.082377
4145.938408,-11399.171507,-11721.261119,-1850.514855
4145.938732,-17246.798449,-10801.946522,222.061783
4145.939056,-15692.365970,-9039.926876,-148.041188
4145.939381,-10807.006753,-8656.879127,1406.391290
4145.939705,-5181.441594,-5056.230287,1924.535449
4145.940029,3701.029710,-3370.820191,2590.720797
4145.940354,9770.718434,-2145.067394,-1036.288319
4145.940678,15396.283594,-6588.421283,-1036.288319
4145.941002,17024.736666,-7431.126331,-2220.617826
4145.941327,13545.768739,-9193.145976,-148.041188
4145.941651,8660.409521,-11261.603821,0.000000
4145.941975,-1184.329507,-13100.233016,-740.205942
4145.942300,-9326.594869,-14249.376263,-1702.473667
4145.942624,-13989.892304,-11568.042020,-1554.432478
4145.942948,-16062.468941,-9269.755526,-1332.370696
4145.943273,-14952.160028,-10189.070123,2590.720797
4145.943597,-5625.565159,-4136.915689,2146.597232
4145.943921,3034.844362,-5132.839837,2368.659014
4145.944246,9400.615463,-2451.505594,-1554.432478
4145.944570,15470.304188,-4979.620737,-1036.288319
4145.944894,16136.489536,-6818.249932,-2368.659014
4145.945219,15100.201217,-9882.631924,-74.020594
4145.945543,9474.636058,-11721.261119,-740.205942
4145.945867,2738.761985,-14249.376263,-1628.453072
4145.946191,-5107.421000,-14709.033562,-1702.473667
4145.946516,-13249.686362,-11644.651570,-2146.597232
4145.946840,-18357.107362,-10418.898773,1184.329507
4145.947164,-15544.324782,-8273.831378,666.185348
4145.947489,-10362.883188,-8503.660028,1036.288319
4145.947813,-1702.473667,-4519.963438,1924.535449
4145.948137,5181.441594,-2145.067394,296.082377
4145.948462,12509.480420,-4136.915689,-740.205942
4145.948786,15914.427753,-5975.544884,-2886.803174
4145.949110,15618.345376,-9576.193725,-814.226536
4145.949435,10584.944971,-9729.412825,-1332.370696
4145.949759,4145.153275,-13023.623466,-666.185348
4145.950083,-2220.617826,-13713.109414,-1850.514855
4145.950408,-9918.759623,-13176.842566,-2294.638420
4145.950732,-15914.427753,-10265.679673,-666.185348
4145.951056,-16284.530724,-9652.803275,444.123565
4145.951381,-10732.986159,-8120.612279,888.247130
4145.951705,-3330.926739,-5745.716235,2664.741391
4145.952029,5255.462188,-2757.943793,666.185348
4145.952354,11843.295072,-3524.039291,-1998.556043
4145.952678,17098.757260,-5822.325785,-2368.659014
4145.953002,17394.839637,-6741.640382,0.000000
4145.953327,14878.139434,-8656.879127,0.000000
4145.953651,7105.977043,-12257.527968,-222.061783
4145.953975,-814.226536,-13866.328514,-1998.556043
4145.954300,-9474.636058,-14172.766713,-1480.411884
4145.954624,-14582.057057,-12257.527968,-1924.535449
4145.954948,-17690.922014,-11031.775171,222.061783
4145.955272,-14359.995275,-7890.783629,1332.370696
4145.955597,-9252.574275,-6052.154434,1628.453072
4145.955921,-148.041188,-5132.839837,1776.494261
4145.956245,7179.997637,-3447.429741,1110.308913
4145.956570,13989.892304,-4749.792088,-666.185348
4145.956894,16358.551318,-5745.716235,-2960.823768
4145.957218,13915.871710,-8350.440928,-222.061783
4145.957543,9400.615463,-10265.679673,444.123565
4145.957867,2590.720797,-14096.157163,-962.267725
4145.958191,-6809.894666,-14632.424012,-2516.700203
4145.958516,-10955.047942,-13636.499864,-1036.288319
4145.958840,-15100.201217,-8427.050478,-666.185348
4145.959164,-14878.139434,-8810.098227,592.164754
4145.959489,-8808.450710,-6665.030833,2072.576638
4145.959813,0.000000,-4519.963438,2664.741391
4145.960137,7105.977043,-3524.039291,0.000000
4145.960462,13841.851115,-5056.230287,-1110.308913
4145.960786,16136.489536,-4060.306139,-2368.659014
4145.961110,14359.995275,-7048.078582,518.144159
4145.961435,12361.439231,-8963.317327,-1110.308913
4145.961759,6439.791695,-12793.794817,444.123565
4145.962083,-2516.700203,-14402.595362,-1850.514855
4145.962408,-10807.006753,-12870.404366,-1406.391290
4145.962732,-16136.489536,-11184.994271,-370.102971
4145.963056,-17024.736666,-8656.879127,1850.514855
4145.963381,-11843.295072,-7584.345430,2146.597232
4145.963705,-6217.729913,-5822.325785,814.226536
4145.964029,2072.576638,-5056.230287,962.267725
4145.964353,10140.821405,-2451.505594,222.061783
4145.964678,11621.233289,-4979.620737,-518.144159
4145.965002,17246.798449,-5898.935335,-1776.494261
4145.965326,12213.398043,-10265.679673,-962.267725
4145.965651,9104.533087,-13176.842566,74.020594
4145.965975,592.164754,-11797.870669,-888.247130
4145.966299,-8438.347739,-14709.033562,-2886.803174
4145.966624,-13027.624579,-12717.185267,-1184.329507
4145.966948,-14878.139434,-9116.536426,-518.144159
4145.967272,-13397.727550,-8120.612279,2146.597232
4145.967597,-5921.647536,-4749.792088,1924.535449
4145.967921,740.205942,-5209.449386,592.164754
4145.968245,8734.430116,-3064.381992,148.041188
4145.968570,14359.995275,-3447.429741,-1036.288319
4145.968894,16506.592507,-6894.859482,-1258.350101
4145.969218,15100.201217,-9499.584175,0.000000
4145.969543,10658.965565,-9269.755526,-370.102971
4145.969867,3849.070898,-14632.424012,-1332.370696
4145.970191,-7105.977043,-14938.862211,-2516.700203
4145.970516,-14211.954086,-13330.061665,-1258.350101
4145.970840,-17320.819043,-10648.727422,-296.082377
4145.971164,-15248.242405,-8886.707777,1406.391290
4145.971489,-10066.800811,-6588.421283,1554.432478
4145.971813,-148.041188,-4673.182538,1184.329507
4145.972137,1628.453072,-2987.772442,-1184.329507
4145.972462,10510.924376,-4366.744339,296.082377
4145.972786,12953.603985,-4979.620737,-1776.494261
4145.973110,15766.386565,-8580.269578,-1554.432478
4145.973434,12065.356855,-11261.603821,-666.185348
4145.973759,4811.338623,-11338.213370,-962.267725
4145.974083,-3182.885551,-14402.595362,-1258.350101
4145.974407,-8290.306550,-14096.157163,-2738.761985
4145.974732,-15470.304188,-12257.527968,444.123565
4145.975056,-16062.468941,-7201.297681,-444.123565
4145.975380,-9770.718434,-8273.831378,2368.659014
4145.975705,-4737.318029,-4213.525239,74.020594
4145.976029,5847.626942,-5439.278036,1406.391290
4145.976353,10732.986159,-2911.162892,-1554.432478
4145.976678,15470.304188,-4366.744339,-2220.617826
4145.977002,15470.304188,-8427.050478,-888.247130
4145.977326,14582.057057,-9193.145976,296.082377
4145.977651,9252.574275,-12257.527968,888.247130
4145.977975,-814.226536,-13789.718964,-2368.659014
4145.978299,-7994.224174,-13713.109414,-1406.391290
4145.978624,-16062.468941,-10572.117872,-1036.288319
4145.978948,-17468.860231,-11797.870669,962.267725
4145.979272,-13101.645173,-7890.783629,1776.494261
4145.979597,-8438.347739,-5822.325785,2368.659014
4145.979921,1184.329507,-3907.087040,1406.391290
4145.980245,7550.100608,-3370.820191,-518.144159
4145.980570,12509.480420,-5975.544884,-2220.617826
4145.980894,16432.571912,-6358.592633,-1998.556043
4145.981218,14063.912898,-7890.783629,814.226536
4145.981543,11473.192101,-8733.488677,0.000000
4145.981867,3478.967927,-13636.499864,-1998.556043
4145.982191,-7846.182985,-15015.471761,-1406.391290
4145.982516,-13027.624579,-11644.651570,-1332.370696
4145.982840,-15248.242405,-9806.022374,-370.102971
4145.983164,-15174.221811,-10265.679673,740.205942
4145.983488,-8068.244768,-7201.297681,2368.659014
4145.983813,-1110.308913,-3217.601092,2368.659014
4145.984137,5699.585753,-3217.601092,296.082377
4145.984461,13767.830521,-3217.601092,-2886.803174
4145.984786,16284.530724,-7048.078582,-1480.411884
4145.985110,15692.365970,-6741.640382,-222.061783
4145.985434,11917.315666,-9729.412825,1036.288319
4145.985759,6957.935855,-12563.966167,-2886.803174
4145.986083,-3923.091493,-14785.643111,-666.185348
4145.986407,-12065.356855,-12257.527968,-1628.453072
4145.986732,-16506.592507,-12640.575717,222.061783
4145.987056,-16506.592507,-9806.022374,0.000000
4145.987380,-11917.315666,-8350.440928,1406.391290
4145.987705,-5477.523971,-4749.792088,740.205942
4145.988029,4515.256246,-4596.572988,2072.576638
4145.988353,7105.977043,-2681.334243,-1332.370696
4145.988678,15766.386565,-5898.935335,-2738.761985
4145.989002,14359.995275,-6511.811733,-2294.638420
4145.989326,13915.871710,-9422.974625,666.185348
4145.989651,9696.697840,-10801.946522,-1702.473667
4145.989975,-1184.329507,-15781.567259,-1332.370696
4145.990299,-9918.759623,-13483.280765,-1628.453072
4145.990624,-15396.283594,-10955.165621,-1480.411884
4145.990948,-16210.510130,-12334.137518,-740.205942
4145.991272,-13619.789333,-9039.926876,888.247130
4145.991597,-5921.647536,-4903.011187,2220.617826
4145.991921,1924.535449,-4596.572988,1258.350101
4145.992245,7550.100608,-4903.011187,-592.164754
4145.992569,14656.077652,-4290.134789,-2886.803174
4145.992894,15544.324782,-4903.011187,-592.164754
4145.993218,15396.283594,-6971.469032,148.041188
4145.993542,11251.130318,-10955.165621,-370.102971
4145.993867,2886.803174,-13636.499864,-1036.288319
4145.994191,-7698.141797,-14402.595362,-1110.308913
4145.994515,-13619.789333,-12257.527968,-1998.556043
4145.994840,-18505.148550,-12487.356617,222.061783
4145.995164,-15026.180623,-9882.631924,296.082377
4145.995488,-11103.089130,-7890.783629,2368.659014
4145.995813,-2590.720797,-5439.278036,1258.350101
4145.996137,3997.112087,-2145.067394,518.144159
4145.996461,11029.068536,-2604.724693,-814.226536
4145.996786,16802.674883,-6588.421283,-2590.720797
4145.997110,15840.407159,-6894.859482,148.041188
4145.997434,12435.459826,-8120.612279,148.041188
4145.997759,5329.482782,-10955.165621,-888.247130
4145.998083,-1776.494261,-13713.109414,-1406.391290
4145.998407,-9030.512492,-12793.794817,-1184.329507
4145.998732,-15470.304188,-10342.289223,222.061783
4145.999056,-15692.365970,-11568.042020,148.041188
4145.999380,-11399.171507,-8810.098227,1110.308913
4145.999705,-3923.091493,-5209.449386,2738.761985
4146.000029,4219.173869,-3524.039291,0.000000
4146.000353,11029.068536,-3294.210641,-2220.617826
4146.000678,16432.571912,-5209.449386,-1480.411884
4146.001002,16506.592507,-4979.620737,-518.144159
4146.001326,13101.645173,-7354.516781,1258.350101
4146.001650,8364.327145,-11644.651570,-962.267725
4146.001975,1924.535449,-13789.718964,-1406.391290
4146.002299,-7550.100608,-14172.766713,-2072.576638
4146.002623,-13693.809927,-12793.794817,-1332.370696
4146.002948,-15840.407159,-11491.432470,1628.453072
4146.003272,-14211.954086,-8963.317327,74.020594
4146.003596,-7476.080014,-7354.516781,1776.494261
4146.003921,-962.267725,-3524.039291,1332.370696
4146.004245,7846.182985,-4290.134789,370.102971
4146.004569,12509.480420,-2911.162892,-1036.288319
4146.004894,15174.221811,-5822.325785,-2960.823768
4146.005218,14063.912898,-8886.707777,-888.247130
4146.005542,9844.739029,-8963.317327,148.041188
4146.005867,5403.503377,-13100.233016,-666.185348
4146.006191,-7031.956449,-15168.690860,-2960.823768
4146.006515,-10881.027347,-13253.452115,-1850.514855
4146.006840,-14582.057057,-11721.261119,222.061783
4146.007164,-13323.706956,-8733.488677,592.164754
4146.007488,-7105.977043,-8273.831378,3256.906145
4146.007813,-1924.535449,-3677.258390,-1036.288319
4146.008137,6661.853478,-5745.716235,0.000000
4146.008461,12065.356855,-2834.553343,-1554.432478
4146.008786,13767.830521,-5745.716235,-2812.782580
4146.009110,14434.015869,-7354.516781,74.020594
4146.009434,13619.789333,-8503.660028,518.144159
4146.009759,5847.626942,-12257.527968,-444.123565
4146.010083,-4589.276840,-14325.985813,-1924.535449
4146.010407,-11695.253884,-14096.157163,-2664.741391
4146.010731,-16284.530724,-12717.185267,-814.226536
4146.011056,-16358.551318,-9422.974625,1480.411884
4146.011380,-13323.706956,-8810.098227,1702.473667
4146.011704,-3997.112087,-5286.058936,814.226536
4146.012029,3404.947333,-4596.572988,0.000000
4146.012353,9474.636058,-2681.334243,-888.247130
4146.012677,14952.160028,-4290.134789,-1998.556043
4146.013002,13693.809927,-6818.249932,-1850.514855
4146.013326,12509.480420,-9882.631924,0.000000
4146.013650,6883.915261,-9346.365076,-518.144159
4146.013975,0.000000,-14709.033562,-666.185348
4146.014299,-10288.862594,-13559.890315,-2368.659014
4146.014623,-14804.118840,-12870.404366,-1406.391290
4146.014948,-17246.798449,-11721.261119,0.000000
4146.015272,-13545.768739,-9806.022374,1628.453072
4146.015596,-6883.915261,-5056.230287,2738.761985
4146.015921,1554.432478,-2834.553343,1258.350101
4146.016245,9992.780217,-4903.011187,-370.102971
4146.016569,13989.892304,-3217.601092,-1554.432478
4146.016894,17098.757260,-5975.544884,-1184.329507
4146.017218,14804.118840,-8197.221829,-1924.535449
4146.017542,9844.739029,-12640.575717,1184.329507
4146.017867,3404.947333,-11644.651570,-666.185348
4146.018191,-4293.194464,-13713.109414,-444.123565
4146.018515,-12213.398043,-12717.185267,-962.267725
4146.018840,-18431.127956,-11414.822920,444.123565
4146.019164,-16580.613101,-7814.174080,740.205942
4146.019488,-11843.295072,-7890.783629,2664.741391
4146.019812,-2442.679609,-2987.772442,2590.720797
4146.020137,5329.482782,-2987.772442,1554.432478
4146.020461,12213.398043,-2145.067394,-2442.679609
4146.020785,17246.798449,-6971.469032,-1110.308913
4146.021110,17320.819043,-7048.078582,-2590.720797
4146.021434,10066.800811,-10342.289223,370.102971
4146.021758,5477.523971,-13100.233016,-1998.556043
4146.022083,-3997.112087,-13176.842566,-962.267725
4146.022407,-9400.615463,-13406.671215,-370.102971
4146.022731,-14656.077652,-12257.527968,-2442.679609
4146.023056,-13841.851115,-11184.994271,-518.144159
4146.023380,-10955.047942,-6665.030833,1776.494261
4146.023704,-2442.679609,-4366.744339,2886.803174
4146.024028,4441.235652,-3064.381992,370.102971
4146.024353,11621.233289,-2374.896044,-740.205942
4146.024677,16728.654289,-4136.915689,-148.041188
4146.025001,17616.901420,-6665.030833,-1702.473667
4146.025326,12879.583391,-10801.946522,-1480.411884
4146.025650,7476.080014,-12870.404366,-1184.329507
4146.025974,444.123565,-15628.348159,-1776.494261
4146.026298,-8068.244768,-14555.814462,-1850.514855
4146.026623,-13841.851115,-13406.671215,148.041188
4146.026947,-16136.489536,-8733.488677,-370.102971
4146.027271,-12805.562797,-9806.022374,962.267725
4146.027596,-9548.656652,-4979.620737,370.102971
4146.027920,0.000000,-4673.182538,2072.576638
4146.028244,6217.729913,-1532.190996,-1184.329507
4146.028568,11917.315666,-4749.792088,148.041188
4146.028893,16580.613101,-5439.278036,0.000000
4146.029217,13323.706956,-8580.269578,-1924.535449
4146.029541,11991.336260,-12640.575717,-2072.576638
4146.029866,3997.112087,-12947.013916,-1332.370696
4146.030190,-3701.029710,-14862.252661,-888.247130
4146.030514,-11399.171507,-13559.890315,-2368.659014
4146.030838,-15100.201217,-11261.603821,518.144159
4146.031163,-16802.674883,-8350.440928,518.144159
4146.031487,-11177.109724,-4596.572988,-148.041188
4146.031811,-1924.535449,-6052.154434,1036.288319
4146.032136,5255.462188,-2911.162892,-1184.329507
4146.032460,10881.027347,-2451.505594,-1036.288319
4146.032784,14730.098246,-4673.182538,-370.102971
4146.033109,16802.674883,-9806.022374,-592.164754
4146.033433,13027.624579,-10418.898773,-1702.473667
4146.033757,7254.018232,-14632.424012,-1332.370696
4146.034081,-962.267725,-14172.766713,-1628.453072
4146.034406,-9770.718434,-13253.452115,-962.267725
4146.034730,-14582.057057,-10725.336972,-518.144159
4146.035054,-17542.880825,-9269.755526,1480.411884
4146.035379,-15544.324782,-6741.640382,1702.473667
4146.035703,-7846.182985,-5056.230287,1702.473667
4146.036027,1628.453072,-3447.429741,222.061783
4146.036351,7105.977043,-4596.572988,-518.144159
4146.036676,11695.253884,-5822.325785,-1184.329507
4146.037000,13915.871710,-7584.345430,962.267725
4146.037324,14804.118840,-10418.898773,-1554.432478
4146.037649,11547.212695,-11951.089769,-2146.597232
4146.037973,1258.350101,-11874.480219,-592.164754
4146.038297,-3404.947333,-12410.747068,-1554.432478
4146.038621,-13101.645173,-12640.575717,666.185348
4146.038946,-15618.345376,-8580.269578,222.061783
4146.039270,-14359.995275,-8350.440928,1332.370696
4146.039594,-9992.780217,-4979.620737,2220.617826
4146.039919,-222.061783,-4060.306139,1184.329507
4146.040243,6291.750507,-3217.601092,-296.082377
4146.040567,13693.809927,-5898.935335,-1554.432478
4146.040891,15322.262999,-7814.174080,-1110.308913
4146.041216,15840.407159,-9422.974625,74.020594
4146.041540,11399.171507,-10265.679673,-1554.432478
4146.041864,7550.100608,-11644.651570,-814.226536
4146.042189,-2886.803174,-12640.575717,148.041188
4146.042513,-10214.842000,-10495.508323,-1480.411884
4146.042837,-16284.530724,-11797.870669,1036.288319
4146.043161,-17320.819043,-9039.926876,-592.164754
4146.043486,-15692.365970,-5286.058936,2368.659014
4146.043810,-4737.318029,-7048.078582,0.000000
4146.044134,2812.782580,-4596.572988,370.102971
4146.044459,7920.203579,-4749.792088,296.082377
4146.044783,17394.839637,-5669.106685,-1702.473667
4146.045107,18061.024985,-10189.070123,-518.144159
4146.045431,16506.592507,-9959.241474,-2960.823768
4146.045756,7698.141797,-12257.527968,518.144159
4146.046080,-1776.494261,-10878.556072,-1850.514855
4146.046404,-8734.430116,-14096.157163,-1110.308913
4146.046729,-14508.036463,-9039.926876,-1184.329507
4146.047053,-15692.365970,-9346.365076,888.247130
4146.047377,-15470.304188,-5592.497135,444.123565
4146.047701,-5625.565159,-7660.954980,888.247130
4146.048026,3849.070898,-3447.429741,-518.144159
4146.048350,7624.121203,-4979.620737,148.041188
4146.048674,17616.901420,-5209.449386,-666.185348
4146.048999,16358.551318,-9576.193725,-740.205942
4146.049323,17172.777854,-11797.870669,-3404.947333
4146.049647,11177.109724,-12410.747068,-2368.659014
4146.049972,2368.659014,-11031.775171,-2738.761985
4146.050296,-6513.812290,-13406.671215,1924.535449
4146.050620,-14656.077652,-8350.440928,-2442.679609
4146.050944,-19245.354492,-13023.623466,2368.659014
4146.051269,-17912.983796,-4979.620737,-2442.679609
4146.051593,-11843.295072,-7354.516781,3627.009116
4146.051917,-1628.453072,-3983.696590,-666.185348
4146.052242,8808.450710,-6128.763984,1036.288319
4146.052566,11695.253884,-5209.449386,-740.205942
4146.052890,17320.819043,-6128.763984,370.102971
4146.053214,16876.695478,-11261.603821,-1628.453072
4146.053539,13989.892304,-12027.699319,-4441.235652
4146.053863,5625.565159,-12870.404366,0.000000
4146.054187,-4219.173869,-10418.898773,-740.205942
4146.054512,-11843.295072,-12487.356617,370.102971
4146.054836,-16876.695478,-10725.336972,-666.185348
4146.055160,-16210.510130,-9039.926876,740.205942
4146.055484,-11547.212695,-5286.058936,-444.123565
4146.055809,-8364.327145,-5745.716235,3849.070898
4146.056133,6957.935855,-3064.381992,-1850.514855
4146.056457,11547.212695,-6588.421283,888.247130
4146.056782,15692.365970,-6435.202183,-2368.659014
4146.057106,17690.922014,-7814.174080,1110.308913
4146.057430,16432.571912,-11108.384721,-2368.659014
4146.057754,10066.800811,-13942.938064,-2590.720797
4146.058079,-1628.453072,-11184.994271,-222.061783
4146.058403,-9252.574275,-11184.994271,1850.514855
4146.058727,-15766.386565,-10035.851024,-518.144159
4146.059052,-17764.942608,-9576.193725,1480.411884
4146.059376,-14063.912898,-5439.278036,296.082377
4146.059700,-10066.800811,-4749.792088,3923.091493
4146.060024,-1406.391290,-4903.011187,1850.514855
4146.060349,9030.512492,-4596.572988,-3478.967927
4146.060673,12805.562797,-10112.460574,518.144159
4146.060997,15396.283594,-4519.963438,-3330.926739
4146.061322,15026.180623,-12257.527968,2368.659014
4146.061646,11029.068536,-10495.508323,-4441.235652
4146.061970,1998.556043,-13100.233016,-370.102971
4146.062294,-4811.338623,-11031.775171,-1110.308913
4146.062619,-11991.336260,-11797.870669,370.102971
4146.062943,-16654.633695,-9576.193725,148.041188
4146.063267,-14582.057057,-7277.907231,1332.370696
4146.063592,-9844.739029,-4903.011187,1850.514855
4146.063916,-4959.379811,-5056.230287,1702.473667
4146.064240,8290.306550,-4673.182538,-1554.432478
4146.064564,11769.274478,-6052.154434,-1480.411884
4146.064889,15470.304188,-7584.345430,444.123565
4146.065213,17468.860231,-7814.174080,-2072.576638
4146.065537,11103.089130,-14479.204912,-2590.720797
4146.065862,6735.874072,-12640.575717,-2590.720797
4146.066186,-3330.926739,-13100.233016,1110.308913
4146.066510,-9326.594869,-9039.926876,-1554.432478
4146.066834,-17098.757260,-11874.480219,-592.164754
4146.067159,-15988.448347,-7737.564530,740.205942
4146.067483,-11325.150913,-5592.497135,1258.350101
4146.067807,-7328.038826,-4443.353888,2146.597232
4146.068132,-1110.308913,-6128.763984,1184.329507
4146.068456,7624.121203,-4443.353888,-2960.823768
4146.068780,12731.542202,-10112.460574,-814.226536
4146.069105,16432.571912,-9652.803275,-1480.411884
4146.069429,14804.118840,-10342.289223,-1258.350101
4146.069753,8660.409521,-12870.404366,-666.185348
4146.070077,-296.082377,-11874.480219,-2220.617826
4146.070402,-7105.977043,-12410.747068,-444.123565
4146.070726,-12879.583391,-10725.336972,-888.247130
4146.071050,-14878.139434,-8886.707777,1480.411884
4146.071375,-11843.295072,-4290.134789,222.061783
4146.071699,-6883.915261,-5439.278036,1850.514855
4146.072023,-962.267725,-4366.744339,1998.556043
4146.072347,8586.388927,-4290.134789,-1776.494261
4146.072672,14656.077652,-8273.831378,-1702.473667
4146.072996,13841.851115,-8427.050478,-1406.391290
4146.073320,15248.242405,-8886.707777,-1184.329507
4146.073645,11695.253884,-13176.842566,-1924.535449
4146.073969,4589.276840,-13789.718964,-1776.494261
4146.074293,-5551.544565,-11797.870669,0.000000
4146.074617,-11843.295072,-9959.241474,-1332.370696
4146.074942,-16580.613101,-10648.727422,1184.329507
4146.075266,-12213.398043,-6511.811733,222.061783
4146.075590,-11695.253884,-4443.353888,2072.576638
4146.075915,-3108.864956,-4519.963438,2442.679609
4146.076239,3775.050304,-3140.991542,1258.350101
4146.076563,7994.224174,-5056.230287,-1998.556043
4146.076887,16506.592507,-9116.536426,-1036.288319
4146.077212,15100.201217,-8427.050478,-1258.350101
4146.077536,11251.130318,-13406.671215,444.123565
4146.077860,5773.606348,-11261.603821,-3256.906145
4146.078185,-1702.473667,-13866.328514,370.102971
4146.078509,-9104.533087,-10112.460574,-1110.308913
4146.078833,-12213.398043,-10112.460574,814.226536
4146.079157,-13767.830521,-7354.516781,518.144159
4146.079482,-10140.821405,-5362.668486,1184.329507
4146.079806,-2590.720797,-4290.134789,1332.370696
4146.080130,1332.370696,-3907.087040,1258.350101
4146.080455,9104.533087,-5362.668486,-1924.535449
4146.080779,12731.542202,-8656.879127,-2664.741391
4146.081103,14730.098246,-10572.117872,-1184.329507
4146.081427,13027.624579,-9499.584175,-1406.391290
4146.081752,7550.100608,-12257.527968,-1406.391290
4146.082076,0.000000,-13253.452115,74.020594
4146.082400,-7698.141797,-11184.994271,-1480.411884
4146.082725,-12657.521608,-11338.213370,518.144159
4146.083049,-15766.386565,-8044.002729,666.185348
4146.083373,-10881.027347,-5669.106685,1702.473667
4146.083697,-8142.265362,-3983.696590,666.185348
4146.084022,-1110.308913,-4519.963438,1406.391290
4146.084346,5107.421000,-4213.525239,-814.226536
4146.084670,12361.439231,-8120.612279,-814.226536
4146.084995,14285.974681,-9039.926876,-1776.494261
