#time,accel_x,accel_y,accel_z
5670.418930,74.020594,-8427.050478,0.000000
5670.419255,222.061783,-8733.488677,0.000000
5670.419579,0.000000,-8733.488677,740.205942
5670.419904,592.164754,-8503.660028,0.000000
5670.420228,518.144159,-8810.098227,0.000000
5670.420553,444.123565,-8733.488677,296.082377
5670.420877,592.164754,-8503.660028,0.000000
5670.421202,222.061783,-8427.050478,74.020594
5670.421527,444.123565,-8580.269578,0.000000
5670.421851,296.082377,-8810.098227,0.000000
5670.422176,296.082377,-8427.050478,0.000000
5670.422500,0.000000,-8350.440928,-444.123565
5670.422825,148.041188,-8656.879127,-148.041188
5670.423149,296.082377,-8503.660028,-296.082377
5670.423474,148.041188,-8656.879127,-74.020594
5670.423798,592.164754,-8810.098227,0.000000
5670.424123,222.061783,-8580.269578,0.000000
5670.424447,222.061783,-8886.707777,0.000000
5670.424772,592.164754,-8427.050478,0.000000
5670.425096,592.164754,-9269.755526,-444.123565
5670.425421,888.247130,-8886.707777,-296.082377
5670.425746,518.144159,-8273.831378,-222.061783
5670.426070,518.144159,-8810.098227,-518.144159
5670.426395,0.000000,-8503.660028,-370.102971
5670.426719,592.164754,-8656.879127,-370.102971
5670.427044,518.144159,-8580.269578,-518.144159
5670.427368,444.123565,-8427.050478,0.000000
5670.427693,296.082377,-8580.269578,-148.041188
5670.428017,666.185348,-9346.365076,222.061783
5670.428342,444.123565,-8350.440928,-370.102971
5670.428666,666.185348,-9116.536426,-444.123565
5670.428991,518.144159,-8656.879127,-444.123565
5670.429315,370.102971,-8503.660028,-296.082377
5670.429640,222.061783,-8733.488677,-518.144159
5670.429964,444.123565,-8580.269578,-444.123565
5670.430289,296.082377,-8656.879127,-592.164754
5670.430614,370.102971,-8963.317327,-666.185348
5670.430938,296.082377,-8733.488677,0.000000
5670.431263,444.123565,-8580.269578,-296.082377
5670.431587,518.144159,-8733.488677,-296.082377
5670.431912,296.082377,-8503.660028,-592.164754
5670.432236,-148.041188,-8963.317327,296.082377
5670.432561,74.020594,-8350.440928,-296.082377
5670.432885,222.061783,-8503.660028,-444.123565
5670.433210,74.020594,-8733.488677,-444.123565
5670.433534,296.082377,-8656.879127,-370.102971
5670.433859,222.061783,-8733.488677,-814.226536
5670.434183,222.061783,-8656.879127,-592.164754
5670.434508,444.123565,-8656.879127,-518.144159
5670.434832,518.144159,-8656.879127,-370.102971
5670.435157,740.205942,-7967.393179,-666.185348
5670.435482,518.144159,-8580.269578,-592.164754
5670.435806,444.123565,-8580.269578,-370.102971
5670.436131,296.082377,-8656.879127,-370.102971
5670.436455,222.061783,-9422.974625,-592.164754
5670.436780,296.082377,-8427.050478,-370.102971
5670.437104,666.185348,-8886.707777,-296.082377
5670.437429,518.144159,-8886.707777,-518.144159
5670.437753,444.123565,-8656.879127,-296.082377
5670.438078,592.164754,-8963.317327,-370.102971
5670.438402,296.082377,-8427.050478,-370.102971
5670.438727,370.102971,-8503.660028,-222.061783
5670.439051,296.082377,-8580.269578,-222.061783
5670.439376,1332.370696,-8427.050478,0.000000
5670.439700,666.185348,-8350.440928,0.000000
5670.440025,370.102971,-8810.098227,0.000000
5670.440350,444.123565,-8580.269578,0.000000
5670.440674,592.164754,-8810.098227,0.000000
5670.440999,444.123565,-8503.660028,-222.061783
5670.441323,518.144159,-8733.488677,148.041188
5670.441648,296.082377,-8733.488677,0.000000
5670.441972,370.102971,-8733.488677,0.000000
5670.442297,740.205942,-8197.221829,0.000000
5670.442621,814.226536,-8580.269578,0.000000
5670.442946,518.144159,-8044.002729,370.102971
5670.443270,518.144159,-8427.050478,222.061783
5670.443595,888.247130,-8580.269578,-74.020594
5670.443919,888.247130,-8427.050478,74.020594
5670.444244,814.226536,-8427.050478,222.061783
5670.444569,592.164754,-8273.831378,74.020594
5670.444893,740.205942,-8656.879127,370.102971
5670.445218,740.205942,-8656.879127,74.020594
5670.445542,666.185348,-8503.660028,0.000000
5670.445867,370.102971,-8427.050478,0.000000
5670.446191,518.144159,-8733.488677,74.020594
5670.446516,814.226536,-8427.050478,74.020594
5670.446840,222.061783,-8427.050478,74.020594
5670.447165,148.041188,-8427.050478,148.041188
5670.447489,444.123565,-8427.050478,0.000000
5670.447814,1036.288319,-9116.536426,74.020594
5670.448138,592.164754,-8273.831378,0.000000
5670.448463,740.205942,-8810.098227,222.061783
5670.448787,592.164754,-8580.269578,74.020594
5670.449112,370.102971,-8503.660028,296.082377
5670.449437,222.061783,-8350.440928,0.000000
5670.449761,444.123565,-8120.612279,444.123565
5670.450086,74.020594,-8197.221829,74.020594
5670.450410,148.041188,-8656.879127,0.000000
5670.450735,222.061783,-8503.660028,-222.061783
5670.451059,296.082377,-8810.098227,296.082377
5670.451384,0.000000,-8273.831378,74.020594
5670.451708,296.082377,-8810.098227,592.164754
5670.452033,148.041188,-8733.488677,666.185348
5670.452357,0.000000,-8733.488677,296.082377
5670.452682,0.000000,-8580.269578,444.123565
5670.453006,0.000000,-8963.317327,296.082377
5670.453331,370.102971,-8273.831378,74.020594
5670.453655,0.000000,-8273.831378,370.102971
5670.453980,148.041188,-8656.879127,74.020594
5670.454305,0.000000,-8273.831378,148.041188
5670.454629,74.020594,-8503.660028,74.020594
5670.454954,370.102971,-9116.536426,518.144159
5670.455278,148.041188,-8656.879127,518.144159
5670.455603,74.020594,-8273.831378,444.123565
5670.455927,296.082377,-8273.831378,370.102971
5670.456252,370.102971,-9039.926876,222.061783
5670.456576,296.082377,-8197.221829,296.082377
5670.456901,370.102971,-8503.660028,518.144159
5670.457225,222.061783,-8503.660028,296.082377
5670.457550,296.082377,-8503.660028,370.102971
5670.457874,74.020594,-8580.269578,296.082377
5670.458199,148.041188,-8350.440928,518.144159
5670.458523,74.020594,-8810.098227,814.226536
5670.458848,518.144159,-8427.050478,814.226536
5670.459173,148.041188,-7967.393179,666.185348
5670.459497,296.082377,-8273.831378,592.164754
5670.459822,296.082377,-8350.440928,518.144159
5670.460146,518.144159,-8656.879127,740.205942
5670.460471,222.061783,-8350.440928,592.164754
5670.460795,518.144159,-8733.488677,370.102971
5670.461120,370.102971,-8197.221829,444.123565
5670.461444,222.061783,-8503.660028,518.144159
5670.461769,74.020594,-8580.269578,370.102971
5670.462093,148.041188,-8580.269578,444.123565
5670.462418,296.082377,-8733.488677,444.123565
5670.462742,222.061783,-8350.440928,444.123565
5670.463067,444.123565,-8350.440928,296.082377
5670.463392,814.226536,-9269.755526,0.000000
5670.463716,592.164754,-8120.612279,148.041188
5670.464041,370.102971,-8350.440928,0.000000
5670.464365,444.123565,-8350.440928,222.061783
5670.464690,444.123565,-8120.612279,0.000000
5670.465014,0.000000,-8503.660028,148.041188
5670.465339,222.061783,-8273.831378,0.000000
5670.465663,296.082377,-8580.269578,0.000000
5670.465988,0.000000,-8503.660028,148.041188
5670.466312,592.164754,-8197.221829,0.000000
5670.466637,444.123565,-8580.269578,-370.102971
5670.466961,518.144159,-8503.660028,-370.102971
5670.467286,592.164754,-8427.050478,-222.061783
5670.467610,666.185348,-8963.317327,-444.123565
5670.467935,518.144159,-8580.269578,-370.102971
5670.468260,740.205942,-8503.660028,-444.123565
5670.468584,592.164754,-8427.050478,-592.164754
5670.468909,370.102971,-8810.098227,-592.164754
5670.469233,370.102971,-8580.269578,-962.267725
5670.469558,518.144159,-8427.050478,-666.185348
5670.469882,370.102971,-8273.831378,-666.185348
5670.470207,444.123565,-9039.926876,-1110.308913
5670.470531,740.205942,-9346.365076,-962.267725
5670.470856,222.061783,-8197.221829,-1036.288319
5670.471180,444.123565,-9116.536426,-814.226536
5670.471505,370.102971,-8733.488677,-1184.329507
5670.471829,592.164754,-9422.974625,-1036.288319
5670.472154,148.041188,-8810.098227,-1184.329507
5670.472478,370.102971,-8810.098227,-1184.329507
5670.472803,222.061783,-8656.879127,-1332.370696
5670.473128,148.041188,-8580.269578,-1110.308913
5670.473452,148.041188,-8733.488677,-1554.432478
5670.473777,296.082377,-8886.707777,-1628.453072
5670.474101,370.102971,-8503.660028,-1184.329507
5670.474426,222.061783,-9039.926876,-1406.391290
5670.474750,814.226536,-8810.098227,-1554.432478
5670.475075,444.123565,-8886.707777,-1332.370696
5670.475399,888.247130,-8810.098227,-1776.494261
5670.475724,296.082377,-8810.098227,-1554.432478
5670.476048,666.185348,-8733.488677,-1332.370696
5670.476373,370.102971,-8733.488677,-1480.411884
5670.476697,370.102971,-8886.707777,-1554.432478
5670.477022,296.082377,-8656.879127,-1628.453072
5670.477346,296.082377,-8656.879127,-1554.432478
5670.477671,592.164754,-8656.879127,-1406.391290
5670.477996,74.020594,-8963.317327,-1554.432478
5670.478320,592.164754,-8733.488677,-1258.350101
5670.478645,444.123565,-8656.879127,-1332.370696
5670.478969,1036.288319,-8886.707777,-1258.350101
5670.479294,518.144159,-8656.879127,-1184.329507
5670.479618,444.123565,-8810.098227,-1332.370696
5670.479943,296.082377,-8350.440928,-1110.308913
5670.480267,370.102971,-8810.098227,-1184.329507
5670.480592,370.102971,-8733.488677,-1332.370696
5670.480916,296.082377,-8273.831378,-1258.350101
5670.481241,148.041188,-8503.660028,-1258.350101
5670.481565,370.102971,-8733.488677,-1110.308913
5670.481890,148.041188,-8350.440928,-592.164754
5670.482215,740.205942,-8810.098227,-814.226536
5670.482539,888.247130,-8733.488677,-1184.329507
5670.482864,592.164754,-8503.660028,-888.247130
5670.483188,962.267725,-9039.926876,-370.102971
5670.483513,518.144159,-8350.440928,-814.226536
5670.483837,592.164754,-8733.488677,-1036.288319
5670.484162,592.164754,-8427.050478,-962.267725
5670.484486,148.041188,-8580.269578,-740.205942
5670.484811,0.000000,-8886.707777,-740.205942
5670.485135,444.123565,-8886.707777,-740.205942
5670.485460,518.144159,-8733.488677,-296.082377
5670.485784,740.205942,-9039.926876,-370.102971
5670.486109,1036.288319,-8350.440928,-296.082377
5670.486433,666.185348,-8427.050478,-296.082377
5670.486758,740.205942,-8963.317327,-148.041188
5670.487083,740.205942,-8656.879127,-148.041188
5670.487407,740.205942,-9116.536426,-148.041188
5670.487732,518.144159,-8733.488677,-370.102971
5670.488056,518.144159,-8733.488677,-370.102971
5670.488381,518.144159,-8580.269578,-592.164754
5670.488705,370.102971,-8810.098227,-296.082377
5670.489030,888.247130,-8733.488677,-592.164754
5670.489354,666.185348,-8886.707777,0.000000
5670.489679,666.185348,-8120.612279,0.000000
5670.490003,888.247130,-8503.660028,0.000000
5670.490328,1036.288319,-8886.707777,-296.082377
5670.490652,888.247130,-8580.269578,74.020594
5670.490977,592.164754,-8810.098227,-444.123565
5670.491301,814.226536,-8580.269578,-296.082377
5670.491626,370.102971,-8503.660028,-592.164754
5670.491951,592.164754,-9269.755526,-296.082377
5670.492275,592.164754,-8503.660028,-444.123565
5670.492600,518.144159,-8733.488677,0.000000
5670.492924,666.185348,-8656.879127,-148.041188
5670.493249,740.205942,-9039.926876,74.020594
5670.493573,814.226536,-8886.707777,-296.082377
5670.493898,296.082377,-8580.269578,0.000000
5670.494222,666.185348,-8886.707777,-296.082377
5670.494547,592.164754,-8963.317327,74.020594
5670.494871,518.144159,-8580.269578,0.000000
5670.495196,74.020594,-8580.269578,-296.082377
5670.495520,518.144159,-9039.926876,0.000000
5670.495845,592.164754,-8656.879127,0.000000
5670.496169,740.205942,-8580.269578,-370.102971
5670.496494,444.123565,-8580.269578,-148.041188
5670.496819,222.061783,-8733.488677,0.000000
5670.497143,222.061783,-8503.660028,0.000000
5670.497468,74.020594,-8580.269578,0.000000
5670.497792,592.164754,-8427.050478,-444.123565
5670.498117,518.144159,-8656.879127,-370.102971
5670.498441,666.185348,-8580.269578,-444.123565
5670.498766,444.123565,-8963.317327,-296.082377
5670.499090,370.102971,-8656.879127,-666.185348
5670.499415,370.102971,-8580.269578,-666.185348
5670.499739,222.061783,-8503.660028,-888.247130
5670.500064,592.164754,-8810.098227,-666.185348
5670.500388,74.020594,-8580.269578,-1036.288319
5670.500713,444.123565,-8656.879127,-962.267725
5670.501038,222.061783,-8273.831378,-1110.308913
5670.501362,74.020594,-8886.707777,-962.267725
5670.501687,740.205942,-8273.831378,-814.226536
5670.502011,74.020594,-8503.660028,-1036.288319
5670.502335,296.082377,-8886.707777,-962.267725
5670.502659,296.082377,-8580.269578,-1110.308913
5670.502984,222.061783,-8580.269578,-1110.308913
5670.503308,444.123565,-8427.050478,-1036.288319
5670.503632,444.123565,-8503.660028,-962.267725
5670.503957,296.082377,-8656.879127,-1258.350101
5670.504281,148.041188,-8427.050478,-1258.350101
5670.504605,296.082377,-8350.440928,-1258.350101
5670.504930,370.102971,-8810.098227,-1184.329507
5670.505254,222.061783,-8273.831378,-962.267725
5670.505578,518.144159,-8810.098227,-740.205942
5670.505903,296.082377,-8810.098227,-1258.350101
5670.506227,518.144159,-8503.660028,-1110.308913
5670.506551,444.123565,-8427.050478,-962.267725
5670.506875,370.102971,-8886.707777,-962.267725
5670.507200,222.061783,-9116.536426,-1184.329507
5670.507524,518.144159,-8580.269578,-888.247130
5670.507848,296.082377,-8197.221829,-1184.329507
5670.508173,444.123565,-8503.660028,-962.267725
5670.508497,222.061783,-8503.660028,-1184.329507
5670.508821,222.061783,-8273.831378,-888.247130
5670.509146,296.082377,-8503.660028,-1036.288319
5670.509470,740.205942,-8427.050478,-962.267725
5670.509794,666.185348,-8656.879127,-888.247130
5670.510118,370.102971,-8580.269578,-666.185348
5670.510443,296.082377,-8656.879127,-740.205942
5670.510767,370.102971,-8273.831378,-814.226536
5670.511091,370.102971,-8503.660028,-592.164754
5670.511416,148.041188,-8350.440928,-518.144159
5670.511740,518.144159,-8656.879127,-888.247130
5670.512064,444.123565,-8197.221829,-740.205942
5670.512389,518.144159,-8580.269578,0.000000
5670.512713,296.082377,-8503.660028,-740.205942
5670.513037,296.082377,-8503.660028,0.000000
5670.513361,518.144159,-8273.831378,-444.123565
5670.513686,444.123565,-8503.660028,0.000000
5670.514010,222.061783,-8427.050478,-444.123565
5670.514334,296.082377,-8044.002729,-296.082377
5670.514659,370.102971,-8503.660028,-148.041188
5670.514983,296.082377,-8580.269578,-444.123565
5670.515307,148.041188,-8886.707777,-370.102971
5670.515632,444.123565,-8044.002729,-222.061783
5670.515956,444.123565,-8580.269578,-148.041188
5670.516280,518.144159,-8427.050478,-296.082377
5670.516604,740.205942,-8580.269578,-444.123565
5670.516929,666.185348,-8503.660028,-296.082377
5670.517253,962.267725,-8886.707777,0.000000
5670.517577,296.082377,-8197.221829,-296.082377
5670.517902,592.164754,-8427.050478,-148.041188
5670.518226,222.061783,-8120.612279,-444.123565
5670.518550,74.020594,-8963.317327,0.000000
5670.518875,222.061783,-8197.221829,-518.144159
5670.519199,518.144159,-8656.879127,-296.082377
5670.519523,296.082377,-8350.440928,-370.102971
5670.519848,592.164754,-8656.879127,-370.102971
5670.520172,814.226536,-8427.050478,-222.061783
5670.520496,444.123565,-8427.050478,0.000000
5670.520820,666.185348,-8580.269578,0.000000
5670.521145,370.102971,-8427.050478,-444.123565
5670.521469,962.267725,-8733.488677,-370.102971
5670.521793,222.061783,-8503.660028,-518.144159
5670.522118,370.102971,-8886.707777,-592.164754
5670.522442,370.102971,-8427.050478,-296.082377
5670.522766,518.144159,-8810.098227,222.061783
5670.523091,592.164754,-8886.707777,-666.185348
5670.523415,666.185348,-8503.660028,-222.061783
5670.523739,592.164754,-8350.440928,-814.226536
5670.524063,592.164754,-8273.831378,-370.102971
5670.524388,592.164754,-8733.488677,-296.082377
5670.524712,592.164754,-8273.831378,-518.144159
5670.525036,518.144159,-8273.831378,-296.082377
5670.525361,666.185348,-8580.269578,-592.164754
5670.525685,592.164754,-9269.755526,-74.020594
5670.526009,444.123565,-8273.831378,-666.185348
5670.526334,518.144159,-8886.707777,-592.164754
5670.526658,444.123565,-8273.831378,-592.164754
5670.526982,444.123565,-8580.269578,-148.041188
5670.527306,666.185348,-8656.879127,-444.123565
5670.527631,444.123565,-8503.660028,-74.020594
5670.527955,444.123565,-8810.098227,0.000000
5670.528279,370.102971,-8656.879127,-222.061783
5670.528604,370.102971,-8733.488677,-222.061783
5670.528928,444.123565,-8733.488677,-370.102971
5670.529252,814.226536,-8810.098227,-296.082377
5670.529577,518.144159,-8733.488677,-370.102971
5670.529901,814.226536,-8886.707777,-370.102971
5670.530225,444.123565,-8656.879127,148.041188
5670.530549,666.185348,-8350.440928,-222.061783
5670.530874,592.164754,-8427.050478,-222.061783
5670.531198,666.185348,-8580.269578,0.000000
5670.531522,222.061783,-8733.488677,74.020594
5670.531847,592.164754,-8503.660028,0.000000
5670.532171,444.123565,-8427.050478,0.000000
5670.532495,518.144159,-8886.707777,0.000000
5670.532820,740.205942,-8580.269578,296.082377
5670.533144,296.082377,-8427.050478,148.041188
5670.533468,592.164754,-8963.317327,74.020594
5670.533792,296.082377,-8273.831378,74.020594
5670.534117,740.205942,-8427.050478,148.041188
5670.534441,518.144159,-8427.050478,148.041188
5670.534765,518.144159,-8656.879127,222.061783
5670.535090,814.226536,-8503.660028,0.000000
5670.535414,518.144159,-8656.879127,148.041188
5670.535738,518.144159,-8580.269578,444.123565
5670.536063,740.205942,-8580.269578,0.000000
5670.536387,370.102971,-8273.831378,444.123565
5670.536711,296.082377,-8427.050478,74.020594
5670.537036,888.247130,-8503.660028,592.164754
5670.537360,814.226536,-8503.660028,74.020594
5670.537684,666.185348,-8427.050478,-148.041188
5670.538008,666.185348,-8580.269578,148.041188
5670.538333,518.144159,-7660.954980,370.102971
5670.538657,740.205942,-8580.269578,0.000000
5670.538981,296.082377,-8350.440928,222.061783
5670.539306,592.164754,-8963.317327,0.000000
5670.539630,666.185348,-8580.269578,-74.020594
5670.539954,444.123565,-8427.050478,0.000000
5670.540279,296.082377,-9116.536426,0.000000
5670.540603,296.082377,-8810.098227,0.000000
5670.540927,518.144159,-8963.317327,148.041188
5670.541251,222.061783,-8120.612279,-148.041188
5670.541576,148.041188,-8886.707777,148.041188
5670.541900,370.102971,-8656.879127,-148.041188
5670.542224,666.185348,-9039.926876,-148.041188
5670.542549,814.226536,-9039.926876,-444.123565
5670.542873,592.164754,-8963.317327,-296.082377
5670.543197,444.123565,-8580.269578,-444.123565
5670.543522,296.082377,-9039.926876,-370.102971
5670.543846,296.082377,-9039.926876,-370.102971
5670.544170,296.082377,-8810.098227,-518.144159
5670.544494,370.102971,-9039.926876,-666.185348
5670.544819,222.061783,-8733.488677,-444.123565
5670.545143,518.144159,-8733.488677,-666.185348
5670.545467,296.082377,-9039.926876,-370.102971
5670.545792,296.082377,-8733.488677,-296.082377
5670.546116,518.144159,-8886.707777,-592.164754
5670.546440,666.185348,-9039.926876,-370.102971
5670.546765,148.041188,-8810.098227,-296.082377
5670.547089,518.144159,-8886.707777,-444.123565
5670.547413,444.123565,-8963.317327,-444.123565
5670.547737,222.061783,-8580.269578,-296.082377
5670.548062,296.082377,-8886.707777,-370.102971
5670.548386,592.164754,-8810.098227,-592.164754
5670.548710,148.041188,-8656.879127,-370.102971
5670.549035,444.123565,-8810.098227,-444.123565
5670.549359,0.000000,-8503.660028,-518.144159
5670.549683,518.144159,-9193.145976,-370.102971
5670.550008,518.144159,-8503.660028,-222.061783
5670.550332,370.102971,-8350.440928,-148.041188
5670.550656,74.020594,-8733.488677,-222.061783
5670.550981,222.061783,-8580.269578,-148.041188
5670.551305,296.082377,-8580.269578,-222.061783
5670.551629,148.041188,-8656.879127,-296.082377
5670.551953,296.082377,-8656.879127,0.000000
5670.552278,148.041188,-8580.269578,-222.061783
5670.552602,222.061783,-8810.098227,74.020594
5670.552926,296.082377,-8273.831378,-148.041188
5670.553251,370.102971,-8656.879127,-222.061783
5670.553575,222.061783,-8503.660028,74.020594
5670.553899,444.123565,-8733.488677,222.061783
5670.554224,0.000000,-8733.488677,0.000000
5670.554548,444.123565,-8350.440928,0.000000
5670.554872,222.061783,-8733.488677,74.020594
5670.555196,74.020594,-8810.098227,444.123565
5670.555521,148.041188,-8580.269578,0.000000
5670.555845,222.061783,-8503.660028,0.000000
5670.556169,222.061783,-8656.879127,0.000000
5670.556494,0.000000,-8580.269578,74.020594
5670.556818,592.164754,-9269.755526,-222.061783
5670.557142,296.082377,-8044.002729,148.041188
5670.557467,148.041188,-8580.269578,0.000000
5670.557791,74.020594,-8580.269578,0.000000
5670.558115,518.144159,-9193.145976,370.102971
5670.558439,148.041188,-8656.879127,0.000000
5670.558764,296.082377,-8350.440928,148.041188
5670.559088,0.000000,-8197.221829,222.061783
5670.559412,518.144159,-8427.050478,222.061783
5670.559737,74.020594,-8350.440928,370.102971
5670.560061,444.123565,-8656.879127,0.000000
5670.560385,222.061783,-8656.879127,296.082377
5670.560710,222.061783,-8656.879127,518.144159
5670.561034,518.144159,-9039.926876,370.102971
5670.561358,444.123565,-8656.879127,444.123565
5670.561682,592.164754,-8733.488677,370.102971
5670.562007,370.102971,-8580.269578,296.082377
5670.562331,370.102971,-8810.098227,444.123565
5670.562655,148.041188,-8733.488677,148.041188
5670.562980,222.061783,-8886.707777,148.041188
5670.563304,222.061783,-8197.221829,-148.041188
5670.563628,444.123565,-8886.707777,0.000000
5670.563953,592.164754,-8810.098227,-74.020594
5670.564277,222.061783,-8503.660028,0.000000
5670.564601,222.061783,-8427.050478,0.000000
5670.564925,592.164754,-8580.269578,0.000000
5670.565250,592.164754,-8963.317327,-518.144159
5670.565574,592.164754,-8733.488677,0.000000
5670.565898,370.102971,-8503.660028,0.000000
5670.566223,444.123565,-8580.269578,-148.041188
5670.566547,518.144159,-8810.098227,0.000000
5670.566871,296.082377,-8656.879127,0.000000
5670.567196,148.041188,-8733.488677,0.000000
5670.567520,0.000000,-8350.440928,0.000000
5670.567844,222.061783,-8733.488677,0.000000
5670.568169,370.102971,-9116.536426,0.000000
5670.568493,222.061783,-8503.660028,0.000000
5670.568817,296.082377,-8580.269578,-74.020594
5670.569141,222.061783,-8656.879127,0.000000
5670.569466,222.061783,-8963.317327,-222.061783
5670.569790,518.144159,-8580.269578,-148.041188
5670.570114,370.102971,-8273.831378,-518.144159
5670.570439,444.123565,-8580.269578,-370.102971
5670.570763,444.123565,-8580.269578,-296.082377
5670.571087,296.082377,-8580.269578,0.000000
5670.571412,370.102971,-8580.269578,-370.102971
5670.571736,0.000000,-8350.440928,-370.102971
5670.572060,518.144159,-8273.831378,-444.123565
5670.572384,74.020594,-8580.269578,0.000000
5670.572709,444.123565,-8580.269578,-444.123565
5670.573033,518.144159,-8044.002729,-518.144159
5670.573357,444.123565,-8580.269578,-444.123565
5670.573682,518.144159,-8733.488677,-592.164754
5670.574006,222.061783,-8656.879127,-666.185348
5670.574330,222.061783,-8273.831378,-370.102971
5670.574655,148.041188,-8656.879127,-370.102971
5670.574979,444.123565,-8580.269578,-518.144159
5670.575303,444.123565,-8273.831378,-666.185348
5670.575627,444.123565,-8503.660028,-518.144159
5670.575952,296.082377,-8427.050478,-740.205942
5670.576276,370.102971,-8503.660028,-740.205942
5670.576600,814.226536,-8273.831378,-518.144159
5670.576925,592.164754,-8197.221829,-666.185348
5670.577249,814.226536,-9039.926876,-666.185348
5670.577573,592.164754,-8350.440928,-666.185348
5670.577898,592.164754,-8733.488677,-296.082377
5670.578222,370.102971,-8427.050478,-666.185348
5670.578546,518.144159,-8580.269578,-222.061783
5670.578870,148.041188,-8350.440928,-518.144159
5670.579195,666.185348,-8427.050478,-666.185348
5670.579519,592.164754,-9039.926876,-148.041188
5670.579843,296.082377,-8503.660028,-296.082377
5670.580168,518.144159,-8580.269578,-518.144159
5670.580492,296.082377,-8503.660028,-370.102971
5670.580816,148.041188,-9269.755526,0.000000
5670.581141,592.164754,-9039.926876,-518.144159
5670.581465,222.061783,-8350.440928,-370.102971
5670.581789,74.020594,-8886.707777,-296.082377
5670.582114,444.123565,-8810.098227,-370.102971
5670.582438,296.082377,-8580.269578,-518.144159
5670.582762,444.123565,-8810.098227,-666.185348
5670.583086,370.102971,-8733.488677,-592.164754
5670.583411,444.123565,-8580.269578,-740.205942
5670.583735,592.164754,-8580.269578,-592.164754
5670.584059,666.185348,-8656.879127,-740.205942
5670.584384,592.164754,-8810.098227,-666.185348
5670.584708,518.144159,-8503.660028,-666.185348
5670.585032,814.226536,-8733.488677,-296.082377
5670.585357,518.144159,-8656.879127,-592.164754
5670.585681,666.185348,-8427.050478,-666.185348
5670.586005,740.205942,-8503.660028,-740.205942
5670.586329,518.144159,-8733.488677,-592.164754
5670.586654,222.061783,-8503.660028,-296.082377
5670.586978,666.185348,-8656.879127,-296.082377
5670.587302,592.164754,-8733.488677,-370.102971
5670.587627,518.144159,-8656.879127,-444.123565
5670.587951,592.164754,-8810.098227,0.000000
5670.588275,518.144159,-8503.660028,0.000000
5670.588600,518.144159,-8427.050478,-148.041188
5670.588924,666.185348,-8656.879127,-296.082377
5670.589248,666.185348,-7967.393179,74.020594
5670.589572,592.164754,-8503.660028,-296.082377
5670.589897,444.123565,-8427.050478,-370.102971
5670.590221,740.205942,-8503.660028,-444.123565
5670.590545,444.123565,-8580.269578,-518.144159
5670.590870,222.061783,-7737.564530,-296.082377
5670.591194,592.164754,-8580.269578,-518.144159
5670.591518,814.226536,-8503.660028,-370.102971
5670.591843,888.247130,-8273.831378,-296.082377
5670.592167,740.205942,-7967.393179,-592.164754
5670.592491,888.247130,-8427.050478,-518.144159
5670.592815,518.144159,-8503.660028,-592.164754
5670.593140,296.082377,-8503.660028,-592.164754
5670.593464,666.185348,-8963.317327,-222.061783
5670.593788,370.102971,-8273.831378,-740.205942
5670.594113,518.144159,-8580.269578,-370.102971
5670.594437,370.102971,-8580.269578,-666.185348
5670.594761,296.082377,-8733.488677,-518.144159
5670.595086,370.102971,-8044.002729,0.000000
5670.595410,370.102971,-8733.488677,-296.082377
5670.595734,370.102971,-8427.050478,-444.123565
5670.596058,592.164754,-8580.269578,-370.102971
5670.596383,518.144159,-8427.050478,-296.082377
5670.596707,518.144159,-8503.660028,-592.164754
5670.597031,222.061783,-8886.707777,-444.123565
5670.597356,370.102971,-8886.707777,-592.164754
5670.597680,592.164754,-8810.098227,-666.185348
5670.598004,444.123565,-8273.831378,-888.247130
5670.598329,592.164754,-8733.488677,-592.164754
5670.598653,518.144159,-8580.269578,-592.164754
5670.598977,518.144159,-8886.707777,-888.247130
5670.599302,370.102971,-8656.879127,-518.144159
5670.599626,518.144159,-8656.879127,-444.123565
5670.599950,592.164754,-8503.660028,-740.205942
5670.600274,444.123565,-8503.660028,-518.144159
5670.600599,1036.288319,-8656.879127,-740.205942
5670.600923,370.102971,-8580.269578,-592.164754
5670.601247,518.144159,-8733.488677,-592.164754
5670.601572,666.185348,-9039.926876,-740.205942
5670.601896,740.205942,-8656.879127,-370.102971
5670.602220,444.123565,-8503.660028,-370.102971
5670.602544,296.082377,-8810.098227,-666.185348
5670.602869,296.082377,-8580.269578,-518.144159
5670.603193,666.185348,-8733.488677,-592.164754
5670.603517,814.226536,-8273.831378,-962.267725
5670.603841,518.144159,-8503.660028,-148.041188
5670.604165,222.061783,-8656.879127,-444.123565
5670.604490,666.185348,-8810.098227,-222.061783
5670.604814,740.205942,-8580.269578,-592.164754
5670.605138,370.102971,-8963.317327,-296.082377
5670.605462,666.185348,-8197.221829,0.000000
5670.605787,370.102971,-8733.488677,-148.041188
5670.606111,444.123565,-8503.660028,-444.123565
5670.606435,666.185348,-8350.440928,0.000000
5670.606759,444.123565,-8733.488677,-370.102971
5670.607083,370.102971,-8427.050478,-370.102971
5670.607408,370.102971,-8656.879127,-296.082377
5670.607732,444.123565,-8197.221829,-222.061783
5670.608056,370.102971,-8733.488677,-444.123565
5670.608380,518.144159,-8886.707777,-370.102971
5670.608704,370.102971,-8580.269578,-444.123565
5670.609029,444.123565,-8273.831378,-444.123565
5670.609353,518.144159,-8656.879127,-444.123565
5670.609677,296.082377,-8580.269578,-592.164754
5670.610001,444.123565,-8503.660028,-592.164754
5670.610325,296.082377,-8886.707777,-962.267725
5670.610650,444.123565,-8656.879127,-1036.288319
5670.610974,518.144159,-8656.879127,-740.205942
5670.611298,296.082377,-8963.317327,-740.205942
5670.611622,222.061783,-8656.879127,-740.205942
5670.611946,370.102971,-9269.755526,-814.226536
5670.612271,444.123565,-8886.707777,-666.185348
5670.612595,74.020594,-8580.269578,-666.185348
5670.612919,0.000000,-8733.488677,-666.185348
5670.613243,222.061783,-8963.317327,-592.164754
5670.613567,666.185348,-8656.879127,-962.267725
5670.613892,74.020594,-8733.488677,-888.247130
5670.614216,518.144159,-8656.879127,-666.185348
5670.614540,370.102971,-8733.488677,-666.185348
5670.614864,592.164754,-8733.488677,-888.247130
5670.615188,444.123565,-9039.926876,-740.205942
5670.615513,518.144159,-8580.269578,-888.247130
5670.615837,518.144159,-8656.879127,-666.185348
5670.616161,444.123565,-9652.803275,-814.226536
5670.616485,444.123565,-8810.098227,-666.185348
5670.616809,370.102971,-8733.488677,-814.226536
5670.617134,592.164754,-8886.707777,-962.267725
5670.617458,148.041188,-8733.488677,-962.267725
5670.617782,518.144159,-8733.488677,-962.267725
5670.618106,444.123565,-8656.879127,-740.205942
5670.618431,370.102971,-8656.879127,-962.267725
5670.618755,518.144159,-8733.488677,-1110.308913
5670.619079,814.226536,-8963.317327,-888.247130
5670.619403,592.164754,-8273.831378,-814.226536
5670.619727,592.164754,-8656.879127,-1184.329507
5670.620052,592.164754,-8503.660028,-814.226536
5670.620376,666.185348,-8120.612279,-814.226536
5670.620700,666.185348,-8656.879127,-1036.288319
5670.621024,444.123565,-8580.269578,-814.226536
5670.621348,518.144159,-8733.488677,-592.164754
5670.621673,518.144159,-8503.660028,-666.185348
5670.621997,518.144159,-8427.050478,-740.205942
5670.622321,518.144159,-8733.488677,-740.205942
5670.622645,518.144159,-8350.440928,-518.144159
5670.622969,296.082377,-8580.269578,-592.164754
5670.623294,666.185348,-8810.098227,-444.123565
5670.623618,370.102971,-8350.440928,-518.144159
5670.623942,444.123565,-8580.269578,-666.185348
5670.624266,296.082377,-8810.098227,-296.082377
5670.624590,518.144159,-8810.098227,-888.247130
5670.624915,518.144159,-8810.098227,-444.123565
5670.625239,296.082377,-8503.660028,-370.102971
5670.625563,444.123565,-8427.050478,-444.123565
5670.625887,222.061783,-8733.488677,-296.082377
5670.626211,740.205942,-8427.050478,-222.061783
5670.626536,148.041188,-8503.660028,-518.144159
5670.626860,222.061783,-8580.269578,-370.102971
5670.627184,296.082377,-8427.050478,-518.144159
5670.627508,444.123565,-8656.879127,-592.164754
5670.627832,148.041188,-8656.879127,-444.123565
5670.628157,222.061783,-8503.660028,-296.082377
5670.628481,370.102971,-8733.488677,-222.061783
5670.628805,444.123565,-9422.974625,-222.061783
5670.629129,666.185348,-8886.707777,-370.102971
5670.629454,592.164754,-8733.488677,0.000000
5670.629778,518.144159,-8580.269578,0.000000
5670.630102,296.082377,-8503.660028,-222.061783
5670.630426,444.123565,-8350.440928,-370.102971
5670.630750,592.164754,-8503.660028,-444.123565
5670.631075,814.226536,-8656.879127,-222.061783
5670.631399,444.123565,-8656.879127,0.000000
5670.631723,814.226536,-8656.879127,0.000000
5670.632047,296.082377,-8733.488677,74.020594
5670.632371,592.164754,-8273.831378,0.000000
5670.632696,592.164754,-8656.879127,0.000000
5670.633020,962.267725,-8427.050478,0.000000
5670.633344,666.185348,-8656.879127,0.000000
5670.633668,592.164754,-8656.879127,-222.061783
5670.633992,444.123565,-8580.269578,-148.041188
5670.634317,444.123565,-8503.660028,-296.082377
5670.634641,888.247130,-8503.660028,-370.102971
5670.634965,444.123565,-8580.269578,-148.041188
5670.635289,592.164754,-8963.317327,-296.082377
5670.635613,296.082377,-8733.488677,0.000000
5670.635938,592.164754,-9116.536426,-518.144159
5670.636262,518.144159,-8886.707777,-222.061783
5670.636586,518.144159,-8197.221829,-296.082377
5670.636910,444.123565,-8580.269578,-296.082377
5670.637234,444.123565,-8656.879127,-444.123565
5670.637559,740.205942,-8580.269578,-592.164754
5670.637883,666.185348,-8963.317327,-740.205942
5670.638207,518.144159,-8580.269578,-518.144159
5670.638531,296.082377,-8580.269578,-518.144159
5670.638855,814.226536,-9116.536426,-222.061783
5670.639180,518.144159,-8503.660028,-666.185348
5670.639504,666.185348,-8810.098227,-666.185348
5670.639828,592.164754,-8810.098227,-666.185348
5670.640152,814.226536,-8963.317327,-222.061783
5670.640477,444.123565,-8733.488677,-370.102971
5670.640801,592.164754,-8580.269578,-666.185348
5670.641125,518.144159,-8580.269578,-666.185348
5670.641449,518.144159,-8656.879127,-592.164754
5670.641773,592.164754,-8580.269578,-518.144159
5670.642098,296.082377,-8427.050478,-296.082377
5670.642422,370.102971,-8580.269578,-444.123565
5670.642746,592.164754,-8503.660028,-518.144159
5670.643070,592.164754,-8044.002729,-666.185348
5670.643394,222.061783,-8503.660028,-370.102971
5670.643719,444.123565,-8580.269578,-296.082377
5670.644043,370.102971,-8733.488677,-370.102971
5670.644367,518.144159,-8963.317327,-592.164754
5670.644691,370.102971,-8503.660028,-666.185348
5670.645015,296.082377,-8580.269578,-370.102971
5670.645340,370.102971,-8656.879127,-518.144159
5670.645664,296.082377,-8580.269578,-222.061783
5670.645988,222.061783,-8427.050478,-444.123565
5670.646312,370.102971,-8427.050478,-518.144159
5670.646636,370.102971,-8580.269578,-518.144159
5670.646961,518.144159,-8120.612279,-148.041188
5670.647285,888.247130,-8273.831378,-592.164754
5670.647609,296.082377,-8503.660028,-222.061783
5670.647933,518.144159,-8044.002729,-148.041188
5670.648257,222.061783,-8580.269578,-296.082377
5670.648582,518.144159,-8273.831378,0.000000
5670.648906,148.041188,-8963.317327,0.000000
5670.649230,444.123565,-8656.879127,0.000000
5670.649554,296.082377,-8503.660028,74.020594
5670.649878,296.082377,-8733.488677,0.000000
5670.650203,740.205942,-8427.050478,74.020594
5670.650527,444.123565,-8120.612279,222.061783
5670.650851,0.000000,-8503.660028,74.020594
5670.651175,296.082377,-8427.050478,0.000000
5670.651500,666.185348,-8886.707777,0.000000
5670.651824,444.123565,-8503.660028,0.000000
5670.652148,444.123565,-8580.269578,296.082377
5670.652472,296.082377,-8580.269578,0.000000
5670.652796,148.041188,-8580.269578,0.000000
5670.653121,0.000000,-8503.660028,296.082377
5670.653445,0.000000,-8580.269578,-148.041188
5670.653769,222.061783,-8580.269578,0.000000
5670.654093,0.000000,-8427.050478,0.000000
5670.654417,0.000000,-8350.440928,444.123565
5670.654742,444.123565,-8427.050478,0.000000
5670.655066,370.102971,-8810.098227,0.000000
5670.655390,222.061783,-8503.660028,-370.102971
5670.655714,222.061783,-8810.098227,444.123565
5670.656038,0.000000,-8733.488677,74.020594
5670.656363,148.041188,-8580.269578,222.061783
5670.656687,148.041188,-8580.269578,0.000000
5670.657011,148.041188,-8656.879127,-296.082377
5670.657335,0.000000,-8733.488677,74.020594
5670.657659,148.041188,-8810.098227,148.041188
5670.657984,518.144159,-8733.488677,0.000000
5670.658308,296.082377,-8580.269578,-148.041188
5670.658632,222.061783,-8656.879127,0.000000
5670.658956,148.041188,-8580.269578,148.041188
5670.659280,222.061783,-8886.707777,-148.041188
5670.659605,444.123565,-8733.488677,0.000000
5670.659929,370.102971,-8503.660028,0.000000
5670.660253,148.041188,-8580.269578,-444.123565
5670.660577,370.102971,-8580.269578,-370.102971
5670.660901,370.102971,-8273.831378,0.000000
5670.661226,148.041188,-8580.269578,0.000000
5670.661550,592.164754,-8656.879127,-222.061783
5670.661874,518.144159,-8427.050478,-296.082377
5670.662198,518.144159,-8427.050478,-296.082377
5670.662523,222.061783,-8427.050478,-148.041188
5670.662847,666.185348,-8580.269578,-148.041188
5670.663171,296.082377,-8580.269578,-370.102971
5670.663495,222.061783,-8350.440928,0.000000
5670.663819,222.061783,-8580.269578,-296.082377
5670.664144,148.041188,-8656.879127,0.000000
5670.664468,222.061783,-8350.440928,148.041188
5670.664792,296.082377,-8733.488677,-444.123565
5670.665116,518.144159,-8580.269578,-370.102971
5670.665440,518.144159,-8350.440928,-222.061783
5670.665765,592.164754,-8963.317327,-296.082377
5670.666089,296.082377,-8503.660028,-222.061783
5670.666413,370.102971,-8580.269578,0.000000
5670.666737,296.082377,-8273.831378,74.020594
5670.667061,814.226536,-7814.174080,74.020594
5670.667386,296.082377,-8810.098227,-148.041188
5670.667710,444.123565,-8273.831378,0.000000
5670.668034,222.061783,-8427.050478,0.000000
5670.668358,74.020594,-8810.098227,0.000000
5670.668682,222.061783,-8350.440928,0.000000
5670.669007,370.102971,-8427.050478,-222.061783
5670.669331,370.102971,-8503.660028,0.000000
5670.669655,148.041188,-8580.269578,74.020594
5670.669979,592.164754,-8580.269578,370.102971
5670.670303,222.061783,-8503.660028,0.000000
5670.670628,444.123565,-8733.488677,0.000000
5670.670952,444.123565,-8427.050478,74.020594
5670.671276,0.000000,-8120.612279,296.082377
5670.671600,444.123565,-8810.098227,-222.061783
5670.671924,148.041188,-8350.440928,0.000000
5670.672249,592.164754,-8810.098227,0.000000
5670.672573,592.164754,-8503.660028,-222.061783
5670.672897,296.082377,-8273.831378,148.041188
5670.673221,296.082377,-8427.050478,-222.061783
5670.673545,518.144159,-8580.269578,74.020594
5670.673870,370.102971,-8503.660028,-370.102971
5670.674194,444.123565,-8580.269578,-444.123565
5670.674518,370.102971,-8427.050478,-74.020594
5670.674842,592.164754,-8580.269578,0.000000
5670.675167,148.041188,-8886.707777,0.000000
5670.675491,666.185348,-8733.488677,0.000000
5670.675815,370.102971,-8810.098227,0.000000
5670.676139,222.061783,-8580.269578,-148.041188
5670.676463,518.144159,-8810.098227,0.000000
5670.676788,222.061783,-8886.707777,0.000000
5670.677112,518.144159,-9039.926876,74.020594
5670.677436,370.102971,-8427.050478,-148.041188
5670.677760,444.123565,-9039.926876,0.000000
5670.678084,296.082377,-8350.440928,0.000000
5670.678409,814.226536,-8886.707777,-666.185348
5670.678733,296.082377,-8656.879127,-222.061783
5670.679057,592.164754,-8810.098227,0.000000
5670.679381,518.144159,-8886.707777,-148.041188
5670.679705,444.123565,-8273.831378,0.000000
5670.680030,666.185348,-8810.098227,-222.061783
5670.680354,740.205942,-8427.050478,0.000000
5670.680678,592.164754,-8197.221829,-296.082377
5670.681002,370.102971,-8580.269578,-222.061783
5670.681326,962.267725,-8810.098227,-444.123565
5670.681651,296.082377,-8427.050478,-222.061783
5670.681975,666.185348,-8810.098227,-296.082377
5670.682299,444.123565,-8427.050478,-370.102971
5670.682623,1406.391290,-9806.022374,-666.185348
5670.682947,444.123565,-8503.660028,-592.164754
5670.683272,518.144159,-8886.707777,-222.061783
5670.683596,370.102971,-8656.879127,0.000000
5670.683920,518.144159,-8580.269578,0.000000
5670.684244,444.123565,-8656.879127,-222.061783
5670.684568,518.144159,-9039.926876,-370.102971
5670.684893,518.144159,-8427.050478,-148.041188
5670.685217,222.061783,-8350.440928,-444.123565
5670.685541,814.226536,-8810.098227,-444.123565
5670.685865,370.102971,-8427.050478,-444.123565
5670.686190,592.164754,-8733.488677,-592.164754
5670.686514,370.102971,-8656.879127,-518.144159
5670.686838,592.164754,-8427.050478,-518.144159
5670.687162,518.144159,-8810.098227,-444.123565
5670.687486,592.164754,-8733.488677,-296.082377
5670.687811,666.185348,-8427.050478,-444.123565
5670.688135,518.144159,-8733.488677,-592.164754
5670.688459,592.164754,-8350.440928,-518.144159
5670.688783,222.061783,-8427.050478,-370.102971
5670.689107,222.061783,-8733.488677,-370.102971
5670.689432,518.144159,-8350.440928,-518.144159
5670.689756,518.144159,-9039.926876,-592.164754
5670.690080,370.102971,-8580.269578,-592.164754
5670.690404,296.082377,-8350.440928,-518.144159
5670.690728,296.082377,-8197.221829,-296.082377
5670.691053,444.123565,-9652.803275,-222.061783
5670.691377,444.123565,-8580.269578,-592.164754
5670.691701,666.185348,-8580.269578,-592.164754
5670.692025,518.144159,-8273.831378,-592.164754
5670.692349,444.123565,-8810.098227,-740.205942
5670.692674,814.226536,-8580.269578,-888.247130
5670.692998,518.144159,-8656.879127,-740.205942
5670.693322,518.144159,-8503.660028,-444.123565
5670.693646,518.144159,-8427.050478,-592.164754
5670.693970,518.144159,-8963.317327,-518.144159
5670.694295,148.041188,-8273.831378,-444.123565
5670.694619,666.185348,-8273.831378,-666.185348
5670.694943,518.144159,-8810.098227,-592.164754
5670.695267,740.205942,-9193.145976,-444.123565
5670.695591,370.102971,-8503.660028,-518.144159
5670.695916,518.144159,-8810.098227,-592.164754
5670.696240,370.102971,-8733.488677,-370.102971
5670.696564,666.185348,-8656.879127,-444.123565
5670.696888,666.185348,-8886.707777,-592.164754
5670.697213,592.164754,-8656.879127,-296.082377
5670.697537,592.164754,-8580.269578,-74.020594
5670.697861,296.082377,-8580.269578,-444.123565
5670.698185,222.061783,-8427.050478,-148.041188
5670.698509,444.123565,-8503.660028,-370.102971
5670.698834,444.123565,-8273.831378,-148.041188
5670.699158,296.082377,-8503.660028,-592.164754
5670.699482,666.185348,-9039.926876,-148.041188
5670.699806,740.205942,-8197.221829,-444.123565
5670.700130,592.164754,-8733.488677,-444.123565
5670.700455,444.123565,-8733.488677,-444.123565
5670.700779,444.123565,-8810.098227,-148.041188
5670.701103,148.041188,-8503.660028,-148.041188
5670.701427,370.102971,-8350.440928,-296.082377
5670.701751,370.102971,-8656.879127,-518.144159
5670.702076,296.082377,-8427.050478,-222.061783
5670.702400,518.144159,-8273.831378,-666.185348
5670.702724,370.102971,-8656.879127,-296.082377
5670.703048,370.102971,-8503.660028,-222.061783
5670.703372,518.144159,-8733.488677,-296.082377
5670.703697,370.102971,-8886.707777,-592.164754
5670.704021,444.123565,-8810.098227,0.000000
5670.704345,296.082377,-8733.488677,-222.061783
5670.704669,222.061783,-8580.269578,-148.041188
5670.704994,296.082377,-8503.660028,-444.123565
5670.705318,740.205942,-8656.879127,-592.164754
5670.705642,518.144159,-8427.050478,-814.226536
5670.705966,370.102971,-8656.879127,-444.123565
5670.706290,148.041188,-8733.488677,-444.123565
5670.706615,592.164754,-9116.536426,-666.185348
5670.706939,518.144159,-8810.098227,-666.185348
5670.707263,444.123565,-8580.269578,-814.226536
5670.707587,296.082377,-8733.488677,-222.061783
5670.707912,148.041188,-8273.831378,-444.123565
5670.708236,444.123565,-8273.831378,-592.164754
5670.708560,296.082377,-8427.050478,-592.164754
5670.708884,592.164754,-8580.269578,-740.205942
5670.709208,296.082377,-8197.221829,-666.185348
5670.709533,592.164754,-8350.440928,-1036.288319
5670.709857,370.102971,-8733.488677,-518.144159
5670.710181,740.205942,-8580.269578,-740.205942
5670.710505,518.144159,-8656.879127,-740.205942
5670.710830,592.164754,-8427.050478,-518.144159
5670.711154,370.102971,-8427.050478,-444.123565
5670.711478,370.102971,-8427.050478,-666.185348
5670.711802,296.082377,-8273.831378,-888.247130
5670.712126,592.164754,-8733.488677,-666.185348
5670.712451,518.144159,-8427.050478,-814.226536
5670.712775,444.123565,-8273.831378,-666.185348
5670.713099,444.123565,-8580.269578,-814.226536
5670.713423,666.185348,-8273.831378,-666.185348
5670.713748,740.205942,-8273.831378,-962.267725
5670.714072,518.144159,-8427.050478,-888.247130
5670.714396,444.123565,-8580.269578,-370.102971
5670.714720,444.123565,-8427.050478,-666.185348
5670.715044,666.185348,-8350.440928,-444.123565
5670.715369,518.144159,-8503.660028,-740.205942
5670.715693,740.205942,-8963.317327,-592.164754
5670.716017,444.123565,-8120.612279,-666.185348
5670.716341,592.164754,-8427.050478,-592.164754
5670.716666,666.185348,-8810.098227,-814.226536
5670.716990,592.164754,-8503.660028,-592.164754
5670.717314,666.185348,-8886.707777,-740.205942
5670.717638,518.144159,-8427.050478,-814.226536
5670.717962,740.205942,-8350.440928,0.000000
5670.718287,370.102971,-8427.050478,-592.164754
5670.718611,296.082377,-8580.269578,-518.144159
5670.718935,222.061783,-8503.660028,-740.205942
5670.719259,518.144159,-8886.707777,-666.185348
5670.719584,518.144159,-8350.440928,-814.226536
5670.719908,666.185348,-8503.660028,-666.185348
5670.720232,370.102971,-8733.488677,-666.185348
5670.720556,518.144159,-8886.707777,-740.205942
5670.720880,518.144159,-8580.269578,-888.247130
5670.721205,370.102971,-8810.098227,-444.123565
5670.721529,518.144159,-8656.879127,-518.144159
5670.721853,296.082377,-8733.488677,-592.164754
5670.722177,592.164754,-8580.269578,-222.061783
5670.722502,444.123565,-8580.269578,-740.205942
5670.722826,666.185348,-8733.488677,-370.102971
5670.723150,296.082377,-8350.440928,-518.144159
5670.723474,444.123565,-8963.317327,-444.123565
5670.723798,518.144159,-8427.050478,-444.123565
5670.724123,370.102971,-8580.269578,-370.102971
5670.724447,148.041188,-8810.098227,-444.123565
5670.724771,148.041188,-8503.660028,-222.061783
5670.725095,518.144159,-8886.707777,-148.041188
5670.725420,518.144159,-8580.269578,-296.082377
5670.725744,592.164754,-8656.879127,-296.082377
5670.726068,518.144159,-8580.269578,-296.082377
5670.726392,592.164754,-8503.660028,-296.082377
5670.726716,296.082377,-8503.660028,-148.041188
5670.727041,444.123565,-8656.879127,0.000000
5670.727365,370.102971,-8273.831378,-444.123565
5670.727689,444.123565,-8810.098227,-370.102971
5670.728013,592.164754,-8350.440928,-444.123565
5670.728338,518.144159,-8886.707777,-296.082377
5670.728662,296.082377,-8580.269578,-518.144159
5670.728986,666.185348,-8580.269578,-222.061783
5670.729310,740.205942,-8580.269578,-518.144159
5670.729635,666.185348,-9039.926876,-518.144159
5670.729959,370.102971,-8273.831378,-518.144159
5670.730283,592.164754,-8733.488677,-370.102971
5670.730607,518.144159,-8656.879127,-370.102971
5670.730931,370.102971,-8656.879127,-370.102971
5670.731256,370.102971,-8733.488677,-296.082377
5670.731580,518.144159,-8580.269578,-444.123565
5670.731904,370.102971,-8427.050478,-222.061783
5670.732228,518.144159,-8733.488677,-148.041188
5670.732553,444.123565,-8503.660028,-296.082377
5670.732877,518.144159,-8810.098227,-370.102971
5670.733201,740.205942,-8503.660028,-370.102971
5670.733525,370.102971,-8886.707777,0.000000
5670.733849,518.144159,-8733.488677,-296.082377
5670.734174,296.082377,-8427.050478,-444.123565
5670.734498,444.123565,-8810.098227,-296.082377
5670.734822,444.123565,-8503.660028,-444.123565
5670.735146,444.123565,-8427.050478,-370.102971
5670.735471,518.144159,-8580.269578,-444.123565
5670.735795,370.102971,-8427.050478,-518.144159
5670.736119,444.123565,-8273.831378,-370.102971
5670.736443,518.144159,-8963.317327,-296.082377
5670.736767,518.144159,-8427.050478,-592.164754
5670.737092,296.082377,-8503.660028,-370.102971
5670.737416,222.061783,-8733.488677,-444.123565
5670.737740,666.185348,-8810.098227,-518.144159
5670.738064,222.061783,-8733.488677,-370.102971
5670.738389,74.020594,-8886.707777,-592.164754
5670.738713,222.061783,-8656.879127,-370.102971
5670.739037,518.144159,-8656.879127,-296.082377
5670.739361,370.102971,-8580.269578,-666.185348
5670.739685,814.226536,-8656.879127,-740.205942
5670.740010,518.144159,-8656.879127,-666.185348
5670.740334,518.144159,-8503.660028,-370.102971
5670.740658,518.144159,-8197.221829,-666.185348
5670.740982,518.144159,-8273.831378,-666.185348
5670.741307,592.164754,-8733.488677,-518.144159
5670.741631,444.123565,-8427.050478,-592.164754
5670.741955,962.267725,-8656.879127,-370.102971
5670.742279,296.082377,-8656.879127,-666.185348
5670.742603,222.061783,-8580.269578,-518.144159
5670.742928,444.123565,-8656.879127,-518.144159
5670.743252,888.247130,-8503.660028,-592.164754
5670.743576,888.247130,-8503.660028,-370.102971
5670.743900,370.102971,-8656.879127,0.000000
5670.744225,370.102971,-8427.050478,-296.082377
5670.744549,370.102971,-8656.879127,-370.102971
5670.744873,814.226536,-8810.098227,-296.082377
5670.745197,518.144159,-8963.317327,-222.061783
5670.745521,296.082377,-8656.879127,-222.061783
5670.745846,296.082377,-8580.269578,-222.061783
5670.746170,814.226536,-8733.488677,-296.082377
5670.746494,370.102971,-8656.879127,-592.164754
5670.746818,296.082377,-8733.488677,-518.144159
5670.747143,296.082377,-8580.269578,-148.041188
5670.747467,444.123565,-8503.660028,-592.164754
5670.747791,592.164754,-8656.879127,-370.102971
5670.748115,518.144159,-8427.050478,-518.144159
5670.748439,518.144159,-8810.098227,-518.144159
5670.748764,444.123565,-8733.488677,-518.144159
5670.749088,592.164754,-9193.145976,-222.061783
5670.749412,296.082377,-8810.098227,-222.061783
5670.749736,444.123565,-8580.269578,-296.082377
5670.750061,518.144159,-9116.536426,-444.123565
5670.750385,370.102971,-9039.926876,-148.041188
5670.750709,370.102971,-8427.050478,0.000000
5670.751033,296.082377,-8810.098227,0.000000
5670.751357,296.082377,-8503.660028,0.000000
5670.751682,296.082377,-8503.660028,0.000000
5670.752006,666.185348,-8656.879127,-222.061783
5670.752330,444.123565,-8656.879127,0.000000
5670.752654,148.041188,-8733.488677,148.041188
5670.752979,222.061783,-8810.098227,74.020594
5670.753303,444.123565,-9039.926876,-444.123565
5670.753627,518.144159,-8810.098227,-296.082377
5670.753951,444.123565,-8503.660028,-148.041188
5670.754275,0.000000,-8427.050478,-222.061783
5670.754600,222.061783,-8427.050478,0.000000
5670.754924,666.185348,-8886.707777,-444.123565
5670.755248,370.102971,-8427.050478,-296.082377
5670.755572,444.123565,-8810.098227,-444.123565
5670.755897,370.102971,-8503.660028,-296.082377
5670.756221,518.144159,-8810.098227,-740.205942
5670.756545,296.082377,-8580.269578,-296.082377
5670.756869,370.102971,-8273.831378,-222.061783
5670.757193,666.185348,-8810.098227,-666.185348
5670.757518,592.164754,-9806.022374,-296.082377
5670.757842,518.144159,-8733.488677,-370.102971
5670.758166,148.041188,-8427.050478,-296.082377
5670.758490,148.041188,-8503.660028,-74.020594
5670.758815,518.144159,-8503.660028,-222.061783
5670.759139,74.020594,-8273.831378,-148.041188
5670.759463,222.061783,-8503.660028,0.000000
5670.759787,444.123565,-8580.269578,-148.041188
5670.760111,74.020594,-8580.269578,-148.041188
5670.760436,296.082377,-9193.145976,74.020594
5670.760760,444.123565,-8580.269578,-518.144159
5670.761084,814.226536,-8273.831378,0.000000
5670.761408,370.102971,-8350.440928,-666.185348
5670.761733,592.164754,-9039.926876,0.000000
5670.762057,222.061783,-7814.174080,-296.082377
5670.762381,814.226536,-8810.098227,-370.102971
5670.762705,222.061783,-8197.221829,-296.082377
5670.763029,444.123565,-8427.050478,-148.041188
5670.763354,444.123565,-8580.269578,-444.123565
5670.763678,444.123565,-8120.612279,-370.102971
5670.764002,444.123565,-8733.488677,-666.185348
5670.764326,518.144159,-8580.269578,-666.185348
5670.764651,370.102971,-8963.317327,148.041188
5670.764975,444.123565,-8427.050478,-370.102971
5670.765299,444.123565,-8656.879127,0.000000
5670.765623,518.144159,-8427.050478,-370.102971
5670.765947,444.123565,-9116.536426,-370.102971
5670.766272,370.102971,-8580.269578,-222.061783
5670.766596,518.144159,-8733.488677,-222.061783
5670.766920,444.123565,-8503.660028,0.000000
5670.767244,518.144159,-8810.098227,0.000000
5670.767569,222.061783,-8886.707777,-148.041188
5670.767893,592.164754,-8656.879127,0.000000
5670.768217,296.082377,-8656.879127,444.123565
5670.768541,222.061783,-8810.098227,0.000000
5670.768865,222.061783,-9193.145976,74.020594
5670.769190,296.082377,-8733.488677,0.000000
5670.769514,370.102971,-8656.879127,0.000000
5670.769838,74.020594,-8733.488677,0.000000
5670.770162,296.082377,-8810.098227,0.000000
5670.770487,74.020594,-8810.098227,0.000000
5670.770811,222.061783,-8427.050478,0.000000
5670.771135,148.041188,-8810.098227,0.000000
5670.771459,296.082377,-8350.440928,148.041188
5670.771783,222.061783,-8197.221829,222.061783
5670.772108,74.020594,-8656.879127,-148.041188
5670.772432,370.102971,-8733.488677,0.000000
5670.772756,148.041188,-8656.879127,-296.082377
5670.773080,74.020594,-9193.145976,222.061783
5670.773405,148.041188,-8427.050478,-370.102971
5670.773729,444.123565,-8886.707777,-148.041188
5670.774053,222.061783,-8427.050478,-148.041188
5670.774377,666.185348,-8886.707777,0.000000
5670.774701,222.061783,-8963.317327,-444.123565
5670.775026,518.144159,-8580.269578,0.000000
5670.775350,0.000000,-8733.488677,-148.041188
5670.775674,148.041188,-8963.317327,222.061783
5670.775998,1110.308913,-8656.879127,-296.082377
5670.776323,444.123565,-8580.269578,0.000000
5670.776647,444.123565,-8350.440928,0.000000
5670.776971,518.144159,-8580.269578,0.000000
5670.777295,592.164754,-9116.536426,0.000000
5670.777619,444.123565,-8503.660028,0.000000
5670.777944,370.102971,-8886.707777,0.000000
5670.778268,518.144159,-8656.879127,0.000000
5670.778592,666.185348,-8427.050478,0.000000
5670.778916,370.102971,-9039.926876,148.041188
5670.779241,518.144159,-8273.831378,0.000000
5670.779565,296.082377,-8503.660028,0.000000
5670.779889,518.144159,-8580.269578,-296.082377
5670.780213,592.164754,-7660.954980,222.061783
5670.780537,518.144159,-8656.879127,0.000000
5670.780862,592.164754,-8427.050478,-370.102971
5670.781186,518.144159,-8503.660028,-444.123565
5670.781510,296.082377,-8886.707777,-444.123565
5670.781834,222.061783,-8350.440928,0.000000
5670.782159,444.123565,-8427.050478,-296.082377
5670.782483,592.164754,-8733.488677,-518.144159
5670.782807,592.164754,-8503.660028,-444.123565
5670.783131,444.123565,-8580.269578,-370.102971
5670.783455,518.144159,-8580.269578,-370.102971
5670.783780,222.061783,-8656.879127,-148.041188
5670.784104,370.102971,-8580.269578,-370.102971
5670.784428,296.082377,-8580.269578,148.041188
5670.784752,518.144159,-8810.098227,-296.082377
5670.785077,518.144159,-8810.098227,-296.082377
5670.785401,296.082377,-8656.879127,-148.041188
5670.785725,222.061783,-8197.221829,-296.082377
5670.786049,370.102971,-8656.879127,-222.061783
5670.786374,222.061783,-8503.660028,-370.102971
5670.786698,370.102971,-8810.098227,-296.082377
5670.787022,148.041188,-8733.488677,-444.123565
5670.787346,740.205942,-8503.660028,-666.185348
5670.787670,370.102971,-8810.098227,-148.041188
5670.787995,518.144159,-8427.050478,-592.164754
5670.788319,296.082377,-8656.879127,-518.144159
5670.788643,444.123565,-8427.050478,-370.102971
5670.788967,296.082377,-8503.660028,-296.082377
5670.789292,296.082377,-8656.879127,-444.123565
5670.789616,666.185348,-8503.660028,-666.185348
5670.789940,296.082377,-8580.269578,-444.123565
5670.790264,518.144159,-8580.269578,-518.144159
5670.790588,222.061783,-8733.488677,-444.123565
5670.790913,740.205942,-8580.269578,-518.144159
5670.791237,222.061783,-8503.660028,-444.123565
5670.791561,740.205942,-8273.831378,-740.205942
5670.791885,518.144159,-8656.879127,-666.185348
5670.792210,444.123565,-8197.221829,-222.061783
5670.792534,370.102971,-8656.879127,-296.082377
5670.792858,518.144159,-8427.050478,0.000000
5670.793182,518.144159,-8656.879127,-370.102971
5670.793506,370.102971,-8273.831378,-370.102971
5670.793831,592.164754,-8810.098227,-518.144159
5670.794155,222.061783,-8580.269578,-296.082377
5670.794479,518.144159,-9039.926876,0.000000
5670.794803,222.061783,-8503.660028,-222.061783
5670.795128,666.185348,-8733.488677,-370.102971
5670.795452,444.123565,-8503.660028,-518.144159
5670.795776,592.164754,-8044.002729,0.000000
5670.796100,296.082377,-8197.221829,-148.041188
5670.796424,592.164754,-8503.660028,-222.061783
5670.796749,296.082377,-8427.050478,-222.061783
5670.797073,444.123565,-8733.488677,296.082377
5670.797397,666.185348,-8503.660028,-148.041188
5670.797721,148.041188,-8580.269578,-148.041188
5670.798046,296.082377,-8656.879127,-148.041188
5670.798370,518.144159,-8427.050478,-370.102971
5670.798694,296.082377,-8580.269578,-370.102971
5670.799018,296.082377,-8350.440928,-148.041188
5670.799342,518.144159,-8503.660028,0.000000
5670.799667,222.061783,-8656.879127,-148.041188
5670.799991,370.102971,-8350.440928,0.000000
5670.800315,592.164754,-8733.488677,-296.082377
5670.800639,666.185348,-8733.488677,-296.082377
5670.800964,592.164754,-8580.269578,-370.102971
5670.801288,370.102971,-8656.879127,0.000000
5670.801612,444.123565,-8350.440928,-296.082377
5670.801936,666.185348,-8733.488677,-518.144159
5670.802260,592.164754,-8733.488677,-222.061783
5670.802585,518.144159,-8503.660028,0.000000
5670.802909,148.041188,-8044.002729,0.000000
5670.803233,444.123565,-8580.269578,-296.082377
5670.803557,444.123565,-8427.050478,-444.123565
5670.803882,518.144159,-8503.660028,-222.061783
5670.804206,740.205942,-8044.002729,-444.123565
5670.804530,518.144159,-8503.660028,-222.061783
5670.804855,444.123565,-8580.269578,-296.082377
5670.805179,592.164754,-8427.050478,-296.082377
5670.805503,444.123565,-8810.098227,-370.102971
5670.805828,666.185348,-8580.269578,-222.061783
5670.806152,370.102971,-8350.440928,-370.102971
5670.806476,444.123565,-8733.488677,-518.144159
5670.806801,370.102971,-8580.269578,0.000000
5670.807125,1036.288319,-8350.440928,-518.144159
5670.807449,888.247130,-8656.879127,-592.164754
5670.807774,444.123565,-8427.050478,-370.102971
5670.808098,444.123565,-8580.269578,-296.082377
5670.808422,740.205942,-8886.707777,-444.123565
5670.808747,666.185348,-8503.660028,-666.185348
5670.809071,370.102971,-8580.269578,-814.226536
5670.809395,592.164754,-8273.831378,-444.123565
5670.809720,296.082377,-8503.660028,-518.144159
5670.810044,518.144159,-8656.879127,-370.102971
5670.810368,222.061783,-8503.660028,-814.226536
5670.810693,592.164754,-8427.050478,-592.164754
5670.811017,518.144159,-8580.269578,-666.185348
5670.811341,888.247130,-8733.488677,-592.164754
5670.811666,444.123565,-8886.707777,-814.226536
5670.811990,296.082377,-8580.269578,-370.102971
5670.812314,222.061783,-8656.879127,-666.185348
5670.812638,740.205942,-8656.879127,-592.164754
5670.812963,592.164754,-8733.488677,-222.061783
5670.813287,74.020594,-8503.660028,-666.185348
5670.813611,222.061783,-8810.098227,-518.144159
5670.813936,296.082377,-8503.660028,-518.144159
5670.814260,518.144159,-9116.536426,-74.020594
5670.814584,222.061783,-8350.440928,-666.185348
5670.814909,518.144159,-8427.050478,-444.123565
5670.815233,666.185348,-8503.660028,-518.144159
5670.815557,666.185348,-8580.269578,-370.102971
5670.815882,592.164754,-8886.707777,-740.205942
5670.816206,370.102971,-8656.879127,-666.185348
5670.816530,518.144159,-8427.050478,-444.123565
5670.816855,296.082377,-8580.269578,-740.205942
5670.817179,592.164754,-8963.317327,-444.123565
5670.817503,518.144159,-8427.050478,-740.205942
5670.817828,518.144159,-8656.879127,-962.267725
5670.818152,296.082377,-8580.269578,-222.061783
5670.818476,518.144159,-8427.050478,-740.205942
5670.818801,370.102971,-8656.879127,-370.102971
5670.819125,370.102971,-8427.050478,-518.144159
5670.819449,592.164754,-8963.317327,-296.082377
5670.819774,814.226536,-9269.755526,-444.123565
5670.820098,814.226536,-8733.488677,-444.123565
5670.820422,0.000000,-8810.098227,-296.082377
5670.820747,296.082377,-8503.660028,-148.041188
5670.821071,296.082377,-8656.879127,-666.185348
5670.821395,370.102971,-8810.098227,-518.144159
5670.821720,296.082377,-8656.879127,-296.082377
5670.822044,518.144159,-8656.879127,-296.082377
5670.822368,444.123565,-8580.269578,-592.164754
5670.822693,74.020594,-8656.879127,-222.061783
5670.823017,444.123565,-9039.926876,-666.185348
5670.823341,296.082377,-8427.050478,0.000000
5670.823665,296.082377,-8273.831378,-518.144159
5670.823990,814.226536,-8963.317327,-666.185348
5670.824314,518.144159,-8503.660028,-444.123565
5670.824638,444.123565,-8656.879127,-666.185348
5670.824963,370.102971,-8580.269578,-370.102971
5670.825287,296.082377,-8580.269578,-518.144159
5670.825611,666.185348,-8886.707777,-444.123565
5670.825936,222.061783,-8656.879127,-518.144159
5670.826260,370.102971,-8963.317327,-740.205942
5670.826584,370.102971,-8733.488677,-370.102971
5670.826909,592.164754,-8580.269578,-222.061783
5670.827233,370.102971,-8656.879127,-296.082377
5670.827557,296.082377,-8580.269578,-444.123565
5670.827882,592.164754,-8656.879127,-592.164754
5670.828206,444.123565,-9193.145976,-740.205942
5670.828530,592.164754,-8503.660028,-518.144159
5670.828855,444.123565,-8580.269578,-444.123565
5670.829179,444.123565,-8810.098227,-296.082377
5670.829503,444.123565,-8427.050478,-666.185348
5670.829828,370.102971,-8656.879127,-814.226536
5670.830152,444.123565,-8427.050478,-370.102971
5670.830476,296.082377,-8273.831378,-592.164754
5670.830801,444.123565,-8656.879127,-666.185348
5670.831125,592.164754,-8580.269578,-814.226536
5670.831449,444.123565,-8733.488677,-444.123565
5670.831774,444.123565,-8503.660028,-666.185348
5670.832098,296.082377,-8733.488677,-296.082377
5670.832422,518.144159,-8810.098227,-444.123565
5670.832747,444.123565,-8580.269578,-296.082377
5670.833071,444.123565,-8580.269578,-518.144159
5670.833395,370.102971,-8580.269578,-370.102971
5670.833720,444.123565,-8197.221829,-222.061783
5670.834044,370.102971,-8580.269578,-518.144159
5670.834368,74.020594,-8580.269578,-370.102971
5670.834693,518.144159,-8427.050478,-370.102971
5670.835017,444.123565,-8427.050478,-370.102971
5670.835341,444.123565,-8273.831378,-370.102971
5670.835665,518.144159,-8503.660028,-222.061783
5670.835990,444.123565,-8350.440928,-444.123565
5670.836314,370.102971,-8120.612279,-370.102971
5670.836638,666.185348,-8733.488677,-592.164754
5670.836963,296.082377,-8503.660028,-444.123565
5670.837287,444.123565,-8350.440928,-296.082377
5670.837611,444.123565,-8503.660028,-518.144159
5670.837936,518.144159,-8427.050478,-666.185348
5670.838260,814.226536,-8810.098227,-666.185348
5670.838584,592.164754,-8656.879127,-518.144159
5670.838909,444.123565,-8580.269578,-518.144159
5670.839233,592.164754,-8810.098227,-444.123565
5670.839557,444.123565,-9652.803275,-148.041188
5670.839882,518.144159,-8580.269578,-444.123565
5670.840206,592.164754,-8656.879127,-518.144159
5670.840530,518.144159,-8580.269578,-370.102971
5670.840855,148.041188,-8427.050478,-370.102971
5670.841179,370.102971,-8733.488677,-444.123565
5670.841503,222.061783,-8810.098227,-518.144159
5670.841828,518.144159,-8656.879127,-518.144159
5670.842152,518.144159,-8656.879127,-592.164754
5670.842476,666.185348,-8503.660028,-814.226536
5670.842801,518.144159,-8733.488677,-592.164754
5670.843125,444.123565,-8427.050478,-592.164754
5670.843449,370.102971,-8580.269578,-592.164754
5670.843774,592.164754,-8963.317327,-592.164754
5670.844098,444.123565,-8273.831378,-592.164754
5670.844422,296.082377,-8580.269578,-592.164754
5670.844747,296.082377,-8427.050478,-444.123565
5670.845071,444.123565,-8427.050478,-592.164754
5670.845395,592.164754,-8810.098227,-740.205942
5670.845720,296.082377,-8580.269578,-370.102971
5670.846044,518.144159,-8886.707777,-666.185348
5670.846368,444.123565,-8503.660028,-370.102971
5670.846692,592.164754,-8810.098227,-592.164754
5670.847017,518.144159,-8733.488677,-518.144159
5670.847341,444.123565,-8810.098227,-592.164754
5670.847665,370.102971,-8350.440928,-222.061783
5670.847990,296.082377,-8197.221829,-370.102971
5670.848314,296.082377,-8733.488677,-444.123565
5670.848638,444.123565,-8273.831378,-592.164754
5670.848963,296.082377,-8886.707777,-370.102971
5670.849287,222.061783,-8580.269578,-444.123565
5670.849611,592.164754,-8810.098227,-148.041188
5670.849936,444.123565,-8656.879127,-222.061783
5670.850260,518.144159,-8427.050478,-370.102971
5670.850584,518.144159,-8656.879127,-296.082377
5670.850909,518.144159,-8810.098227,148.041188
5670.851233,296.082377,-8503.660028,-222.061783
5670.851557,296.082377,-8656.879127,0.000000
5670.851882,444.123565,-8503.660028,0.000000
5670.852206,222.061783,-8810.098227,-222.061783
5670.852530,518.144159,-8656.879127,-444.123565
5670.852855,148.041188,-8733.488677,0.000000
5670.853179,444.123565,-8503.660028,74.020594
5670.853503,222.061783,-8350.440928,74.020594
5670.853828,592.164754,-8580.269578,296.082377
5670.854152,518.144159,-8656.879127,0.000000
5670.854476,518.144159,-8503.660028,74.020594
5670.854801,74.020594,-8503.660028,0.000000
5670.855125,0.000000,-9269.755526,962.267725
5670.855449,518.144159,-8503.660028,-370.102971
5670.855774,518.144159,-8963.317327,0.000000
5670.856098,370.102971,-8580.269578,0.000000
5670.856422,148.041188,-8656.879127,74.020594
5670.856747,148.041188,-8656.879127,-222.061783
5670.857071,370.102971,-8503.660028,0.000000
5670.857395,666.185348,-8886.707777,-296.082377
5670.857720,148.041188,-8503.660028,0.000000
5670.858044,296.082377,-8580.269578,0.000000
5670.858368,222.061783,-8580.269578,-222.061783
5670.858692,518.144159,-8427.050478,-370.102971
5670.859017,666.185348,-8580.269578,-444.123565
5670.859341,296.082377,-9039.926876,-148.041188
5670.859665,370.102971,-8427.050478,-296.082377
5670.859990,592.164754,-8580.269578,-518.144159
5670.860314,370.102971,-8733.488677,-296.082377
5670.860638,518.144159,-8503.660028,-444.123565
5670.860963,740.205942,-8580.269578,-222.061783
5670.861287,518.144159,-8427.050478,-444.123565
5670.861611,666.185348,-8503.660028,-148.041188
5670.861936,444.123565,-8810.098227,-370.102971
5670.862260,592.164754,-8273.831378,0.000000
5670.862584,740.205942,-8503.660028,-592.164754
5670.862909,518.144159,-8580.269578,-296.082377
5670.863233,444.123565,-8656.879127,-296.082377
5670.863557,444.123565,-8810.098227,-444.123565
5670.863882,296.082377,-8503.660028,-444.123565
5670.864206,74.020594,-8580.269578,-148.041188
5670.864530,518.144159,-8503.660028,-592.164754
5670.864855,518.144159,-8503.660028,-296.082377
5670.865179,296.082377,-8427.050478,-592.164754
5670.865503,370.102971,-8580.269578,-370.102971
5670.865828,666.185348,-8273.831378,-444.123565
5670.866152,222.061783,-8733.488677,-296.082377
5670.866476,740.205942,-8963.317327,0.000000
5670.866801,296.082377,-8886.707777,-592.164754
5670.867125,370.102971,-8656.879127,-296.082377
5670.867449,444.123565,-8580.269578,-370.102971
5670.867774,222.061783,-8656.879127,-296.082377
5670.868098,518.144159,-8656.879127,-296.082377
5670.868422,444.123565,-8273.831378,-222.061783
5670.868747,444.123565,-8503.660028,-296.082377
5670.869071,222.061783,-8580.269578,-148.041188
5670.869395,814.226536,-8656.879127,-444.123565
5670.869719,296.082377,-8503.660028,-296.082377
5670.870044,666.185348,-8810.098227,0.000000
5670.870368,148.041188,-8580.269578,-148.041188
5670.870692,666.185348,-8580.269578,-222.061783
5670.871017,222.061783,-8580.269578,0.000000
5670.871341,370.102971,-8656.879127,-296.082377
5670.871665,370.102971,-8580.269578,-296.082377
5670.871990,370.102971,-8427.050478,0.000000
5670.872314,296.082377,-8810.098227,0.000000
5670.872638,222.061783,-8733.488677,0.000000
5670.872963,296.082377,-8810.098227,0.000000
5670.873287,222.061783,-8503.660028,0.000000
5670.873611,370.102971,-8273.831378,148.041188
5670.873936,148.041188,-8656.879127,74.020594
5670.874260,148.041188,-8733.488677,74.020594
5670.874584,222.061783,-8427.050478,0.000000
5670.874909,518.144159,-8810.098227,222.061783
5670.875233,518.144159,-8427.050478,0.000000
5670.875557,222.061783,-8886.707777,74.020594
5670.875882,148.041188,-8656.879127,0.000000
5670.876206,518.144159,-8656.879127,-296.082377
5670.876530,740.205942,-8580.269578,-222.061783
5670.876855,592.164754,-8733.488677,0.000000
5670.877179,296.082377,-8503.660028,0.000000
5670.877503,222.061783,-8503.660028,0.000000
5670.877828,518.144159,-8656.879127,0.000000
5670.878152,592.164754,-8886.707777,-444.123565
5670.878476,444.123565,-8580.269578,0.000000
5670.878801,518.144159,-8580.269578,-148.041188
5670.879125,444.123565,-8656.879127,0.000000
5670.879449,296.082377,-8273.831378,-148.041188
5670.879774,592.164754,-8733.488677,-370.102971
5670.880098,518.144159,-8810.098227,-444.123565
5670.880422,444.123565,-8503.660028,-222.061783
5670.880747,666.185348,-8580.269578,-444.123565
5670.881071,592.164754,-8580.269578,0.000000
5670.881395,222.061783,-8427.050478,-296.082377
5670.881719,518.144159,-8886.707777,-296.082377
5670.882044,1036.288319,-8810.098227,-518.144159
5670.882368,370.102971,-8503.660028,-148.041188
5670.882692,222.061783,-8503.660028,-592.164754
5670.883017,296.082377,-8810.098227,-444.123565
5670.883341,370.102971,-7967.393179,-222.061783
5670.883665,222.061783,-8810.098227,-296.082377
5670.883990,296.082377,-8580.269578,-370.102971
5670.884314,444.123565,-8120.612279,-370.102971
5670.884638,296.082377,-8656.879127,0.000000
5670.884963,444.123565,-8273.831378,-518.144159
5670.885287,444.123565,-8886.707777,-518.144159
5670.885611,518.144159,-8120.612279,-370.102971
5670.885936,444.123565,-8350.440928,-296.082377
5670.886260,370.102971,-8044.002729,-592.164754
5670.886584,148.041188,-8656.879127,-370.102971
5670.886909,370.102971,-8886.707777,-518.144159
5670.887233,296.082377,-8810.098227,-148.041188
5670.887557,222.061783,-8733.488677,-222.061783
5670.887882,518.144159,-8733.488677,-148.041188
5670.888206,370.102971,-8350.440928,-296.082377
5670.888530,444.123565,-8503.660028,-222.061783
5670.888855,518.144159,-8656.879127,-222.061783
5670.889179,444.123565,-7967.393179,-370.102971
5670.889503,296.082377,-8656.879127,-296.082377
5670.889828,370.102971,-8503.660028,-296.082377
5670.890152,444.123565,-8427.050478,-296.082377
5670.890476,222.061783,-8197.221829,0.000000
5670.890801,444.123565,-8580.269578,74.020594
5670.891125,222.061783,-8580.269578,-222.061783
5670.891449,518.144159,-8427.050478,0.000000
5670.891774,444.123565,-8273.831378,-296.082377
5670.892098,666.185348,-8427.050478,-592.164754
5670.892422,518.144159,-8350.440928,-296.082377
5670.892746,74.020594,-8197.221829,-222.061783
5670.893071,222.061783,-8656.879127,-222.061783
5670.893395,592.164754,-8656.879127,-888.247130
5670.893719,518.144159,-8580.269578,-370.102971
5670.894044,148.041188,-8503.660028,-370.102971
5670.894368,444.123565,-8810.098227,-296.082377
5670.894692,740.205942,-9039.926876,-592.164754
5670.895017,740.205942,-8580.269578,-370.102971
5670.895341,370.102971,-8503.660028,-444.123565
5670.895665,370.102971,-8810.098227,-444.123565
5670.895990,296.082377,-8350.440928,-74.020594
5670.896314,222.061783,-8503.660028,-518.144159
5670.896638,222.061783,-8733.488677,-370.102971
5670.896963,222.061783,-8350.440928,-296.082377
5670.897287,814.226536,-8656.879127,-518.144159
5670.897611,370.102971,-8427.050478,-444.123565
5670.897936,592.164754,-8886.707777,-296.082377
5670.898260,296.082377,-8580.269578,0.000000
5670.898584,592.164754,-8503.660028,-222.061783
5670.898909,888.247130,-8580.269578,-370.102971
5670.899233,740.205942,-8503.660028,-444.123565
5670.899557,518.144159,-8503.660028,-370.102971
5670.899882,296.082377,-8350.440928,-370.102971
5670.900206,444.123565,-8886.707777,-222.061783
5670.900530,296.082377,-8580.269578,-444.123565
5670.900855,370.102971,-8733.488677,-222.061783
5670.901179,444.123565,-8656.879127,-296.082377
5670.901503,592.164754,-8810.098227,-296.082377
5670.901828,888.247130,-8656.879127,-592.164754
5670.902152,592.164754,-8580.269578,-518.144159
5670.902476,592.164754,-8503.660028,-444.123565
5670.902801,666.185348,-8580.269578,-222.061783
5670.903125,740.205942,-8503.660028,-296.082377
5670.903449,444.123565,-8963.317327,-518.144159
5670.903773,370.102971,-8503.660028,-74.020594
5670.904098,444.123565,-8810.098227,-518.144159
5670.904422,370.102971,-8656.879127,-296.082377
5670.904747,296.082377,-8656.879127,0.000000
5670.905071,444.123565,-8427.050478,-296.082377
5670.905395,296.082377,-8503.660028,-370.102971
5670.905720,518.144159,-8810.098227,-148.041188
5670.906044,444.123565,-8350.440928,0.000000
5670.906368,444.123565,-8273.831378,148.041188
5670.906693,296.082377,-8427.050478,-296.082377
5670.907017,592.164754,-8273.831378,-296.082377
5670.907341,444.123565,-8350.440928,-222.061783
5670.907666,444.123565,-8656.879127,-370.102971
5670.907990,518.144159,-8733.488677,-518.144159
5670.908314,148.041188,-8733.488677,0.000000
5670.908639,148.041188,-8580.269578,0.000000
5670.908963,666.185348,-8350.440928,-370.102971
5670.909287,592.164754,-8656.879127,-666.185348
5670.909612,370.102971,-8503.660028,-370.102971
5670.909936,592.164754,-8273.831378,-296.082377
5670.910260,296.082377,-8886.707777,-592.164754
5670.910585,592.164754,-8427.050478,-518.144159
5670.910909,444.123565,-8580.269578,-296.082377
5670.911233,518.144159,-8733.488677,-518.144159
5670.911558,222.061783,-8656.879127,-444.123565
5670.911882,370.102971,-8656.879127,-444.123565
5670.912206,444.123565,-8580.269578,-370.102971
5670.912531,296.082377,-8273.831378,-592.164754
5670.912855,370.102971,-8580.269578,-518.144159
5670.913179,592.164754,-8810.098227,-148.041188
5670.913504,518.144159,-8427.050478,-370.102971
5670.913828,296.082377,-8810.098227,-592.164754
5670.914152,370.102971,-8810.098227,-370.102971
5670.914477,370.102971,-9346.365076,-1036.288319
5670.914801,518.144159,-8580.269578,-444.123565
5670.915125,370.102971,-8580.269578,-444.123565
5670.915450,444.123565,-8350.440928,-518.144159
5670.915774,296.082377,-8733.488677,-370.102971
5670.916098,370.102971,-8503.660028,-518.144159
5670.916423,370.102971,-8733.488677,-666.185348
5670.916747,592.164754,-8656.879127,-814.226536
5670.917072,518.144159,-8503.660028,-740.205942
5670.917396,148.041188,-8733.488677,0.000000
5670.917720,370.102971,-8886.707777,-666.185348
5670.918045,444.123565,-8656.879127,-518.144159
5670.918369,370.102971,-8580.269578,-666.185348
5670.918693,444.123565,-8733.488677,-296.082377
5670.919018,296.082377,-8580.269578,-518.144159
5670.919342,444.123565,-8580.269578,-666.185348
5670.919666,740.205942,-8427.050478,-888.247130
5670.919991,444.123565,-8733.488677,-592.164754
5670.920315,74.020594,-8273.831378,-74.020594
5670.920639,444.123565,-8733.488677,-592.164754
5670.920964,444.123565,-8580.269578,-518.144159
5670.921288,370.102971,-8503.660028,-518.144159
5670.921612,296.082377,-8886.707777,0.000000
5670.921937,0.000000,-8350.440928,-296.082377
5670.922261,592.164754,-9039.926876,-222.061783
5670.922585,148.041188,-8350.440928,-222.061783
5670.922910,518.144159,-8427.050478,-148.041188
5670.923234,296.082377,-8886.707777,-296.082377
5670.923558,444.123565,-8273.831378,-444.123565
5670.923883,444.123565,-8580.269578,-666.185348
5670.924207,370.102971,-8733.488677,-370.102971
5670.924531,740.205942,-8044.002729,0.000000
5670.924856,518.144159,-8503.660028,-296.082377
5670.925180,444.123565,-8580.269578,-592.164754
5670.925504,296.082377,-8656.879127,-148.041188
5670.925829,222.061783,-8580.269578,0.000000
5670.926153,370.102971,-8580.269578,-222.061783
5670.926477,592.164754,-8656.879127,-370.102971
5670.926802,444.123565,-8580.269578,-666.185348
5670.927126,444.123565,-8350.440928,-518.144159
5670.927450,0.000000,-8350.440928,0.000000
5670.927775,444.123565,-8580.269578,-296.082377
5670.928099,592.164754,-8503.660028,-370.102971
5670.928423,740.205942,-8580.269578,-296.082377
5670.928748,0.000000,-8120.612279,0.000000
5670.929072,296.082377,-8733.488677,-74.020594
5670.929396,222.061783,-8503.660028,-296.082377
5670.929721,444.123565,-8503.660028,-370.102971
5670.930045,518.144159,-8656.879127,-296.082377
5670.930370,444.123565,-8503.660028,-518.144159
5670.930694,518.144159,-8503.660028,-222.061783
5670.931018,666.185348,-8350.440928,-296.082377
5670.931343,666.185348,-8427.050478,-296.082377
5670.931667,518.144159,-8427.050478,-296.082377
5670.931991,666.185348,-8733.488677,-370.102971
5670.932316,592.164754,-8503.660028,-222.061783
5670.932640,444.123565,-8810.098227,-296.082377
5670.932964,1036.288319,-8733.488677,-666.185348
5670.933289,296.082377,-8427.050478,-370.102971
5670.933613,592.164754,-8810.098227,-888.247130
5670.933937,814.226536,-8580.269578,-592.164754
5670.934262,444.123565,-8656.879127,-222.061783
5670.934586,592.164754,-8580.269578,-592.164754
5670.934910,444.123565,-8503.660028,-518.144159
5670.935235,444.123565,-8810.098227,-592.164754
5670.935559,666.185348,-8580.269578,-370.102971
5670.935883,962.267725,-8503.660028,-370.102971
5670.936208,592.164754,-8810.098227,-592.164754
5670.936532,370.102971,-8580.269578,-518.144159
5670.936856,148.041188,-8427.050478,-592.164754
5670.937181,888.247130,-8886.707777,-666.185348
5670.937505,444.123565,-8350.440928,-444.123565
5670.937829,296.082377,-8656.879127,-888.247130
5670.938154,296.082377,-8733.488677,-444.123565
5670.938478,518.144159,-8810.098227,-444.123565
5670.938802,592.164754,-8580.269578,-592.164754
5670.939127,518.144159,-8733.488677,-592.164754
5670.939451,370.102971,-8350.440928,-740.205942
5670.939775,518.144159,-8580.269578,-666.185348
5670.940100,296.082377,-7967.393179,-296.082377
5670.940424,444.123565,-8656.879127,-592.164754
5670.940748,370.102971,-8656.879127,-666.185348
5670.941073,518.144159,-8120.612279,-444.123565
5670.941397,222.061783,-8197.221829,-222.061783
5670.941721,444.123565,-8427.050478,-370.102971
5670.942046,444.123565,-8580.269578,-592.164754
5670.942370,370.102971,-8810.098227,-296.082377
5670.942695,444.123565,-8427.050478,-370.102971
5670.943019,296.082377,-8810.098227,-370.102971
5670.943343,370.102971,-8427.050478,-222.061783
5670.943668,296.082377,-8656.879127,-444.123565
5670.943992,444.123565,-8733.488677,-518.144159
5670.944316,666.185348,-8427.050478,-666.185348
5670.944641,370.102971,-8273.831378,-370.102971
5670.944965,518.144159,-8886.707777,-370.102971
5670.945289,296.082377,-8427.050478,-518.144159
5670.945614,814.226536,-7890.783629,0.000000
5670.945938,518.144159,-8350.440928,-518.144159
5670.946262,296.082377,-8656.879127,-148.041188
5670.946587,370.102971,-8503.660028,-592.164754
5670.946911,518.144159,-8427.050478,-444.123565
5670.947235,518.144159,-8580.269578,-666.185348
5670.947560,592.164754,-8503.660028,-444.123565
5670.947884,666.185348,-8427.050478,-370.102971
5670.948208,370.102971,-8503.660028,-74.020594
5670.948533,740.205942,-8810.098227,-518.144159
5670.948857,666.185348,-8427.050478,-444.123565
5670.949181,740.205942,-8656.879127,-444.123565
5670.949506,222.061783,-8503.660028,-370.102971
5670.949830,962.267725,-8656.879127,-222.061783
5670.950154,444.123565,-8580.269578,-296.082377
5670.950479,518.144159,-8580.269578,-296.082377
5670.950803,296.082377,-8810.098227,-518.144159
5670.951127,740.205942,-8810.098227,-518.144159
5670.951452,444.123565,-8273.831378,-222.061783
5670.951776,444.123565,-8656.879127,-370.102971
5670.952100,222.061783,-8963.317327,-444.123565
5670.952425,370.102971,-8656.879127,-148.041188
5670.952749,740.205942,-9729.412825,-740.205942
5670.953073,74.020594,-8733.488677,-370.102971
5670.953398,296.082377,-8733.488677,-148.041188
5670.953722,370.102971,-8656.879127,-296.082377
5670.954046,666.185348,-9116.536426,-592.164754
5670.954371,296.082377,-9116.536426,-740.205942
5670.954695,518.144159,-8656.879127,-444.123565
5670.955019,0.000000,-8656.879127,-296.082377
5670.955344,592.164754,-8580.269578,-370.102971
5670.955668,0.000000,-9039.926876,-148.041188
5670.955993,592.164754,-8733.488677,-296.082377
5670.956317,444.123565,-8733.488677,-740.205942
5670.956641,666.185348,-8503.660028,-370.102971
5670.956966,666.185348,-8580.269578,-296.082377
5670.957290,592.164754,-8503.660028,-666.185348
5670.957614,592.164754,-8503.660028,-666.185348
5670.957939,518.144159,-8810.098227,-370.102971
5670.958263,370.102971,-8580.269578,0.000000
5670.958587,518.144159,-8580.269578,-296.082377
5670.958912,518.144159,-8580.269578,0.000000
5670.959236,370.102971,-8350.440928,-296.082377
5670.959560,814.226536,-8733.488677,-296.082377
5670.959885,222.061783,-7890.783629,-296.082377
5670.960209,592.164754,-8503.660028,-148.041188
5670.960533,444.123565,-8427.050478,-444.123565
5670.960858,592.164754,-8580.269578,-222.061783
5670.961182,740.205942,-8580.269578,-814.226536
5670.961506,592.164754,-8656.879127,0.000000
5670.961831,370.102971,-8427.050478,-370.102971
5670.962155,296.082377,-8427.050478,-370.102971
5670.962479,592.164754,-8427.050478,-296.082377
5670.962804,370.102971,-8350.440928,0.000000
5670.963128,666.185348,-8656.879127,-148.041188
5670.963452,74.020594,-8656.879127,-222.061783
5670.963777,666.185348,-8503.660028,-296.082377
5670.964101,592.164754,-8733.488677,0.000000
5670.964425,666.185348,-8427.050478,-592.164754
5670.964750,370.102971,-8427.050478,-666.185348
5670.965074,444.123565,-8580.269578,-370.102971
5670.965398,296.082377,-8963.317327,-740.205942
5670.965723,296.082377,-8656.879127,-296.082377
5670.966047,148.041188,-8580.269578,-592.164754
5670.966371,370.102971,-8503.660028,-222.061783
5670.966696,444.123565,-8350.440928,-518.144159
5670.967020,296.082377,-8656.879127,-222.061783
5670.967344,518.144159,-8886.707777,-370.102971
5670.967669,148.041188,-8733.488677,-370.102971
5670.967993,296.082377,-8503.660028,-444.123565
5670.968318,296.082377,-8503.660028,0.000000
5670.968642,518.144159,-8580.269578,-148.041188
5670.968966,370.102971,-8580.269578,-444.123565
5670.969291,148.041188,-8810.098227,-222.061783
5670.969615,148.041188,-8580.269578,-222.061783
5670.969939,296.082377,-8503.660028,0.000000
5670.970264,296.082377,-8580.269578,-518.144159
5670.970588,296.082377,-8503.660028,-74.020594
5670.970912,444.123565,-8656.879127,-296.082377
5670.971237,740.205942,-8656.879127,-222.061783
5670.971561,444.123565,-8733.488677,-518.144159
5670.971885,666.185348,-8886.707777,-444.123565
5670.972210,444.123565,-8733.488677,-370.102971
5670.972534,370.102971,-8963.317327,-370.102971
5670.972858,370.102971,-8580.269578,-296.082377
5670.973183,444.123565,-8503.660028,-370.102971
5670.973507,518.144159,-8886.707777,-222.061783
5670.973831,296.082377,-8810.098227,-222.061783
5670.974156,518.144159,-8656.879127,-148.041188
5670.974480,370.102971,-8656.879127,-148.041188
5670.974804,888.247130,-8350.440928,0.000000
5670.975129,814.226536,-8580.269578,-370.102971
5670.975453,518.144159,-8963.317327,0.000000
5670.975777,222.061783,-8656.879127,0.000000
5670.976102,296.082377,-8580.269578,0.000000
5670.976426,518.144159,-8733.488677,0.000000
5670.976750,0.000000,-8733.488677,148.041188
5670.977075,444.123565,-9039.926876,0.000000
5670.977399,592.164754,-8580.269578,0.000000
5670.977723,962.267725,-8656.879127,0.000000
5670.978048,370.102971,-8503.660028,-296.082377
5670.978372,296.082377,-8580.269578,0.000000
5670.978696,148.041188,-8810.098227,-296.082377
5670.979021,592.164754,-8810.098227,0.000000
5670.979345,148.041188,-8580.269578,-518.144159
5670.979669,444.123565,-8273.831378,0.000000
5670.979994,74.020594,-8350.440928,0.000000
5670.980318,370.102971,-8273.831378,-148.041188
5670.980642,148.041188,-8656.879127,-296.082377
5670.980967,444.123565,-8503.660028,0.000000
5670.981291,370.102971,-8810.098227,-148.041188
5670.981616,296.082377,-8656.879127,-148.041188
5670.981940,370.102971,-8733.488677,-370.102971
5670.982264,592.164754,-8733.488677,-296.082377
5670.982589,222.061783,-8503.660028,-74.020594
5670.982913,296.082377,-8810.098227,-296.082377
5670.983237,444.123565,-8733.488677,-296.082377
5670.983562,518.144159,-8273.831378,0.000000
5670.983886,888.247130,-8810.098227,0.000000
5670.984210,222.061783,-8503.660028,-222.061783
5670.984535,444.123565,-8656.879127,-222.061783
5670.984859,296.082377,-8580.269578,-370.102971
5670.985183,296.082377,-8656.879127,296.082377
5670.985508,666.185348,-8580.269578,-296.082377
5670.985832,518.144159,-8580.269578,-296.082377
5670.986156,370.102971,-8350.440928,-296.082377
5670.986481,148.041188,-8656.879127,-296.082377
5670.986805,592.164754,-8273.831378,-296.082377
5670.987129,592.164754,-8580.269578,-370.102971
5670.987454,518.144159,-8503.660028,-518.144159
5670.987778,222.061783,-8350.440928,-370.102971
5670.988102,370.102971,-8503.660028,-74.020594
5670.988427,518.144159,-8503.660028,-370.102971
5670.988751,296.082377,-8197.221829,-518.144159
5670.989075,444.123565,-8733.488677,-370.102971
5670.989400,296.082377,-8273.831378,0.000000
5670.989724,222.061783,-8580.269578,-222.061783
5670.990048,222.061783,-8580.269578,-370.102971
5670.990373,592.164754,-8427.050478,-74.020594
5670.990697,518.144159,-8580.269578,-370.102971
5670.991021,518.144159,-8197.221829,-370.102971
5670.991346,444.123565,-8656.879127,-370.102971
5670.991670,444.123565,-8503.660028,-592.164754
5670.991994,296.082377,-8503.660028,-740.205942
5670.992319,888.247130,-8886.707777,-444.123565
5670.992643,444.123565,-8656.879127,-666.185348
5670.992967,444.123565,-8503.660028,-518.144159
5670.993292,222.061783,-8733.488677,-148.041188
5670.993616,370.102971,-8580.269578,-370.102971
5670.993940,444.123565,-8733.488677,0.000000
5670.994265,370.102971,-8733.488677,-592.164754
5670.994589,666.185348,-8503.660028,-370.102971
5670.994914,222.061783,-8656.879127,-296.082377
5670.995238,370.102971,-8656.879127,-518.144159
5670.995562,444.123565,-8427.050478,-444.123565
5670.995887,148.041188,-8810.098227,-444.123565
5670.996211,222.061783,-8656.879127,-444.123565
5670.996535,222.061783,-8656.879127,0.000000
5670.996860,148.041188,-8810.098227,-222.061783
5670.997184,370.102971,-8810.098227,0.000000
5670.997508,148.041188,-8580.269578,-148.041188
5670.997833,444.123565,-8733.488677,-444.123565
5670.998157,518.144159,-8427.050478,0.000000
5670.998481,74.020594,-8810.098227,0.000000
5670.998806,296.082377,-8733.488677,-148.041188
5670.999130,0.000000,-8503.660028,-370.102971
5670.999454,370.102971,-8963.317327,-518.144159
5670.999779,444.123565,-8197.221829,0.000000
5671.000103,296.082377,-8580.269578,0.000000
5671.000427,370.102971,-8503.660028,0.000000
5671.000752,222.061783,-8197.221829,0.000000
5671.001076,518.144159,-8427.050478,-296.082377
5671.001400,518.144159,-8580.269578,0.000000
5671.001725,444.123565,-8733.488677,-222.061783
5671.002049,444.123565,-8427.050478,0.000000
5671.002373,370.102971,-8580.269578,-370.102971
5671.002698,444.123565,-8580.269578,-222.061783
5671.003022,444.123565,-8733.488677,0.000000
5671.003346,222.061783,-8503.660028,0.000000
5671.003671,370.102971,-9269.755526,-148.041188
5671.003995,222.061783,-8656.879127,0.000000
5671.004319,518.144159,-8503.660028,0.000000
5671.004644,296.082377,-8503.660028,-296.082377
5671.004968,296.082377,-8963.317327,0.000000
5671.005293,592.164754,-8197.221829,-370.102971
5671.005617,444.123565,-8503.660028,-296.082377
5671.005941,444.123565,-8427.050478,-370.102971
5671.006266,370.102971,-8810.098227,-592.164754
5671.006590,370.102971,-8580.269578,-444.123565
5671.006914,444.123565,-8427.050478,-222.061783
5671.007239,666.185348,-8656.879127,-666.185348
5671.007563,296.082377,-8350.440928,-518.144159
5671.007888,814.226536,-8350.440928,-740.205942
5671.008212,296.082377,-8656.879127,-370.102971
5671.008536,444.123565,-8503.660028,-666.185348
5671.008861,370.102971,-8733.488677,-592.164754
5671.009185,296.082377,-8733.488677,-444.123565
5671.009509,740.205942,-8427.050478,-814.226536
5671.009834,444.123565,-8963.317327,-592.164754
5671.010158,592.164754,-8503.660028,-370.102971
5671.010483,296.082377,-8580.269578,-518.144159
5671.010807,592.164754,-8886.707777,-518.144159
5671.011131,518.144159,-8503.660028,-814.226536
5671.011456,666.185348,-8886.707777,-444.123565
5671.011780,370.102971,-8656.879127,-518.144159
5671.012104,518.144159,-9576.193725,-592.164754
5671.012429,518.144159,-8580.269578,-592.164754
5671.012753,296.082377,-8733.488677,-296.082377
5671.013077,370.102971,-8656.879127,-370.102971
5671.013402,444.123565,-8886.707777,-444.123565
5671.013726,592.164754,-8503.660028,-296.082377
5671.014051,296.082377,-8273.831378,-222.061783
5671.014375,370.102971,-8503.660028,-518.144159
5671.014699,518.144159,-8350.440928,-518.144159
5671.015024,370.102971,-8810.098227,-444.123565
5671.015348,296.082377,-8580.269578,-222.061783
5671.015672,296.082377,-8656.879127,-296.082377
5671.015997,370.102971,-8810.098227,-148.041188
5671.016321,740.205942,-8810.098227,0.000000
5671.016646,518.144159,-8656.879127,-444.123565
5671.016970,370.102971,-8427.050478,-148.041188
5671.017294,74.020594,-8580.269578,0.000000
5671.017619,370.102971,-8886.707777,0.000000
5671.017943,592.164754,-8427.050478,-222.061783
5671.018267,222.061783,-8503.660028,-296.082377
5671.018592,444.123565,-8733.488677,-370.102971
5671.018916,370.102971,-8580.269578,-148.041188
5671.019241,666.185348,-8427.050478,-592.164754
5671.019565,222.061783,-8503.660028,-296.082377
5671.019889,592.164754,-8503.660028,-222.061783
5671.020214,370.102971,-8580.269578,-148.041188
5671.020538,666.185348,-8120.612279,74.020594
5671.020862,222.061783,-8350.440928,0.000000
5671.021187,370.102971,-8886.707777,-148.041188
5671.021511,370.102971,-8503.660028,-370.102971
5671.021836,370.102971,-8350.440928,-370.102971
5671.022160,666.185348,-8886.707777,-666.185348
5671.022484,444.123565,-8427.050478,-370.102971
5671.022809,370.102971,-8810.098227,-222.061783
5671.023133,592.164754,-8580.269578,-222.061783
5671.023457,814.226536,-9116.536426,-444.123565
5671.023782,296.082377,-8810.098227,-444.123565
5671.024106,740.205942,-8427.050478,-370.102971
5671.024431,296.082377,-8810.098227,-370.102971
5671.024755,518.144159,-9269.755526,-518.144159
5671.025079,444.123565,-8580.269578,-518.144159
5671.025404,518.144159,-8580.269578,-740.205942
5671.025728,296.082377,-8886.707777,-444.123565
5671.026052,370.102971,-8427.050478,-518.144159
5671.026377,370.102971,-9039.926876,-148.041188
5671.026701,296.082377,-8503.660028,-296.082377
5671.027025,296.082377,-8733.488677,-518.144159
5671.027350,592.164754,-8580.269578,-814.226536
5671.027674,0.000000,-8886.707777,222.061783
5671.027999,296.082377,-8733.488677,-518.144159
5671.028323,296.082377,-8427.050478,-592.164754
5671.028647,518.144159,-8503.660028,-666.185348
5671.028972,444.123565,-8503.660028,-444.123565
5671.029296,592.164754,-8427.050478,-592.164754
5671.029620,370.102971,-8810.098227,-592.164754
5671.029945,518.144159,-8963.317327,-370.102971
5671.030269,296.082377,-8580.269578,-666.185348
5671.030594,888.247130,-8503.660028,-444.123565
5671.030918,444.123565,-8503.660028,-296.082377
5671.031242,222.061783,-8580.269578,-370.102971
5671.031567,370.102971,-8810.098227,-444.123565
5671.031891,592.164754,-8810.098227,-370.102971
5671.032215,444.123565,-8503.660028,-592.164754
5671.032540,592.164754,-8580.269578,-370.102971
5671.032864,370.102971,-8810.098227,-666.185348
5671.033189,592.164754,-8810.098227,-518.144159
5671.033513,370.102971,-8810.098227,-296.082377
5671.033837,370.102971,-8810.098227,-518.144159
5671.034162,740.205942,-8503.660028,-592.164754
5671.034486,518.144159,-8350.440928,-296.082377
5671.034810,518.144159,-8810.098227,-222.061783
5671.035135,370.102971,-9039.926876,-370.102971
5671.035459,518.144159,-8503.660028,-296.082377
5671.035784,370.102971,-8580.269578,-444.123565
5671.036108,740.205942,-8963.317327,222.061783
5671.036432,222.061783,-8273.831378,-370.102971
5671.036757,370.102971,-8963.317327,-222.061783
5671.037081,518.144159,-8427.050478,-296.082377
5671.037405,666.185348,-8580.269578,-370.102971
5671.037730,888.247130,-8427.050478,-370.102971
5671.038054,592.164754,-8427.050478,-222.061783
5671.038379,444.123565,-8503.660028,-296.082377
5671.038703,296.082377,-8503.660028,-148.041188
5671.039027,888.247130,-8810.098227,-222.061783
5671.039352,296.082377,-8503.660028,-222.061783
5671.039676,222.061783,-8580.269578,-296.082377
5671.040000,148.041188,-8580.269578,0.000000
5671.040325,370.102971,-8503.660028,-444.123565
5671.040649,370.102971,-8580.269578,-518.144159
5671.040973,518.144159,-8810.098227,-370.102971
5671.041298,518.144159,-8350.440928,0.000000
5671.041622,518.144159,-8503.660028,-370.102971
5671.041947,296.082377,-8963.317327,-518.144159
5671.042271,444.123565,-8503.660028,-296.082377
5671.042595,518.144159,-8350.440928,-444.123565
5671.042920,444.123565,-8350.440928,-592.164754
5671.043244,296.082377,-9193.145976,-148.041188
5671.043568,444.123565,-8733.488677,-74.020594
5671.043893,296.082377,-8733.488677,-370.102971
5671.044217,296.082377,-8503.660028,-370.102971
5671.044542,296.082377,-8886.707777,-296.082377
5671.044866,370.102971,-8273.831378,-148.041188
5671.045190,444.123565,-8810.098227,-370.102971
5671.045515,444.123565,-8810.098227,-518.144159
5671.045839,518.144159,-8503.660028,-444.123565
5671.046163,666.185348,-8656.879127,-740.205942
5671.046488,444.123565,-9039.926876,-518.144159
5671.046812,370.102971,-8733.488677,-740.205942
5671.047137,518.144159,-8963.317327,-592.164754
5671.047461,518.144159,-8120.612279,-222.061783
5671.047785,222.061783,-8963.317327,-222.061783
5671.048110,296.082377,-8810.098227,-518.144159
5671.048434,444.123565,-8120.612279,-370.102971
5671.048758,518.144159,-8810.098227,-740.205942
5671.049083,296.082377,-8273.831378,-370.102971
5671.049407,666.185348,-8810.098227,-518.144159
5671.049732,518.144159,-8580.269578,-666.185348
5671.050056,666.185348,-8580.269578,-296.082377
5671.050380,296.082377,-8350.440928,-740.205942
5671.050705,444.123565,-8580.269578,-296.082377
5671.051029,370.102971,-8503.660028,-592.164754
5671.051353,296.082377,-9039.926876,-370.102971
5671.051678,740.205942,-8197.221829,-148.041188
5671.052002,518.144159,-8197.221829,-444.123565
5671.052326,444.123565,-8656.879127,-592.164754
5671.052651,592.164754,-8580.269578,-518.144159
5671.052975,666.185348,-8503.660028,-666.185348
5671.053300,666.185348,-8273.831378,-444.123565
5671.053624,518.144159,-8580.269578,-592.164754
5671.053948,296.082377,-8503.660028,-518.144159
5671.054273,444.123565,-8273.831378,-370.102971
5671.054597,370.102971,-8886.707777,-962.267725
5671.054921,666.185348,-8580.269578,-296.082377
5671.055246,148.041188,-8197.221829,-370.102971
5671.055570,518.144159,-8656.879127,-444.123565
5671.055895,74.020594,-7814.174080,-444.123565
5671.056219,666.185348,-8350.440928,-518.144159
5671.056543,444.123565,-8656.879127,-592.164754
5671.056868,518.144159,-8503.660028,-444.123565
5671.057192,74.020594,-8503.660028,-74.020594
5671.057516,518.144159,-8580.269578,-444.123565
5671.057841,444.123565,-8656.879127,-370.102971
5671.058165,370.102971,-8656.879127,-518.144159
5671.058490,518.144159,-8503.660028,-296.082377
5671.058814,222.061783,-8886.707777,0.000000
5671.059138,296.082377,-8886.707777,0.000000
5671.059463,296.082377,-8427.050478,-444.123565
5671.059787,592.164754,-8656.879127,-518.144159
5671.060111,74.020594,-8810.098227,-222.061783
5671.060436,518.144159,-8656.879127,0.000000
5671.060760,370.102971,-8580.269578,-148.041188
5671.061085,444.123565,-8810.098227,0.000000
5671.061409,148.041188,-8350.440928,0.000000
5671.061733,0.000000,-8810.098227,-296.082377
5671.062058,296.082377,-8580.269578,-148.041188
5671.062382,370.102971,-8810.098227,0.000000
5671.062706,370.102971,-8580.269578,-296.082377
5671.063031,444.123565,-8120.612279,-518.144159
5671.063355,962.267725,-8427.050478,-370.102971
5671.063680,518.144159,-8580.269578,-296.082377
5671.064004,518.144159,-8656.879127,-444.123565
5671.064328,0.000000,-8656.879127,-222.061783
5671.064653,518.144159,-8810.098227,-370.102971
5671.064977,592.164754,-8503.660028,-148.041188
5671.065301,592.164754,-8580.269578,-518.144159
5671.065626,518.144159,-8580.269578,0.000000
5671.065950,592.164754,-9039.926876,-592.164754
5671.066274,518.144159,-8810.098227,-296.082377
5671.066599,814.226536,-8350.440928,-740.205942
5671.066923,518.144159,-8733.488677,-592.164754
5671.067248,370.102971,-9576.193725,-370.102971
5671.067572,592.164754,-8733.488677,-444.123565
5671.067896,518.144159,-8886.707777,-518.144159
5671.068221,518.144159,-8503.660028,-518.144159
5671.068545,592.164754,-8810.098227,-296.082377
5671.068869,370.102971,-8580.269578,-148.041188
5671.069194,444.123565,-8580.269578,-222.061783
5671.069518,222.061783,-8580.269578,-370.102971
5671.069843,222.061783,-8580.269578,-296.082377
5671.070167,296.082377,-8886.707777,-222.061783
5671.070491,518.144159,-8580.269578,-444.123565
5671.070816,222.061783,-8427.050478,-148.041188
5671.071140,222.061783,-8733.488677,0.000000
5671.071464,296.082377,-8580.269578,0.000000
5671.071789,148.041188,-8580.269578,-296.082377
5671.072113,222.061783,-8656.879127,-592.164754
5671.072438,222.061783,-8503.660028,0.000000
5671.072762,0.000000,-8503.660028,-370.102971
5671.073086,518.144159,-9039.926876,-148.041188
5671.073411,222.061783,-8427.050478,-518.144159
5671.073735,148.041188,-8656.879127,-370.102971
5671.074059,74.020594,-8273.831378,-592.164754
5671.074384,592.164754,-9116.536426,-222.061783
5671.074708,444.123565,-8733.488677,-444.123565
5671.075033,296.082377,-8656.879127,-518.144159
5671.075357,444.123565,-8503.660028,-370.102971
5671.075681,370.102971,-8733.488677,-444.123565
5671.076006,444.123565,-8427.050478,-222.061783
5671.076330,0.000000,-8350.440928,-148.041188
5671.076654,222.061783,-8350.440928,-296.082377
5671.076979,444.123565,-8350.440928,-296.082377
5671.077303,666.185348,-8503.660028,-148.041188
5671.077628,370.102971,-8503.660028,-148.041188
5671.077952,444.123565,-8503.660028,-296.082377
5671.078276,370.102971,-8503.660028,0.000000
5671.078601,444.123565,-8810.098227,-222.061783
5671.078925,518.144159,-8733.488677,-222.061783
5671.079249,666.185348,-8427.050478,-222.061783
5671.079574,296.082377,-8503.660028,-222.061783
5671.079898,370.102971,-8733.488677,-296.082377
5671.080222,518.144159,-8580.269578,-296.082377
5671.080547,592.164754,-8427.050478,-444.123565
5671.080871,518.144159,-8427.050478,-370.102971
5671.081196,296.082377,-9116.536426,-296.082377
5671.081520,222.061783,-8656.879127,-148.041188
5671.081844,518.144159,-8427.050478,-370.102971
5671.082169,518.144159,-8427.050478,-444.123565
5671.082493,592.164754,-8350.440928,-518.144159
5671.082817,592.164754,-8350.440928,-296.082377
5671.083142,296.082377,-8273.831378,-296.082377
5671.083466,370.102971,-8733.488677,-444.123565
5671.083791,518.144159,-8733.488677,-592.164754
5671.084115,518.144159,-8656.879127,-518.144159
5671.084439,296.082377,-8963.317327,-296.082377
5671.084764,592.164754,-8656.879127,-370.102971
5671.085088,296.082377,-9116.536426,-296.082377
5671.085412,296.082377,-8656.879127,0.000000
5671.085737,370.102971,-8503.660028,0.000000
5671.086061,740.205942,-8733.488677,-444.123565
5671.086386,444.123565,-8503.660028,-370.102971
5671.086710,74.020594,-8656.879127,-148.041188
5671.087034,592.164754,-9269.755526,0.000000
5671.087359,518.144159,-8580.269578,-296.082377
5671.087683,666.185348,-8733.488677,-592.164754
5671.088007,518.144159,-8886.707777,-444.123565
5671.088332,444.123565,-8810.098227,-370.102971
5671.088656,296.082377,-8733.488677,0.000000
5671.088981,518.144159,-8427.050478,-222.061783
5671.089305,740.205942,-8656.879127,-296.082377
5671.089629,518.144159,-8580.269578,-296.082377
5671.089954,370.102971,-8810.098227,74.020594
5671.090278,444.123565,-8503.660028,-444.123565
5671.090602,370.102971,-8580.269578,-296.082377
5671.090927,592.164754,-8503.660028,-518.144159
5671.091251,370.102971,-8733.488677,222.061783
5671.091576,148.041188,-8656.879127,0.000000
5671.091900,444.123565,-8733.488677,-370.102971
5671.092224,518.144159,-8580.269578,0.000000
5671.092549,592.164754,-8427.050478,-222.061783
5671.092873,444.123565,-8580.269578,-592.164754
5671.093197,518.144159,-8273.831378,0.000000
5671.093522,222.061783,-8273.831378,0.000000
5671.093846,222.061783,-8427.050478,-148.041188
5671.094170,444.123565,-8580.269578,74.020594
5671.094495,518.144159,-8656.879127,0.000000
5671.094819,444.123565,-8580.269578,0.000000
5671.095144,370.102971,-8580.269578,74.020594
5671.095468,592.164754,-8503.660028,222.061783
5671.095792,222.061783,-8503.660028,222.061783
5671.096117,592.164754,-8733.488677,0.000000
5671.096441,296.082377,-8350.440928,0.000000
5671.096765,444.123565,-8427.050478,74.020594
5671.097090,0.000000,-8350.440928,0.000000
5671.097414,370.102971,-8503.660028,0.000000
5671.097739,296.082377,-8427.050478,-222.061783
5671.098063,740.205942,-8733.488677,-370.102971
5671.098387,888.247130,-8044.002729,0.000000
5671.098712,296.082377,-8580.269578,0.000000
5671.099036,592.164754,-8350.440928,0.000000
5671.099360,74.020594,-8503.660028,-222.061783
5671.099685,666.185348,-8656.879127,-518.144159
5671.100009,222.061783,-8580.269578,-444.123565
5671.100334,518.144159,-8580.269578,-592.164754
5671.100658,222.061783,-8886.707777,-740.205942
5671.100982,666.185348,-8733.488677,-518.144159
5671.101307,370.102971,-8503.660028,-1036.288319
5671.101631,518.144159,-8503.660028,-666.185348
5671.101955,296.082377,-8656.879127,-518.144159
5671.102280,518.144159,-8810.098227,-370.102971
5671.102604,444.123565,-7967.393179,-296.082377
5671.102929,370.102971,-8427.050478,-444.123565
5671.103253,518.144159,-9116.536426,-296.082377
5671.103577,444.123565,-8273.831378,-666.185348
5671.103902,370.102971,-8656.879127,-444.123565
5671.104226,0.000000,-8197.221829,-370.102971
5671.104550,444.123565,-8733.488677,-444.123565
5671.104875,370.102971,-8656.879127,-592.164754
5671.105199,518.144159,-8733.488677,-370.102971
5671.105524,814.226536,-8656.879127,-148.041188
5671.105848,444.123565,-8503.660028,-370.102971
5671.106172,370.102971,-8656.879127,-518.144159
5671.106497,518.144159,-8656.879127,-814.226536
5671.106821,888.247130,-8427.050478,-592.164754
5671.107146,518.144159,-8427.050478,-296.082377
5671.107470,444.123565,-8580.269578,-666.185348
5671.107794,296.082377,-8427.050478,-592.164754
5671.108119,666.185348,-8350.440928,-518.144159
5671.108443,592.164754,-9116.536426,-370.102971
5671.108767,740.205942,-8580.269578,-296.082377
5671.109092,296.082377,-8427.050478,-370.102971
5671.109416,666.185348,-8656.879127,-296.082377
5671.109741,740.205942,-8273.831378,-370.102971
5671.110065,444.123565,-8733.488677,-296.082377
5671.110389,666.185348,-8580.269578,-296.082377
5671.110714,370.102971,-8427.050478,-296.082377
5671.111038,592.164754,-8810.098227,0.000000
5671.111363,592.164754,-8503.660028,-148.041188
5671.111687,666.185348,-8503.660028,0.000000
5671.112011,518.144159,-8580.269578,-296.082377
5671.112336,370.102971,-8350.440928,222.061783
5671.112660,592.164754,-8580.269578,0.000000
5671.112985,592.164754,-8656.879127,0.000000
5671.113309,444.123565,-8580.269578,0.000000
5671.113633,296.082377,-8656.879127,0.000000
5671.113958,888.247130,-8886.707777,0.000000
5671.114282,148.041188,-8503.660028,74.020594
5671.114607,444.123565,-8733.488677,222.061783
5671.114931,444.123565,-8120.612279,-222.061783
5671.115255,666.185348,-8656.879127,-296.082377
5671.115580,296.082377,-8273.831378,0.000000
5671.115904,444.123565,-8733.488677,0.000000
5671.116229,296.082377,-8273.831378,-148.041188
5671.116553,444.123565,-8503.660028,0.000000
5671.116877,444.123565,-8656.879127,-592.164754
5671.117202,518.144159,-8733.488677,0.000000
5671.117526,222.061783,-8120.612279,-370.102971
5671.117850,296.082377,-8580.269578,-444.123565
5671.118175,592.164754,-9499.584175,-222.061783
5671.118499,740.205942,-8886.707777,-518.144159
5671.118824,518.144159,-8427.050478,-370.102971
5671.119148,370.102971,-8886.707777,-444.123565
5671.119472,370.102971,-8580.269578,-222.061783
5671.119797,518.144159,-8886.707777,-592.164754
5671.120121,518.144159,-8580.269578,-370.102971
5671.120446,444.123565,-8427.050478,-592.164754
5671.120770,444.123565,-8733.488677,-592.164754
5671.121094,814.226536,-8733.488677,-666.185348
5671.121419,370.102971,-8810.098227,-592.164754
5671.121743,592.164754,-8350.440928,-592.164754
5671.122068,518.144159,-8963.317327,-444.123565
5671.122392,518.144159,-9193.145976,-666.185348
5671.122716,518.144159,-8810.098227,-222.061783
5671.123041,444.123565,-8503.660028,-666.185348
5671.123365,444.123565,-8580.269578,-518.144159
5671.123690,518.144159,-8427.050478,-592.164754
5671.124014,296.082377,-8733.488677,-666.185348
5671.124338,518.144159,-8427.050478,-814.226536
5671.124663,222.061783,-8656.879127,-666.185348
5671.124987,222.061783,-8733.488677,-518.144159
5671.125311,444.123565,-9193.145976,-444.123565
5671.125636,444.123565,-8733.488677,-740.205942
5671.125960,296.082377,-8503.660028,-444.123565
5671.126285,518.144159,-8656.879127,-518.144159
5671.126609,296.082377,-8656.879127,-518.144159
5671.126933,518.144159,-8427.050478,-666.185348
5671.127258,444.123565,-8503.660028,-518.144159
5671.127582,370.102971,-8886.707777,-518.144159
5671.127907,296.082377,-8503.660028,-222.061783
5671.128231,296.082377,-8810.098227,-296.082377
5671.128555,444.123565,-8810.098227,0.000000
5671.128880,222.061783,-7890.783629,-592.164754
5671.129204,814.226536,-8656.879127,-296.082377
5671.129529,592.164754,-8810.098227,0.000000
5671.129853,518.144159,-8503.660028,-222.061783
5671.130177,444.123565,-8427.050478,-222.061783
5671.130502,222.061783,-8427.050478,-222.061783
5671.130826,444.123565,-8656.879127,-148.041188
5671.131151,444.123565,-8273.831378,-222.061783
5671.131475,592.164754,-8120.612279,0.000000
5671.131799,444.123565,-8503.660028,-444.123565
5671.132124,666.185348,-8427.050478,-370.102971
5671.132448,592.164754,-8503.660028,0.000000
5671.132773,444.123565,-8810.098227,-296.082377
5671.133097,518.144159,-8503.660028,-222.061783
5671.133421,518.144159,-8580.269578,-370.102971
5671.133746,0.000000,-8656.879127,296.082377
5671.134070,370.102971,-8197.221829,-296.082377
5671.134394,370.102971,-8580.269578,-666.185348
5671.134719,222.061783,-8273.831378,-222.061783
5671.135043,592.164754,-8427.050478,-370.102971
5671.135368,370.102971,-8427.050478,-444.123565
5671.135692,740.205942,-8810.098227,-444.123565
5671.136016,444.123565,-8350.440928,-592.164754
5671.136341,296.082377,-8580.269578,-370.102971
5671.136665,444.123565,-8350.440928,-444.123565
5671.136990,518.144159,-8810.098227,-296.082377
5671.137314,592.164754,-8503.660028,-592.164754
5671.137638,518.144159,-8656.879127,-444.123565
5671.137963,444.123565,-8886.707777,-444.123565
5671.138287,370.102971,-8350.440928,-222.061783
5671.138612,222.061783,-8733.488677,-370.102971
5671.138936,518.144159,-8810.098227,-444.123565
5671.139260,592.164754,-8733.488677,-518.144159
5671.139585,592.164754,-9039.926876,-296.082377
5671.139909,222.061783,-8733.488677,-518.144159
5671.140234,370.102971,-8580.269578,-444.123565
5671.140558,296.082377,-8810.098227,-518.144159
5671.140882,444.123565,-7890.783629,-148.041188
5671.141207,518.144159,-8503.660028,-666.185348
5671.141531,740.205942,-8580.269578,-740.205942
5671.141855,666.185348,-8503.660028,-444.123565
5671.142180,518.144159,-8656.879127,-592.164754
5671.142504,592.164754,-8810.098227,-962.267725
5671.142829,370.102971,-8503.660028,-518.144159
5671.143153,518.144159,-8656.879127,-592.164754
5671.143477,444.123565,-8733.488677,-518.144159
5671.143802,666.185348,-8273.831378,-814.226536
5671.144126,148.041188,-8656.879127,-370.102971
5671.144451,444.123565,-8503.660028,-518.144159
5671.144775,518.144159,-8733.488677,-666.185348
5671.145099,1184.329507,-8656.879127,-222.061783
5671.145424,740.205942,-8580.269578,-740.205942
5671.145748,370.102971,-8733.488677,-296.082377
5671.146073,518.144159,-8580.269578,-370.102971
5671.146397,518.144159,-8886.707777,-222.061783
5671.146721,518.144159,-8580.269578,-444.123565
5671.147046,148.041188,-8656.879127,0.000000
5671.147370,296.082377,-8656.879127,-222.061783
5671.147695,296.082377,-8197.221829,-222.061783
5671.148019,222.061783,-8733.488677,-296.082377
5671.148343,814.226536,-8427.050478,-222.061783
5671.148668,592.164754,-8197.221829,-148.041188
5671.148992,222.061783,-8733.488677,0.000000
5671.149317,444.123565,-8427.050478,0.000000
5671.149641,296.082377,-8120.612279,-148.041188
5671.149965,518.144159,-8656.879127,0.000000
5671.150290,222.061783,-8503.660028,0.000000
5671.150614,222.061783,-8580.269578,0.000000
5671.150938,370.102971,-8273.831378,74.020594
5671.151263,592.164754,-8273.831378,-370.102971
5671.151587,222.061783,-8503.660028,-296.082377
5671.151912,740.205942,-8656.879127,-296.082377
5671.152236,666.185348,-8580.269578,148.041188
5671.152560,592.164754,-8350.440928,-370.102971
5671.152885,370.102971,-8733.488677,-370.102971
5671.153209,518.144159,-8580.269578,-444.123565
5671.153534,1036.288319,-8656.879127,-370.102971
5671.153858,444.123565,-8503.660028,-444.123565
5671.154182,370.102971,-8580.269578,-518.144159
5671.154507,518.144159,-8273.831378,-370.102971
5671.154831,518.144159,-8427.050478,-444.123565
5671.155156,518.144159,-8656.879127,-592.164754
5671.155480,222.061783,-8580.269578,-222.061783
5671.155804,444.123565,-8427.050478,-592.164754
5671.156129,370.102971,-8810.098227,-666.185348
5671.156453,666.185348,-8733.488677,-592.164754
5671.156778,370.102971,-8580.269578,-592.164754
5671.157102,222.061783,-8350.440928,-814.226536
5671.157426,370.102971,-8963.317327,-444.123565
5671.157751,592.164754,-8427.050478,-444.123565
5671.158075,592.164754,-8580.269578,-444.123565
5671.158400,444.123565,-8580.269578,-666.185348
5671.158724,518.144159,-8810.098227,-444.123565
5671.159048,518.144159,-8580.269578,-592.164754
5671.159373,222.061783,-8580.269578,-592.164754
5671.159697,222.061783,-8810.098227,-222.061783
5671.160021,592.164754,-8656.879127,-518.144159
5671.160346,444.123565,-8733.488677,-444.123565
5671.160670,296.082377,-8350.440928,-666.185348
5671.160995,518.144159,-8580.269578,-518.144159
5671.161319,370.102971,-8656.879127,-296.082377
5671.161643,444.123565,-8197.221829,-444.123565
5671.161968,518.144159,-8044.002729,-518.144159
5671.162292,444.123565,-8656.879127,-370.102971
5671.162617,296.082377,-8350.440928,-370.102971
5671.162941,444.123565,-8810.098227,-444.123565
5671.163265,518.144159,-8656.879127,-370.102971
5671.163590,518.144159,-8503.660028,-518.144159
5671.163914,370.102971,-8427.050478,-518.144159
5671.164239,444.123565,-8886.707777,-148.041188
5671.164563,296.082377,-8810.098227,-148.041188
5671.164887,666.185348,-8580.269578,-296.082377
5671.165212,592.164754,-8580.269578,-666.185348
5671.165536,518.144159,-8580.269578,-518.144159
5671.165861,370.102971,-8273.831378,0.000000
5671.166185,222.061783,-8350.440928,-370.102971
5671.166509,444.123565,-8503.660028,-518.144159
5671.166834,370.102971,-8503.660028,-148.041188
5671.167158,444.123565,-8580.269578,-222.061783
5671.167482,0.000000,-8273.831378,-148.041188
5671.167807,666.185348,-8963.317327,0.000000
5671.168131,370.102971,-8656.879127,0.000000
5671.168456,444.123565,-8427.050478,0.000000
5671.168780,296.082377,-8733.488677,-444.123565
5671.169104,444.123565,-9652.803275,0.000000
5671.169429,444.123565,-8503.660028,0.000000
5671.169753,370.102971,-8580.269578,-222.061783
5671.170078,666.185348,-8656.879127,74.020594
5671.170402,444.123565,-8120.612279,-296.082377
5671.170726,666.185348,-8503.660028,-666.185348
5671.171051,222.061783,-8197.221829,-444.123565
5671.171375,518.144159,-8733.488677,0.000000
5671.171700,518.144159,-8733.488677,-592.164754
5671.172024,592.164754,-8350.440928,-518.144159
5671.172348,296.082377,-8656.879127,-296.082377
5671.172673,296.082377,-8810.098227,-296.082377
5671.172997,518.144159,-8273.831378,-222.061783
5671.173322,444.123565,-9193.145976,-666.185348
5671.173646,592.164754,-8656.879127,-296.082377
5671.173970,444.123565,-8580.269578,-296.082377
5671.174295,592.164754,-8580.269578,-518.144159
5671.174619,370.102971,-8350.440928,-444.123565
5671.174944,888.247130,-8810.098227,-370.102971
5671.175268,222.061783,-8580.269578,-222.061783
5671.175592,518.144159,-8503.660028,-666.185348
5671.175917,370.102971,-8810.098227,-592.164754
5671.176241,518.144159,-9422.974625,222.061783
5671.176565,444.123565,-8350.440928,-444.123565
5671.176890,222.061783,-8886.707777,-518.144159
5671.177214,518.144159,-8503.660028,-518.144159
5671.177539,518.144159,-9193.145976,-370.102971
5671.177863,222.061783,-8580.269578,-444.123565
5671.178187,444.123565,-8580.269578,-444.123565
5671.178512,444.123565,-8733.488677,-444.123565
5671.178836,518.144159,-8656.879127,-740.205942
5671.179161,222.061783,-8656.879127,-444.123565
5671.179485,370.102971,-8580.269578,-444.123565
5671.179809,444.123565,-8427.050478,-592.164754
5671.180134,0.000000,-8580.269578,-370.102971
5671.180458,0.000000,-9346.365076,0.000000
5671.180783,444.123565,-8503.660028,-74.020594
5671.181107,444.123565,-8733.488677,-666.185348
5671.181431,296.082377,-8273.831378,-592.164754
5671.181756,444.123565,-8656.879127,-370.102971
5671.182080,518.144159,-8733.488677,-592.164754
5671.182405,444.123565,-8503.660028,-592.164754
5671.182729,888.247130,-8503.660028,-518.144159
5671.183053,518.144159,-8810.098227,-148.041188
5671.183378,444.123565,-8810.098227,0.000000
5671.183702,444.123565,-8580.269578,-222.061783
5671.184027,222.061783,-8503.660028,-444.123565
5671.184351,370.102971,-8273.831378,-222.061783
5671.184675,296.082377,-8503.660028,-296.082377
5671.185000,296.082377,-8427.050478,0.000000
5671.185324,444.123565,-8427.050478,-296.082377
5671.185648,592.164754,-8427.050478,0.000000
5671.185973,444.123565,-8273.831378,0.000000
5671.186297,666.185348,-8733.488677,-296.082377
5671.186622,666.185348,-8503.660028,-222.061783
5671.186946,222.061783,-8503.660028,0.000000
5671.187270,296.082377,-8733.488677,-148.041188
5671.187595,888.247130,-8503.660028,-370.102971
5671.187919,370.102971,-8273.831378,0.000000
5671.188244,222.061783,-8580.269578,-296.082377
5671.188568,444.123565,-8580.269578,0.000000
5671.188892,222.061783,-8427.050478,-148.041188
5671.189217,370.102971,-8656.879127,-370.102971
5671.189541,296.082377,-8427.050478,-518.144159
5671.189866,444.123565,-8656.879127,-222.061783
5671.190190,518.144159,-8273.831378,-222.061783
5671.190514,222.061783,-8656.879127,0.000000
5671.190839,444.123565,-8656.879127,0.000000
5671.191163,370.102971,-8580.269578,-296.082377
5671.191488,814.226536,-8810.098227,-518.144159
5671.191812,370.102971,-8580.269578,0.000000
5671.192136,592.164754,-8656.879127,-148.041188
5671.192461,370.102971,-8427.050478,-296.082377
5671.192785,444.123565,-8427.050478,-370.102971
5671.193109,518.144159,-9116.536426,-148.041188
5671.193434,666.185348,-8810.098227,-296.082377
5671.193758,814.226536,-8350.440928,-370.102971
5671.194083,592.164754,-8810.098227,-296.082377
5671.194407,518.144159,-8656.879127,0.000000
5671.194731,888.247130,-8733.488677,-592.164754
5671.195056,592.164754,-8656.879127,-592.164754
5671.195380,370.102971,-8810.098227,-296.082377
5671.195705,444.123565,-8656.879127,-296.082377
5671.196029,888.247130,-8810.098227,-222.061783
5671.196353,518.144159,-8810.098227,-296.082377
5671.196678,296.082377,-8963.317327,-444.123565
5671.197002,444.123565,-8656.879127,-148.041188
5671.197327,0.000000,-8580.269578,-518.144159
5671.197651,296.082377,-8963.317327,-444.123565
5671.197975,592.164754,-8503.660028,-518.144159
5671.198300,666.185348,-8733.488677,-444.123565
5671.198624,370.102971,-8733.488677,-370.102971
5671.198949,740.205942,-8963.317327,-518.144159
5671.199273,518.144159,-8656.879127,-666.185348
5671.199597,296.082377,-8656.879127,-444.123565
5671.199922,444.123565,-8580.269578,-444.123565
5671.200246,444.123565,-8503.660028,0.000000
5671.200571,370.102971,-8503.660028,-148.041188
5671.200895,370.102971,-8580.269578,-370.102971
5671.201219,518.144159,-8656.879127,-370.102971
5671.201544,592.164754,-8273.831378,-518.144159
5671.201868,518.144159,-8733.488677,-518.144159
5671.202192,518.144159,-8427.050478,-296.082377
5671.202517,222.061783,-8503.660028,-296.082377
5671.202841,296.082377,-8503.660028,-222.061783
5671.203166,0.000000,-8120.612279,0.000000
5671.203490,518.144159,-8733.488677,-296.082377
5671.203814,222.061783,-8580.269578,-222.061783
5671.204139,740.205942,-8197.221829,0.000000
5671.204463,370.102971,-7890.783629,148.041188
5671.204788,370.102971,-8427.050478,-148.041188
5671.205112,444.123565,-8120.612279,-296.082377
5671.205436,296.082377,-8503.660028,-296.082377
5671.205761,0.000000,-8350.440928,0.000000
5671.206085,666.185348,-8733.488677,-148.041188
5671.206409,222.061783,-8503.660028,-296.082377
5671.206734,148.041188,-8503.660028,-296.082377
5671.207058,666.185348,-8810.098227,-370.102971
5671.207382,740.205942,-8044.002729,0.000000
5671.207707,296.082377,-8656.879127,-148.041188
5671.208031,222.061783,-8273.831378,-370.102971
5671.208356,592.164754,-8273.831378,-296.082377
5671.208680,592.164754,-8656.879127,0.000000
5671.209004,444.123565,-8273.831378,-222.061783
5671.209329,370.102971,-8503.660028,-444.123565
5671.209653,444.123565,-8503.660028,0.000000
5671.209977,444.123565,-8810.098227,-370.102971
5671.210302,666.185348,-8886.707777,-370.102971
5671.210626,518.144159,-8656.879127,-222.061783
5671.210950,296.082377,-8350.440928,0.000000
5671.211275,296.082377,-8503.660028,-370.102971
5671.211599,444.123565,-9039.926876,-148.041188
5671.211923,370.102971,-8503.660028,-222.061783
5671.212248,444.123565,-8656.879127,-296.082377
5671.212572,222.061783,-8580.269578,-296.082377
5671.212896,148.041188,-8656.879127,-518.144159
5671.213221,518.144159,-8963.317327,-148.041188
5671.213545,444.123565,-8733.488677,-222.061783
5671.213869,370.102971,-8580.269578,-444.123565
5671.214194,222.061783,-8656.879127,-518.144159
5671.214518,666.185348,-8656.879127,-518.144159
5671.214843,296.082377,-8733.488677,-518.144159
5671.215167,518.144159,-8886.707777,-444.123565
5671.215491,592.164754,-8656.879127,-740.205942
5671.215816,888.247130,-8350.440928,-444.123565
5671.216140,444.123565,-8580.269578,-518.144159
5671.216464,444.123565,-8963.317327,-740.205942
5671.216789,444.123565,-8810.098227,-222.061783
5671.217113,666.185348,-8580.269578,-592.164754
5671.217437,666.185348,-8810.098227,-740.205942
5671.217762,444.123565,-8733.488677,-666.185348
5671.218086,518.144159,-8580.269578,-444.123565
5671.218410,444.123565,-8886.707777,-370.102971
5671.218735,592.164754,-8503.660028,-296.082377
5671.219059,444.123565,-8886.707777,-592.164754
5671.219383,444.123565,-8503.660028,-444.123565
5671.219708,296.082377,-8656.879127,-148.041188
5671.220032,222.061783,-8350.440928,0.000000
5671.220356,370.102971,-8503.660028,0.000000
5671.220681,444.123565,-8810.098227,-148.041188
5671.221005,518.144159,-8733.488677,-222.061783
5671.221329,518.144159,-8197.221829,0.000000
5671.221654,370.102971,-8503.660028,148.041188
5671.221978,296.082377,-8656.879127,-222.061783
5671.222303,444.123565,-8503.660028,-296.082377
5671.222627,740.205942,-8350.440928,-444.123565
5671.222951,370.102971,-8044.002729,0.000000
5671.223276,444.123565,-8350.440928,-370.102971
5671.223600,370.102971,-8733.488677,-148.041188
5671.223924,296.082377,-8580.269578,-370.102971
5671.224249,296.082377,-7967.393179,0.000000
5671.224573,444.123565,-8503.660028,-444.123565
5671.224897,518.144159,-8197.221829,0.000000
5671.225222,222.061783,-8427.050478,-222.061783
5671.225546,296.082377,-8503.660028,0.000000
5671.225870,444.123565,-8427.050478,-444.123565
5671.226195,444.123565,-8197.221829,-518.144159
5671.226519,222.061783,-8580.269578,-370.102971
5671.226843,518.144159,-8656.879127,-370.102971
5671.227168,666.185348,-9269.755526,74.020594
5671.227492,296.082377,-8656.879127,0.000000
5671.227816,370.102971,-8886.707777,-296.082377
5671.228141,222.061783,-8350.440928,0.000000
5671.228465,370.102971,-8427.050478,0.000000
5671.228790,0.000000,-8427.050478,-370.102971
5671.229114,296.082377,-8427.050478,0.000000
5671.229438,444.123565,-8580.269578,-370.102971
5671.229763,444.123565,-8810.098227,-222.061783
5671.230087,-148.041188,-8197.221829,-370.102971
5671.230411,370.102971,-8733.488677,-148.041188
5671.230736,370.102971,-8580.269578,-370.102971
5671.231060,666.185348,-8733.488677,-444.123565
5671.231384,814.226536,-8120.612279,-592.164754
5671.231709,740.205942,-8273.831378,-148.041188
5671.232033,592.164754,-8273.831378,-740.205942
5671.232357,148.041188,-8656.879127,-296.082377
5671.232682,518.144159,-8350.440928,-518.144159
5671.233006,592.164754,-8503.660028,-814.226536
5671.233330,444.123565,-8733.488677,-592.164754
5671.233655,296.082377,-8656.879127,-518.144159
5671.233979,518.144159,-8810.098227,-814.226536
5671.234303,-148.041188,-8273.831378,-666.185348
5671.234628,518.144159,-8733.488677,-814.226536
5671.234952,666.185348,-8810.098227,-666.185348
5671.235276,740.205942,-8350.440928,-518.144159
5671.235601,222.061783,-8733.488677,-1036.288319
5671.235925,518.144159,-8656.879127,-518.144159
5671.236250,666.185348,-8810.098227,-444.123565
5671.236574,962.267725,-8810.098227,-814.226536
5671.236898,666.185348,-8733.488677,-592.164754
5671.237223,222.061783,-8733.488677,-370.102971
5671.237547,592.164754,-9116.536426,-444.123565
5671.237871,296.082377,-8810.098227,-296.082377
5671.238196,444.123565,-8810.098227,-666.185348
5671.238520,666.185348,-8733.488677,-148.041188
5671.238844,148.041188,-8427.050478,-222.061783
5671.239169,444.123565,-8580.269578,-296.082377
