#time,accel_x,accel_y,accel_z
5636.344344,444.123565,-8120.612279,0.000000
5636.344668,740.205942,-8733.488677,0.000000
5636.344992,518.144159,-8733.488677,-148.041188
5636.345316,296.082377,-8503.660028,0.000000
5636.345641,518.144159,-8503.660028,-148.041188
5636.345965,370.102971,-8733.488677,0.000000
5636.346289,370.102971,-8503.660028,74.020594
5636.346613,518.144159,-8810.098227,-222.061783
5636.346938,518.144159,-8580.269578,-370.102971
5636.347262,518.144159,-8810.098227,0.000000
5636.347586,962.267725,-8580.269578,74.020594
5636.347910,444.123565,-8656.879127,74.020594
5636.348235,592.164754,-8580.269578,-370.102971
5636.348559,444.123565,-8733.488677,-296.082377
5636.348883,370.102971,-8733.488677,-222.061783
5636.349207,296.082377,-8656.879127,0.000000
5636.349532,0.000000,-8656.879127,-222.061783
5636.349856,814.226536,-8580.269578,-444.123565
5636.350180,592.164754,-8810.098227,-296.082377
5636.350504,518.144159,-8580.269578,-444.123565
5636.350828,518.144159,-8656.879127,-296.082377
5636.351153,444.123565,-8963.317327,-148.041188
5636.351477,222.061783,-8427.050478,-148.041188
5636.351801,370.102971,-8963.317327,-444.123565
5636.352125,518.144159,-8886.707777,-518.144159
5636.352450,666.185348,-8350.440928,-370.102971
5636.352774,148.041188,-8580.269578,-296.082377
5636.353098,222.061783,-8733.488677,-222.061783
5636.353422,666.185348,-8427.050478,-370.102971
5636.353747,592.164754,-8810.098227,-296.082377
5636.354071,444.123565,-8886.707777,0.000000
5636.354395,296.082377,-8810.098227,-148.041188
5636.354719,592.164754,-9422.974625,222.061783
5636.355044,222.061783,-8427.050478,0.000000
5636.355368,592.164754,-8963.317327,74.020594
5636.355692,296.082377,-8580.269578,-222.061783
5636.356016,666.185348,-9346.365076,0.000000
5636.356341,74.020594,-8580.269578,-148.041188
5636.356665,518.144159,-8427.050478,-296.082377
5636.356989,148.041188,-8733.488677,-296.082377
5636.357313,148.041188,-8503.660028,0.000000
5636.357637,148.041188,-8810.098227,222.061783
5636.357962,222.061783,-8580.269578,-148.041188
5636.358286,444.123565,-8810.098227,-148.041188
5636.358610,370.102971,-8733.488677,-444.123565
5636.358934,222.061783,-9346.365076,0.000000
5636.359259,518.144159,-8580.269578,-370.102971
5636.359583,518.144159,-8656.879127,-148.041188
5636.359907,370.102971,-8580.269578,-370.102971
5636.360231,592.164754,-9039.926876,-370.102971
5636.360556,296.082377,-8810.098227,-444.123565
5636.360880,74.020594,-8810.098227,-74.020594
5636.361204,444.123565,-8963.317327,-222.061783
5636.361528,444.123565,-8580.269578,0.000000
5636.361853,740.205942,-8350.440928,-370.102971
5636.362177,666.185348,-8733.488677,0.000000
5636.362501,740.205942,-8886.707777,0.000000
5636.362825,592.164754,-8350.440928,74.020594
5636.363150,444.123565,-8427.050478,-296.082377
5636.363474,370.102971,-8886.707777,74.020594
5636.363798,888.247130,-8120.612279,0.000000
5636.364122,444.123565,-8580.269578,74.020594
5636.364447,518.144159,-8733.488677,296.082377
5636.364771,444.123565,-8503.660028,0.000000
5636.365095,666.185348,-8580.269578,148.041188
5636.365419,518.144159,-8427.050478,518.144159
5636.365743,518.144159,-8656.879127,296.082377
5636.366068,740.205942,-8963.317327,0.000000
5636.366392,592.164754,-8503.660028,296.082377
5636.366716,592.164754,-8810.098227,444.123565
5636.367040,518.144159,-8503.660028,74.020594
5636.367365,296.082377,-8963.317327,444.123565
5636.367689,370.102971,-8580.269578,296.082377
5636.368013,148.041188,-8503.660028,370.102971
5636.368337,370.102971,-8350.440928,370.102971
5636.368662,370.102971,-8350.440928,222.061783
5636.368986,370.102971,-8273.831378,222.061783
5636.369310,592.164754,-8733.488677,444.123565
5636.369634,592.164754,-8044.002729,222.061783
5636.369959,148.041188,-8503.660028,444.123565
5636.370283,296.082377,-8810.098227,222.061783
5636.370607,444.123565,-8503.660028,296.082377
5636.370931,444.123565,-8656.879127,296.082377
5636.371256,444.123565,-8580.269578,296.082377
5636.371580,0.000000,-8886.707777,148.041188
5636.371904,444.123565,-8733.488677,296.082377
5636.372228,370.102971,-8656.879127,222.061783
5636.372553,296.082377,-8580.269578,444.123565
5636.372877,296.082377,-8580.269578,296.082377
5636.373201,222.061783,-8273.831378,148.041188
5636.373525,296.082377,-8580.269578,74.020594
5636.373849,148.041188,-8580.269578,296.082377
5636.374174,296.082377,-8350.440928,148.041188
5636.374498,1036.288319,-8580.269578,0.000000
5636.374822,74.020594,-8810.098227,296.082377
5636.375146,296.082377,-8580.269578,444.123565
5636.375471,222.061783,-8580.269578,222.061783
5636.375795,148.041188,-9193.145976,0.000000
5636.376119,222.061783,-8427.050478,0.000000
5636.376443,222.061783,-8733.488677,222.061783
5636.376768,444.123565,-8197.221829,74.020594
5636.377092,74.020594,-8580.269578,0.000000
5636.377416,370.102971,-8580.269578,0.000000
5636.377740,370.102971,-8350.440928,0.000000
5636.378065,74.020594,-8810.098227,0.000000
5636.378389,74.020594,-8580.269578,296.082377
5636.378713,444.123565,-7814.174080,444.123565
5636.379037,74.020594,-8427.050478,222.061783
5636.379362,370.102971,-8350.440928,0.000000
5636.379686,296.082377,-8580.269578,0.000000
5636.380010,370.102971,-8810.098227,370.102971
5636.380334,222.061783,-8350.440928,0.000000
5636.380658,296.082377,-8427.050478,0.000000
5636.380983,296.082377,-8273.831378,74.020594
5636.381307,222.061783,-8580.269578,0.000000
5636.381631,0.000000,-8503.660028,74.020594
5636.381955,148.041188,-8656.879127,0.000000
5636.382280,444.123565,-8733.488677,74.020594
5636.382604,222.061783,-8197.221829,74.020594
5636.382928,370.102971,-8656.879127,222.061783
5636.383252,296.082377,-8350.440928,74.020594
5636.383577,296.082377,-8580.269578,74.020594
5636.383901,148.041188,-8427.050478,0.000000
5636.384225,518.144159,-8580.269578,0.000000
5636.384549,444.123565,-8656.879127,296.082377
5636.384874,444.123565,-8580.269578,222.061783
5636.385198,222.061783,-8273.831378,74.020594
5636.385522,0.000000,-8350.440928,222.061783
5636.385846,0.000000,-7967.393179,222.061783
5636.386171,222.061783,-8580.269578,0.000000
5636.386495,74.020594,-8580.269578,74.020594
5636.386819,518.144159,-8273.831378,0.000000
5636.387143,370.102971,-7737.564530,148.041188
5636.387468,222.061783,-8503.660028,0.000000
5636.387792,148.041188,-8427.050478,0.000000
5636.388116,370.102971,-8350.440928,0.000000
5636.388440,222.061783,-8580.269578,0.000000
5636.388764,370.102971,-8503.660028,0.000000
5636.389089,296.082377,-8120.612279,0.000000
5636.389413,296.082377,-8580.269578,0.000000
5636.389737,296.082377,-8427.050478,-222.061783
5636.390061,0.000000,-8580.269578,-296.082377
5636.390386,296.082377,-8273.831378,-444.123565
5636.390710,0.000000,-8503.660028,-296.082377
5636.391034,444.123565,-8580.269578,-296.082377
5636.391358,444.123565,-7584.345430,-370.102971
5636.391683,296.082377,-8427.050478,-296.082377
5636.392007,296.082377,-8503.660028,-666.185348
5636.392331,370.102971,-8503.660028,-518.144159
5636.392655,518.144159,-8580.269578,-666.185348
5636.392980,222.061783,-8273.831378,-814.226536
5636.393304,296.082377,-8656.879127,-962.267725
5636.393628,444.123565,-8656.879127,-888.247130
5636.393952,518.144159,-8120.612279,-740.205942
5636.394277,666.185348,-8120.612279,-740.205942
5636.394601,814.226536,-8656.879127,-962.267725
5636.394925,666.185348,-8656.879127,-962.267725
5636.395249,518.144159,-8810.098227,-1036.288319
5636.395574,518.144159,-8810.098227,-740.205942
5636.395898,444.123565,-8656.879127,-1036.288319
5636.396222,518.144159,-8810.098227,-1184.329507
5636.396546,592.164754,-8733.488677,-1036.288319
5636.396870,666.185348,-8810.098227,-1406.391290
5636.397195,592.164754,-8427.050478,-888.247130
5636.397519,518.144159,-8503.660028,-740.205942
5636.397843,370.102971,-8810.098227,-962.267725
5636.398167,444.123565,-8656.879127,-1332.370696
5636.398492,444.123565,-8580.269578,-1628.453072
5636.398816,444.123565,-9039.926876,-1184.329507
5636.399140,148.041188,-8503.660028,-740.205942
5636.399464,444.123565,-8963.317327,-1184.329507
5636.399789,296.082377,-7890.783629,-814.226536
5636.400113,296.082377,-8580.269578,-1184.329507
5636.400437,444.123565,-8886.707777,-1258.350101
5636.400761,444.123565,-8810.098227,-962.267725
5636.401086,296.082377,-8427.050478,-1110.308913
5636.401410,148.041188,-8733.488677,-1406.391290
5636.401734,518.144159,-8503.660028,-962.267725
5636.402058,740.205942,-8810.098227,-1258.350101
5636.402383,222.061783,-8886.707777,-1184.329507
5636.402707,444.123565,-8656.879127,-888.247130
5636.403031,296.082377,-8656.879127,-1184.329507
5636.403355,370.102971,-8733.488677,-962.267725
5636.403679,518.144159,-8656.879127,-1110.308913
5636.404004,370.102971,-9039.926876,-962.267725
5636.404328,444.123565,-8044.002729,-666.185348
5636.404652,444.123565,-8427.050478,-814.226536
5636.404976,296.082377,-8580.269578,-962.267725
5636.405301,444.123565,-8503.660028,-814.226536
5636.405625,444.123565,-8580.269578,-962.267725
5636.405949,444.123565,-8886.707777,-666.185348
5636.406273,222.061783,-8503.660028,-592.164754
5636.406598,518.144159,-8656.879127,-518.144159
5636.406922,740.205942,-8810.098227,-666.185348
5636.407246,814.226536,-8810.098227,-592.164754
5636.407570,444.123565,-8656.879127,-740.205942
5636.407895,592.164754,-8197.221829,-296.082377
5636.408219,296.082377,-8427.050478,-370.102971
5636.408543,518.144159,-8427.050478,-296.082377
5636.408867,592.164754,-8580.269578,-518.144159
5636.409192,666.185348,-8810.098227,-370.102971
5636.409516,592.164754,-8733.488677,-370.102971
5636.409840,518.144159,-9116.536426,0.000000
5636.410164,592.164754,-8733.488677,-222.061783
5636.410489,592.164754,-8503.660028,-592.164754
5636.410813,666.185348,-8656.879127,-518.144159
5636.411137,592.164754,-9116.536426,-222.061783
5636.411461,740.205942,-8427.050478,-444.123565
5636.411785,592.164754,-8810.098227,-518.144159
5636.412110,740.205942,-8733.488677,-592.164754
5636.412434,518.144159,-8886.707777,-444.123565
5636.412758,814.226536,-8886.707777,-814.226536
5636.413082,518.144159,-8810.098227,-222.061783
5636.413407,370.102971,-8733.488677,-444.123565
5636.413731,592.164754,-8503.660028,-518.144159
5636.414055,888.247130,-9422.974625,-962.267725
5636.414379,888.247130,-8580.269578,-666.185348
5636.414704,814.226536,-8427.050478,-592.164754
5636.415028,814.226536,-8427.050478,-888.247130
5636.415352,592.164754,-8810.098227,-962.267725
5636.415676,814.226536,-8810.098227,-666.185348
5636.416001,444.123565,-8733.488677,-740.205942
5636.416325,518.144159,-8810.098227,-962.267725
5636.416649,370.102971,-8580.269578,-888.247130
5636.416973,148.041188,-8733.488677,-592.164754
5636.417298,518.144159,-8580.269578,-888.247130
5636.417622,814.226536,-8886.707777,-1184.329507
5636.417946,740.205942,-8810.098227,-1110.308913
5636.418270,814.226536,-9193.145976,-814.226536
5636.418595,518.144159,-8733.488677,-814.226536
5636.418919,370.102971,-8733.488677,-962.267725
5636.419243,814.226536,-8580.269578,-1036.288319
5636.419567,444.123565,-8810.098227,-1110.308913
5636.419891,518.144159,-8733.488677,-666.185348
5636.420216,444.123565,-8810.098227,-814.226536
5636.420540,444.123565,-8886.707777,-666.185348
5636.420864,518.144159,-8656.879127,-962.267725
5636.421188,370.102971,-9039.926876,-518.144159
5636.421513,518.144159,-8503.660028,-888.247130
5636.421837,444.123565,-8580.269578,-666.185348
5636.422161,296.082377,-8886.707777,-888.247130
5636.422485,666.185348,-9499.584175,-814.226536
5636.422810,740.205942,-8810.098227,-740.205942
5636.423134,444.123565,-8733.488677,-814.226536
5636.423458,666.185348,-8580.269578,-592.164754
5636.423782,518.144159,-8656.879127,-592.164754
5636.424107,444.123565,-9039.926876,-740.205942
5636.424431,444.123565,-8427.050478,-666.185348
5636.424755,370.102971,-8733.488677,-962.267725
5636.425079,444.123565,-8503.660028,-888.247130
5636.425404,444.123565,-8656.879127,-518.144159
5636.425728,296.082377,-8427.050478,-740.205942
5636.426052,518.144159,-8580.269578,-962.267725
5636.426376,222.061783,-8580.269578,-888.247130
5636.426700,296.082377,-8886.707777,-740.205942
5636.427025,444.123565,-8273.831378,-592.164754
5636.427349,518.144159,-8427.050478,-740.205942
5636.427673,518.144159,-8350.440928,-740.205942
5636.427997,370.102971,-8427.050478,-888.247130
5636.428322,518.144159,-8810.098227,-1110.308913
5636.428646,444.123565,-7890.783629,-592.164754
5636.428970,444.123565,-8503.660028,-666.185348
5636.429294,444.123565,-8350.440928,-592.164754
5636.429619,666.185348,-8350.440928,-1258.350101
5636.429943,592.164754,-8580.269578,-814.226536
5636.430267,444.123565,-8580.269578,-444.123565
5636.430591,592.164754,-8503.660028,-740.205942
5636.430916,518.144159,-9652.803275,-592.164754
5636.431240,444.123565,-8120.612279,-592.164754
5636.431564,740.205942,-8580.269578,-518.144159
5636.431888,666.185348,-8427.050478,-740.205942
5636.432213,666.185348,-8120.612279,-592.164754
5636.432537,370.102971,-8733.488677,-518.144159
5636.432861,592.164754,-8273.831378,-592.164754
5636.433185,444.123565,-8503.660028,-740.205942
5636.433510,518.144159,-8427.050478,-592.164754
5636.433834,370.102971,-9039.926876,-148.041188
5636.434158,370.102971,-8656.879127,-370.102971
5636.434482,444.123565,-8656.879127,-222.061783
5636.434806,518.144159,-8503.660028,-444.123565
5636.435131,444.123565,-8733.488677,-518.144159
5636.435455,370.102971,-8427.050478,-444.123565
5636.435779,592.164754,-8656.879127,-444.123565
5636.436103,296.082377,-8503.660028,-444.123565
5636.436428,592.164754,-8427.050478,-444.123565
5636.436752,444.123565,-8886.707777,-592.164754
5636.437076,370.102971,-8273.831378,-370.102971
5636.437400,148.041188,-8656.879127,-222.061783
5636.437725,444.123565,-8580.269578,-296.082377
5636.438049,296.082377,-9422.974625,0.000000
5636.438373,296.082377,-8427.050478,-444.123565
5636.438697,444.123565,-8733.488677,-444.123565
5636.439022,444.123565,-8197.221829,-148.041188
5636.439346,444.123565,-8427.050478,0.000000
5636.439670,296.082377,-8120.612279,0.000000
5636.439994,666.185348,-8503.660028,-592.164754
5636.440319,518.144159,-8733.488677,-296.082377
5636.440643,518.144159,-8503.660028,0.000000
5636.440967,222.061783,-8273.831378,0.000000
5636.441291,518.144159,-8427.050478,-222.061783
5636.441616,148.041188,-8580.269578,0.000000
5636.441940,370.102971,-8273.831378,-296.082377
5636.442264,592.164754,-9039.926876,-666.185348
5636.442588,518.144159,-8350.440928,0.000000
5636.442913,296.082377,-8580.269578,-148.041188
5636.443237,444.123565,-8197.221829,0.000000
5636.443561,296.082377,-8503.660028,0.000000
5636.443885,444.123565,-8273.831378,0.000000
5636.444209,444.123565,-8350.440928,0.000000
5636.444534,444.123565,-8580.269578,-222.061783
5636.444858,592.164754,-8427.050478,0.000000
5636.445182,444.123565,-8656.879127,-74.020594
5636.445506,444.123565,-8810.098227,-222.061783
5636.445831,222.061783,-8427.050478,-222.061783
5636.446155,296.082377,-8503.660028,0.000000
5636.446479,592.164754,-8197.221829,-222.061783
5636.446803,666.185348,-8503.660028,-148.041188
5636.447128,518.144159,-8273.831378,-296.082377
5636.447452,592.164754,-8427.050478,-222.061783
5636.447776,296.082377,-8503.660028,-518.144159
5636.448100,444.123565,-8503.660028,-370.102971
5636.448425,592.164754,-8503.660028,-222.061783
5636.448749,518.144159,-8503.660028,-296.082377
5636.449073,444.123565,-8733.488677,-444.123565
5636.449397,814.226536,-8273.831378,-296.082377
5636.449722,518.144159,-8503.660028,-444.123565
5636.450046,444.123565,-8810.098227,0.000000
5636.450370,370.102971,-8427.050478,0.000000
5636.450694,518.144159,-8810.098227,-296.082377
5636.451019,592.164754,-8733.488677,-148.041188
5636.451343,666.185348,-8580.269578,-444.123565
5636.451667,518.144159,-8580.269578,0.000000
5636.451991,518.144159,-8503.660028,-296.082377
5636.452316,444.123565,-8886.707777,-148.041188
5636.452640,370.102971,-8810.098227,0.000000
5636.452964,518.144159,-8427.050478,-148.041188
5636.453288,148.041188,-8886.707777,0.000000
5636.453613,444.123565,-8886.707777,0.000000
5636.453937,592.164754,-8580.269578,-296.082377
5636.454261,740.205942,-8427.050478,-296.082377
5636.454585,444.123565,-8656.879127,222.061783
5636.454909,592.164754,-8503.660028,-148.041188
5636.455234,222.061783,-8656.879127,0.000000
5636.455558,444.123565,-8503.660028,-148.041188
5636.455882,444.123565,-8886.707777,0.000000
5636.456206,666.185348,-8580.269578,0.000000
5636.456531,518.144159,-8427.050478,74.020594
5636.456855,444.123565,-8580.269578,74.020594
5636.457179,222.061783,-8580.269578,0.000000
5636.457503,518.144159,-8886.707777,0.000000
5636.457828,222.061783,-8886.707777,148.041188
5636.458152,370.102971,-8810.098227,0.000000
5636.458476,518.144159,-8733.488677,0.000000
5636.458800,444.123565,-8733.488677,148.041188
5636.459125,740.205942,-8656.879127,0.000000
5636.459449,296.082377,-8580.269578,0.000000
5636.459773,444.123565,-8350.440928,148.041188
5636.460097,296.082377,-8656.879127,222.061783
5636.460422,592.164754,-8580.269578,0.000000
5636.460746,1480.411884,-8197.221829,-296.082377
5636.461070,518.144159,-8656.879127,0.000000
5636.461394,296.082377,-8503.660028,74.020594
5636.461719,296.082377,-8273.831378,0.000000
5636.462043,444.123565,-8733.488677,296.082377
5636.462367,0.000000,-8350.440928,74.020594
5636.462691,666.185348,-8580.269578,0.000000
5636.463016,518.144159,-8580.269578,-222.061783
5636.463340,222.061783,-8427.050478,222.061783
5636.463664,296.082377,-8503.660028,0.000000
5636.463988,370.102971,-8656.879127,-148.041188
5636.464313,666.185348,-8656.879127,-148.041188
5636.464637,370.102971,-8656.879127,-296.082377
5636.464961,148.041188,-7890.783629,148.041188
5636.465285,148.041188,-8656.879127,0.000000
5636.465609,444.123565,-8733.488677,74.020594
5636.465934,148.041188,-8733.488677,0.000000
5636.466258,814.226536,-9039.926876,74.020594
5636.466582,222.061783,-8580.269578,-370.102971
5636.466906,592.164754,-8503.660028,-148.041188
5636.467231,296.082377,-8733.488677,-370.102971
5636.467555,370.102971,-8810.098227,-296.082377
5636.467879,444.123565,-8427.050478,-222.061783
5636.468203,222.061783,-8580.269578,-518.144159
5636.468528,296.082377,-9039.926876,-296.082377
5636.468852,370.102971,-8733.488677,-370.102971
5636.469176,296.082377,-8273.831378,0.000000
5636.469500,370.102971,-8503.660028,-370.102971
5636.469825,296.082377,-9193.145976,-296.082377
5636.470149,444.123565,-8503.660028,-518.144159
5636.470473,222.061783,-8963.317327,0.000000
5636.470797,296.082377,-8733.488677,-444.123565
5636.471122,592.164754,-8656.879127,-296.082377
5636.471446,592.164754,-8656.879127,-592.164754
5636.471770,370.102971,-8963.317327,0.000000
5636.472094,592.164754,-8810.098227,-370.102971
5636.472419,296.082377,-8810.098227,0.000000
5636.472743,222.061783,-8656.879127,-222.061783
5636.473067,592.164754,-9039.926876,0.000000
5636.473391,1036.288319,-8733.488677,-666.185348
5636.473716,370.102971,-8656.879127,0.000000
5636.474040,222.061783,-8810.098227,-222.061783
5636.474364,74.020594,-8656.879127,0.000000
5636.474688,592.164754,-8656.879127,0.000000
5636.475013,222.061783,-8733.488677,74.020594
5636.475337,370.102971,-8427.050478,0.000000
5636.475661,222.061783,-8580.269578,0.000000
5636.475985,518.144159,-8503.660028,0.000000
5636.476309,370.102971,-7967.393179,-148.041188
5636.476634,296.082377,-8810.098227,0.000000
5636.476958,444.123565,-8656.879127,0.000000
5636.477282,444.123565,-8656.879127,148.041188
5636.477606,962.267725,-9193.145976,0.000000
5636.477931,296.082377,-8350.440928,148.041188
5636.478255,518.144159,-8503.660028,148.041188
5636.478579,0.000000,-8886.707777,0.000000
5636.478903,148.041188,-8733.488677,444.123565
5636.479228,148.041188,-8427.050478,370.102971
5636.479552,222.061783,-8733.488677,444.123565
5636.479876,74.020594,-8580.269578,222.061783
5636.480200,148.041188,-8580.269578,74.020594
5636.480525,740.205942,-8503.660028,444.123565
5636.480849,148.041188,-8580.269578,370.102971
5636.481173,148.041188,-8656.879127,74.020594
5636.481497,148.041188,-8427.050478,0.000000
5636.481822,148.041188,-8197.221829,0.000000
5636.482146,296.082377,-8733.488677,0.000000
5636.482470,0.000000,-8197.221829,74.020594
5636.482794,444.123565,-8886.707777,222.061783
5636.483119,222.061783,-8503.660028,0.000000
5636.483443,592.164754,-9039.926876,0.000000
5636.483767,444.123565,-8733.488677,0.000000
5636.484091,518.144159,-8580.269578,148.041188
5636.484416,74.020594,-8656.879127,-296.082377
5636.484740,296.082377,-8197.221829,0.000000
5636.485064,444.123565,-8503.660028,0.000000
5636.485388,444.123565,-8580.269578,-370.102971
5636.485713,222.061783,-8733.488677,-74.020594
5636.486037,222.061783,-8503.660028,0.000000
5636.486361,222.061783,-8580.269578,-148.041188
5636.486685,296.082377,-8656.879127,-370.102971
5636.487009,370.102971,-8963.317327,0.000000
5636.487334,296.082377,-8656.879127,-296.082377
5636.487658,0.000000,-8503.660028,74.020594
5636.487982,296.082377,-8580.269578,-296.082377
5636.488306,518.144159,-8427.050478,0.000000
5636.488631,370.102971,-8503.660028,-222.061783
5636.488955,296.082377,-8656.879127,-962.267725
5636.489279,296.082377,-8503.660028,-296.082377
5636.489603,74.020594,-8733.488677,-296.082377
5636.489928,296.082377,-8886.707777,-222.061783
5636.490252,370.102971,-8427.050478,-296.082377
5636.490576,444.123565,-8810.098227,-444.123565
5636.490900,370.102971,-8503.660028,-444.123565
5636.491225,444.123565,-8580.269578,-444.123565
5636.491549,74.020594,-8580.269578,-296.082377
5636.491873,518.144159,-8350.440928,-666.185348
5636.492197,296.082377,-8656.879127,-370.102971
5636.492522,370.102971,-8503.660028,-296.082377
5636.492846,296.082377,-8503.660028,-296.082377
5636.493170,222.061783,-8273.831378,-370.102971
5636.493494,370.102971,-8580.269578,-518.144159
5636.493819,370.102971,-8273.831378,-592.164754
5636.494143,518.144159,-8656.879127,-370.102971
5636.494467,370.102971,-8427.050478,-444.123565
5636.494791,296.082377,-8580.269578,-444.123565
5636.495116,148.041188,-8273.831378,-740.205942
5636.495440,370.102971,-8503.660028,-296.082377
5636.495764,370.102971,-8656.879127,-518.144159
5636.496088,222.061783,-8886.707777,0.000000
5636.496413,222.061783,-8503.660028,-222.061783
5636.496737,444.123565,-8580.269578,-222.061783
5636.497061,370.102971,-8273.831378,-296.082377
5636.497385,444.123565,-8273.831378,-296.082377
5636.497709,370.102971,-8503.660028,0.000000
5636.498034,370.102971,-8273.831378,-148.041188
5636.498358,222.061783,-8503.660028,-370.102971
5636.498682,74.020594,-8427.050478,0.000000
5636.499006,370.102971,-8120.612279,-296.082377
5636.499331,296.082377,-8503.660028,-370.102971
5636.499655,666.185348,-8503.660028,-148.041188
5636.499979,74.020594,-8350.440928,-222.061783
5636.500303,444.123565,-8044.002729,74.020594
5636.500628,296.082377,-8197.221829,-370.102971
5636.500952,518.144159,-8963.317327,-444.123565
5636.501276,370.102971,-8273.831378,-222.061783
5636.501600,296.082377,-8350.440928,-222.061783
5636.501925,370.102971,-8810.098227,-296.082377
5636.502249,296.082377,-8580.269578,-370.102971
5636.502573,444.123565,-8810.098227,-444.123565
5636.502897,444.123565,-8503.660028,-592.164754
5636.503222,1036.288319,-8733.488677,-370.102971
5636.503546,518.144159,-8503.660028,-370.102971
5636.503870,666.185348,-8273.831378,-444.123565
5636.504194,592.164754,-8350.440928,-740.205942
5636.504519,740.205942,-8733.488677,-962.267725
5636.504843,592.164754,-8197.221829,-592.164754
5636.505167,296.082377,-8580.269578,-518.144159
5636.505491,222.061783,-8810.098227,-518.144159
5636.505816,814.226536,-8580.269578,-592.164754
5636.506140,518.144159,-8656.879127,-592.164754
5636.506464,592.164754,-8886.707777,-370.102971
5636.506788,518.144159,-8656.879127,-666.185348
5636.507113,592.164754,-8733.488677,-592.164754
5636.507437,444.123565,-7814.174080,-370.102971
5636.507761,814.226536,-8427.050478,-814.226536
5636.508085,592.164754,-8810.098227,-370.102971
5636.508410,518.144159,-8350.440928,-444.123565
5636.508734,518.144159,-8656.879127,-666.185348
5636.509058,666.185348,-8197.221829,-666.185348
5636.509382,592.164754,-8810.098227,-370.102971
5636.509706,370.102971,-8350.440928,-814.226536
5636.510031,518.144159,-8656.879127,-592.164754
5636.510355,296.082377,-8503.660028,-444.123565
5636.510679,740.205942,-8733.488677,-444.123565
5636.511003,444.123565,-8350.440928,-518.144159
5636.511328,592.164754,-8580.269578,-518.144159
5636.511652,148.041188,-8197.221829,-814.226536
5636.511976,444.123565,-8427.050478,-666.185348
5636.512300,592.164754,-8656.879127,-814.226536
5636.512625,444.123565,-8580.269578,-592.164754
5636.512949,814.226536,-8963.317327,-1184.329507
5636.513273,444.123565,-8656.879127,-814.226536
5636.513597,518.144159,-8580.269578,-444.123565
5636.513922,518.144159,-8503.660028,-370.102971
5636.514246,518.144159,-8580.269578,-370.102971
5636.514570,518.144159,-8503.660028,-666.185348
5636.514894,592.164754,-8733.488677,-666.185348
5636.515219,444.123565,-8273.831378,-296.082377
5636.515543,444.123565,-8733.488677,-444.123565
5636.515867,444.123565,-8427.050478,-740.205942
5636.516191,666.185348,-8427.050478,-444.123565
5636.516516,740.205942,-8273.831378,-518.144159
5636.516840,666.185348,-8503.660028,-444.123565
5636.517164,518.144159,-9116.536426,-222.061783
5636.517488,370.102971,-8733.488677,-370.102971
5636.517813,370.102971,-8427.050478,-222.061783
5636.518137,592.164754,-8503.660028,-592.164754
5636.518461,740.205942,-8656.879127,-370.102971
5636.518785,444.123565,-7814.174080,-296.082377
5636.519110,518.144159,-8503.660028,-370.102971
5636.519434,370.102971,-8656.879127,-592.164754
5636.519758,740.205942,-8580.269578,-592.164754
5636.520082,1036.288319,-8963.317327,-296.082377
5636.520406,518.144159,-8350.440928,-444.123565
5636.520731,518.144159,-8503.660028,-592.164754
5636.521055,518.144159,-8350.440928,-518.144159
5636.521379,370.102971,-8580.269578,-592.164754
5636.521703,444.123565,-8810.098227,-592.164754
5636.522028,666.185348,-8656.879127,-444.123565
5636.522352,518.144159,-8427.050478,-518.144159
5636.522676,518.144159,-8810.098227,-740.205942
5636.523000,888.247130,-8580.269578,-592.164754
5636.523325,592.164754,-8656.879127,-666.185348
5636.523649,592.164754,-8810.098227,-666.185348
5636.523973,592.164754,-8810.098227,-592.164754
5636.524297,74.020594,-8963.317327,-296.082377
5636.524622,370.102971,-8503.660028,-666.185348
5636.524946,444.123565,-8656.879127,-370.102971
5636.525270,370.102971,-8963.317327,-740.205942
5636.525594,592.164754,-8656.879127,-592.164754
5636.525919,444.123565,-8580.269578,-592.164754
5636.526243,592.164754,-8810.098227,-814.226536
5636.526567,592.164754,-8503.660028,-666.185348
5636.526891,444.123565,-8886.707777,-814.226536
5636.527216,148.041188,-8733.488677,-370.102971
5636.527540,518.144159,-8810.098227,-740.205942
5636.527864,296.082377,-8810.098227,-518.144159
5636.528188,296.082377,-8503.660028,-370.102971
5636.528513,592.164754,-8580.269578,-444.123565
5636.528837,444.123565,-8580.269578,-888.247130
5636.529161,370.102971,-8503.660028,-518.144159
5636.529485,296.082377,-8503.660028,-666.185348
5636.529810,518.144159,-8656.879127,-814.226536
5636.530134,592.164754,-8580.269578,-296.082377
5636.530458,592.164754,-8733.488677,-592.164754
5636.530782,222.061783,-8580.269578,-370.102971
5636.531106,296.082377,-8810.098227,-370.102971
5636.531431,296.082377,-8273.831378,296.082377
5636.531755,518.144159,-8656.879127,-518.144159
5636.532079,518.144159,-8656.879127,-592.164754
5636.532403,814.226536,-8503.660028,-666.185348
5636.532728,444.123565,-8963.317327,-370.102971
5636.533052,148.041188,-8810.098227,-296.082377
5636.533376,370.102971,-8580.269578,-296.082377
5636.533700,814.226536,-8656.879127,-518.144159
5636.534025,444.123565,-8580.269578,-444.123565
5636.534349,444.123565,-8733.488677,0.000000
5636.534673,444.123565,-8427.050478,-222.061783
5636.534997,518.144159,-8656.879127,-148.041188
5636.535322,222.061783,-8580.269578,-370.102971
5636.535646,74.020594,-8503.660028,0.000000
5636.535970,666.185348,-8503.660028,-518.144159
5636.536294,370.102971,-8503.660028,-370.102971
5636.536619,222.061783,-8810.098227,-296.082377
5636.536943,518.144159,-8810.098227,-296.082377
5636.537267,296.082377,-8580.269578,-592.164754
5636.537591,592.164754,-8580.269578,-370.102971
5636.537916,370.102971,-8733.488677,-296.082377
5636.538240,370.102971,-8503.660028,-444.123565
5636.538565,666.185348,-8656.879127,-888.247130
5636.538889,370.102971,-8656.879127,-740.205942
5636.539213,518.144159,-8503.660028,-592.164754
5636.539538,370.102971,-8350.440928,-444.123565
5636.539862,1036.288319,-8810.098227,-666.185348
5636.540187,148.041188,-8733.488677,-370.102971
5636.540511,592.164754,-8503.660028,-518.144159
5636.540835,296.082377,-8580.269578,-740.205942
5636.541160,518.144159,-8733.488677,-740.205942
5636.541484,222.061783,-8503.660028,-666.185348
5636.541809,296.082377,-8656.879127,-888.247130
5636.542133,592.164754,-8656.879127,-814.226536
5636.542458,518.144159,-8580.269578,-1110.308913
5636.542782,222.061783,-8273.831378,-592.164754
5636.543106,444.123565,-8503.660028,-740.205942
5636.543431,370.102971,-8733.488677,-740.205942
5636.543755,222.061783,-8580.269578,-888.247130
5636.544080,740.205942,-7967.393179,-296.082377
5636.544404,296.082377,-8427.050478,-888.247130
5636.544728,592.164754,-8963.317327,-666.185348
5636.545053,74.020594,-8503.660028,-740.205942
5636.545377,518.144159,-8733.488677,-370.102971
5636.545702,222.061783,-8350.440928,-666.185348
5636.546026,222.061783,-8886.707777,-592.164754
5636.546351,370.102971,-8580.269578,-740.205942
5636.546675,444.123565,-8733.488677,-666.185348
5636.546999,370.102971,-8503.660028,-518.144159
5636.547324,444.123565,-8733.488677,-518.144159
5636.547648,518.144159,-8656.879127,-518.144159
5636.547973,370.102971,-8350.440928,-518.144159
5636.548297,444.123565,-8733.488677,0.000000
5636.548621,296.082377,-8656.879127,-518.144159
5636.548946,444.123565,-8656.879127,-518.144159
5636.549270,444.123565,-8503.660028,-666.185348
5636.549595,666.185348,-8810.098227,-518.144159
5636.549919,518.144159,-8656.879127,-444.123565
5636.550244,222.061783,-8427.050478,-222.061783
5636.550568,444.123565,-8810.098227,-518.144159
5636.550892,370.102971,-8427.050478,-296.082377
5636.551217,888.247130,-9193.145976,-592.164754
5636.551541,444.123565,-8427.050478,-222.061783
5636.551866,592.164754,-8503.660028,-296.082377
5636.552190,222.061783,-8580.269578,-222.061783
5636.552514,518.144159,-8580.269578,-296.082377
5636.552839,592.164754,-8656.879127,-370.102971
5636.553163,888.247130,-8810.098227,-148.041188
5636.553488,444.123565,-8197.221829,0.000000
5636.553812,296.082377,-8810.098227,-148.041188
5636.554137,518.144159,-8580.269578,0.000000
5636.554461,518.144159,-8197.221829,-148.041188
5636.554785,444.123565,-8580.269578,-370.102971
5636.555110,666.185348,-8886.707777,0.000000
5636.555434,888.247130,-8580.269578,0.000000
5636.555759,444.123565,-8656.879127,0.000000
5636.556083,518.144159,-8503.660028,-222.061783
5636.556407,296.082377,-8580.269578,-222.061783
5636.556732,444.123565,-8580.269578,0.000000
5636.557056,222.061783,-8656.879127,-222.061783
5636.557381,222.061783,-8580.269578,0.000000
5636.557705,296.082377,-8427.050478,-296.082377
5636.558030,592.164754,-8810.098227,-148.041188
5636.558354,592.164754,-8350.440928,0.000000
5636.558678,444.123565,-8810.098227,0.000000
5636.559003,444.123565,-8733.488677,-148.041188
5636.559327,370.102971,-8427.050478,-296.082377
5636.559652,740.205942,-8886.707777,-370.102971
5636.559976,296.082377,-8580.269578,-518.144159
5636.560300,444.123565,-8580.269578,-222.061783
5636.560625,222.061783,-8427.050478,-444.123565
5636.560949,370.102971,-8810.098227,-370.102971
5636.561274,148.041188,-8503.660028,-296.082377
5636.561598,740.205942,-8656.879127,-518.144159
5636.561923,592.164754,-8350.440928,-444.123565
5636.562247,444.123565,-8580.269578,-222.061783
5636.562571,740.205942,-9116.536426,-666.185348
5636.562896,370.102971,-8580.269578,-296.082377
5636.563220,444.123565,-8810.098227,-518.144159
5636.563545,518.144159,-8810.098227,0.000000
5636.563869,444.123565,-8503.660028,-296.082377
5636.564193,444.123565,-8733.488677,-222.061783
5636.564518,444.123565,-8350.440928,-370.102971
5636.564842,666.185348,-8503.660028,-296.082377
5636.565167,444.123565,-8350.440928,-444.123565
5636.565491,296.082377,-8886.707777,0.000000
5636.565816,296.082377,-8656.879127,-296.082377
5636.566140,444.123565,-8427.050478,-148.041188
5636.566464,296.082377,-8120.612279,-296.082377
5636.566789,518.144159,-9269.755526,0.000000
5636.567113,444.123565,-8503.660028,-222.061783
5636.567438,444.123565,-8350.440928,0.000000
5636.567762,444.123565,-8503.660028,-222.061783
5636.568086,296.082377,-8503.660028,0.000000
5636.568411,296.082377,-8120.612279,-222.061783
5636.568735,370.102971,-8350.440928,-296.082377
5636.569060,296.082377,-8503.660028,-222.061783
5636.569384,370.102971,-8427.050478,0.000000
5636.569709,0.000000,-8427.050478,0.000000
5636.570033,222.061783,-8120.612279,-370.102971
5636.570357,518.144159,-8886.707777,-370.102971
5636.570682,444.123565,-8427.050478,0.000000
5636.571006,296.082377,-8120.612279,-666.185348
5636.571331,370.102971,-8427.050478,-222.061783
5636.571655,592.164754,-8427.050478,0.000000
5636.571979,444.123565,-8503.660028,0.000000
5636.572304,222.061783,-8580.269578,0.000000
5636.572628,0.000000,-8580.269578,74.020594
5636.572953,518.144159,-8886.707777,0.000000
5636.573277,444.123565,-8427.050478,-222.061783
5636.573602,296.082377,-8350.440928,74.020594
5636.573926,370.102971,-9116.536426,0.000000
5636.574250,296.082377,-8503.660028,0.000000
5636.574575,296.082377,-8733.488677,-222.061783
5636.574899,296.082377,-8733.488677,0.000000
5636.575224,592.164754,-8810.098227,0.000000
5636.575548,444.123565,-8656.879127,0.000000
5636.575872,74.020594,-8733.488677,74.020594
5636.576197,148.041188,-8197.221829,0.000000
5636.576521,444.123565,-8656.879127,148.041188
5636.576846,74.020594,-8427.050478,0.000000
5636.577170,296.082377,-8810.098227,0.000000
5636.577495,74.020594,-8273.831378,-148.041188
5636.577819,74.020594,-8503.660028,222.061783
5636.578143,148.041188,-9039.926876,-148.041188
5636.578468,592.164754,-8503.660028,-148.041188
5636.578792,444.123565,-8733.488677,0.000000
5636.579117,518.144159,-8580.269578,-444.123565
5636.579441,74.020594,-9269.755526,148.041188
5636.579765,370.102971,-8656.879127,-148.041188
5636.580090,296.082377,-8656.879127,0.000000
5636.580414,222.061783,-8503.660028,-370.102971
5636.580739,444.123565,-8733.488677,-296.082377
5636.581063,222.061783,-8580.269578,-148.041188
5636.581388,518.144159,-8733.488677,-148.041188
5636.581712,222.061783,-8656.879127,-296.082377
5636.582036,592.164754,-8733.488677,0.000000
5636.582361,222.061783,-8580.269578,0.000000
5636.582685,518.144159,-9039.926876,-296.082377
5636.583010,296.082377,-8273.831378,-296.082377
5636.583334,444.123565,-8810.098227,74.020594
5636.583658,296.082377,-8273.831378,-444.123565
5636.583983,444.123565,-8656.879127,-148.041188
5636.584307,370.102971,-8427.050478,-148.041188
5636.584632,444.123565,-8350.440928,0.000000
5636.584956,296.082377,-8427.050478,-370.102971
5636.585281,222.061783,-8810.098227,370.102971
5636.585605,444.123565,-8427.050478,0.000000
5636.585929,370.102971,-8580.269578,0.000000
5636.586254,222.061783,-8427.050478,0.000000
5636.586578,148.041188,-8963.317327,592.164754
5636.586903,296.082377,-8350.440928,222.061783
5636.587227,296.082377,-8656.879127,0.000000
5636.587551,0.000000,-8733.488677,0.000000
5636.587876,370.102971,-8733.488677,0.000000
5636.588200,74.020594,-8503.660028,0.000000
5636.588525,148.041188,-8580.269578,0.000000
5636.588849,148.041188,-8273.831378,222.061783
5636.589174,296.082377,-8503.660028,-148.041188
5636.589498,222.061783,-8427.050478,296.082377
5636.589822,666.185348,-8350.440928,0.000000
5636.590147,518.144159,-8427.050478,-148.041188
5636.590471,74.020594,-8580.269578,0.000000
5636.590796,74.020594,-8503.660028,370.102971
5636.591120,296.082377,-8427.050478,0.000000
5636.591444,74.020594,-8350.440928,148.041188
5636.591769,0.000000,-8350.440928,0.000000
5636.592093,370.102971,-8656.879127,0.000000
5636.592418,148.041188,-8503.660028,0.000000
5636.592742,444.123565,-8733.488677,0.000000
5636.593067,444.123565,-8733.488677,0.000000
5636.593391,296.082377,-8580.269578,0.000000
5636.593715,666.185348,-8427.050478,-518.144159
5636.594040,296.082377,-8580.269578,0.000000
5636.594364,222.061783,-8656.879127,0.000000
5636.594689,296.082377,-8656.879127,-148.041188
5636.595013,518.144159,-8350.440928,0.000000
5636.595337,222.061783,-8810.098227,-222.061783
5636.595662,370.102971,-8580.269578,0.000000
5636.595986,444.123565,-8733.488677,0.000000
5636.596311,444.123565,-8733.488677,-370.102971
5636.596635,518.144159,-8886.707777,-222.061783
5636.596960,370.102971,-8733.488677,-222.061783
5636.597284,296.082377,-8733.488677,0.000000
5636.597608,370.102971,-8427.050478,-296.082377
5636.597933,592.164754,-8886.707777,0.000000
5636.598257,518.144159,-8733.488677,-370.102971
5636.598582,444.123565,-8656.879127,0.000000
5636.598906,444.123565,-8733.488677,-444.123565
5636.599230,592.164754,-8810.098227,222.061783
5636.599555,296.082377,-8350.440928,-666.185348
5636.599879,666.185348,-8656.879127,-592.164754
5636.600204,222.061783,-8963.317327,0.000000
5636.600528,518.144159,-8733.488677,-296.082377
5636.600853,444.123565,-8427.050478,-222.061783
5636.601177,518.144159,-8733.488677,-518.144159
5636.601501,592.164754,-8733.488677,-444.123565
5636.601826,444.123565,-8733.488677,-296.082377
5636.602150,296.082377,-8273.831378,0.000000
5636.602475,148.041188,-8656.879127,0.000000
5636.602799,518.144159,-8503.660028,-444.123565
5636.603123,592.164754,-8656.879127,-592.164754
5636.603448,666.185348,-9116.536426,0.000000
5636.603772,518.144159,-8580.269578,-222.061783
5636.604097,518.144159,-8733.488677,-296.082377
5636.604421,296.082377,-8656.879127,-148.041188
5636.604746,518.144159,-8427.050478,-296.082377
5636.605070,370.102971,-8350.440928,0.000000
5636.605394,518.144159,-8350.440928,-222.061783
5636.605719,370.102971,-8656.879127,-296.082377
5636.606043,296.082377,-8350.440928,-222.061783
5636.606368,1036.288319,-8580.269578,-296.082377
5636.606692,444.123565,-8580.269578,-296.082377
5636.607016,370.102971,-8733.488677,-222.061783
5636.607341,148.041188,-8733.488677,0.000000
5636.607665,592.164754,-8580.269578,0.000000
5636.607990,370.102971,-8350.440928,0.000000
5636.608314,370.102971,-8580.269578,-296.082377
5636.608639,296.082377,-8503.660028,74.020594
5636.608963,444.123565,-8580.269578,0.000000
5636.609287,666.185348,-8810.098227,-370.102971
5636.609612,518.144159,-8350.440928,0.000000
5636.609936,592.164754,-8580.269578,0.000000
5636.610261,444.123565,-8580.269578,-296.082377
5636.610585,666.185348,-8580.269578,74.020594
5636.610909,444.123565,-8656.879127,0.000000
5636.611234,370.102971,-8733.488677,0.000000
5636.611558,222.061783,-8503.660028,0.000000
5636.611883,370.102971,-8733.488677,-296.082377
5636.612207,518.144159,-8350.440928,0.000000
5636.612532,518.144159,-8427.050478,0.000000
5636.612856,296.082377,-8580.269578,-296.082377
5636.613180,370.102971,-8656.879127,-222.061783
5636.613505,296.082377,-8656.879127,-296.082377
5636.613829,296.082377,-8733.488677,-518.144159
5636.614154,444.123565,-8656.879127,-370.102971
5636.614478,296.082377,-8427.050478,-444.123565
5636.614802,592.164754,-8580.269578,-370.102971
5636.615127,370.102971,-8503.660028,-518.144159
5636.615451,518.144159,-8886.707777,-740.205942
5636.615776,888.247130,-8273.831378,-592.164754
5636.616100,444.123565,-8580.269578,-814.226536
5636.616425,444.123565,-8656.879127,-666.185348
5636.616749,888.247130,-8350.440928,-740.205942
5636.617073,592.164754,-8963.317327,-1110.308913
5636.617398,370.102971,-8963.317327,-814.226536
5636.617722,592.164754,-9422.974625,-814.226536
5636.618047,666.185348,-8656.879127,-740.205942
5636.618371,592.164754,-8427.050478,-740.205942
5636.618695,666.185348,-8656.879127,-962.267725
5636.619020,740.205942,-8810.098227,-814.226536
5636.619344,518.144159,-8273.831378,-740.205942
5636.619669,518.144159,-8656.879127,-740.205942
5636.619993,518.144159,-8886.707777,-370.102971
5636.620318,592.164754,-8733.488677,-1036.288319
5636.620642,370.102971,-8656.879127,-518.144159
5636.620966,222.061783,-8810.098227,-518.144159
5636.621291,666.185348,-8656.879127,-592.164754
5636.621615,444.123565,-8503.660028,-518.144159
5636.621940,962.267725,-9039.926876,-666.185348
5636.622264,666.185348,-8427.050478,-740.205942
5636.622588,666.185348,-8580.269578,-740.205942
5636.622913,444.123565,-8350.440928,-740.205942
5636.623237,222.061783,-8733.488677,-444.123565
5636.623562,444.123565,-8350.440928,-888.247130
5636.623886,370.102971,-8580.269578,-592.164754
5636.624211,444.123565,-8503.660028,-518.144159
5636.624535,592.164754,-8580.269578,-444.123565
5636.624859,74.020594,-8503.660028,-222.061783
5636.625184,148.041188,-8273.831378,-296.082377
5636.625508,592.164754,-8656.879127,-592.164754
5636.625833,518.144159,-8656.879127,-518.144159
5636.626157,888.247130,-8197.221829,-444.123565
5636.626481,74.020594,-8197.221829,-592.164754
5636.626806,222.061783,-8580.269578,-444.123565
5636.627130,518.144159,-8197.221829,-740.205942
5636.627455,592.164754,-8503.660028,-592.164754
5636.627779,666.185348,-8273.831378,-444.123565
5636.628104,592.164754,-8427.050478,-444.123565
5636.628428,444.123565,-8656.879127,-518.144159
5636.628752,518.144159,-8273.831378,-222.061783
5636.629077,296.082377,-8580.269578,-666.185348
5636.629401,518.144159,-8580.269578,-592.164754
5636.629726,592.164754,-8350.440928,-370.102971
5636.630050,296.082377,-8580.269578,-592.164754
5636.630374,296.082377,-8427.050478,-370.102971
5636.630699,296.082377,-7890.783629,-370.102971
5636.631023,518.144159,-8503.660028,-370.102971
5636.631348,518.144159,-8427.050478,-370.102971
5636.631672,518.144159,-8733.488677,0.000000
5636.631997,518.144159,-8350.440928,-666.185348
5636.632321,518.144159,-8656.879127,-296.082377
5636.632645,370.102971,-8580.269578,-444.123565
5636.632970,444.123565,-8733.488677,-740.205942
5636.633294,444.123565,-8120.612279,-592.164754
5636.633619,222.061783,-8656.879127,-740.205942
5636.633943,444.123565,-8580.269578,-518.144159
5636.634267,592.164754,-8273.831378,-666.185348
5636.634592,814.226536,-9116.536426,-888.247130
5636.634916,296.082377,-8273.831378,-740.205942
5636.635241,592.164754,-8963.317327,-814.226536
5636.635565,592.164754,-8427.050478,-740.205942
5636.635890,740.205942,-8733.488677,-888.247130
5636.636214,592.164754,-8810.098227,-962.267725
5636.636538,592.164754,-8503.660028,-740.205942
5636.636863,444.123565,-8656.879127,-814.226536
5636.637187,370.102971,-8580.269578,-962.267725
5636.637512,370.102971,-8273.831378,-962.267725
5636.637836,444.123565,-8886.707777,-888.247130
5636.638160,666.185348,-8886.707777,-1036.288319
5636.638485,518.144159,-8656.879127,-518.144159
5636.638809,296.082377,-8810.098227,-296.082377
5636.639134,444.123565,-8656.879127,-666.185348
5636.639458,740.205942,-8886.707777,-666.185348
5636.639783,666.185348,-8503.660028,-666.185348
5636.640107,666.185348,-8580.269578,-444.123565
5636.640431,222.061783,-9422.974625,-740.205942
5636.640756,296.082377,-8810.098227,-518.144159
5636.641080,518.144159,-8503.660028,-592.164754
5636.641405,518.144159,-8580.269578,-444.123565
5636.641729,518.144159,-8120.612279,-666.185348
5636.642053,296.082377,-8656.879127,-518.144159
5636.642378,296.082377,-8503.660028,-370.102971
5636.642702,444.123565,-8273.831378,-518.144159
5636.643027,518.144159,-8503.660028,-592.164754
5636.643351,444.123565,-8503.660028,-444.123565
5636.643676,444.123565,-8580.269578,-444.123565
5636.644000,296.082377,-8656.879127,-592.164754
5636.644324,592.164754,-8580.269578,-444.123565
5636.644649,370.102971,-8656.879127,-444.123565
5636.644973,518.144159,-8503.660028,-592.164754
5636.645298,518.144159,-8273.831378,-444.123565
5636.645622,222.061783,-8580.269578,-222.061783
5636.645947,296.082377,-8350.440928,-296.082377
5636.646271,444.123565,-8503.660028,-296.082377
5636.646595,370.102971,-8350.440928,-296.082377
5636.646920,518.144159,-8197.221829,-74.020594
5636.647244,222.061783,-8350.440928,-222.061783
5636.647569,592.164754,-8427.050478,-296.082377
5636.647893,444.123565,-8427.050478,-444.123565
5636.648217,296.082377,-8580.269578,-296.082377
5636.648542,148.041188,-8656.879127,-222.061783
5636.648866,444.123565,-9422.974625,-444.123565
5636.649191,148.041188,-8733.488677,-222.061783
5636.649515,296.082377,-8427.050478,0.000000
5636.649840,370.102971,-8656.879127,-518.144159
5636.650164,518.144159,-8656.879127,-222.061783
5636.650488,148.041188,-8273.831378,-148.041188
5636.650813,296.082377,-8580.269578,0.000000
5636.651137,444.123565,-8733.488677,-74.020594
5636.651462,518.144159,-8656.879127,-222.061783
5636.651786,444.123565,-8656.879127,-666.185348
5636.652111,370.102971,-8810.098227,-444.123565
5636.652435,74.020594,-8656.879127,-518.144159
5636.652759,148.041188,-8733.488677,-444.123565
5636.653084,370.102971,-8503.660028,-222.061783
5636.653408,296.082377,-8886.707777,-592.164754
5636.653733,592.164754,-8656.879127,-592.164754
5636.654057,592.164754,-8580.269578,-518.144159
5636.654381,370.102971,-8810.098227,-296.082377
5636.654706,592.164754,-8580.269578,-592.164754
5636.655030,296.082377,-8656.879127,-518.144159
5636.655355,296.082377,-9039.926876,-666.185348
5636.655679,148.041188,-8963.317327,-296.082377
5636.656004,0.000000,-8350.440928,0.000000
5636.656328,592.164754,-8963.317327,-444.123565
5636.656652,592.164754,-8427.050478,-740.205942
5636.656977,222.061783,-8810.098227,-370.102971
5636.657301,666.185348,-9116.536426,-296.082377
5636.657626,74.020594,-8197.221829,-444.123565
5636.657950,370.102971,-8963.317327,-370.102971
5636.658275,296.082377,-8350.440928,-592.164754
5636.658599,518.144159,-8656.879127,-518.144159
5636.658923,222.061783,-8427.050478,-370.102971
5636.659248,444.123565,-8810.098227,-148.041188
5636.659572,518.144159,-8580.269578,-592.164754
5636.659897,296.082377,-8810.098227,-296.082377
5636.660221,222.061783,-8273.831378,-370.102971
5636.660545,370.102971,-8656.879127,-370.102971
5636.660870,370.102971,-8197.221829,-740.205942
5636.661194,222.061783,-8427.050478,0.000000
5636.661519,518.144159,-8733.488677,-888.247130
5636.661843,666.185348,-8503.660028,-296.082377
5636.662168,370.102971,-8580.269578,-370.102971
5636.662492,370.102971,-8503.660028,-148.041188
5636.662816,148.041188,-8427.050478,-444.123565
5636.663141,296.082377,-8963.317327,0.000000
5636.663465,518.144159,-8427.050478,-148.041188
5636.663790,444.123565,-8886.707777,-370.102971
5636.664114,444.123565,-8427.050478,-518.144159
5636.664439,148.041188,-8503.660028,148.041188
5636.664763,518.144159,-8810.098227,-518.144159
5636.665087,296.082377,-8580.269578,0.000000
5636.665412,592.164754,-8503.660028,-222.061783
5636.665736,444.123565,-8810.098227,-296.082377
5636.666061,444.123565,-8580.269578,0.000000
5636.666385,444.123565,-8503.660028,-148.041188
5636.666710,370.102971,-8503.660028,148.041188
5636.667034,444.123565,-8350.440928,-296.082377
5636.667358,296.082377,-9039.926876,-296.082377
5636.667683,296.082377,-8427.050478,0.000000
5636.668007,222.061783,-8810.098227,0.000000
5636.668332,148.041188,-8810.098227,-296.082377
5636.668656,0.000000,-8350.440928,74.020594
5636.668980,222.061783,-8656.879127,-222.061783
5636.669305,296.082377,-8427.050478,-296.082377
5636.669629,444.123565,-8733.488677,-222.061783
5636.669954,0.000000,-8963.317327,0.000000
5636.670278,74.020594,-8810.098227,-370.102971
5636.670603,296.082377,-8810.098227,-518.144159
5636.670927,444.123565,-8963.317327,-518.144159
5636.671251,592.164754,-8427.050478,-296.082377
5636.671576,74.020594,-8503.660028,-592.164754
5636.671900,222.061783,-8963.317327,-222.061783
5636.672225,222.061783,-8580.269578,-518.144159
5636.672549,592.164754,-8733.488677,-370.102971
5636.672874,740.205942,-9116.536426,-222.061783
5636.673198,370.102971,-8886.707777,-444.123565
5636.673522,296.082377,-8810.098227,-296.082377
5636.673847,444.123565,-8810.098227,-444.123565
5636.674171,814.226536,-8886.707777,-666.185348
5636.674496,518.144159,-8886.707777,-370.102971
5636.674820,370.102971,-8503.660028,-518.144159
5636.675144,370.102971,-8810.098227,-444.123565
5636.675469,592.164754,-8733.488677,-518.144159
5636.675793,1036.288319,-8273.831378,-296.082377
5636.676118,888.247130,-8886.707777,-592.164754
5636.676442,370.102971,-8733.488677,-148.041188
5636.676767,444.123565,-8503.660028,-148.041188
5636.677091,518.144159,-8963.317327,222.061783
5636.677415,666.185348,-8810.098227,-296.082377
5636.677740,370.102971,-8503.660028,0.000000
5636.678064,592.164754,-8580.269578,-222.061783
5636.678389,444.123565,-8503.660028,-222.061783
5636.678713,222.061783,-8733.488677,-222.061783
5636.679038,370.102971,-8427.050478,0.000000
5636.679362,518.144159,-8427.050478,0.000000
5636.679686,592.164754,-8656.879127,-592.164754
5636.680011,222.061783,-7967.393179,148.041188
5636.680335,222.061783,-8656.879127,-222.061783
5636.680660,222.061783,-8733.488677,0.000000
5636.680984,370.102971,-8656.879127,0.000000
5636.681308,370.102971,-9193.145976,0.000000
5636.681633,296.082377,-8197.221829,-148.041188
5636.681957,444.123565,-8580.269578,0.000000
5636.682282,444.123565,-8580.269578,148.041188
5636.682606,222.061783,-8427.050478,0.000000
5636.682931,296.082377,-8656.879127,0.000000
5636.683255,296.082377,-8273.831378,0.000000
5636.683579,296.082377,-8656.879127,148.041188
5636.683904,444.123565,-8427.050478,0.000000
5636.684228,592.164754,-8503.660028,0.000000
5636.684553,370.102971,-8656.879127,0.000000
5636.684877,370.102971,-8656.879127,0.000000
5636.685202,222.061783,-8427.050478,0.000000
5636.685526,222.061783,-8580.269578,148.041188
5636.685850,222.061783,-8580.269578,0.000000
5636.686175,444.123565,-8503.660028,0.000000
5636.686499,444.123565,-8503.660028,0.000000
5636.686824,370.102971,-8503.660028,148.041188
5636.687148,518.144159,-8503.660028,148.041188
5636.687472,296.082377,-8656.879127,-148.041188
5636.687797,296.082377,-8503.660028,0.000000
5636.688121,444.123565,-8656.879127,0.000000
5636.688446,592.164754,-8886.707777,0.000000
5636.688770,222.061783,-8427.050478,0.000000
5636.689095,296.082377,-8656.879127,0.000000
5636.689419,444.123565,-8656.879127,-148.041188
5636.689743,444.123565,-8580.269578,-222.061783
5636.690068,370.102971,-8886.707777,-74.020594
5636.690392,444.123565,-8427.050478,-296.082377
5636.690717,518.144159,-8503.660028,-370.102971
5636.691041,518.144159,-8656.879127,-370.102971
5636.691366,814.226536,-8963.317327,-222.061783
5636.691690,666.185348,-8810.098227,-518.144159
5636.692014,518.144159,-8656.879127,-296.082377
5636.692339,444.123565,-8656.879127,-444.123565
5636.692663,518.144159,-8963.317327,-148.041188
5636.692988,296.082377,-8733.488677,-370.102971
5636.693312,592.164754,-8886.707777,-370.102971
5636.693636,296.082377,-8350.440928,-518.144159
5636.693961,592.164754,-8810.098227,-296.082377
5636.694285,296.082377,-8656.879127,-296.082377
5636.694610,518.144159,-8733.488677,-444.123565
5636.694934,518.144159,-8886.707777,-592.164754
5636.695259,592.164754,-8963.317327,-222.061783
5636.695583,518.144159,-8273.831378,0.000000
5636.695907,370.102971,-8503.660028,-370.102971
5636.696232,444.123565,-8503.660028,-222.061783
5636.696556,444.123565,-8427.050478,-518.144159
5636.696881,518.144159,-8810.098227,0.000000
5636.697205,222.061783,-8503.660028,-148.041188
5636.697530,518.144159,-8580.269578,-296.082377
5636.697854,148.041188,-8886.707777,0.000000
5636.698178,444.123565,-8580.269578,-370.102971
5636.698503,296.082377,-8273.831378,-370.102971
5636.698827,888.247130,-8503.660028,0.000000
5636.699152,444.123565,-8350.440928,0.000000
5636.699476,296.082377,-8733.488677,-370.102971
5636.699800,148.041188,-8120.612279,0.000000
5636.700125,296.082377,-8733.488677,-222.061783
5636.700449,296.082377,-8273.831378,-74.020594
5636.700774,222.061783,-8656.879127,74.020594
5636.701098,222.061783,-8656.879127,0.000000
5636.701423,444.123565,-8273.831378,-296.082377
5636.701747,370.102971,-8810.098227,0.000000
5636.702071,222.061783,-8656.879127,-370.102971
5636.702396,444.123565,-8197.221829,0.000000
5636.702720,296.082377,-8273.831378,-148.041188
5636.703045,370.102971,-8656.879127,148.041188
5636.703369,444.123565,-8427.050478,-370.102971
5636.703694,296.082377,-8656.879127,0.000000
5636.704018,814.226536,-8733.488677,148.041188
5636.704342,148.041188,-8427.050478,0.000000
5636.704667,296.082377,-8656.879127,0.000000
5636.704991,148.041188,-8273.831378,-148.041188
5636.705316,370.102971,-8580.269578,0.000000
5636.705640,296.082377,-8503.660028,-222.061783
5636.705964,666.185348,-8427.050478,0.000000
5636.706289,148.041188,-8427.050478,-148.041188
5636.706613,666.185348,-8656.879127,-148.041188
5636.706938,370.102971,-8273.831378,-370.102971
5636.707262,444.123565,-8810.098227,0.000000
5636.707587,444.123565,-8656.879127,-444.123565
5636.707911,296.082377,-8656.879127,-222.061783
5636.708235,444.123565,-8733.488677,-370.102971
5636.708560,370.102971,-8273.831378,-222.061783
5636.708884,592.164754,-8733.488677,-370.102971
5636.709209,592.164754,-8656.879127,-518.144159
5636.709533,740.205942,-8350.440928,-592.164754
5636.709858,444.123565,-8733.488677,-444.123565
5636.710182,518.144159,-8503.660028,-370.102971
5636.710506,444.123565,-8656.879127,-370.102971
5636.710831,592.164754,-8810.098227,-370.102971
5636.711155,592.164754,-8580.269578,-814.226536
5636.711480,518.144159,-8810.098227,-370.102971
5636.711804,148.041188,-8810.098227,-296.082377
5636.712128,592.164754,-8810.098227,-444.123565
5636.712453,296.082377,-8427.050478,-518.144159
5636.712777,814.226536,-8273.831378,-740.205942
5636.713102,518.144159,-9039.926876,-518.144159
5636.713426,148.041188,-8886.707777,-592.164754
5636.713751,370.102971,-8656.879127,-370.102971
5636.714075,814.226536,-8503.660028,-592.164754
5636.714399,518.144159,-8733.488677,-296.082377
5636.714724,370.102971,-8810.098227,-370.102971
5636.715048,444.123565,-8580.269578,-444.123565
5636.715373,814.226536,-9422.974625,-888.247130
5636.715697,370.102971,-8656.879127,-370.102971
5636.716022,370.102971,-8503.660028,-444.123565
5636.716346,296.082377,-8350.440928,-296.082377
5636.716670,444.123565,-8733.488677,-222.061783
5636.716995,296.082377,-8810.098227,-296.082377
5636.717319,296.082377,-8273.831378,-444.123565
5636.717644,518.144159,-8886.707777,-518.144159
5636.717968,370.102971,-8656.879127,-296.082377
5636.718292,0.000000,-8197.221829,-370.102971
5636.718617,518.144159,-8427.050478,0.000000
5636.718941,444.123565,-8427.050478,-296.082377
5636.719266,518.144159,-9039.926876,-444.123565
5636.719590,296.082377,-8503.660028,-518.144159
5636.719915,296.082377,-8273.831378,-74.020594
5636.720239,444.123565,-8503.660028,-592.164754
5636.720563,370.102971,-8427.050478,0.000000
5636.720888,592.164754,-8273.831378,-296.082377
5636.721212,370.102971,-8503.660028,-592.164754
5636.721537,370.102971,-8580.269578,-296.082377
5636.721861,518.144159,-8656.879127,-444.123565
5636.722186,444.123565,-8503.660028,-296.082377
5636.722510,74.020594,-8350.440928,-370.102971
5636.722834,370.102971,-8427.050478,-370.102971
5636.723159,444.123565,-8580.269578,0.000000
5636.723483,296.082377,-8350.440928,-444.123565
5636.723808,296.082377,-8503.660028,-740.205942
5636.724132,148.041188,-8580.269578,-296.082377
5636.724456,592.164754,-8733.488677,-444.123565
5636.724781,518.144159,-8656.879127,-370.102971
5636.725105,518.144159,-8580.269578,-222.061783
5636.725430,518.144159,-8427.050478,-370.102971
5636.725754,518.144159,-8350.440928,-518.144159
5636.726079,444.123565,-8503.660028,-222.061783
5636.726403,666.185348,-8886.707777,-296.082377
5636.726727,666.185348,-8273.831378,-592.164754
5636.727052,148.041188,-8350.440928,-518.144159
5636.727376,370.102971,-8810.098227,-370.102971
5636.727701,518.144159,-8427.050478,-296.082377
5636.728025,592.164754,-9039.926876,-962.267725
5636.728350,666.185348,-8427.050478,-666.185348
5636.728674,444.123565,-8427.050478,-518.144159
5636.728998,518.144159,-8503.660028,-370.102971
5636.729323,740.205942,-8503.660028,-666.185348
5636.729647,518.144159,-8810.098227,-592.164754
5636.729972,666.185348,-8810.098227,-370.102971
5636.730296,444.123565,-8427.050478,-370.102971
5636.730620,74.020594,-8733.488677,-666.185348
5636.730945,740.205942,-9116.536426,-1036.288319
5636.731269,592.164754,-8580.269578,-666.185348
5636.731594,592.164754,-8810.098227,-518.144159
5636.731918,222.061783,-8733.488677,-370.102971
5636.732243,592.164754,-9729.412825,-444.123565
5636.732567,518.144159,-8810.098227,-518.144159
5636.732891,444.123565,-8427.050478,-666.185348
5636.733216,370.102971,-8810.098227,-666.185348
5636.733540,444.123565,-8503.660028,-666.185348
5636.733865,518.144159,-8503.660028,-740.205942
5636.734189,222.061783,-8733.488677,-518.144159
5636.734514,370.102971,-8580.269578,-592.164754
5636.734838,518.144159,-8656.879127,-666.185348
5636.735162,370.102971,-9193.145976,-814.226536
5636.735487,296.082377,-8810.098227,-222.061783
5636.735811,222.061783,-8733.488677,-518.144159
5636.736136,518.144159,-8350.440928,-444.123565
5636.736460,444.123565,-8503.660028,-518.144159
5636.736785,148.041188,-8580.269578,-518.144159
5636.737109,222.061783,-8273.831378,-222.061783
5636.737433,370.102971,-8197.221829,-518.144159
5636.737758,296.082377,-8580.269578,-444.123565
5636.738082,444.123565,-8580.269578,-518.144159
5636.738407,592.164754,-8733.488677,-370.102971
5636.738731,370.102971,-8273.831378,-444.123565
5636.739055,370.102971,-8963.317327,-296.082377
5636.739380,296.082377,-8503.660028,-296.082377
5636.739704,518.144159,-8273.831378,-296.082377
5636.740029,296.082377,-8350.440928,-444.123565
5636.740353,296.082377,-8580.269578,-296.082377
5636.740678,444.123565,-8273.831378,-148.041188
5636.741002,148.041188,-8580.269578,-518.144159
5636.741327,518.144159,-8273.831378,-444.123565
5636.741651,518.144159,-8350.440928,-370.102971
5636.741976,518.144159,-8580.269578,-444.123565
5636.742300,592.164754,-9039.926876,-222.061783
5636.742624,444.123565,-8656.879127,-370.102971
5636.742949,222.061783,-8733.488677,-148.041188
5636.743273,444.123565,-8503.660028,-148.041188
5636.743598,0.000000,-8963.317327,-222.061783
5636.743922,518.144159,-8427.050478,-296.082377
5636.744247,296.082377,-8350.440928,-370.102971
5636.744571,296.082377,-8733.488677,-370.102971
5636.744896,592.164754,-8503.660028,-518.144159
5636.745220,518.144159,-8656.879127,-370.102971
5636.745545,592.164754,-8656.879127,-370.102971
5636.745869,296.082377,-8503.660028,-444.123565
5636.746193,666.185348,-8963.317327,-592.164754
5636.746518,148.041188,-8810.098227,-592.164754
5636.746842,296.082377,-8810.098227,-592.164754
5636.747167,222.061783,-8810.098227,-666.185348
5636.747491,592.164754,-8503.660028,-592.164754
5636.747816,370.102971,-9039.926876,-518.144159
5636.748140,444.123565,-8810.098227,-518.144159
5636.748465,666.185348,-8733.488677,-888.247130
5636.748789,296.082377,-8886.707777,-740.205942
5636.749113,518.144159,-8733.488677,-962.267725
5636.749438,518.144159,-8503.660028,-740.205942
5636.749762,666.185348,-8656.879127,-666.185348
5636.750087,296.082377,-8580.269578,-814.226536
5636.750411,444.123565,-8810.098227,-666.185348
5636.750736,444.123565,-8963.317327,-962.267725
5636.751060,296.082377,-8656.879127,-518.144159
5636.751385,296.082377,-8656.879127,-740.205942
5636.751709,518.144159,-8580.269578,-592.164754
5636.752034,518.144159,-8656.879127,-592.164754
5636.752358,666.185348,-8733.488677,-592.164754
5636.752682,222.061783,-8580.269578,-518.144159
5636.753007,444.123565,-8656.879127,-444.123565
5636.753331,518.144159,-8810.098227,-370.102971
5636.753656,888.247130,-8580.269578,-666.185348
5636.753980,518.144159,-8810.098227,-296.082377
5636.754305,296.082377,-8580.269578,0.000000
5636.754629,296.082377,-8350.440928,0.000000
5636.754954,0.000000,-8503.660028,-518.144159
5636.755278,518.144159,-8656.879127,-148.041188
5636.755602,518.144159,-8350.440928,-444.123565
5636.755927,222.061783,-8810.098227,-296.082377
5636.756251,444.123565,-8427.050478,-370.102971
5636.756576,518.144159,-8273.831378,-148.041188
5636.756900,444.123565,-8503.660028,-296.082377
5636.757225,74.020594,-8503.660028,-296.082377
5636.757549,444.123565,-8656.879127,-370.102971
5636.757874,1110.308913,-8503.660028,-370.102971
5636.758198,222.061783,-8580.269578,0.000000
5636.758523,296.082377,-8580.269578,-222.061783
5636.758847,370.102971,-8350.440928,-148.041188
5636.759171,518.144159,-8503.660028,-74.020594
5636.759496,444.123565,-8580.269578,-296.082377
5636.759820,296.082377,-8656.879127,-148.041188
5636.760145,296.082377,-8580.269578,0.000000
5636.760469,296.082377,-8350.440928,0.000000
5636.760794,592.164754,-8810.098227,-592.164754
5636.761118,296.082377,-8733.488677,0.000000
5636.761443,370.102971,-8197.221829,0.000000
5636.761767,296.082377,-8503.660028,-370.102971
5636.762092,592.164754,-8350.440928,0.000000
5636.762416,518.144159,-8350.440928,-296.082377
5636.762740,518.144159,-8656.879127,-444.123565
5636.763065,296.082377,-8580.269578,-370.102971
5636.763389,370.102971,-9269.755526,-296.082377
5636.763714,222.061783,-8350.440928,-222.061783
5636.764038,148.041188,-8656.879127,-148.041188
5636.764363,444.123565,-8656.879127,-444.123565
5636.764687,740.205942,-8580.269578,-296.082377
5636.765012,592.164754,-8810.098227,0.000000
5636.765336,370.102971,-8656.879127,-444.123565
5636.765660,444.123565,-8427.050478,-518.144159
5636.765985,592.164754,-8656.879127,-518.144159
5636.766309,888.247130,-8886.707777,-370.102971
5636.766634,444.123565,-8733.488677,-518.144159
5636.766958,592.164754,-8427.050478,-592.164754
5636.767283,370.102971,-8580.269578,-444.123565
5636.767607,518.144159,-8810.098227,-740.205942
5636.767932,370.102971,-9116.536426,-518.144159
5636.768256,444.123565,-8580.269578,-444.123565
5636.768581,518.144159,-8503.660028,-666.185348
5636.768905,518.144159,-9116.536426,-592.164754
5636.769229,592.164754,-8733.488677,-296.082377
5636.769554,444.123565,-8350.440928,-592.164754
5636.769878,592.164754,-8656.879127,-592.164754
5636.770203,444.123565,-8427.050478,-518.144159
5636.770527,814.226536,-9039.926876,-222.061783
5636.770852,518.144159,-8656.879127,-666.185348
5636.771176,592.164754,-8733.488677,-666.185348
5636.771501,296.082377,-8810.098227,-814.226536
5636.771825,296.082377,-8350.440928,-370.102971
5636.772150,0.000000,-8427.050478,-296.082377
5636.772474,518.144159,-8427.050478,-518.144159
5636.772798,518.144159,-8350.440928,-222.061783
5636.773123,592.164754,-8503.660028,-518.144159
5636.773447,592.164754,-8350.440928,-148.041188
5636.773772,222.061783,-8350.440928,-222.061783
5636.774096,296.082377,-8503.660028,-148.041188
5636.774421,370.102971,-8733.488677,-370.102971
5636.774745,518.144159,-8733.488677,0.000000
5636.775070,592.164754,-8810.098227,-148.041188
5636.775394,444.123565,-8273.831378,-222.061783
5636.775718,222.061783,-8656.879127,-296.082377
5636.776043,296.082377,-8580.269578,-148.041188
5636.776367,518.144159,-8350.440928,0.000000
5636.776692,518.144159,-8810.098227,-222.061783
5636.777016,518.144159,-8580.269578,0.000000
5636.777341,444.123565,-8503.660028,0.000000
5636.777665,0.000000,-8273.831378,296.082377
5636.777990,0.000000,-8580.269578,0.000000
5636.778314,518.144159,-8886.707777,-222.061783
5636.778639,296.082377,-8427.050478,74.020594
5636.778963,518.144159,-8044.002729,-518.144159
5636.779287,222.061783,-8886.707777,0.000000
5636.779612,518.144159,-8350.440928,-222.061783
5636.779936,666.185348,-8580.269578,0.000000
5636.780261,222.061783,-8733.488677,-370.102971
5636.780585,740.205942,-8580.269578,0.000000
5636.780910,148.041188,-8503.660028,-148.041188
5636.781234,148.041188,-8810.098227,0.000000
5636.781559,296.082377,-8503.660028,0.000000
5636.781883,962.267725,-9116.536426,-222.061783
5636.782208,444.123565,-8427.050478,-296.082377
5636.782532,444.123565,-8427.050478,0.000000
5636.782856,370.102971,-8580.269578,-222.061783
5636.783181,518.144159,-8580.269578,-222.061783
5636.783505,518.144159,-8733.488677,-518.144159
5636.783830,370.102971,-8886.707777,-370.102971
5636.784154,74.020594,-8580.269578,-148.041188
5636.784479,666.185348,-8656.879127,-370.102971
5636.784803,148.041188,-8350.440928,-222.061783
5636.785128,666.185348,-8656.879127,-370.102971
5636.785452,370.102971,-8886.707777,-296.082377
5636.785776,222.061783,-8580.269578,-148.041188
5636.786101,814.226536,-8350.440928,0.000000
5636.786425,592.164754,-8503.660028,-518.144159
5636.786750,518.144159,-8656.879127,-444.123565
5636.787074,296.082377,-8810.098227,-592.164754
5636.787399,518.144159,-8886.707777,-370.102971
5636.787723,296.082377,-8580.269578,-222.061783
5636.788048,370.102971,-8810.098227,-296.082377
5636.788372,370.102971,-8503.660028,-518.144159
5636.788697,444.123565,-8656.879127,-592.164754
5636.789021,222.061783,-8273.831378,-296.082377
5636.789345,592.164754,-8503.660028,-296.082377
5636.789670,370.102971,-8427.050478,-444.123565
5636.789994,444.123565,-8656.879127,-518.144159
5636.790319,888.247130,-8044.002729,-222.061783
5636.790643,518.144159,-8427.050478,-666.185348
5636.790968,370.102971,-8810.098227,-296.082377
5636.791292,222.061783,-8503.660028,-296.082377
5636.791617,296.082377,-8503.660028,-296.082377
5636.791941,148.041188,-8427.050478,-444.123565
5636.792265,444.123565,-8886.707777,-370.102971
5636.792590,444.123565,-8580.269578,0.000000
5636.792914,296.082377,-8350.440928,-370.102971
5636.793239,222.061783,-8656.879127,-296.082377
5636.793563,296.082377,-8427.050478,-444.123565
5636.793888,296.082377,-8810.098227,0.000000
5636.794212,444.123565,-8273.831378,-148.041188
5636.794537,222.061783,-8197.221829,370.102971
5636.794861,296.082377,-8273.831378,-296.082377
5636.795186,296.082377,-8503.660028,222.061783
5636.795510,444.123565,-8350.440928,0.000000
5636.795834,592.164754,-8733.488677,0.000000
5636.796159,370.102971,-8120.612279,0.000000
5636.796483,370.102971,-8733.488677,0.000000
5636.796808,148.041188,-8273.831378,74.020594
5636.797132,740.205942,-8580.269578,0.000000
5636.797457,444.123565,-8120.612279,74.020594
5636.797781,222.061783,-8580.269578,0.000000
5636.798106,74.020594,-8427.050478,0.000000
5636.798430,222.061783,-8350.440928,148.041188
5636.798755,888.247130,-8044.002729,74.020594
5636.799079,444.123565,-8427.050478,0.000000
5636.799403,444.123565,-8273.831378,0.000000
5636.799728,370.102971,-8273.831378,0.000000
5636.800052,444.123565,-8733.488677,-222.061783
5636.800377,222.061783,-8580.269578,0.000000
5636.800701,518.144159,-8580.269578,0.000000
5636.801026,222.061783,-8656.879127,0.000000
5636.801350,444.123565,-8580.269578,0.000000
5636.801675,296.082377,-9039.926876,-370.102971
5636.801999,592.164754,-8656.879127,0.000000
5636.802323,518.144159,-8273.831378,-296.082377
5636.802648,444.123565,-8963.317327,-148.041188
5636.802972,814.226536,-8427.050478,-222.061783
5636.803297,296.082377,-8427.050478,-222.061783
5636.803621,444.123565,-8733.488677,0.000000
5636.803946,444.123565,-8656.879127,-296.082377
5636.804270,296.082377,-8733.488677,-222.061783
5636.804595,296.082377,-8350.440928,-592.164754
5636.804919,518.144159,-8580.269578,-148.041188
5636.805244,370.102971,-8580.269578,-444.123565
5636.805568,592.164754,-8580.269578,-222.061783
5636.805892,814.226536,-9576.193725,-814.226536
5636.806217,666.185348,-8503.660028,-592.164754
5636.806541,592.164754,-8733.488677,-444.123565
5636.806866,518.144159,-8656.879127,-666.185348
5636.807190,444.123565,-9039.926876,-518.144159
5636.807515,444.123565,-8580.269578,-444.123565
5636.807839,814.226536,-8963.317327,-222.061783
5636.808164,222.061783,-8350.440928,-370.102971
5636.808488,740.205942,-8733.488677,-222.061783
5636.808813,0.000000,-9116.536426,-222.061783
5636.809137,592.164754,-8656.879127,-296.082377
5636.809461,222.061783,-8350.440928,-666.185348
5636.809786,740.205942,-8886.707777,-296.082377
5636.810110,518.144159,-8963.317327,0.000000
5636.810435,296.082377,-8656.879127,0.000000
5636.810759,296.082377,-8427.050478,-296.082377
5636.811084,518.144159,-8427.050478,-296.082377
5636.811408,370.102971,-8580.269578,-296.082377
5636.811733,0.000000,-8580.269578,0.000000
5636.812057,222.061783,-8580.269578,-296.082377
5636.812381,222.061783,-8427.050478,-222.061783
5636.812706,370.102971,-8273.831378,-296.082377
5636.813030,0.000000,-9269.755526,0.000000
5636.813355,296.082377,-8273.831378,-444.123565
5636.813679,0.000000,-8427.050478,-296.082377
5636.814004,370.102971,-8733.488677,-370.102971
5636.814328,296.082377,-8503.660028,0.000000
5636.814653,370.102971,-8656.879127,-370.102971
5636.814977,370.102971,-8503.660028,-518.144159
5636.815302,222.061783,-8580.269578,-222.061783
5636.815626,148.041188,-8580.269578,-222.061783
5636.815950,74.020594,-8580.269578,0.000000
5636.816275,444.123565,-8350.440928,0.000000
5636.816599,518.144159,-8580.269578,-222.061783
5636.816924,518.144159,-8427.050478,-148.041188
5636.817248,222.061783,-8273.831378,-370.102971
5636.817573,148.041188,-8656.879127,-296.082377
5636.817897,370.102971,-8503.660028,-296.082377
5636.818222,518.144159,-8197.221829,-222.061783
5636.818546,518.144159,-8580.269578,-222.061783
5636.818870,444.123565,-8427.050478,-370.102971
5636.819195,518.144159,-8350.440928,-444.123565
5636.819519,444.123565,-8503.660028,-370.102971
5636.819844,222.061783,-8580.269578,-518.144159
5636.820168,222.061783,-8656.879127,-222.061783
5636.820493,444.123565,-8120.612279,-370.102971
5636.820817,296.082377,-8656.879127,-444.123565
5636.821142,370.102971,-8580.269578,-370.102971
5636.821466,444.123565,-8503.660028,-666.185348
5636.821791,518.144159,-8733.488677,-666.185348
5636.822115,370.102971,-8503.660028,-444.123565
5636.822439,370.102971,-8580.269578,-518.144159
5636.822764,370.102971,-8503.660028,-518.144159
5636.823088,518.144159,-8503.660028,-814.226536
5636.823413,370.102971,-8886.707777,-740.205942
5636.823737,666.185348,-8503.660028,-740.205942
5636.824062,370.102971,-8503.660028,-666.185348
5636.824386,444.123565,-8350.440928,-666.185348
5636.824711,444.123565,-8503.660028,-592.164754
5636.825035,666.185348,-8810.098227,-666.185348
5636.825360,518.144159,-8733.488677,-814.226536
5636.825684,592.164754,-8656.879127,-444.123565
5636.826008,444.123565,-8656.879127,-518.144159
5636.826333,370.102971,-8656.879127,-444.123565
5636.826657,222.061783,-8733.488677,-592.164754
5636.826982,666.185348,-8656.879127,-666.185348
5636.827306,296.082377,-8810.098227,-518.144159
5636.827631,222.061783,-8503.660028,-296.082377
5636.827955,592.164754,-8656.879127,-148.041188
5636.828280,222.061783,-8580.269578,-370.102971
5636.828604,814.226536,-9039.926876,0.000000
5636.828928,222.061783,-8427.050478,-444.123565
5636.829253,370.102971,-8580.269578,-222.061783
5636.829577,370.102971,-8656.879127,-444.123565
5636.829902,148.041188,-9116.536426,0.000000
5636.830226,370.102971,-8580.269578,-370.102971
5636.830551,74.020594,-8733.488677,-222.061783
5636.830875,444.123565,-8656.879127,-296.082377
5636.831200,296.082377,-8350.440928,-444.123565
5636.831524,370.102971,-8656.879127,0.000000
5636.831849,370.102971,-8503.660028,-296.082377
5636.832173,518.144159,-8810.098227,0.000000
5636.832497,444.123565,-8427.050478,-222.061783
5636.832822,74.020594,-8886.707777,518.144159
5636.833146,296.082377,-8350.440928,-148.041188
5636.833471,222.061783,-8350.440928,-296.082377
5636.833795,370.102971,-8580.269578,-444.123565
5636.834120,592.164754,-9039.926876,-222.061783
5636.834444,222.061783,-8427.050478,0.000000
5636.834769,370.102971,-8503.660028,-296.082377
5636.835093,518.144159,-8503.660028,-296.082377
5636.835418,518.144159,-8503.660028,0.000000
5636.835742,370.102971,-8350.440928,-296.082377
5636.836066,222.061783,-8810.098227,0.000000
5636.836391,74.020594,-8503.660028,-370.102971
5636.836715,222.061783,-8733.488677,-74.020594
5636.837040,222.061783,-8580.269578,-222.061783
5636.837364,296.082377,-8656.879127,-296.082377
5636.837689,740.205942,-8503.660028,-222.061783
5636.838013,222.061783,-8656.879127,-444.123565
5636.838338,518.144159,-8733.488677,-296.082377
5636.838662,518.144159,-8733.488677,-444.123565
5636.838986,296.082377,-8656.879127,-370.102971
5636.839311,370.102971,-8580.269578,-518.144159
5636.839635,222.061783,-8580.269578,-592.164754
5636.839960,518.144159,-9039.926876,-296.082377
5636.840284,518.144159,-8503.660028,-592.164754
5636.840608,444.123565,-8810.098227,-888.247130
5636.840933,222.061783,-8580.269578,-666.185348
5636.841257,148.041188,-8656.879127,0.000000
5636.841582,-296.082377,-8810.098227,-370.102971
5636.841906,740.205942,-8810.098227,-592.164754
5636.842230,518.144159,-8580.269578,-740.205942
5636.842555,518.144159,-8580.269578,-740.205942
5636.842879,518.144159,-8886.707777,-518.144159
5636.843203,444.123565,-8656.879127,-518.144159
5636.843528,444.123565,-8427.050478,-740.205942
5636.843852,518.144159,-8580.269578,-444.123565
5636.844176,592.164754,-8963.317327,-370.102971
5636.844501,444.123565,-8656.879127,-370.102971
5636.844825,518.144159,-8503.660028,-444.123565
5636.845150,370.102971,-8580.269578,-740.205942
5636.845474,592.164754,-9193.145976,-296.082377
5636.845798,444.123565,-8580.269578,-592.164754
5636.846123,740.205942,-8810.098227,-518.144159
5636.846447,666.185348,-8580.269578,-666.185348
5636.846771,370.102971,-8580.269578,-296.082377
5636.847096,370.102971,-8886.707777,0.000000
5636.847420,370.102971,-8656.879127,-444.123565
5636.847745,444.123565,-8503.660028,-444.123565
5636.848069,444.123565,-8273.831378,-370.102971
5636.848393,518.144159,-8120.612279,0.000000
5636.848718,222.061783,-8656.879127,-444.123565
5636.849042,518.144159,-8427.050478,-296.082377
5636.849366,370.102971,-8273.831378,-222.061783
5636.849691,666.185348,-8886.707777,-296.082377
5636.850015,0.000000,-8656.879127,0.000000
5636.850340,444.123565,-8273.831378,-370.102971
5636.850664,444.123565,-8350.440928,-370.102971
5636.850988,296.082377,-8503.660028,-222.061783
5636.851313,814.226536,-8580.269578,-444.123565
5636.851637,518.144159,-8197.221829,-222.061783
5636.851961,148.041188,-8350.440928,-518.144159
5636.852286,148.041188,-8656.879127,-222.061783
5636.852610,1110.308913,-8427.050478,-296.082377
5636.852935,444.123565,-8656.879127,-296.082377
5636.853259,370.102971,-8656.879127,-296.082377
5636.853583,74.020594,-8656.879127,0.000000
5636.853908,370.102971,-8886.707777,0.000000
5636.854232,518.144159,-8580.269578,0.000000
5636.854556,444.123565,-8963.317327,-222.061783
5636.854881,444.123565,-8503.660028,-296.082377
5636.855205,222.061783,-8273.831378,-296.082377
5636.855529,888.247130,-8503.660028,-370.102971
5636.855854,370.102971,-8427.050478,-296.082377
5636.856178,518.144159,-8580.269578,-444.123565
5636.856503,444.123565,-8733.488677,-518.144159
5636.856827,592.164754,-8886.707777,0.000000
5636.857151,666.185348,-8886.707777,-666.185348
5636.857476,592.164754,-8733.488677,-370.102971
5636.857800,222.061783,-8197.221829,-444.123565
5636.858124,518.144159,-8733.488677,-370.102971
5636.858449,518.144159,-8580.269578,-518.144159
5636.858773,370.102971,-8273.831378,-518.144159
5636.859098,518.144159,-8733.488677,-666.185348
5636.859422,592.164754,-8273.831378,-814.226536
5636.859746,1036.288319,-9116.536426,-740.205942
5636.860071,296.082377,-8886.707777,-888.247130
5636.860395,222.061783,-8580.269578,-518.144159
5636.860719,296.082377,-8733.488677,-444.123565
5636.861044,888.247130,-7737.564530,0.000000
5636.861368,962.267725,-8580.269578,-814.226536
5636.861693,444.123565,-8656.879127,-888.247130
5636.862017,740.205942,-8350.440928,-444.123565
5636.862341,370.102971,-8503.660028,-592.164754
5636.862666,666.185348,-8733.488677,-1036.288319
5636.862990,518.144159,-8580.269578,-666.185348
5636.863314,592.164754,-8810.098227,-888.247130
5636.863639,222.061783,-8580.269578,-666.185348
5636.863963,370.102971,-8273.831378,-148.041188
5636.864287,222.061783,-8656.879127,-518.144159
5636.864612,222.061783,-8350.440928,-666.185348
5636.864936,814.226536,-8427.050478,-740.205942
5636.865261,888.247130,-8656.879127,-296.082377
5636.865585,518.144159,-8273.831378,-518.144159
5636.865909,444.123565,-8733.488677,-592.164754
5636.866234,370.102971,-8503.660028,-370.102971
5636.866558,444.123565,-8733.488677,-370.102971
5636.866882,518.144159,-8350.440928,-370.102971
5636.867207,370.102971,-8503.660028,-370.102971
5636.867531,296.082377,-8733.488677,-370.102971
5636.867856,296.082377,-8503.660028,-296.082377
5636.868180,518.144159,-8350.440928,0.000000
5636.868504,518.144159,-8580.269578,-592.164754
5636.868829,370.102971,-8427.050478,-222.061783
5636.869153,370.102971,-8273.831378,0.000000
5636.869477,518.144159,-8810.098227,74.020594
5636.869802,592.164754,-8503.660028,0.000000
5636.870126,296.082377,-8427.050478,-222.061783
5636.870451,444.123565,-8733.488677,-74.020594
5636.870775,296.082377,-8427.050478,-222.061783
5636.871099,370.102971,-8503.660028,0.000000
5636.871424,370.102971,-8427.050478,-148.041188
5636.871748,444.123565,-8656.879127,-148.041188
5636.872072,518.144159,-8810.098227,-296.082377
5636.872397,1184.329507,-8503.660028,-222.061783
5636.872721,148.041188,-8427.050478,0.000000
5636.873046,444.123565,-8733.488677,-74.020594
5636.873370,296.082377,-8503.660028,0.000000
5636.873694,666.185348,-8580.269578,-222.061783
5636.874019,370.102971,-8580.269578,-222.061783
5636.874343,222.061783,-8580.269578,-222.061783
5636.874667,518.144159,-8503.660028,0.000000
5636.874992,444.123565,-8733.488677,0.000000
5636.875316,888.247130,-8810.098227,-296.082377
5636.875640,222.061783,-8503.660028,-296.082377
5636.875965,666.185348,-8503.660028,0.000000
5636.876289,0.000000,-8503.660028,-370.102971
5636.876614,1184.329507,-8656.879127,-296.082377
5636.876938,296.082377,-8350.440928,-518.144159
5636.877262,592.164754,-8886.707777,-148.041188
5636.877587,370.102971,-8427.050478,-148.041188
5636.877911,296.082377,-8810.098227,-444.123565
5636.878235,592.164754,-8656.879127,-518.144159
5636.878560,518.144159,-8503.660028,-444.123565
5636.878884,592.164754,-8886.707777,-666.185348
5636.879209,666.185348,-8733.488677,-296.082377
5636.879533,888.247130,-8197.221829,-296.082377
5636.879857,222.061783,-8656.879127,-148.041188
5636.880182,222.061783,-8580.269578,-370.102971
5636.880506,592.164754,-8427.050478,-370.102971
5636.880830,296.082377,-8733.488677,-296.082377
5636.881155,222.061783,-8503.660028,-370.102971
5636.881479,296.082377,-8733.488677,-444.123565
5636.881804,444.123565,-8656.879127,-666.185348
5636.882128,296.082377,-8503.660028,-444.123565
5636.882452,592.164754,-8810.098227,-666.185348
5636.882777,518.144159,-8580.269578,-370.102971
5636.883101,444.123565,-8350.440928,-296.082377
5636.883425,148.041188,-8656.879127,-370.102971
5636.883750,666.185348,-8427.050478,-148.041188
5636.884074,370.102971,-8810.098227,-444.123565
5636.884398,296.082377,-8810.098227,-370.102971
5636.884723,444.123565,-8656.879127,-296.082377
5636.885047,444.123565,-7584.345430,-518.144159
5636.885372,222.061783,-8350.440928,-296.082377
5636.885696,296.082377,-8503.660028,-370.102971
5636.886020,222.061783,-8656.879127,-296.082377
5636.886345,296.082377,-8120.612279,-296.082377
5636.886669,148.041188,-8427.050478,0.000000
5636.886993,296.082377,-8350.440928,-444.123565
5636.887318,370.102971,-8503.660028,-370.102971
5636.887642,444.123565,-8580.269578,-296.082377
5636.887967,370.102971,-8273.831378,74.020594
5636.888291,370.102971,-8810.098227,-370.102971
5636.888615,444.123565,-8580.269578,0.000000
5636.888940,518.144159,-8427.050478,-444.123565
5636.889264,518.144159,-8963.317327,-518.144159
5636.889588,222.061783,-8273.831378,-296.082377
5636.889913,592.164754,-8197.221829,0.000000
5636.890237,148.041188,-8733.488677,-148.041188
5636.890562,518.144159,-8656.879127,-370.102971
5636.890886,74.020594,-8273.831378,-444.123565
5636.891210,666.185348,-8733.488677,0.000000
5636.891535,222.061783,-8503.660028,-222.061783
5636.891859,444.123565,-8580.269578,-296.082377
5636.892183,592.164754,-8197.221829,-148.041188
5636.892508,518.144159,-8503.660028,-148.041188
5636.892832,370.102971,-8886.707777,-296.082377
5636.893157,370.102971,-8350.440928,0.000000
5636.893481,518.144159,-8580.269578,0.000000
5636.893805,222.061783,-8656.879127,-222.061783
5636.894130,518.144159,-8580.269578,-148.041188
5636.894454,444.123565,-8580.269578,-296.082377
5636.894778,444.123565,-8580.269578,-370.102971
5636.895103,370.102971,-8273.831378,-592.164754
5636.895427,666.185348,-8810.098227,-222.061783
5636.895751,444.123565,-8503.660028,-370.102971
5636.896076,296.082377,-8963.317327,-296.082377
5636.896400,962.267725,-8810.098227,-888.247130
5636.896725,666.185348,-8503.660028,-222.061783
5636.897049,444.123565,-8503.660028,-518.144159
5636.897373,444.123565,-8733.488677,-444.123565
5636.897698,518.144159,-8656.879127,-296.082377
5636.898022,296.082377,-8120.612279,-666.185348
5636.898346,592.164754,-8733.488677,-444.123565
5636.898671,370.102971,-8580.269578,-370.102971
5636.898995,666.185348,-8733.488677,-296.082377
5636.899320,518.144159,-8503.660028,-1184.329507
5636.899644,444.123565,-8810.098227,-296.082377
5636.899968,592.164754,-8810.098227,-296.082377
5636.900293,518.144159,-8350.440928,-370.102971
5636.900617,370.102971,-8197.221829,-444.123565
5636.900941,592.164754,-8427.050478,-222.061783
5636.901266,444.123565,-8733.488677,-444.123565
5636.901590,518.144159,-8503.660028,-370.102971
5636.901915,370.102971,-8427.050478,-444.123565
5636.902239,444.123565,-8733.488677,-296.082377
5636.902563,592.164754,-8580.269578,-148.041188
5636.902888,222.061783,-8197.221829,-296.082377
5636.903212,444.123565,-8886.707777,-444.123565
5636.903536,740.205942,-9652.803275,-222.061783
5636.903861,148.041188,-8503.660028,0.000000
5636.904185,296.082377,-8656.879127,-370.102971
5636.904509,74.020594,-8580.269578,-148.041188
5636.904834,518.144159,-8656.879127,-222.061783
5636.905158,592.164754,-8427.050478,-222.061783
5636.905483,148.041188,-8810.098227,0.000000
5636.905807,518.144159,-8427.050478,0.000000
5636.906131,222.061783,-8427.050478,-370.102971
5636.906456,-296.082377,-8120.612279,-296.082377
5636.906780,444.123565,-8580.269578,0.000000
5636.907104,222.061783,-8427.050478,-148.041188
5636.907429,518.144159,-8273.831378,0.000000
5636.907753,444.123565,-8350.440928,-592.164754
5636.908078,592.164754,-8580.269578,-222.061783
5636.908402,222.061783,-8427.050478,-296.082377
5636.908726,74.020594,-8503.660028,0.000000
5636.909051,296.082377,-8656.879127,0.000000
5636.909375,518.144159,-8580.269578,0.000000
5636.909699,222.061783,-8350.440928,0.000000
5636.910024,444.123565,-8810.098227,-148.041188
5636.910348,296.082377,-8580.269578,-296.082377
5636.910673,370.102971,-8810.098227,0.000000
5636.910997,296.082377,-8733.488677,-148.041188
5636.911321,296.082377,-8733.488677,-222.061783
5636.911646,370.102971,-8580.269578,-222.061783
5636.911970,592.164754,-9576.193725,0.000000
5636.912294,518.144159,-8733.488677,-148.041188
5636.912619,370.102971,-8503.660028,0.000000
5636.912943,148.041188,-8656.879127,-148.041188
5636.913268,370.102971,-8427.050478,-296.082377
5636.913592,444.123565,-8656.879127,-296.082377
5636.913916,592.164754,-8580.269578,-222.061783
5636.914241,370.102971,-8580.269578,-444.123565
5636.914565,296.082377,-8580.269578,-296.082377
5636.914889,74.020594,-8886.707777,0.000000
5636.915214,518.144159,-8503.660028,-296.082377
5636.915538,666.185348,-8886.707777,-370.102971
5636.915862,222.061783,-8580.269578,-444.123565
5636.916187,444.123565,-8733.488677,-222.061783
5636.916511,370.102971,-8350.440928,-518.144159
5636.916836,592.164754,-8580.269578,-518.144159
5636.917160,370.102971,-8810.098227,-592.164754
5636.917484,518.144159,-8503.660028,-222.061783
5636.917809,222.061783,-8733.488677,-518.144159
5636.918133,740.205942,-8810.098227,-444.123565
5636.918457,370.102971,-8120.612279,-518.144159
5636.918782,740.205942,-8886.707777,-370.102971
5636.919106,148.041188,-8656.879127,-370.102971
5636.919431,222.061783,-9039.926876,-296.082377
5636.919755,740.205942,-8733.488677,-370.102971
5636.920079,518.144159,-8503.660028,-518.144159
5636.920404,518.144159,-9039.926876,-444.123565
5636.920728,296.082377,-8733.488677,-370.102971
5636.921052,444.123565,-8350.440928,-222.061783
5636.921377,296.082377,-8503.660028,-148.041188
5636.921701,444.123565,-8503.660028,-444.123565
5636.922026,518.144159,-8197.221829,-148.041188
5636.922350,592.164754,-8810.098227,-296.082377
5636.922674,370.102971,-8733.488677,-444.123565
5636.922999,222.061783,-8350.440928,-444.123565
5636.923323,222.061783,-8503.660028,-444.123565
5636.923647,222.061783,-8350.440928,-296.082377
5636.923972,518.144159,-8656.879127,-296.082377
5636.924296,222.061783,-8427.050478,-296.082377
5636.924620,444.123565,-8427.050478,0.000000
5636.924945,370.102971,-8963.317327,-370.102971
5636.925269,296.082377,-8503.660028,-444.123565
5636.925594,518.144159,-8733.488677,0.000000
5636.925918,444.123565,-8503.660028,-148.041188
5636.926242,592.164754,-8580.269578,-296.082377
5636.926567,444.123565,-8427.050478,-222.061783
5636.926891,296.082377,-8273.831378,-444.123565
5636.927215,296.082377,-8580.269578,-296.082377
5636.927540,444.123565,-8656.879127,-666.185348
5636.927864,518.144159,-8273.831378,-148.041188
5636.928189,222.061783,-8427.050478,-370.102971
5636.928513,148.041188,-8733.488677,-222.061783
5636.928837,222.061783,-8273.831378,-222.061783
5636.929162,518.144159,-8427.050478,-148.041188
5636.929486,592.164754,-8503.660028,-370.102971
5636.929810,296.082377,-8656.879127,0.000000
5636.930135,518.144159,-8273.831378,-296.082377
5636.930459,148.041188,-8656.879127,74.020594
5636.930784,296.082377,-8580.269578,-444.123565
5636.931108,370.102971,-8427.050478,-296.082377
5636.931432,370.102971,-8503.660028,-370.102971
5636.931757,518.144159,-8656.879127,0.000000
5636.932081,0.000000,-8503.660028,-518.144159
5636.932405,444.123565,-8503.660028,-296.082377
5636.932730,518.144159,-8503.660028,-370.102971
5636.933054,370.102971,-8963.317327,-296.082377
5636.933379,518.144159,-8503.660028,-370.102971
5636.933703,296.082377,-8656.879127,-222.061783
5636.934027,222.061783,-8503.660028,-592.164754
5636.934352,518.144159,-8580.269578,-518.144159
5636.934676,296.082377,-8656.879127,-740.205942
5636.935000,148.041188,-8350.440928,-518.144159
5636.935325,518.144159,-8656.879127,-592.164754
5636.935649,444.123565,-8503.660028,-370.102971
5636.935973,888.247130,-9346.365076,-888.247130
5636.936298,740.205942,-8810.098227,-666.185348
5636.936622,370.102971,-8810.098227,-370.102971
5636.936947,296.082377,-8580.269578,-296.082377
5636.937271,518.144159,-8580.269578,-444.123565
5636.937595,592.164754,-8503.660028,-370.102971
5636.937920,518.144159,-9039.926876,-740.205942
5636.938244,296.082377,-8427.050478,-296.082377
5636.938568,296.082377,-8503.660028,-518.144159
5636.938893,370.102971,-8120.612279,0.000000
5636.939217,740.205942,-8656.879127,-518.144159
5636.939542,666.185348,-8733.488677,-518.144159
5636.939866,444.123565,-8656.879127,-592.164754
5636.940190,370.102971,-8886.707777,-444.123565
5636.940515,296.082377,-8427.050478,-222.061783
5636.940839,296.082377,-8656.879127,0.000000
5636.941163,444.123565,-8733.488677,-148.041188
5636.941488,222.061783,-8810.098227,-666.185348
5636.941812,370.102971,-7967.393179,0.000000
5636.942137,370.102971,-8656.879127,-370.102971
5636.942461,444.123565,-8656.879127,-222.061783
5636.942785,518.144159,-8350.440928,-370.102971
5636.943110,518.144159,-8810.098227,0.000000
5636.943434,518.144159,-8580.269578,-444.123565
5636.943758,222.061783,-8580.269578,-444.123565
5636.944083,296.082377,-8350.440928,-148.041188
5636.944407,444.123565,-8503.660028,-222.061783
5636.944732,592.164754,-8733.488677,-444.123565
5636.945056,518.144159,-8810.098227,0.000000
5636.945380,592.164754,-8120.612279,-370.102971
5636.945705,592.164754,-8580.269578,-370.102971
5636.946029,74.020594,-8120.612279,0.000000
5636.946353,444.123565,-8503.660028,-296.082377
5636.946678,296.082377,-8503.660028,-518.144159
5636.947002,518.144159,-8656.879127,0.000000
5636.947327,592.164754,-8427.050478,0.000000
5636.947651,370.102971,-8656.879127,-222.061783
5636.947975,222.061783,-8427.050478,-444.123565
5636.948300,444.123565,-8810.098227,-148.041188
5636.948624,592.164754,-8580.269578,-222.061783
5636.948948,444.123565,-8197.221829,0.000000
5636.949273,518.144159,-8656.879127,-518.144159
5636.949597,518.144159,-8503.660028,-296.082377
5636.949922,518.144159,-8656.879127,-444.123565
5636.950246,666.185348,-8733.488677,-592.164754
5636.950570,148.041188,-8580.269578,-296.082377
5636.950895,222.061783,-8810.098227,0.000000
5636.951219,222.061783,-8503.660028,-148.041188
5636.951543,370.102971,-8503.660028,-296.082377
5636.951868,148.041188,-8810.098227,-592.164754
5636.952192,444.123565,-8656.879127,-296.082377
5636.952517,296.082377,-8656.879127,0.000000
5636.952841,518.144159,-8733.488677,-666.185348
5636.953165,592.164754,-8350.440928,-740.205942
5636.953490,370.102971,-8810.098227,-592.164754
5636.953814,592.164754,-8503.660028,-518.144159
5636.954138,222.061783,-8963.317327,-592.164754
5636.954463,592.164754,-8350.440928,-370.102971
5636.954787,296.082377,-8656.879127,-592.164754
5636.955112,518.144159,-8503.660028,-592.164754
5636.955436,444.123565,-8273.831378,-666.185348
5636.955760,592.164754,-8733.488677,-148.041188
5636.956085,444.123565,-8427.050478,-888.247130
5636.956409,444.123565,-8656.879127,-370.102971
5636.956733,444.123565,-8427.050478,-370.102971
5636.957058,518.144159,-8810.098227,-370.102971
5636.957382,814.226536,-8503.660028,-592.164754
5636.957707,74.020594,-8580.269578,-444.123565
5636.958031,444.123565,-8810.098227,-518.144159
5636.958355,296.082377,-8580.269578,-592.164754
5636.958680,1110.308913,-8963.317327,-814.226536
5636.959004,740.205942,-8503.660028,-592.164754
5636.959328,296.082377,-8656.879127,-370.102971
5636.959653,222.061783,-8656.879127,-740.205942
5636.959977,296.082377,-8580.269578,-296.082377
5636.960302,444.123565,-8810.098227,-444.123565
5636.960626,740.205942,-8656.879127,-666.185348
5636.960950,296.082377,-8580.269578,-370.102971
5636.961275,444.123565,-8580.269578,-444.123565
5636.961599,444.123565,-8350.440928,-740.205942
5636.961923,148.041188,-8427.050478,-74.020594
5636.962248,444.123565,-8503.660028,-592.164754
5636.962572,296.082377,-8273.831378,-148.041188
5636.962897,592.164754,-7737.564530,-222.061783
5636.963221,148.041188,-8503.660028,-518.144159
5636.963545,592.164754,-8427.050478,-222.061783
5636.963870,296.082377,-8810.098227,-518.144159
5636.964194,222.061783,-8656.879127,-444.123565
5636.964518,222.061783,-8427.050478,0.000000
5636.964843,592.164754,-8503.660028,-444.123565
5636.965167,370.102971,-8580.269578,-296.082377
5636.965492,518.144159,-8503.660028,-370.102971
5636.965816,370.102971,-8503.660028,0.000000
5636.966140,370.102971,-7967.393179,-444.123565
5636.966465,296.082377,-8580.269578,-370.102971
5636.966789,444.123565,-8810.098227,-370.102971
5636.967114,444.123565,-8733.488677,74.020594
5636.967438,296.082377,-8197.221829,-666.185348
5636.967762,370.102971,-9116.536426,74.020594
5636.968087,370.102971,-8503.660028,-296.082377
5636.968411,444.123565,-8733.488677,-148.041188
5636.968735,370.102971,-8044.002729,-444.123565
5636.969060,370.102971,-8580.269578,-444.123565
5636.969384,518.144159,-8427.050478,-370.102971
5636.969709,518.144159,-8580.269578,-370.102971
5636.970033,592.164754,-8503.660028,-370.102971
5636.970357,370.102971,-8733.488677,-518.144159
5636.970682,370.102971,-8733.488677,-444.123565
5636.971006,370.102971,-8656.879127,-370.102971
5636.971330,518.144159,-8656.879127,-444.123565
5636.971655,592.164754,-8810.098227,-444.123565
5636.971979,444.123565,-8656.879127,-444.123565
5636.972304,296.082377,-8427.050478,-592.164754
5636.972628,518.144159,-8580.269578,-740.205942
5636.972952,518.144159,-8427.050478,-148.041188
5636.973277,518.144159,-8656.879127,-592.164754
5636.973601,148.041188,-8733.488677,-666.185348
5636.973925,222.061783,-8427.050478,-592.164754
5636.974250,518.144159,-8886.707777,-370.102971
5636.974574,296.082377,-8503.660028,-666.185348
5636.974899,296.082377,-8580.269578,-444.123565
5636.975223,444.123565,-8810.098227,-666.185348
5636.975547,518.144159,-8733.488677,-666.185348
5636.975872,444.123565,-8427.050478,-592.164754
5636.976196,592.164754,-8810.098227,-370.102971
5636.976520,444.123565,-8197.221829,-592.164754
5636.976845,148.041188,-8580.269578,-370.102971
5636.977169,296.082377,-8886.707777,0.000000
5636.977494,296.082377,-8503.660028,-370.102971
5636.977818,592.164754,-8503.660028,-592.164754
5636.978142,518.144159,-8810.098227,-222.061783
5636.978467,740.205942,-8810.098227,-370.102971
5636.978791,740.205942,-8733.488677,-296.082377
5636.979115,592.164754,-8580.269578,-296.082377
5636.979440,592.164754,-8733.488677,-296.082377
5636.979764,444.123565,-8350.440928,-296.082377
5636.980089,370.102971,-8580.269578,-74.020594
5636.980413,370.102971,-8427.050478,-296.082377
5636.980737,222.061783,-8580.269578,-296.082377
5636.981062,592.164754,-8580.269578,0.000000
5636.981386,518.144159,-8197.221829,0.000000
5636.981710,148.041188,-8733.488677,0.000000
5636.982035,222.061783,-8580.269578,0.000000
5636.982359,592.164754,-8580.269578,0.000000
5636.982684,518.144159,-7507.735880,0.000000
5636.983008,518.144159,-8580.269578,0.000000
5636.983332,518.144159,-8427.050478,0.000000
5636.983657,370.102971,-8580.269578,0.000000
5636.983981,296.082377,-8580.269578,-222.061783
5636.984305,666.185348,-8350.440928,-222.061783
5636.984630,444.123565,-8733.488677,-148.041188
5636.984954,222.061783,-8427.050478,-148.041188
5636.985279,518.144159,-8580.269578,0.000000
5636.985603,370.102971,-9269.755526,-370.102971
5636.985927,518.144159,-8427.050478,0.000000
5636.986252,296.082377,-8427.050478,-296.082377
5636.986576,592.164754,-8580.269578,-222.061783
5636.986900,296.082377,-8580.269578,0.000000
5636.987225,444.123565,-8656.879127,-148.041188
5636.987549,370.102971,-8656.879127,0.000000
5636.987874,592.164754,-8503.660028,-222.061783
5636.988198,592.164754,-8656.879127,-222.061783
5636.988522,592.164754,-8427.050478,-370.102971
5636.988847,518.144159,-8810.098227,-222.061783
5636.989171,518.144159,-8656.879127,-148.041188
5636.989495,444.123565,-8503.660028,-370.102971
5636.989820,740.205942,-9039.926876,-444.123565
5636.990144,518.144159,-8656.879127,-296.082377
5636.990469,148.041188,-8503.660028,-222.061783
5636.990793,444.123565,-8656.879127,-296.082377
5636.991117,296.082377,-8886.707777,-444.123565
5636.991442,814.226536,-8733.488677,-666.185348
5636.991766,444.123565,-8656.879127,-592.164754
5636.992090,444.123565,-8963.317327,-222.061783
5636.992415,222.061783,-8886.707777,-444.123565
5636.992739,740.205942,-8886.707777,-444.123565
5636.993064,370.102971,-8427.050478,-444.123565
5636.993388,444.123565,-8427.050478,-666.185348
5636.993712,370.102971,-8656.879127,-444.123565
5636.994037,296.082377,-9269.755526,-370.102971
5636.994361,444.123565,-8656.879127,-370.102971
5636.994685,814.226536,-8580.269578,-888.247130
5636.995010,518.144159,-8886.707777,-666.185348
5636.995334,222.061783,-8580.269578,-370.102971
5636.995659,370.102971,-8580.269578,-666.185348
5636.995983,444.123565,-8810.098227,-518.144159
5636.996307,370.102971,-8427.050478,-370.102971
5636.996632,296.082377,-8656.879127,-518.144159
5636.996956,0.000000,-9269.755526,-296.082377
5636.997280,370.102971,-8273.831378,-444.123565
5636.997605,222.061783,-8656.879127,-370.102971
5636.997929,444.123565,-8733.488677,-444.123565
5636.998254,370.102971,-8580.269578,0.000000
5636.998578,444.123565,-8427.050478,0.000000
5636.998902,370.102971,-8503.660028,-444.123565
5636.999227,370.102971,-8733.488677,-148.041188
5636.999551,370.102971,-8427.050478,-296.082377
5636.999875,296.082377,-8580.269578,0.000000
5637.000200,518.144159,-8733.488677,-370.102971
5637.000524,444.123565,-8656.879127,-370.102971
5637.000849,296.082377,-7967.393179,-74.020594
5637.001173,444.123565,-9039.926876,-222.061783
5637.001497,222.061783,-8580.269578,0.000000
5637.001822,222.061783,-8120.612279,-148.041188
5637.002146,444.123565,-8503.660028,0.000000
5637.002470,222.061783,-8810.098227,0.000000
5637.002795,518.144159,-8580.269578,-148.041188
5637.003119,444.123565,-8427.050478,-74.020594
5637.003444,222.061783,-8427.050478,-296.082377
5637.003768,444.123565,-8427.050478,-296.082377
5637.004092,370.102971,-8580.269578,0.000000
5637.004417,518.144159,-8427.050478,-296.082377
5637.004741,296.082377,-8656.879127,0.000000
5637.005065,370.102971,-8580.269578,-148.041188
5637.005390,444.123565,-8350.440928,-518.144159
5637.005714,296.082377,-8503.660028,-370.102971
5637.006039,296.082377,-8656.879127,0.000000
5637.006363,222.061783,-8503.660028,-148.041188
5637.006687,518.144159,-8886.707777,-148.041188
5637.007012,370.102971,-8580.269578,-148.041188
5637.007336,370.102971,-8810.098227,-444.123565
5637.007661,444.123565,-8427.050478,0.000000
5637.007985,148.041188,-8427.050478,-222.061783
5637.008309,74.020594,-8733.488677,-444.123565
5637.008634,444.123565,-8427.050478,-222.061783
5637.008958,370.102971,-8733.488677,-222.061783
5637.009282,370.102971,-8580.269578,-370.102971
5637.009607,370.102971,-9193.145976,-592.164754
5637.009931,222.061783,-8733.488677,-370.102971
5637.010256,296.082377,-8503.660028,-296.082377
5637.010580,296.082377,-8580.269578,-666.185348
5637.010904,518.144159,-8810.098227,-296.082377
5637.011229,444.123565,-8350.440928,-592.164754
5637.011553,592.164754,-8963.317327,-666.185348
5637.011877,444.123565,-8503.660028,-518.144159
5637.012202,518.144159,-8656.879127,-370.102971
5637.012526,666.185348,-8580.269578,-814.226536
5637.012851,518.144159,-8810.098227,-592.164754
5637.013175,370.102971,-8963.317327,-592.164754
5637.013499,592.164754,-8580.269578,-296.082377
5637.013824,444.123565,-8733.488677,-444.123565
5637.014148,518.144159,-8733.488677,-370.102971
5637.014472,370.102971,-8427.050478,-518.144159
5637.014797,444.123565,-8503.660028,-148.041188
5637.015121,296.082377,-8810.098227,-518.144159
5637.015446,740.205942,-8580.269578,-444.123565
5637.015770,592.164754,-8580.269578,-370.102971
5637.016094,444.123565,-8580.269578,-592.164754
5637.016419,370.102971,-8273.831378,-222.061783
5637.016743,444.123565,-9422.974625,148.041188
5637.017067,444.123565,-8733.488677,-296.082377
5637.017392,444.123565,-8350.440928,-518.144159
5637.017716,296.082377,-8656.879127,-370.102971
5637.018041,666.185348,-9039.926876,0.000000
5637.018365,148.041188,-8350.440928,0.000000
5637.018689,444.123565,-8733.488677,-370.102971
5637.019014,222.061783,-8427.050478,0.000000
5637.019338,444.123565,-8580.269578,0.000000
5637.019662,370.102971,-8427.050478,0.000000
5637.019987,592.164754,-8656.879127,-222.061783
5637.020311,296.082377,-8580.269578,-296.082377
5637.020636,0.000000,-8273.831378,0.000000
5637.020960,0.000000,-9193.145976,74.020594
5637.021284,222.061783,-8810.098227,-296.082377
5637.021609,814.226536,-8503.660028,0.000000
5637.021933,74.020594,-8273.831378,-74.020594
5637.022257,592.164754,-8810.098227,-148.041188
5637.022582,0.000000,-8503.660028,-74.020594
5637.022906,592.164754,-8733.488677,0.000000
5637.023231,222.061783,-8656.879127,-148.041188
5637.023555,296.082377,-8427.050478,-222.061783
5637.023879,296.082377,-8733.488677,0.000000
5637.024204,222.061783,-8427.050478,-296.082377
5637.024528,444.123565,-8733.488677,-296.082377
5637.024852,370.102971,-8810.098227,0.000000
5637.025177,592.164754,-8350.440928,-444.123565
5637.025501,296.082377,-8503.660028,-518.144159
5637.025826,518.144159,-8580.269578,0.000000
5637.026150,296.082377,-8273.831378,-296.082377
5637.026474,666.185348,-8733.488677,-148.041188
5637.026799,592.164754,-8733.488677,-296.082377
5637.027123,518.144159,-8580.269578,-222.061783
5637.027447,370.102971,-8503.660028,-148.041188
5637.027772,518.144159,-8197.221829,-444.123565
5637.028096,740.205942,-8810.098227,-444.123565
5637.028421,666.185348,-8503.660028,-370.102971
5637.028745,222.061783,-8810.098227,-370.102971
5637.029069,370.102971,-8810.098227,-296.082377
5637.029394,666.185348,-8503.660028,-962.267725
5637.029718,666.185348,-8810.098227,-592.164754
5637.030042,370.102971,-8810.098227,-518.144159
5637.030367,222.061783,-8886.707777,-222.061783
5637.030691,444.123565,-8427.050478,-592.164754
5637.031016,740.205942,-8580.269578,-666.185348
5637.031340,370.102971,-8886.707777,-666.185348
5637.031664,370.102971,-8963.317327,-740.205942
5637.031989,444.123565,-8733.488677,-444.123565
5637.032313,518.144159,-8580.269578,-888.247130
5637.032637,444.123565,-8810.098227,-518.144159
5637.032962,370.102971,-8656.879127,-296.082377
5637.033286,296.082377,-8656.879127,-518.144159
5637.033611,518.144159,-8427.050478,-518.144159
5637.033935,296.082377,-8656.879127,-222.061783
5637.034259,444.123565,-8733.488677,-444.123565
5637.034584,444.123565,-8810.098227,-518.144159
5637.034908,592.164754,-8427.050478,-592.164754
5637.035232,518.144159,-8810.098227,-518.144159
5637.035557,222.061783,-8350.440928,-444.123565
5637.035881,444.123565,-8810.098227,-296.082377
5637.036206,296.082377,-8427.050478,-222.061783
5637.036530,888.247130,-8733.488677,-592.164754
5637.036854,518.144159,-8503.660028,-370.102971
5637.037179,370.102971,-8503.660028,0.000000
5637.037503,222.061783,-8427.050478,-370.102971
5637.037827,370.102971,-9193.145976,-296.082377
5637.038152,74.020594,-8427.050478,-444.123565
5637.038476,444.123565,-8656.879127,-296.082377
5637.038801,518.144159,-8503.660028,-444.123565
5637.039125,444.123565,-8273.831378,-296.082377
5637.039449,148.041188,-8503.660028,-518.144159
5637.039774,444.123565,-8350.440928,-370.102971
5637.040098,518.144159,-8427.050478,-444.123565
5637.040422,296.082377,-8503.660028,-222.061783
5637.040747,370.102971,-8427.050478,74.020594
5637.041071,222.061783,-8656.879127,-370.102971
5637.041395,370.102971,-8503.660028,-370.102971
5637.041720,518.144159,-8273.831378,-666.185348
5637.042044,370.102971,-8580.269578,-666.185348
5637.042368,518.144159,-8273.831378,-444.123565
5637.042693,222.061783,-8580.269578,-222.061783
5637.043017,296.082377,-8656.879127,-518.144159
5637.043341,740.205942,-8427.050478,-592.164754
5637.043666,740.205942,-8427.050478,-814.226536
5637.043990,370.102971,-8503.660028,-370.102971
5637.044314,296.082377,-8580.269578,-370.102971
5637.044639,296.082377,-8656.879127,-296.082377
5637.044963,814.226536,-8503.660028,-222.061783
5637.045287,444.123565,-8656.879127,-370.102971
5637.045611,296.082377,-8886.707777,-444.123565
5637.045936,444.123565,-8350.440928,-370.102971
5637.046260,296.082377,-8810.098227,-518.144159
5637.046584,370.102971,-8427.050478,-296.082377
5637.046909,518.144159,-8580.269578,-444.123565
5637.047233,666.185348,-8656.879127,-666.185348
5637.047557,740.205942,-8580.269578,-444.123565
5637.047882,814.226536,-8580.269578,-444.123565
5637.048206,518.144159,-8733.488677,-518.144159
5637.048530,296.082377,-8580.269578,-592.164754
5637.048855,666.185348,-8810.098227,-592.164754
5637.049179,296.082377,-8656.879127,0.000000
5637.049503,370.102971,-8427.050478,-296.082377
5637.049828,222.061783,-8810.098227,-444.123565
5637.050152,592.164754,-8580.269578,-518.144159
5637.050476,814.226536,-8810.098227,-666.185348
5637.050801,296.082377,-8656.879127,-444.123565
5637.051125,444.123565,-8656.879127,-296.082377
5637.051449,444.123565,-8810.098227,-592.164754
5637.051773,296.082377,-8886.707777,-370.102971
5637.052098,0.000000,-8120.612279,0.000000
5637.052422,518.144159,-8963.317327,-222.061783
5637.052746,444.123565,-8810.098227,-296.082377
5637.053071,444.123565,-8580.269578,-148.041188
5637.053395,296.082377,-8810.098227,0.000000
5637.053719,370.102971,-8350.440928,-222.061783
5637.054044,518.144159,-8503.660028,-296.082377
5637.054368,592.164754,-8580.269578,-370.102971
5637.054692,148.041188,-8350.440928,0.000000
5637.055017,222.061783,-8810.098227,0.000000
5637.055341,296.082377,-8503.660028,0.000000
5637.055665,296.082377,-8503.660028,0.000000
5637.055990,222.061783,-8733.488677,-370.102971
5637.056314,370.102971,-7507.735880,222.061783
5637.056638,444.123565,-8503.660028,-222.061783
5637.056962,296.082377,-8810.098227,-296.082377
5637.057287,296.082377,-8503.660028,-222.061783
5637.057611,518.144159,-8580.269578,-370.102971
5637.057935,222.061783,-8273.831378,0.000000
5637.058260,296.082377,-8580.269578,0.000000
5637.058584,518.144159,-8580.269578,-296.082377
5637.058908,444.123565,-8197.221829,-222.061783
5637.059233,222.061783,-8503.660028,0.000000
5637.059557,518.144159,-8580.269578,0.000000
5637.059881,296.082377,-8273.831378,0.000000
5637.060206,444.123565,-8886.707777,0.000000
5637.060530,222.061783,-8427.050478,74.020594
5637.060854,518.144159,-8503.660028,-370.102971
5637.061179,444.123565,-8886.707777,-222.061783
5637.061503,444.123565,-8580.269578,0.000000
5637.061827,296.082377,-8656.879127,0.000000
5637.062151,740.205942,-8503.660028,-222.061783
5637.062476,370.102971,-8350.440928,-222.061783
5637.062800,296.082377,-8580.269578,-444.123565
5637.063124,296.082377,-8810.098227,-296.082377
5637.063449,814.226536,-8580.269578,74.020594
5637.063773,370.102971,-8886.707777,-518.144159
5637.064097,444.123565,-8427.050478,-592.164754
5637.064422,518.144159,-8733.488677,-296.082377
5637.064746,370.102971,-7890.783629,-148.041188
5637.065070,444.123565,-8886.707777,-148.041188
5637.065395,370.102971,-8427.050478,-518.144159
5637.065719,518.144159,-8427.050478,-666.185348
5637.066043,666.185348,-8503.660028,-740.205942
5637.066368,592.164754,-8503.660028,-666.185348
5637.066692,222.061783,-8503.660028,-518.144159
5637.067016,296.082377,-8656.879127,-592.164754
5637.067340,518.144159,-8810.098227,-814.226536
5637.067665,962.267725,-8350.440928,-370.102971
5637.067989,370.102971,-8810.098227,-814.226536
5637.068313,592.164754,-8810.098227,-962.267725
5637.068638,444.123565,-8503.660028,-666.185348
5637.068962,222.061783,-9269.755526,-592.164754
5637.069286,592.164754,-8810.098227,-518.144159
5637.069611,518.144159,-8810.098227,-888.247130
5637.069935,518.144159,-8656.879127,-888.247130
5637.070259,592.164754,-8350.440928,-518.144159
5637.070584,222.061783,-8427.050478,-666.185348
5637.070908,740.205942,-8427.050478,-666.185348
5637.071232,444.123565,-8427.050478,-592.164754
5637.071557,518.144159,-8427.050478,-740.205942
5637.071881,296.082377,-9039.926876,-148.041188
5637.072205,814.226536,-8656.879127,-740.205942
5637.072529,518.144159,-8656.879127,-592.164754
5637.072854,666.185348,-8197.221829,-666.185348
5637.073178,592.164754,-8963.317327,-518.144159
5637.073502,592.164754,-8427.050478,-592.164754
5637.073827,296.082377,-8350.440928,-370.102971
5637.074151,518.144159,-8427.050478,-666.185348
5637.074475,222.061783,-8503.660028,-370.102971
5637.074800,740.205942,-8810.098227,-666.185348
5637.075124,518.144159,-8656.879127,-370.102971
5637.075448,370.102971,-8580.269578,-518.144159
5637.075773,370.102971,-8733.488677,-222.061783
5637.076097,592.164754,-8810.098227,-444.123565
5637.076421,518.144159,-8580.269578,-148.041188
5637.076746,222.061783,-8733.488677,-444.123565
5637.077070,444.123565,-8503.660028,0.000000
5637.077394,148.041188,-8350.440928,-518.144159
5637.077718,444.123565,-9193.145976,0.000000
5637.078043,222.061783,-8427.050478,-296.082377
5637.078367,518.144159,-8580.269578,0.000000
5637.078691,222.061783,-8580.269578,-296.082377
5637.079016,518.144159,-8810.098227,222.061783
5637.079340,370.102971,-8733.488677,-370.102971
5637.079664,222.061783,-8503.660028,0.000000
5637.079989,518.144159,-8733.488677,-444.123565
5637.080313,592.164754,-8886.707777,0.000000
5637.080637,518.144159,-8427.050478,74.020594
5637.080962,222.061783,-8427.050478,-370.102971
5637.081286,370.102971,-8886.707777,-148.041188
5637.081610,222.061783,-8427.050478,-148.041188
5637.081935,666.185348,-8503.660028,-518.144159
5637.082259,444.123565,-8656.879127,-148.041188
5637.082583,444.123565,-9039.926876,0.000000
5637.082907,444.123565,-8656.879127,0.000000
5637.083232,296.082377,-8350.440928,-296.082377
5637.083556,444.123565,-8733.488677,-592.164754
5637.083880,592.164754,-8273.831378,-148.041188
5637.084205,370.102971,-8963.317327,0.000000
5637.084529,222.061783,-8656.879127,-222.061783
5637.084853,444.123565,-8427.050478,-370.102971
5637.085178,444.123565,-8503.660028,-222.061783
5637.085502,518.144159,-8656.879127,-592.164754
5637.085826,296.082377,-8810.098227,0.000000
5637.086151,444.123565,-8503.660028,-666.185348
5637.086475,370.102971,-8580.269578,-148.041188
5637.086799,444.123565,-8580.269578,-666.185348
5637.087124,814.226536,-8810.098227,-592.164754
5637.087448,518.144159,-7814.174080,0.000000
5637.087772,592.164754,-8427.050478,-444.123565
5637.088097,296.082377,-8580.269578,-296.082377
5637.088421,444.123565,-8427.050478,-296.082377
5637.088745,740.205942,-8733.488677,-518.144159
5637.089069,444.123565,-8503.660028,-370.102971
5637.089394,296.082377,-8656.879127,-296.082377
5637.089718,518.144159,-8580.269578,-296.082377
5637.090042,518.144159,-8656.879127,-518.144159
5637.090367,962.267725,-8656.879127,-444.123565
5637.090691,518.144159,-8733.488677,-444.123565
5637.091015,296.082377,-8197.221829,-222.061783
5637.091340,296.082377,-8656.879127,-222.061783
5637.091664,444.123565,-8580.269578,-740.205942
5637.091988,518.144159,-8580.269578,0.000000
5637.092313,518.144159,-8733.488677,-592.164754
5637.092637,370.102971,-8427.050478,-296.082377
5637.092961,296.082377,-8580.269578,-296.082377
5637.093286,740.205942,-8810.098227,0.000000
5637.093610,296.082377,-8350.440928,-518.144159
5637.093934,370.102971,-8427.050478,-518.144159
5637.094258,370.102971,-8427.050478,-370.102971
5637.094583,148.041188,-7584.345430,-222.061783
5637.094907,296.082377,-8656.879127,0.000000
5637.095231,296.082377,-8427.050478,-296.082377
5637.095556,518.144159,-8733.488677,0.000000
5637.095880,444.123565,-8350.440928,-740.205942
5637.096204,592.164754,-8733.488677,-222.061783
5637.096529,444.123565,-8350.440928,-370.102971
5637.096853,444.123565,-8810.098227,0.000000
5637.097177,296.082377,-8503.660028,-370.102971
5637.097502,518.144159,-8580.269578,-222.061783
5637.097826,444.123565,-8350.440928,-222.061783
5637.098150,222.061783,-8427.050478,-148.041188
5637.098475,148.041188,-8503.660028,0.000000
5637.098799,740.205942,-8886.707777,-444.123565
5637.099123,666.185348,-8733.488677,-222.061783
5637.099447,222.061783,-8580.269578,-296.082377
5637.099772,444.123565,-8733.488677,74.020594
5637.100096,148.041188,-9193.145976,-444.123565
5637.100420,592.164754,-8733.488677,-222.061783
5637.100745,222.061783,-8427.050478,-296.082377
5637.101069,592.164754,-8656.879127,-296.082377
5637.101393,444.123565,-8350.440928,-222.061783
5637.101718,296.082377,-8886.707777,-444.123565
5637.102042,222.061783,-8733.488677,74.020594
5637.102366,444.123565,-8580.269578,-296.082377
5637.102691,740.205942,-8963.317327,-370.102971
5637.103015,74.020594,-9116.536426,296.082377
5637.103339,370.102971,-8810.098227,0.000000
5637.103664,370.102971,-8886.707777,-296.082377
5637.103988,518.144159,-8503.660028,-296.082377
5637.104312,592.164754,-9269.755526,-518.144159
5637.104636,592.164754,-8733.488677,-370.102971
5637.104961,518.144159,-8427.050478,-518.144159
5637.105285,444.123565,-8580.269578,-370.102971
5637.105609,370.102971,-8733.488677,-592.164754
5637.105934,592.164754,-8810.098227,-370.102971
5637.106258,666.185348,-8580.269578,-592.164754
5637.106582,370.102971,-8580.269578,-518.144159
5637.106907,666.185348,-8656.879127,-296.082377
5637.107231,222.061783,-8503.660028,-740.205942
5637.107555,518.144159,-8656.879127,-740.205942
5637.107880,518.144159,-8810.098227,-444.123565
5637.108204,814.226536,-8350.440928,-888.247130
5637.108528,148.041188,-8580.269578,-592.164754
5637.108853,518.144159,-8810.098227,-518.144159
5637.109177,296.082377,-8580.269578,-592.164754
5637.109501,666.185348,-8427.050478,-518.144159
5637.109825,444.123565,-8733.488677,-666.185348
5637.110150,814.226536,-8733.488677,-518.144159
5637.110474,296.082377,-8580.269578,-444.123565
5637.110798,444.123565,-8810.098227,-370.102971
5637.111123,518.144159,-8273.831378,-444.123565
5637.111447,962.267725,-8886.707777,-370.102971
5637.111771,370.102971,-8350.440928,-370.102971
5637.112096,222.061783,-8427.050478,-666.185348
5637.112420,444.123565,-8656.879127,-296.082377
5637.112744,444.123565,-8427.050478,-518.144159
5637.113069,444.123565,-8656.879127,-370.102971
5637.113393,74.020594,-7967.393179,-370.102971
5637.113717,222.061783,-8656.879127,-222.061783
5637.114042,222.061783,-8580.269578,-296.082377
5637.114366,962.267725,-8120.612279,0.000000
5637.114690,444.123565,-8580.269578,-296.082377
5637.115014,518.144159,-8656.879127,-222.061783
5637.115339,222.061783,-8197.221829,0.000000
5637.115663,222.061783,-8886.707777,222.061783
5637.115987,222.061783,-8273.831378,74.020594
5637.116312,518.144159,-8656.879127,-370.102971
5637.116636,370.102971,-8503.660028,-222.061783
5637.116960,222.061783,-8580.269578,-74.020594
5637.117285,444.123565,-8427.050478,-370.102971
5637.117609,592.164754,-8427.050478,0.000000
5637.117933,296.082377,-8503.660028,-74.020594
5637.118258,518.144159,-8656.879127,-296.082377
5637.118582,814.226536,-8810.098227,-370.102971
5637.118906,444.123565,-8350.440928,-148.041188
5637.119231,444.123565,-8810.098227,0.000000
5637.119555,592.164754,-8273.831378,-518.144159
5637.119879,444.123565,-8656.879127,-222.061783
5637.120204,222.061783,-8963.317327,-370.102971
5637.120528,296.082377,-8810.098227,-222.061783
5637.120852,370.102971,-8733.488677,-296.082377
5637.121176,444.123565,-8273.831378,-296.082377
5637.121501,666.185348,-8656.879127,-370.102971
5637.121825,444.123565,-8733.488677,-296.082377
5637.122149,518.144159,-8503.660028,-148.041188
5637.122474,370.102971,-8656.879127,-444.123565
5637.122798,1036.288319,-9269.755526,-296.082377
5637.123122,370.102971,-8656.879127,-518.144159
5637.123447,370.102971,-8733.488677,-444.123565
5637.123771,222.061783,-8810.098227,-370.102971
5637.124095,444.123565,-8963.317327,0.000000
5637.124420,444.123565,-8886.707777,-444.123565
5637.124744,444.123565,-8656.879127,-296.082377
5637.125068,296.082377,-8656.879127,-296.082377
5637.125393,518.144159,-9039.926876,-444.123565
5637.125717,666.185348,-8197.221829,0.000000
5637.126041,444.123565,-8656.879127,-148.041188
5637.126365,592.164754,-8810.098227,-444.123565
5637.126690,666.185348,-8350.440928,-444.123565
5637.127014,592.164754,-8503.660028,0.000000
5637.127338,296.082377,-8427.050478,-518.144159
5637.127663,518.144159,-8656.879127,-296.082377
5637.127987,444.123565,-8580.269578,-148.041188
5637.128311,592.164754,-8580.269578,-74.020594
5637.128636,666.185348,-8427.050478,-518.144159
5637.128960,518.144159,-8733.488677,-148.041188
5637.129284,518.144159,-8503.660028,-296.082377
5637.129609,444.123565,-8810.098227,-370.102971
5637.129933,444.123565,-8350.440928,-518.144159
5637.130257,296.082377,-8656.879127,0.000000
5637.130582,370.102971,-8503.660028,-222.061783
5637.130906,370.102971,-8580.269578,-296.082377
5637.131230,370.102971,-8044.002729,0.000000
5637.131554,296.082377,-8656.879127,-148.041188
5637.131879,296.082377,-8810.098227,-370.102971
5637.132203,222.061783,-8733.488677,-518.144159
5637.132527,444.123565,-8503.660028,0.000000
5637.132852,444.123565,-8273.831378,-222.061783
5637.133176,444.123565,-8656.879127,-296.082377
5637.133500,518.144159,-8503.660028,-370.102971
5637.133825,296.082377,-8733.488677,-148.041188
5637.134149,666.185348,-8503.660028,-148.041188
5637.134473,296.082377,-8733.488677,0.000000
5637.134798,518.144159,-8733.488677,-296.082377
5637.135122,222.061783,-8580.269578,0.000000
5637.135446,666.185348,-8580.269578,-444.123565
5637.135771,444.123565,-8503.660028,-222.061783
5637.136095,518.144159,-8427.050478,148.041188
5637.136419,74.020594,-8580.269578,-296.082377
5637.136743,296.082377,-8733.488677,-222.061783
5637.137068,518.144159,-8580.269578,-148.041188
5637.137392,592.164754,-8503.660028,0.000000
5637.137716,222.061783,-8427.050478,-296.082377
5637.138041,296.082377,-8886.707777,-296.082377
5637.138365,518.144159,-8733.488677,-444.123565
5637.138689,148.041188,-8503.660028,0.000000
5637.139014,666.185348,-8580.269578,-518.144159
5637.139338,444.123565,-8427.050478,-370.102971
5637.139662,222.061783,-8120.612279,-222.061783
5637.139987,518.144159,-8733.488677,-518.144159
5637.140311,592.164754,-8810.098227,-296.082377
5637.140635,740.205942,-8580.269578,-444.123565
5637.140960,518.144159,-8733.488677,-666.185348
5637.141284,592.164754,-8580.269578,-222.061783
5637.141608,518.144159,-8656.879127,-814.226536
5637.141932,518.144159,-8886.707777,-444.123565
5637.142257,666.185348,-8350.440928,-740.205942
5637.142581,666.185348,-8427.050478,0.000000
5637.142905,592.164754,-8503.660028,-592.164754
5637.143230,444.123565,-8656.879127,-740.205942
5637.143554,296.082377,-8810.098227,-740.205942
5637.143878,222.061783,-8580.269578,-518.144159
5637.144202,592.164754,-8350.440928,-518.144159
5637.144527,518.144159,-8580.269578,-666.185348
5637.144851,296.082377,-8503.660028,-518.144159
5637.145175,592.164754,-8810.098227,-444.123565
5637.145500,888.247130,-8120.612279,0.000000
5637.145824,444.123565,-8733.488677,-370.102971
5637.146148,518.144159,-8733.488677,-740.205942
5637.146472,518.144159,-8427.050478,-296.082377
5637.146797,666.185348,-8350.440928,-370.102971
5637.147121,370.102971,-8886.707777,-370.102971
5637.147445,518.144159,-8580.269578,-592.164754
5637.147770,444.123565,-8580.269578,-518.144159
5637.148094,222.061783,-8580.269578,-370.102971
5637.148418,370.102971,-8197.221829,-296.082377
5637.148742,518.144159,-8503.660028,-370.102971
5637.149067,518.144159,-8427.050478,-370.102971
5637.149391,592.164754,-8580.269578,-518.144159
5637.149715,740.205942,-8810.098227,-370.102971
5637.150040,518.144159,-8427.050478,-370.102971
5637.150364,370.102971,-8733.488677,-296.082377
5637.150688,370.102971,-8503.660028,-296.082377
5637.151012,148.041188,-8580.269578,-148.041188
5637.151337,370.102971,-8886.707777,-444.123565
5637.151661,370.102971,-8503.660028,-222.061783
5637.151985,222.061783,-8427.050478,-296.082377
5637.152310,518.144159,-8503.660028,0.000000
5637.152634,592.164754,-8503.660028,-370.102971
5637.152958,296.082377,-8886.707777,-370.102971
5637.153282,666.185348,-8350.440928,-370.102971
5637.153607,296.082377,-8350.440928,0.000000
5637.153931,518.144159,-9576.193725,-740.205942
5637.154255,370.102971,-8503.660028,-148.041188
5637.154580,518.144159,-8580.269578,-148.041188
5637.154904,370.102971,-8503.660028,-296.082377
5637.155228,74.020594,-9039.926876,-148.041188
5637.155552,518.144159,-8886.707777,-518.144159
5637.155877,222.061783,-8810.098227,0.000000
5637.156201,370.102971,-8580.269578,-296.082377
5637.156525,222.061783,-8580.269578,-296.082377
5637.156850,370.102971,-8503.660028,0.000000
5637.157174,148.041188,-8580.269578,-296.082377
5637.157498,370.102971,-9039.926876,-222.061783
5637.157823,444.123565,-8733.488677,-296.082377
5637.158147,592.164754,-9193.145976,-592.164754
5637.158471,444.123565,-8503.660028,-518.144159
5637.158795,222.061783,-8427.050478,0.000000
5637.159120,592.164754,-8580.269578,-148.041188
5637.159444,592.164754,-8427.050478,-296.082377
5637.159768,666.185348,-8427.050478,-592.164754
5637.160093,296.082377,-8656.879127,-370.102971
5637.160417,592.164754,-8120.612279,-444.123565
5637.160741,222.061783,-8656.879127,-518.144159
5637.161065,740.205942,-9039.926876,-666.185348
5637.161390,518.144159,-8427.050478,-518.144159
5637.161714,666.185348,-8580.269578,-592.164754
5637.162038,518.144159,-8810.098227,-444.123565
5637.162363,444.123565,-8963.317327,-444.123565
5637.162687,592.164754,-8656.879127,-444.123565
5637.163011,444.123565,-8503.660028,-666.185348
5637.163335,518.144159,-8810.098227,-370.102971
5637.163660,518.144159,-8656.879127,-740.205942
5637.163984,962.267725,-8810.098227,-740.205942
5637.164308,370.102971,-8656.879127,-814.226536
5637.164633,370.102971,-8656.879127,-444.123565
5637.164957,592.164754,-8656.879127,-592.164754
5637.165281,1258.350101,-8810.098227,-592.164754
