#time,accel_x,accel_y,accel_z
4425.532525,370.102971,-8733.488677,-444.123565
4425.532849,518.144159,-8580.269578,-518.144159
4425.533173,814.226536,-8350.440928,-148.041188
4425.533498,518.144159,-8427.050478,-370.102971
4425.533822,444.123565,-8886.707777,74.020594
4425.534146,370.102971,-8503.660028,0.000000
4425.534471,148.041188,-8503.660028,74.020594
4425.534795,592.164754,-8503.660028,370.102971
4425.535119,518.144159,-8580.269578,0.000000
4425.535444,518.144159,-8580.269578,222.061783
4425.535768,296.082377,-8580.269578,74.020594
4425.536092,74.020594,-8656.879127,74.020594
4425.536417,148.041188,-8427.050478,592.164754
4425.536741,518.144159,-8580.269578,518.144159
4425.537065,222.061783,-8580.269578,592.164754
4425.537389,370.102971,-9193.145976,962.267725
4425.537714,444.123565,-8580.269578,740.205942
4425.538038,518.144159,-8733.488677,740.205942
4425.538362,666.185348,-8810.098227,666.185348
4425.538687,444.123565,-8733.488677,1110.308913
4425.539011,222.061783,-8350.440928,962.267725
4425.539335,296.082377,-8427.050478,888.247130
4425.539660,0.000000,-8503.660028,962.267725
4425.539984,74.020594,-8120.612279,962.267725
4425.540308,666.185348,-8656.879127,518.144159
4425.540633,370.102971,-8427.050478,962.267725
4425.540957,148.041188,-8580.269578,888.247130
4425.541281,444.123565,-8427.050478,740.205942
4425.541606,1036.288319,-8733.488677,296.082377
4425.541930,444.123565,-8656.879127,518.144159
4425.542254,444.123565,-8427.050478,148.041188
4425.542578,296.082377,-8427.050478,370.102971
4425.542903,444.123565,-9116.536426,74.020594
4425.543227,74.020594,-8350.440928,444.123565
4425.543551,370.102971,-8350.440928,0.000000
4425.543876,518.144159,-8427.050478,148.041188
4425.544200,444.123565,-8580.269578,-74.020594
4425.544524,518.144159,-8886.707777,296.082377
4425.544849,740.205942,-8197.221829,74.020594
4425.545173,518.144159,-8580.269578,0.000000
4425.545497,518.144159,-8886.707777,-148.041188
4425.545822,296.082377,-7967.393179,592.164754
4425.546146,296.082377,-8503.660028,-296.082377
4425.546470,296.082377,-8886.707777,-222.061783
4425.546795,296.082377,-8886.707777,-740.205942
4425.547120,74.020594,-8886.707777,-222.061783
4425.547444,148.041188,-8733.488677,-370.102971
4425.547769,296.082377,-8580.269578,-370.102971
4425.548093,592.164754,-8503.660028,-518.144159
4425.548418,740.205942,-8120.612279,-740.205942
4425.548742,740.205942,-8427.050478,-814.226536
4425.549067,814.226536,-8580.269578,-814.226536
4425.549392,518.144159,-8580.269578,-518.144159
4425.549716,296.082377,-8503.660028,-962.267725
4425.550041,888.247130,-8733.488677,-962.267725
4425.550365,592.164754,-8427.050478,-1184.329507
4425.550690,296.082377,-8503.660028,-962.267725
4425.551014,814.226536,-8580.269578,-1480.411884
4425.551339,222.061783,-8656.879127,-888.247130
4425.551663,814.226536,-8044.002729,-1184.329507
4425.551988,740.205942,-8580.269578,-1184.329507
4425.552313,740.205942,-8656.879127,-1110.308913
4425.552637,666.185348,-8350.440928,-1184.329507
4425.552962,814.226536,-8810.098227,-1258.350101
4425.553286,370.102971,-8886.707777,-1184.329507
4425.553611,370.102971,-8733.488677,-1184.329507
4425.553935,444.123565,-8656.879127,-1258.350101
4425.554260,592.164754,-9193.145976,-888.247130
4425.554585,370.102971,-8810.098227,-1036.288319
4425.554909,518.144159,-9193.145976,-1110.308913
4425.555234,370.102971,-8963.317327,-888.247130
4425.555558,296.082377,-8886.707777,-740.205942
4425.555883,592.164754,-8886.707777,-962.267725
4425.556207,740.205942,-8963.317327,-814.226536
4425.556532,74.020594,-8963.317327,-666.185348
4425.556857,0.000000,-9193.145976,-592.164754
4425.557181,0.000000,-9039.926876,-444.123565
4425.557506,444.123565,-8886.707777,-592.164754
4425.557830,74.020594,-9116.536426,-518.144159
4425.558155,222.061783,-8886.707777,-592.164754
4425.558479,444.123565,-7814.174080,-148.041188
4425.558804,222.061783,-8886.707777,-740.205942
4425.559129,222.061783,-8733.488677,-592.164754
4425.559453,296.082377,-8733.488677,-888.247130
4425.559778,296.082377,-8503.660028,-666.185348
4425.560102,370.102971,-8656.879127,-740.205942
4425.560427,370.102971,-8733.488677,-518.144159
4425.560751,222.061783,-8886.707777,-444.123565
4425.561076,296.082377,-8810.098227,-444.123565
4425.561401,666.185348,-8810.098227,-148.041188
4425.561725,444.123565,-8580.269578,-518.144159
4425.562050,518.144159,-9116.536426,-222.061783
4425.562374,444.123565,-8427.050478,-296.082377
4425.562699,814.226536,-8810.098227,-74.020594
4425.563023,444.123565,-8733.488677,-222.061783
4425.563348,666.185348,-8580.269578,0.000000
4425.563672,740.205942,-8886.707777,0.000000
4425.563997,592.164754,-8503.660028,74.020594
4425.564322,444.123565,-8350.440928,296.082377
4425.564646,1110.308913,-8963.317327,370.102971
4425.564971,888.247130,-8810.098227,148.041188
4425.565295,962.267725,-8886.707777,444.123565
4425.565620,518.144159,-8503.660028,296.082377
4425.565944,888.247130,-8733.488677,518.144159
4425.566269,888.247130,-8656.879127,370.102971
4425.566594,814.226536,-8733.488677,888.247130
4425.566918,740.205942,-7890.783629,962.267725
4425.567243,592.164754,-8886.707777,1110.308913
4425.567567,740.205942,-8427.050478,888.247130
4425.567892,740.205942,-8810.098227,888.247130
4425.568216,518.144159,-8427.050478,814.226536
4425.568541,444.123565,-8580.269578,1110.308913
4425.568866,518.144159,-8503.660028,666.185348
4425.569190,518.144159,-8733.488677,1258.350101
4425.569515,370.102971,-8350.440928,814.226536
4425.569839,592.164754,-9576.193725,1184.329507
4425.570164,518.144159,-8580.269578,1110.308913
4425.570488,296.082377,-8503.660028,888.247130
4425.570813,444.123565,-8580.269578,888.247130
4425.571138,444.123565,-8350.440928,740.205942
4425.571462,666.185348,-8350.440928,740.205942
4425.571787,592.164754,-8350.440928,666.185348
4425.572111,444.123565,-8656.879127,740.205942
4425.572436,148.041188,-8580.269578,740.205942
4425.572760,0.000000,-8350.440928,444.123565
4425.573085,148.041188,-8427.050478,592.164754
4425.573410,296.082377,-8503.660028,592.164754
4425.573734,0.000000,-8197.221829,592.164754
4425.574059,0.000000,-7890.783629,666.185348
4425.574383,74.020594,-8120.612279,592.164754
4425.574708,370.102971,-8350.440928,444.123565
4425.575032,222.061783,-8120.612279,592.164754
4425.575357,0.000000,-8273.831378,740.205942
4425.575681,0.000000,-8044.002729,296.082377
4425.576006,74.020594,-8503.660028,518.144159
4425.576331,0.000000,-8273.831378,370.102971
4425.576655,444.123565,-8503.660028,74.020594
4425.576980,0.000000,-8120.612279,444.123565
4425.577304,296.082377,-8197.221829,296.082377
4425.577629,370.102971,-8273.831378,74.020594
4425.577953,444.123565,-8120.612279,148.041188
4425.578278,518.144159,-8656.879127,-296.082377
4425.578603,518.144159,-8656.879127,0.000000
4425.578927,518.144159,-8427.050478,-148.041188
4425.579252,296.082377,-8427.050478,-296.082377
4425.579576,222.061783,-8503.660028,-296.082377
4425.579901,518.144159,-8427.050478,0.000000
4425.580225,148.041188,-8810.098227,-444.123565
4425.580550,296.082377,-8656.879127,-370.102971
4425.580875,222.061783,-8427.050478,-592.164754
4425.581199,370.102971,-9269.755526,-666.185348
4425.581524,222.061783,-8503.660028,-740.205942
4425.581848,444.123565,-8810.098227,-592.164754
4425.582173,222.061783,-8656.879127,-888.247130
4425.582497,296.082377,-9729.412825,-518.144159
4425.582822,148.041188,-8733.488677,-666.185348
4425.583147,444.123565,-8656.879127,-814.226536
4425.583471,222.061783,-8656.879127,-814.226536
4425.583796,592.164754,-8963.317327,-740.205942
4425.584120,222.061783,-8273.831378,-888.247130
4425.584445,444.123565,-8810.098227,-888.247130
4425.584769,370.102971,-8656.879127,-962.267725
4425.585094,518.144159,-8580.269578,-962.267725
4425.585418,592.164754,-8656.879127,-1184.329507
4425.585743,444.123565,-8503.660028,-962.267725
4425.586068,222.061783,-8503.660028,-740.205942
4425.586392,370.102971,-8810.098227,-888.247130
4425.586717,296.082377,-8810.098227,-814.226536
4425.587041,592.164754,-8580.269578,-814.226536
4425.587366,222.061783,-8656.879127,-962.267725
4425.587690,444.123565,-8273.831378,-888.247130
4425.588015,296.082377,-8503.660028,-962.267725
4425.588340,518.144159,-8580.269578,-740.205942
4425.588664,444.123565,-8656.879127,-888.247130
4425.588989,296.082377,-8656.879127,-814.226536
4425.589313,222.061783,-8503.660028,-444.123565
4425.589638,592.164754,-9116.536426,-518.144159
4425.589962,740.205942,-8427.050478,-518.144159
4425.590287,370.102971,-8120.612279,-592.164754
4425.590612,222.061783,-8810.098227,-222.061783
4425.590936,370.102971,-8503.660028,-370.102971
4425.591261,370.102971,-8886.707777,-296.082377
4425.591585,518.144159,-8656.879127,0.000000
4425.591910,370.102971,-8580.269578,0.000000
4425.592234,592.164754,-8580.269578,0.000000
4425.592559,592.164754,-8963.317327,148.041188
4425.592884,296.082377,-8580.269578,74.020594
4425.593208,444.123565,-8963.317327,0.000000
4425.593533,444.123565,-8503.660028,74.020594
4425.593857,592.164754,-9116.536426,296.082377
4425.594182,444.123565,-8733.488677,0.000000
4425.594506,296.082377,-8580.269578,0.000000
4425.594831,444.123565,-8503.660028,0.000000
4425.595156,296.082377,-8580.269578,222.061783
4425.595480,666.185348,-8350.440928,0.000000
4425.595805,666.185348,-8503.660028,0.000000
4425.596129,592.164754,-8503.660028,0.000000
4425.596454,370.102971,-8427.050478,0.000000
4425.596778,814.226536,-8733.488677,0.000000
4425.597103,296.082377,-8350.440928,-444.123565
4425.597427,296.082377,-8580.269578,-518.144159
4425.597752,370.102971,-8656.879127,0.000000
4425.598077,148.041188,-8427.050478,-148.041188
4425.598401,370.102971,-8733.488677,-296.082377
4425.598726,296.082377,-8197.221829,-222.061783
4425.599050,444.123565,-8427.050478,-222.061783
4425.599375,296.082377,-8350.440928,-444.123565
4425.599699,370.102971,-8427.050478,-222.061783
4425.600024,148.041188,-8580.269578,-518.144159
4425.600349,222.061783,-8427.050478,0.000000
4425.600673,444.123565,-8503.660028,-444.123565
4425.600998,666.185348,-8733.488677,-444.123565
4425.601322,444.123565,-8503.660028,-370.102971
4425.601647,222.061783,-8427.050478,-222.061783
4425.601971,444.123565,-8427.050478,-592.164754
4425.602296,444.123565,-8580.269578,222.061783
4425.602621,296.082377,-8350.440928,-370.102971
4425.602945,444.123565,-8733.488677,-592.164754
4425.603270,296.082377,-8503.660028,-370.102971
4425.603594,296.082377,-8810.098227,-222.061783
4425.603919,0.000000,-8273.831378,-370.102971
4425.604243,296.082377,-8963.317327,-518.144159
4425.604568,148.041188,-8733.488677,-740.205942
4425.604893,296.082377,-8503.660028,-592.164754
4425.605217,148.041188,-7814.174080,-518.144159
4425.605542,222.061783,-8580.269578,-666.185348
4425.605866,296.082377,-8197.221829,-740.205942
4425.606191,370.102971,-8733.488677,-740.205942
4425.606515,592.164754,-8656.879127,-740.205942
4425.606840,148.041188,-8656.879127,-666.185348
4425.607165,0.000000,-8656.879127,-370.102971
4425.607489,370.102971,-8427.050478,-814.226536
4425.607814,444.123565,-8810.098227,-592.164754
4425.608138,296.082377,-8963.317327,-592.164754
4425.608463,296.082377,-8350.440928,-740.205942
4425.608787,148.041188,-8656.879127,-666.185348
4425.609112,222.061783,-8503.660028,-740.205942
4425.609436,962.267725,-8273.831378,-666.185348
4425.609761,592.164754,-8580.269578,-592.164754
4425.610086,222.061783,-8580.269578,-666.185348
4425.610410,370.102971,-8350.440928,-444.123565
4425.610735,444.123565,-8580.269578,-740.205942
4425.611059,518.144159,-8503.660028,-592.164754
4425.611384,444.123565,-8810.098227,-592.164754
4425.611708,444.123565,-8427.050478,-518.144159
4425.612033,296.082377,-8427.050478,-444.123565
4425.612358,592.164754,-8580.269578,-518.144159
4425.612682,296.082377,-8733.488677,-222.061783
4425.613007,370.102971,-8503.660028,-814.226536
4425.613331,444.123565,-8733.488677,-740.205942
4425.613656,888.247130,-8503.660028,-666.185348
4425.613980,592.164754,-8886.707777,-592.164754
4425.614305,666.185348,-8503.660028,-888.247130
4425.614630,518.144159,-8810.098227,-666.185348
4425.614954,592.164754,-9039.926876,-1036.288319
4425.615279,296.082377,-8427.050478,-592.164754
4425.615603,444.123565,-8963.317327,-1036.288319
4425.615928,592.164754,-9193.145976,-1184.329507
4425.616252,666.185348,-8810.098227,-1110.308913
4425.616577,592.164754,-8810.098227,-1110.308913
4425.616902,666.185348,-8810.098227,-740.205942
4425.617226,666.185348,-8963.317327,-888.247130
4425.617551,740.205942,-8886.707777,-1110.308913
4425.617875,740.205942,-8273.831378,-1036.288319
4425.618200,962.267725,-8963.317327,-888.247130
4425.618524,888.247130,-9039.926876,-1036.288319
4425.618849,888.247130,-8580.269578,-888.247130
4425.619174,814.226536,-9039.926876,-1036.288319
4425.619498,814.226536,-9116.536426,-1258.350101
4425.619823,814.226536,-8886.707777,-1110.308913
4425.620147,666.185348,-9039.926876,-1332.370696
4425.620472,740.205942,-8963.317327,-1036.288319
4425.620796,962.267725,-9729.412825,-1036.288319
4425.621121,666.185348,-8963.317327,-888.247130
4425.621445,592.164754,-8810.098227,-888.247130
4425.621770,666.185348,-9193.145976,-1110.308913
4425.622095,814.226536,-8886.707777,-1110.308913
4425.622419,592.164754,-8963.317327,-1184.329507
4425.622744,814.226536,-9039.926876,-1258.350101
4425.623068,814.226536,-8810.098227,-1332.370696
4425.623393,814.226536,-8963.317327,-1184.329507
4425.623717,148.041188,-9039.926876,-814.226536
4425.624042,666.185348,-8886.707777,-1332.370696
4425.624367,666.185348,-8963.317327,-1184.329507
4425.624691,296.082377,-8733.488677,-1184.329507
4425.625016,962.267725,-8810.098227,-1332.370696
4425.625340,444.123565,-8886.707777,-1184.329507
4425.625665,666.185348,-8427.050478,-1110.308913
4425.625989,666.185348,-8580.269578,-1332.370696
4425.626314,370.102971,-9039.926876,-1406.391290
4425.626639,370.102971,-8503.660028,-1184.329507
4425.626963,296.082377,-8656.879127,-1184.329507
4425.627288,518.144159,-8656.879127,-1332.370696
4425.627612,518.144159,-8580.269578,-1110.308913
4425.627937,444.123565,-8044.002729,-1184.329507
4425.628261,444.123565,-8580.269578,-814.226536
4425.628586,444.123565,-8656.879127,-1110.308913
4425.628911,592.164754,-8580.269578,-814.226536
4425.629235,444.123565,-7967.393179,-666.185348
4425.629560,148.041188,-8503.660028,-592.164754
4425.629884,444.123565,-8197.221829,-666.185348
4425.630209,518.144159,-8427.050478,-592.164754
4425.630533,444.123565,-8503.660028,-666.185348
4425.630858,296.082377,-8580.269578,-518.144159
4425.631183,222.061783,-8197.221829,-222.061783
4425.631507,666.185348,-8120.612279,-444.123565
4425.631832,370.102971,-8273.831378,-592.164754
4425.632156,222.061783,-7890.783629,0.000000
4425.632481,592.164754,-8273.831378,-592.164754
4425.632805,518.144159,-8044.002729,-148.041188
4425.633130,296.082377,-8733.488677,-296.082377
4425.633454,222.061783,-8350.440928,-370.102971
4425.633779,370.102971,-8427.050478,-222.061783
4425.634104,518.144159,-8503.660028,-222.061783
4425.634428,444.123565,-8427.050478,-222.061783
4425.634753,592.164754,-8580.269578,-370.102971
4425.635077,592.164754,-8656.879127,-222.061783
4425.635402,370.102971,-8580.269578,-296.082377
4425.635726,296.082377,-8656.879127,-296.082377
4425.636051,518.144159,-8120.612279,-148.041188
4425.636376,444.123565,-8733.488677,0.000000
4425.636700,444.123565,-8503.660028,0.000000
4425.637025,444.123565,-8503.660028,-222.061783
4425.637349,296.082377,-8503.660028,-148.041188
4425.637674,370.102971,-8810.098227,-222.061783
4425.637998,370.102971,-8580.269578,0.000000
4425.638323,222.061783,-8503.660028,0.000000
4425.638648,148.041188,-8427.050478,0.000000
4425.638972,518.144159,-8656.879127,0.000000
4425.639297,296.082377,-8120.612279,-222.061783
4425.639621,518.144159,-8044.002729,0.000000
4425.639946,74.020594,-8350.440928,0.000000
4425.640270,148.041188,-8733.488677,148.041188
4425.640595,518.144159,-8886.707777,-518.144159
4425.640920,370.102971,-8886.707777,0.000000
4425.641244,444.123565,-8503.660028,148.041188
4425.641569,370.102971,-8580.269578,148.041188
4425.641893,444.123565,-8656.879127,74.020594
4425.642218,518.144159,-8733.488677,148.041188
4425.642542,666.185348,-8350.440928,74.020594
4425.642867,518.144159,-8427.050478,148.041188
4425.643192,296.082377,-8120.612279,74.020594
4425.643516,444.123565,-9193.145976,444.123565
4425.643841,296.082377,-8580.269578,0.000000
4425.644165,222.061783,-8733.488677,74.020594
4425.644490,296.082377,-8427.050478,0.000000
4425.644814,0.000000,-8886.707777,370.102971
4425.645138,296.082377,-8503.660028,74.020594
4425.645463,666.185348,-8656.879127,0.000000
4425.645787,444.123565,-8427.050478,0.000000
4425.646112,814.226536,-8886.707777,-296.082377
4425.646436,444.123565,-8810.098227,-222.061783
4425.646761,370.102971,-8733.488677,-148.041188
4425.647085,296.082377,-8733.488677,-296.082377
4425.647410,444.123565,-8733.488677,-74.020594
4425.647734,740.205942,-8656.879127,-148.041188
4425.648059,518.144159,-8810.098227,0.000000
4425.648383,814.226536,-8886.707777,-518.144159
4425.648708,666.185348,-8427.050478,-444.123565
4425.649032,518.144159,-8273.831378,-370.102971
4425.649357,740.205942,-8810.098227,-518.144159
4425.649681,740.205942,-8810.098227,-666.185348
4425.650006,296.082377,-8503.660028,-296.082377
4425.650330,296.082377,-8580.269578,-296.082377
4425.650655,74.020594,-8733.488677,0.000000
4425.650979,74.020594,-8427.050478,-444.123565
4425.651304,518.144159,-8886.707777,-222.061783
4425.651628,148.041188,-8580.269578,-370.102971
4425.651953,592.164754,-8656.879127,-296.082377
4425.652277,518.144159,-8350.440928,-444.123565
4425.652602,444.123565,-8273.831378,-222.061783
4425.652926,370.102971,-8427.050478,-444.123565
4425.653250,518.144159,-8580.269578,0.000000
4425.653575,222.061783,-8350.440928,0.000000
4425.653899,148.041188,-8580.269578,-444.123565
4425.654224,370.102971,-8580.269578,-370.102971
4425.654548,518.144159,-8350.440928,-518.144159
4425.654873,592.164754,-8656.879127,-296.082377
4425.655197,222.061783,-8427.050478,-222.061783
4425.655522,444.123565,-8503.660028,-148.041188
4425.655846,444.123565,-8350.440928,-518.144159
4425.656171,666.185348,-8733.488677,-518.144159
4425.656495,148.041188,-8810.098227,-740.205942
4425.656820,444.123565,-8273.831378,-370.102971
4425.657144,222.061783,-8273.831378,-370.102971
4425.657469,74.020594,-8580.269578,-296.082377
4425.657793,296.082377,-8273.831378,-296.082377
4425.658118,296.082377,-8503.660028,-592.164754
4425.658442,296.082377,-8810.098227,-444.123565
4425.658767,370.102971,-8580.269578,0.000000
4425.659091,222.061783,-8273.831378,148.041188
4425.659416,444.123565,-8427.050478,-296.082377
4425.659740,296.082377,-8273.831378,-296.082377
4425.660065,74.020594,-8733.488677,-222.061783
4425.660389,222.061783,-8273.831378,0.000000
4425.660714,222.061783,-8350.440928,-296.082377
4425.661038,296.082377,-8656.879127,-370.102971
4425.661362,444.123565,-8503.660028,0.000000
4425.661687,222.061783,-8810.098227,0.000000
4425.662011,592.164754,-8273.831378,0.000000
4425.662336,148.041188,-8580.269578,0.000000
4425.662660,370.102971,-8503.660028,148.041188
4425.662985,296.082377,-8350.440928,0.000000
4425.663309,666.185348,-8427.050478,-592.164754
4425.663634,370.102971,-8273.831378,0.000000
4425.663958,518.144159,-8044.002729,74.020594
4425.664283,148.041188,-8810.098227,-222.061783
4425.664607,518.144159,-8044.002729,222.061783
4425.664932,444.123565,-8427.050478,0.000000
4425.665256,518.144159,-8580.269578,-148.041188
4425.665581,296.082377,-8733.488677,-148.041188
4425.665905,148.041188,-8503.660028,-222.061783
4425.666230,296.082377,-8656.879127,0.000000
4425.666554,222.061783,-8120.612279,-222.061783
4425.666879,370.102971,-8810.098227,0.000000
4425.667203,444.123565,-8656.879127,0.000000
4425.667528,814.226536,-8886.707777,-148.041188
4425.667852,444.123565,-8733.488677,-222.061783
4425.668177,148.041188,-8733.488677,0.000000
4425.668501,370.102971,-8810.098227,0.000000
4425.668826,444.123565,-8886.707777,0.000000
4425.669150,592.164754,-8427.050478,-148.041188
4425.669474,222.061783,-8503.660028,74.020594
4425.669799,296.082377,-8656.879127,-148.041188
4425.670123,444.123565,-8580.269578,0.000000
4425.670448,444.123565,-8350.440928,-296.082377
4425.670772,370.102971,-8427.050478,0.000000
4425.671097,592.164754,-8733.488677,0.000000
4425.671421,518.144159,-8963.317327,-370.102971
4425.671746,444.123565,-8503.660028,-296.082377
4425.672070,444.123565,-8810.098227,-148.041188
4425.672395,296.082377,-8810.098227,-148.041188
4425.672719,222.061783,-8733.488677,-148.041188
4425.673044,370.102971,-9039.926876,-148.041188
4425.673368,444.123565,-8886.707777,0.000000
4425.673693,296.082377,-8427.050478,-222.061783
4425.674017,740.205942,-8810.098227,-296.082377
4425.674342,592.164754,-8350.440928,0.000000
4425.674666,740.205942,-9576.193725,-148.041188
4425.674991,148.041188,-8656.879127,0.000000
4425.675315,370.102971,-8580.269578,0.000000
4425.675640,518.144159,-8580.269578,0.000000
4425.675964,814.226536,-9269.755526,74.020594
4425.676289,444.123565,-8656.879127,-222.061783
4425.676613,518.144159,-8886.707777,0.000000
4425.676938,370.102971,-8503.660028,0.000000
4425.677262,296.082377,-8886.707777,0.000000
4425.677586,296.082377,-8656.879127,0.000000
4425.677911,518.144159,-8580.269578,-222.061783
4425.678235,518.144159,-8963.317327,-370.102971
4425.678560,518.144159,-8580.269578,-148.041188
4425.678884,296.082377,-8810.098227,-222.061783
4425.679209,370.102971,-8886.707777,0.000000
4425.679533,592.164754,-8656.879127,-148.041188
4425.679858,518.144159,-8886.707777,0.000000
4425.680182,444.123565,-8580.269578,-222.061783
4425.680507,370.102971,-8733.488677,-296.082377
4425.680831,222.061783,-8810.098227,-222.061783
4425.681156,518.144159,-8580.269578,-296.082377
4425.681480,296.082377,-8733.488677,-148.041188
4425.681805,296.082377,-8810.098227,-222.061783
4425.682129,444.123565,-8733.488677,-296.082377
4425.682454,222.061783,-8733.488677,-370.102971
4425.682778,370.102971,-8886.707777,-296.082377
4425.683103,518.144159,-8503.660028,0.000000
4425.683427,296.082377,-8733.488677,0.000000
4425.683752,0.000000,-8427.050478,0.000000
4425.684076,222.061783,-8503.660028,0.000000
4425.684401,444.123565,-8733.488677,-148.041188
4425.684725,444.123565,-8273.831378,74.020594
4425.685050,0.000000,-8656.879127,0.000000
4425.685374,222.061783,-8886.707777,0.000000
4425.685698,222.061783,-8580.269578,0.000000
4425.686023,444.123565,-9039.926876,-148.041188
4425.686347,296.082377,-8580.269578,-222.061783
4425.686672,296.082377,-8656.879127,0.000000
4425.686996,518.144159,-8656.879127,-222.061783
4425.687321,148.041188,-8886.707777,0.000000
4425.687645,518.144159,-8733.488677,-296.082377
4425.687970,444.123565,-8427.050478,-222.061783
4425.688294,296.082377,-8427.050478,-296.082377
4425.688619,222.061783,-8886.707777,-296.082377
4425.688943,296.082377,-8350.440928,0.000000
4425.689268,222.061783,-8427.050478,-444.123565
4425.689592,444.123565,-8427.050478,-444.123565
4425.689917,222.061783,-8810.098227,-370.102971
4425.690241,296.082377,-8656.879127,-296.082377
4425.690566,296.082377,-8733.488677,0.000000
4425.690890,296.082377,-8503.660028,-444.123565
4425.691215,296.082377,-8580.269578,-444.123565
4425.691539,444.123565,-8963.317327,0.000000
4425.691864,518.144159,-8273.831378,-370.102971
4425.692188,296.082377,-8580.269578,-444.123565
4425.692513,518.144159,-8656.879127,-148.041188
4425.692837,370.102971,-8886.707777,-370.102971
4425.693162,0.000000,-8886.707777,-296.082377
4425.693486,370.102971,-8733.488677,-370.102971
4425.693810,148.041188,-8733.488677,0.000000
4425.694135,296.082377,-8733.488677,0.000000
4425.694459,888.247130,-8656.879127,0.000000
4425.694784,518.144159,-8886.707777,-222.061783
4425.695108,518.144159,-8656.879127,-222.061783
4425.695433,74.020594,-8427.050478,-370.102971
4425.695757,444.123565,-9193.145976,0.000000
4425.696082,370.102971,-8810.098227,-296.082377
4425.696406,370.102971,-8580.269578,-444.123565
4425.696731,296.082377,-8656.879127,-444.123565
4425.697055,222.061783,-8503.660028,-444.123565
4425.697380,296.082377,-8810.098227,-74.020594
4425.697704,296.082377,-8580.269578,-740.205942
4425.698029,444.123565,-8810.098227,-370.102971
4425.698353,518.144159,-8503.660028,-222.061783
4425.698678,148.041188,-8273.831378,0.000000
4425.699002,222.061783,-8427.050478,-518.144159
4425.699327,0.000000,-8733.488677,-518.144159
4425.699651,74.020594,-8503.660028,-444.123565
4425.699976,148.041188,-9116.536426,0.000000
4425.700300,0.000000,-8427.050478,-444.123565
4425.700625,222.061783,-8656.879127,-518.144159
4425.700949,222.061783,-8427.050478,-370.102971
4425.701274,296.082377,-8656.879127,-444.123565
4425.701598,370.102971,-8810.098227,-370.102971
4425.701922,518.144159,-8580.269578,-370.102971
4425.702247,370.102971,-8656.879127,-592.164754
4425.702571,222.061783,-8656.879127,-370.102971
4425.702896,222.061783,-7890.783629,74.020594
4425.703220,444.123565,-8273.831378,-296.082377
4425.703545,296.082377,-8580.269578,-592.164754
4425.703869,296.082377,-8350.440928,-296.082377
4425.704194,0.000000,-8656.879127,-296.082377
4425.704518,444.123565,-8656.879127,0.000000
4425.704843,518.144159,-8350.440928,-370.102971
4425.705167,592.164754,-8810.098227,-370.102971
4425.705492,370.102971,-8197.221829,0.000000
4425.705816,222.061783,-8656.879127,0.000000
4425.706141,222.061783,-8503.660028,-370.102971
4425.706465,592.164754,-8733.488677,0.000000
4425.706790,444.123565,-8427.050478,-74.020594
4425.707114,740.205942,-8656.879127,0.000000
4425.707439,296.082377,-8350.440928,-222.061783
4425.707763,296.082377,-8273.831378,0.000000
4425.708088,296.082377,-8427.050478,-444.123565
4425.708412,444.123565,-8886.707777,-444.123565
4425.708737,444.123565,-8273.831378,-296.082377
4425.709061,444.123565,-8427.050478,74.020594
4425.709386,296.082377,-8580.269578,-518.144159
4425.709710,74.020594,-8656.879127,0.000000
4425.710034,296.082377,-7967.393179,-370.102971
4425.710359,222.061783,-8886.707777,-444.123565
4425.710683,296.082377,-8580.269578,-296.082377
4425.711008,592.164754,-8503.660028,-148.041188
4425.711332,370.102971,-8120.612279,-148.041188
4425.711657,370.102971,-8120.612279,-370.102971
4425.711981,592.164754,-8963.317327,-740.205942
4425.712306,814.226536,-8427.050478,-370.102971
4425.712630,666.185348,-8427.050478,-370.102971
4425.712955,222.061783,-8656.879127,-518.144159
4425.713279,370.102971,-9039.926876,-666.185348
4425.713604,518.144159,-8656.879127,-592.164754
4425.713928,444.123565,-8963.317327,-592.164754
4425.714253,518.144159,-8810.098227,-740.205942
4425.714577,592.164754,-8810.098227,-592.164754
4425.714902,296.082377,-8580.269578,-962.267725
4425.715226,666.185348,-8656.879127,-666.185348
4425.715551,740.205942,-8810.098227,-740.205942
4425.715875,444.123565,-8503.660028,-370.102971
4425.716200,370.102971,-8427.050478,-518.144159
4425.716524,370.102971,-8810.098227,-518.144159
4425.716849,148.041188,-8350.440928,-296.082377
4425.717173,296.082377,-8733.488677,-518.144159
4425.717498,296.082377,-8427.050478,-592.164754
4425.717822,518.144159,-8427.050478,-370.102971
4425.718146,518.144159,-8580.269578,-370.102971
4425.718471,740.205942,-8656.879127,-444.123565
4425.718795,666.185348,-8580.269578,-518.144159
4425.719120,962.267725,-8886.707777,-296.082377
4425.719444,814.226536,-8197.221829,-296.082377
4425.719769,740.205942,-9346.365076,-370.102971
4425.720093,814.226536,-8503.660028,-592.164754
4425.720418,740.205942,-8503.660028,-518.144159
4425.720742,518.144159,-8656.879127,-592.164754
4425.721067,222.061783,-8427.050478,-296.082377
4425.721391,444.123565,-8503.660028,-296.082377
4425.721716,518.144159,-8656.879127,-740.205942
4425.722040,740.205942,-7967.393179,-814.226536
4425.722365,740.205942,-8656.879127,-740.205942
4425.722689,1184.329507,-8350.440928,-518.144159
4425.723014,592.164754,-8350.440928,-444.123565
4425.723338,518.144159,-8044.002729,-888.247130
4425.723663,592.164754,-8350.440928,-592.164754
4425.723987,740.205942,-8580.269578,-814.226536
4425.724312,666.185348,-8580.269578,-444.123565
4425.724636,592.164754,-8503.660028,-592.164754
4425.724961,444.123565,-8350.440928,-518.144159
4425.725285,444.123565,-8503.660028,-740.205942
4425.725610,370.102971,-8273.831378,-666.185348
4425.725934,666.185348,-8350.440928,-518.144159
4425.726258,592.164754,-8350.440928,-666.185348
4425.726583,370.102971,-8580.269578,-518.144159
4425.726907,592.164754,-9116.536426,-814.226536
4425.727232,518.144159,-8503.660028,-592.164754
4425.727556,444.123565,-8273.831378,-518.144159
4425.727881,518.144159,-8503.660028,-370.102971
4425.728205,592.164754,-8580.269578,-592.164754
4425.728530,296.082377,-8580.269578,-592.164754
4425.728854,222.061783,-8580.269578,-444.123565
4425.729179,444.123565,-8503.660028,-370.102971
4425.729503,592.164754,-8656.879127,-592.164754
4425.729828,444.123565,-8427.050478,0.000000
4425.730152,444.123565,-8580.269578,-518.144159
4425.730477,370.102971,-8656.879127,-592.164754
4425.730801,370.102971,-8503.660028,-592.164754
4425.731126,74.020594,-9269.755526,-444.123565
4425.731450,370.102971,-8580.269578,-666.185348
4425.731775,296.082377,-8963.317327,-666.185348
4425.732099,592.164754,-8656.879127,-814.226536
4425.732424,370.102971,-8580.269578,-592.164754
4425.732748,370.102971,-8656.879127,-740.205942
4425.733073,592.164754,-8963.317327,-740.205942
4425.733397,518.144159,-8580.269578,-666.185348
4425.733722,222.061783,-8810.098227,-444.123565
4425.734046,74.020594,-8733.488677,-444.123565
4425.734370,444.123565,-8580.269578,-592.164754
4425.734695,370.102971,-8810.098227,-666.185348
4425.735019,592.164754,-8580.269578,-444.123565
4425.735344,666.185348,-8580.269578,-592.164754
4425.735668,222.061783,-8580.269578,-592.164754
4425.735993,370.102971,-8733.488677,-666.185348
4425.736317,518.144159,-8810.098227,-518.144159
4425.736642,370.102971,-8503.660028,-370.102971
4425.736966,296.082377,-8350.440928,-518.144159
4425.737291,444.123565,-8733.488677,-592.164754
4425.737615,296.082377,-8427.050478,-370.102971
4425.737940,444.123565,-8656.879127,-296.082377
4425.738264,814.226536,-8886.707777,-370.102971
4425.738589,592.164754,-8886.707777,-444.123565
4425.738913,592.164754,-8580.269578,-444.123565
4425.739238,740.205942,-8733.488677,-222.061783
4425.739562,740.205942,-8886.707777,-518.144159
4425.739887,592.164754,-8886.707777,-444.123565
4425.740211,370.102971,-8350.440928,-370.102971
4425.740536,296.082377,-8886.707777,-222.061783
4425.740860,296.082377,-8427.050478,-666.185348
4425.741185,518.144159,-9039.926876,-148.041188
4425.741509,814.226536,-8733.488677,-740.205942
4425.741834,370.102971,-8656.879127,0.000000
4425.742158,370.102971,-8427.050478,-444.123565
4425.742482,666.185348,-9116.536426,-222.061783
4425.742807,592.164754,-8273.831378,-592.164754
4425.743131,296.082377,-8886.707777,-222.061783
4425.743456,666.185348,-8273.831378,-444.123565
4425.743780,592.164754,-8810.098227,74.020594
4425.744105,370.102971,-8656.879127,-518.144159
4425.744429,518.144159,-8810.098227,-444.123565
4425.744754,518.144159,-8427.050478,-518.144159
4425.745078,518.144159,-8656.879127,-296.082377
4425.745403,518.144159,-8656.879127,-370.102971
4425.745727,370.102971,-8656.879127,-148.041188
4425.746051,222.061783,-8350.440928,-222.061783
4425.746376,370.102971,-8427.050478,-518.144159
4425.746700,444.123565,-8963.317327,-296.082377
4425.747025,296.082377,-8273.831378,0.000000
4425.747349,296.082377,-8580.269578,-296.082377
4425.747673,222.061783,-8580.269578,-518.144159
4425.747998,444.123565,-8503.660028,-222.061783
4425.748322,296.082377,-8503.660028,-444.123565
4425.748647,222.061783,-8656.879127,-444.123565
4425.748971,148.041188,-8580.269578,-222.061783
4425.749295,74.020594,-8580.269578,-296.082377
4425.749620,296.082377,-8733.488677,-296.082377
4425.749944,0.000000,-8733.488677,-666.185348
4425.750269,370.102971,-8656.879127,-592.164754
4425.750593,518.144159,-8503.660028,-148.041188
4425.750918,222.061783,-8580.269578,-444.123565
4425.751242,148.041188,-8733.488677,-222.061783
4425.751566,740.205942,-8427.050478,-740.205942
4425.751891,666.185348,-8656.879127,-222.061783
4425.752215,222.061783,-8503.660028,-518.144159
4425.752540,444.123565,-8733.488677,-148.041188
4425.752864,222.061783,-8656.879127,-444.123565
4425.753188,222.061783,-8427.050478,-444.123565
4425.753513,518.144159,-9193.145976,-592.164754
4425.753837,1110.308913,-8963.317327,-444.123565
4425.754162,444.123565,-8656.879127,-370.102971
4425.754486,222.061783,-8580.269578,-666.185348
4425.754810,444.123565,-8656.879127,-444.123565
4425.755135,592.164754,-8503.660028,0.000000
4425.755459,518.144159,-8810.098227,-518.144159
4425.755784,518.144159,-8810.098227,-518.144159
4425.756108,518.144159,-8733.488677,-518.144159
4425.756433,444.123565,-8273.831378,-740.205942
4425.756757,518.144159,-8120.612279,-370.102971
4425.757081,444.123565,-8886.707777,-518.144159
4425.757406,444.123565,-8427.050478,-296.082377
4425.757730,370.102971,-8273.831378,-592.164754
4425.758055,222.061783,-8580.269578,0.000000
4425.758379,370.102971,-8656.879127,-518.144159
4425.758703,592.164754,-8963.317327,-592.164754
4425.759028,518.144159,-8656.879127,-592.164754
4425.759352,296.082377,-8656.879127,-74.020594
4425.759677,518.144159,-8656.879127,0.000000
4425.760001,370.102971,-8656.879127,-296.082377
4425.760326,370.102971,-8580.269578,-444.123565
4425.760650,518.144159,-8963.317327,-444.123565
4425.760974,518.144159,-8656.879127,-296.082377
4425.761299,148.041188,-8886.707777,-148.041188
4425.761623,148.041188,-8810.098227,-370.102971
4425.761948,592.164754,-8580.269578,-296.082377
4425.762272,444.123565,-9116.536426,-148.041188
4425.762596,370.102971,-8810.098227,-296.082377
4425.762921,444.123565,-8350.440928,-296.082377
4425.763245,518.144159,-8886.707777,-222.061783
4425.763570,666.185348,-8427.050478,-444.123565
4425.763894,740.205942,-8656.879127,-148.041188
4425.764218,592.164754,-8810.098227,-370.102971
4425.764543,222.061783,-8656.879127,-592.164754
4425.764867,518.144159,-8733.488677,-222.061783
4425.765192,370.102971,-8810.098227,-370.102971
4425.765516,370.102971,-8963.317327,-518.144159
4425.765841,740.205942,-8733.488677,-518.144159
4425.766165,222.061783,-8656.879127,-222.061783
4425.766489,518.144159,-9039.926876,0.000000
4425.766814,222.061783,-8580.269578,-222.061783
4425.767138,222.061783,-8656.879127,-296.082377
4425.767463,518.144159,-8810.098227,-296.082377
4425.767787,222.061783,-8273.831378,-370.102971
4425.768111,222.061783,-8810.098227,0.000000
4425.768436,222.061783,-8733.488677,-370.102971
4425.768760,370.102971,-8656.879127,-296.082377
4425.769085,222.061783,-8580.269578,-518.144159
4425.769409,518.144159,-8427.050478,222.061783
4425.769733,370.102971,-8503.660028,0.000000
4425.770058,370.102971,-8427.050478,-296.082377
4425.770382,518.144159,-8503.660028,-444.123565
4425.770707,74.020594,-8197.221829,-148.041188
4425.771031,444.123565,-8503.660028,-296.082377
4425.771356,370.102971,-8044.002729,-296.082377
4425.771680,444.123565,-8503.660028,-148.041188
4425.772004,222.061783,-8503.660028,-148.041188
4425.772329,148.041188,-8580.269578,-148.041188
4425.772653,814.226536,-8503.660028,-518.144159
4425.772978,740.205942,-8580.269578,-296.082377
4425.773302,444.123565,-8350.440928,-222.061783
4425.773626,592.164754,-9116.536426,-222.061783
4425.773951,518.144159,-8273.831378,-370.102971
4425.774275,518.144159,-8963.317327,-296.082377
4425.774600,666.185348,-8350.440928,-370.102971
4425.774924,592.164754,-8350.440928,-148.041188
4425.775249,444.123565,-8733.488677,0.000000
4425.775573,740.205942,-8350.440928,-444.123565
4425.775897,592.164754,-8350.440928,-222.061783
4425.776222,666.185348,-8427.050478,-814.226536
4425.776546,296.082377,-8580.269578,0.000000
4425.776871,296.082377,-8427.050478,-370.102971
4425.777195,444.123565,-8886.707777,-296.082377
4425.777519,592.164754,-8427.050478,-222.061783
4425.777844,444.123565,-8427.050478,-444.123565
4425.778168,444.123565,-8273.831378,-148.041188
4425.778493,444.123565,-8350.440928,-222.061783
4425.778817,518.144159,-8580.269578,-148.041188
4425.779141,74.020594,-8273.831378,0.000000
4425.779466,296.082377,-8427.050478,-222.061783
4425.779790,222.061783,-8427.050478,0.000000
4425.780115,518.144159,-8963.317327,148.041188
4425.780439,296.082377,-8350.440928,148.041188
4425.780764,592.164754,-9039.926876,74.020594
4425.781088,370.102971,-8503.660028,0.000000
4425.781412,296.082377,-8733.488677,0.000000
4425.781737,148.041188,-8197.221829,74.020594
4425.782061,-222.061783,-8810.098227,296.082377
4425.782386,148.041188,-8656.879127,0.000000
4425.782710,74.020594,-8350.440928,0.000000
4425.783034,74.020594,-8580.269578,0.000000
4425.783359,222.061783,-8350.440928,-148.041188
4425.783683,296.082377,-8656.879127,148.041188
4425.784008,370.102971,-8503.660028,-148.041188
4425.784332,370.102971,-8656.879127,0.000000
4425.784656,296.082377,-8503.660028,-370.102971
4425.784981,740.205942,-8503.660028,-444.123565
4425.785305,370.102971,-8273.831378,-74.020594
4425.785630,296.082377,-8886.707777,-222.061783
4425.785954,0.000000,-8656.879127,-296.082377
4425.786279,370.102971,-8350.440928,0.000000
4425.786603,518.144159,-8810.098227,-296.082377
4425.786927,444.123565,-8656.879127,-222.061783
4425.787252,296.082377,-8810.098227,0.000000
4425.787576,518.144159,-8580.269578,0.000000
4425.787901,888.247130,-8427.050478,-296.082377
4425.788225,740.205942,-8656.879127,-222.061783
4425.788549,518.144159,-8350.440928,-296.082377
4425.788874,370.102971,-8427.050478,74.020594
4425.789198,666.185348,-8503.660028,-518.144159
4425.789523,592.164754,-8733.488677,0.000000
4425.789847,518.144159,-8503.660028,-148.041188
4425.790171,222.061783,-8810.098227,0.000000
4425.790496,296.082377,-9269.755526,0.000000
4425.790820,666.185348,-8733.488677,0.000000
4425.791145,444.123565,-8656.879127,-148.041188
4425.791469,296.082377,-8963.317327,-222.061783
4425.791794,370.102971,-8656.879127,-296.082377
4425.792118,222.061783,-8656.879127,74.020594
4425.792442,370.102971,-8503.660028,0.000000
4425.792767,296.082377,-8656.879127,-222.061783
4425.793091,518.144159,-8273.831378,0.000000
4425.793416,148.041188,-8886.707777,222.061783
4425.793740,74.020594,-9039.926876,0.000000
4425.794064,444.123565,-8656.879127,-370.102971
4425.794389,296.082377,-8810.098227,0.000000
4425.794713,74.020594,-8810.098227,-222.061783
4425.795038,370.102971,-8656.879127,-518.144159
4425.795362,296.082377,-8427.050478,-370.102971
4425.795687,74.020594,-8503.660028,0.000000
4425.796011,148.041188,-8580.269578,-592.164754
4425.796335,222.061783,-8580.269578,-148.041188
4425.796660,592.164754,-8427.050478,-296.082377
4425.796984,592.164754,-8580.269578,-666.185348
4425.797309,370.102971,-8273.831378,-296.082377
4425.797633,444.123565,-8656.879127,0.000000
4425.797957,444.123565,-8580.269578,-444.123565
4425.798282,444.123565,-8656.879127,-370.102971
4425.798606,222.061783,-8656.879127,-444.123565
4425.798931,666.185348,-8580.269578,0.000000
4425.799255,444.123565,-7967.393179,-222.061783
4425.799579,444.123565,-8886.707777,-148.041188
4425.799904,222.061783,-8427.050478,-148.041188
4425.800228,444.123565,-8810.098227,0.000000
4425.800553,592.164754,-8427.050478,-148.041188
4425.800877,518.144159,-8503.660028,0.000000
4425.801202,518.144159,-8580.269578,0.000000
4425.801526,74.020594,-8886.707777,0.000000
4425.801850,296.082377,-8273.831378,-148.041188
4425.802175,444.123565,-8656.879127,-222.061783
4425.802499,222.061783,-8350.440928,74.020594
4425.802824,444.123565,-8580.269578,148.041188
4425.803148,222.061783,-8733.488677,0.000000
4425.803472,444.123565,-8656.879127,74.020594
4425.803797,444.123565,-8963.317327,0.000000
4425.804121,370.102971,-8580.269578,0.000000
4425.804446,222.061783,-8656.879127,0.000000
4425.804770,296.082377,-8427.050478,74.020594
4425.805094,296.082377,-8503.660028,0.000000
4425.805419,444.123565,-8733.488677,-148.041188
4425.805743,518.144159,-8503.660028,-444.123565
4425.806068,814.226536,-8810.098227,-222.061783
4425.806392,444.123565,-8580.269578,-370.102971
4425.806717,518.144159,-8733.488677,-444.123565
4425.807041,518.144159,-8580.269578,-518.144159
4425.807365,296.082377,-8963.317327,-370.102971
4425.807690,296.082377,-8810.098227,-296.082377
4425.808014,370.102971,-8733.488677,-148.041188
4425.808339,222.061783,-8656.879127,-296.082377
4425.808663,370.102971,-8656.879127,-370.102971
4425.808987,592.164754,-8886.707777,-296.082377
4425.809312,296.082377,-8503.660028,-222.061783
4425.809636,296.082377,-8886.707777,-370.102971
4425.809961,222.061783,-8503.660028,-370.102971
4425.810285,296.082377,-7737.564530,-222.061783
4425.810610,222.061783,-8273.831378,-222.061783
4425.810934,148.041188,-8580.269578,-222.061783
4425.811258,444.123565,-8810.098227,-222.061783
4425.811583,444.123565,-8580.269578,-370.102971
4425.811907,222.061783,-8656.879127,-370.102971
4425.812232,518.144159,-8810.098227,-296.082377
4425.812556,370.102971,-8886.707777,-444.123565
4425.812880,518.144159,-8273.831378,0.000000
4425.813205,518.144159,-8427.050478,0.000000
4425.813529,592.164754,-8886.707777,-296.082377
4425.813854,370.102971,-8580.269578,0.000000
4425.814178,444.123565,-8580.269578,0.000000
4425.814502,666.185348,-8733.488677,-444.123565
4425.814827,814.226536,-8733.488677,-444.123565
4425.815151,592.164754,-8810.098227,-444.123565
4425.815476,296.082377,-8810.098227,-222.061783
4425.815800,592.164754,-8810.098227,-444.123565
4425.816125,148.041188,-8427.050478,-518.144159
4425.816449,444.123565,-8273.831378,-222.061783
4425.816773,592.164754,-8580.269578,-444.123565
4425.817098,444.123565,-8580.269578,-296.082377
4425.817422,74.020594,-8580.269578,-370.102971
4425.817747,444.123565,-8350.440928,-444.123565
4425.818071,0.000000,-8656.879127,0.000000
4425.818395,444.123565,-8503.660028,-740.205942
4425.818720,666.185348,-8733.488677,-518.144159
4425.819044,592.164754,-8350.440928,-666.185348
4425.819369,518.144159,-8733.488677,-740.205942
4425.819693,740.205942,-8733.488677,-666.185348
4425.820017,518.144159,-8656.879127,-296.082377
4425.820342,296.082377,-8733.488677,-592.164754
4425.820666,444.123565,-8886.707777,-518.144159
4425.820991,666.185348,-8503.660028,-740.205942
4425.821315,592.164754,-8656.879127,-518.144159
4425.821640,740.205942,-8580.269578,-1184.329507
4425.821964,666.185348,-8886.707777,-296.082377
4425.822288,222.061783,-8656.879127,-518.144159
4425.822613,518.144159,-8656.879127,-592.164754
4425.822937,370.102971,-8580.269578,-888.247130
4425.823262,740.205942,-8810.098227,-666.185348
4425.823586,370.102971,-8810.098227,-814.226536
4425.823910,444.123565,-8886.707777,-740.205942
4425.824235,518.144159,-8350.440928,-666.185348
4425.824559,296.082377,-9193.145976,-148.041188
4425.824884,296.082377,-8810.098227,-814.226536
4425.825208,296.082377,-8810.098227,-518.144159
4425.825533,444.123565,-9039.926876,-814.226536
4425.825857,518.144159,-9039.926876,-518.144159
4425.826181,296.082377,-8656.879127,-740.205942
4425.826506,296.082377,-8886.707777,-592.164754
4425.826830,814.226536,-8580.269578,-370.102971
4425.827155,222.061783,-8580.269578,-370.102971
4425.827479,740.205942,-8810.098227,-888.247130
4425.827803,444.123565,-8503.660028,-518.144159
4425.828128,518.144159,-8963.317327,-814.226536
4425.828452,592.164754,-8580.269578,-592.164754
4425.828777,370.102971,-8886.707777,0.000000
4425.829101,740.205942,-8656.879127,-592.164754
4425.829425,518.144159,-8503.660028,-666.185348
4425.829750,814.226536,-8656.879127,-592.164754
4425.830074,518.144159,-9116.536426,-296.082377
4425.830399,592.164754,-8503.660028,-222.061783
4425.830723,518.144159,-8580.269578,-592.164754
4425.831048,666.185348,-8503.660028,-518.144159
4425.831372,666.185348,-8580.269578,-222.061783
4425.831696,296.082377,-8656.879127,-148.041188
4425.832021,518.144159,-8503.660028,-222.061783
4425.832345,296.082377,-8656.879127,-444.123565
4425.832670,518.144159,-8503.660028,-370.102971
4425.832994,74.020594,-8427.050478,-148.041188
4425.833318,518.144159,-8656.879127,-444.123565
4425.833643,666.185348,-8197.221829,-444.123565
4425.833967,296.082377,-8427.050478,-370.102971
4425.834292,296.082377,-8810.098227,-296.082377
4425.834616,444.123565,-8427.050478,-370.102971
4425.834940,222.061783,-8810.098227,-148.041188
4425.835265,518.144159,-8810.098227,-222.061783
4425.835589,148.041188,-8580.269578,0.000000
4425.835914,888.247130,-8733.488677,-296.082377
4425.836238,296.082377,-8580.269578,-296.082377
4425.836563,222.061783,-8580.269578,-370.102971
4425.836887,666.185348,-8580.269578,-444.123565
4425.837211,444.123565,-8810.098227,-296.082377
4425.837536,370.102971,-8656.879127,-518.144159
4425.837860,148.041188,-8580.269578,-444.123565
4425.838185,444.123565,-8580.269578,-222.061783
4425.838509,222.061783,-8580.269578,-518.144159
4425.838833,370.102971,-9116.536426,-296.082377
4425.839158,592.164754,-8350.440928,-592.164754
4425.839482,296.082377,-8810.098227,-592.164754
4425.839807,444.123565,-8580.269578,-666.185348
4425.840131,74.020594,-8273.831378,-444.123565
4425.840455,296.082377,-8810.098227,-296.082377
4425.840780,444.123565,-8273.831378,-666.185348
4425.841104,444.123565,-8580.269578,-666.185348
4425.841429,222.061783,-8656.879127,0.000000
4425.841753,444.123565,-8503.660028,-814.226536
4425.842078,592.164754,-8810.098227,-962.267725
4425.842402,444.123565,-8733.488677,-666.185348
4425.842726,222.061783,-8427.050478,-740.205942
4425.843051,444.123565,-8350.440928,-518.144159
4425.843375,222.061783,-8427.050478,-740.205942
4425.843700,444.123565,-8656.879127,-888.247130
4425.844024,518.144159,-8273.831378,-370.102971
4425.844348,222.061783,-8273.831378,-370.102971
4425.844673,296.082377,-8427.050478,-814.226536
4425.844997,518.144159,-8580.269578,-518.144159
4425.845322,592.164754,-8580.269578,-740.205942
4425.845646,592.164754,-8656.879127,-518.144159
4425.845970,592.164754,-8656.879127,-370.102971
4425.846295,740.205942,-8503.660028,-814.226536
4425.846619,518.144159,-8503.660028,-666.185348
4425.846943,444.123565,-8580.269578,-740.205942
4425.847268,592.164754,-8427.050478,-740.205942
4425.847592,666.185348,-8503.660028,-666.185348
4425.847916,370.102971,-8427.050478,-666.185348
4425.848241,592.164754,-8580.269578,-518.144159
4425.848565,1184.329507,-8733.488677,-592.164754
4425.848890,740.205942,-8503.660028,-666.185348
4425.849214,518.144159,-8350.440928,-518.144159
4425.849538,444.123565,-8503.660028,-296.082377
4425.849863,518.144159,-8733.488677,-592.164754
4425.850187,592.164754,-8656.879127,-296.082377
4425.850511,518.144159,-8197.221829,-740.205942
4425.850836,666.185348,-8580.269578,-370.102971
4425.851160,444.123565,-8197.221829,-444.123565
4425.851484,592.164754,-8963.317327,0.000000
4425.851809,444.123565,-8656.879127,-370.102971
4425.852133,518.144159,-8810.098227,0.000000
4425.852457,444.123565,-8810.098227,-296.082377
4425.852782,814.226536,-8810.098227,0.000000
4425.853106,370.102971,-8733.488677,0.000000
4425.853431,148.041188,-8273.831378,-148.041188
4425.853755,444.123565,-8580.269578,-444.123565
4425.854079,444.123565,-8580.269578,-370.102971
4425.854404,592.164754,-8350.440928,0.000000
4425.854728,222.061783,-8580.269578,0.000000
4425.855052,370.102971,-8733.488677,-296.082377
4425.855377,222.061783,-8580.269578,0.000000
4425.855701,296.082377,-8197.221829,0.000000
4425.856025,296.082377,-8810.098227,-222.061783
4425.856350,222.061783,-8733.488677,0.000000
4425.856674,370.102971,-8427.050478,-148.041188
4425.856998,518.144159,-8350.440928,0.000000
4425.857323,296.082377,-8350.440928,-148.041188
4425.857647,74.020594,-8963.317327,-296.082377
4425.857972,222.061783,-8350.440928,-296.082377
4425.858296,74.020594,-8580.269578,-370.102971
4425.858620,296.082377,-8886.707777,-370.102971
4425.858945,370.102971,-8656.879127,-296.082377
4425.859269,370.102971,-8503.660028,-518.144159
4425.859593,370.102971,-8810.098227,-592.164754
4425.859918,370.102971,-9346.365076,0.000000
4425.860242,222.061783,-8810.098227,-518.144159
4425.860566,222.061783,-8580.269578,-518.144159
4425.860891,296.082377,-8810.098227,-444.123565
4425.861215,592.164754,-8886.707777,-592.164754
4425.861539,592.164754,-8503.660028,-296.082377
4425.861864,296.082377,-8580.269578,-666.185348
4425.862188,296.082377,-8810.098227,-296.082377
4425.862513,444.123565,-8273.831378,-444.123565
4425.862837,296.082377,-8656.879127,-592.164754
4425.863161,296.082377,-8427.050478,-296.082377
4425.863486,74.020594,-8197.221829,0.000000
4425.863810,444.123565,-8350.440928,-296.082377
4425.864134,444.123565,-8350.440928,-666.185348
4425.864459,444.123565,-8427.050478,-592.164754
4425.864783,370.102971,-8733.488677,-296.082377
4425.865107,518.144159,-8120.612279,0.000000
4425.865432,444.123565,-8503.660028,-222.061783
4425.865756,518.144159,-8427.050478,-518.144159
4425.866080,592.164754,-8350.440928,-370.102971
4425.866405,444.123565,-8350.440928,-222.061783
4425.866729,444.123565,-8656.879127,-444.123565
4425.867054,740.205942,-8580.269578,-370.102971
4425.867378,518.144159,-8427.050478,-222.061783
4425.867702,444.123565,-8273.831378,-444.123565
4425.868027,296.082377,-8656.879127,-370.102971
4425.868351,592.164754,-9039.926876,-444.123565
4425.868675,518.144159,-8733.488677,-296.082377
4425.869000,222.061783,-8503.660028,-370.102971
4425.869324,592.164754,-8427.050478,-74.020594
4425.869648,592.164754,-8427.050478,-370.102971
4425.869973,518.144159,-8656.879127,-222.061783
4425.870297,444.123565,-8580.269578,-222.061783
4425.870621,592.164754,-8427.050478,-370.102971
4425.870946,370.102971,-8656.879127,-296.082377
4425.871270,74.020594,-8733.488677,-222.061783
4425.871595,296.082377,-8656.879127,0.000000
4425.871919,444.123565,-8273.831378,-370.102971
4425.872243,296.082377,-8656.879127,-222.061783
4425.872568,518.144159,-9039.926876,-370.102971
4425.872892,222.061783,-8656.879127,0.000000
4425.873216,444.123565,-8963.317327,-370.102971
4425.873541,222.061783,-8886.707777,0.000000
4425.873865,296.082377,-8427.050478,-148.041188
4425.874189,296.082377,-8427.050478,0.000000
4425.874514,296.082377,-8733.488677,-148.041188
4425.874838,148.041188,-8580.269578,-444.123565
4425.875162,666.185348,-9039.926876,-370.102971
4425.875487,222.061783,-8580.269578,0.000000
4425.875811,148.041188,-8963.317327,0.000000
4425.876136,148.041188,-8580.269578,-222.061783
4425.876460,444.123565,-8963.317327,-296.082377
4425.876784,444.123565,-9193.145976,-222.061783
4425.877109,444.123565,-8580.269578,-148.041188
4425.877433,444.123565,-8886.707777,-370.102971
4425.877757,148.041188,-8580.269578,0.000000
4425.878082,222.061783,-9116.536426,-370.102971
4425.878406,296.082377,-9039.926876,-370.102971
4425.878730,296.082377,-8503.660028,-148.041188
4425.879055,148.041188,-8580.269578,0.000000
4425.879379,444.123565,-8656.879127,-222.061783
4425.879704,666.185348,-8886.707777,-74.020594
4425.880028,814.226536,-8810.098227,-444.123565
4425.880352,666.185348,-8810.098227,-296.082377
4425.880677,740.205942,-8580.269578,-222.061783
4425.881001,444.123565,-9269.755526,-296.082377
4425.881325,296.082377,-8656.879127,-148.041188
4425.881650,74.020594,-8580.269578,-296.082377
4425.881974,444.123565,-8963.317327,0.000000
4425.882298,740.205942,-8273.831378,-444.123565
4425.882623,666.185348,-8503.660028,-518.144159
4425.882947,518.144159,-8656.879127,-222.061783
4425.883271,740.205942,-8656.879127,-296.082377
4425.883596,740.205942,-8427.050478,-370.102971
4425.883920,1110.308913,-8580.269578,-222.061783
4425.884245,444.123565,-8580.269578,0.000000
4425.884569,444.123565,-8580.269578,-148.041188
4425.884893,148.041188,-8580.269578,-222.061783
4425.885218,296.082377,-9039.926876,-148.041188
4425.885542,444.123565,-8503.660028,0.000000
4425.885866,370.102971,-8580.269578,-222.061783
4425.886191,370.102971,-8580.269578,74.020594
4425.886515,518.144159,-8427.050478,0.000000
4425.886839,888.247130,-8273.831378,74.020594
4425.887164,444.123565,-8580.269578,0.000000
4425.887488,296.082377,-8427.050478,-148.041188
4425.887812,444.123565,-8427.050478,0.000000
4425.888137,518.144159,-9116.536426,74.020594
4425.888461,370.102971,-8656.879127,0.000000
4425.888786,518.144159,-8733.488677,-370.102971
4425.889110,592.164754,-8503.660028,-148.041188
4425.889434,296.082377,-8503.660028,-222.061783
4425.889759,222.061783,-8810.098227,0.000000
4425.890083,518.144159,-8427.050478,-296.082377
4425.890407,444.123565,-8580.269578,-370.102971
4425.890732,296.082377,-8503.660028,-518.144159
4425.891056,148.041188,-8197.221829,0.000000
4425.891380,370.102971,-8886.707777,0.000000
4425.891705,296.082377,-8580.269578,0.000000
4425.892029,444.123565,-8963.317327,-444.123565
4425.892353,814.226536,-8656.879127,-518.144159
4425.892678,592.164754,-8503.660028,-370.102971
4425.893002,444.123565,-8656.879127,-222.061783
4425.893327,444.123565,-8427.050478,-518.144159
4425.893651,592.164754,-8427.050478,-444.123565
4425.893975,370.102971,-8580.269578,-74.020594
4425.894300,296.082377,-8503.660028,-296.082377
4425.894624,444.123565,-8810.098227,-370.102971
4425.894948,370.102971,-8656.879127,-296.082377
4425.895273,740.205942,-8886.707777,-370.102971
4425.895597,444.123565,-8580.269578,-370.102971
4425.895921,666.185348,-8733.488677,-222.061783
4425.896246,444.123565,-8580.269578,-296.082377
4425.896570,518.144159,-8656.879127,-296.082377
4425.896894,444.123565,-8580.269578,-370.102971
4425.897219,518.144159,-8580.269578,-444.123565
4425.897543,592.164754,-8503.660028,-444.123565
4425.897868,296.082377,-8963.317327,-148.041188
4425.898192,296.082377,-8197.221829,-444.123565
4425.898516,666.185348,-8580.269578,-222.061783
4425.898841,518.144159,-8427.050478,-222.061783
4425.899165,666.185348,-8886.707777,-296.082377
4425.899489,518.144159,-7967.393179,0.000000
4425.899814,444.123565,-8656.879127,-222.061783
4425.900138,444.123565,-8656.879127,-370.102971
4425.900462,444.123565,-8810.098227,-370.102971
4425.900787,444.123565,-8810.098227,-444.123565
4425.901111,222.061783,-8273.831378,-296.082377
4425.901435,518.144159,-8580.269578,-222.061783
4425.901760,148.041188,-8886.707777,-296.082377
4425.902084,370.102971,-8273.831378,-222.061783
4425.902409,296.082377,-8503.660028,-296.082377
4425.902733,222.061783,-8656.879127,-370.102971
4425.903057,666.185348,-8656.879127,-296.082377
4425.903382,370.102971,-8503.660028,-370.102971
4425.903706,592.164754,-8656.879127,-370.102971
4425.904030,444.123565,-8120.612279,-222.061783
4425.904355,444.123565,-8886.707777,-370.102971
4425.904679,222.061783,-8350.440928,-296.082377
4425.905003,444.123565,-8810.098227,0.000000
4425.905328,148.041188,-8427.050478,-518.144159
4425.905652,444.123565,-8656.879127,0.000000
4425.905976,296.082377,-8580.269578,-370.102971
4425.906301,222.061783,-8580.269578,0.000000
4425.906625,296.082377,-8273.831378,0.000000
4425.906950,222.061783,-8503.660028,0.000000
4425.907274,370.102971,-8580.269578,-222.061783
4425.907598,370.102971,-8273.831378,-296.082377
4425.907923,518.144159,-8197.221829,0.000000
4425.908247,296.082377,-8580.269578,-148.041188
4425.908571,296.082377,-8810.098227,-148.041188
4425.908896,222.061783,-8580.269578,-296.082377
4425.909220,222.061783,-8656.879127,0.000000
4425.909544,148.041188,-8580.269578,-592.164754
4425.909869,444.123565,-8427.050478,0.000000
4425.910193,444.123565,-8273.831378,-222.061783
4425.910517,444.123565,-8810.098227,-296.082377
4425.910842,740.205942,-8656.879127,-666.185348
4425.911166,740.205942,-8580.269578,-444.123565
4425.911491,592.164754,-8656.879127,-518.144159
4425.911815,444.123565,-8580.269578,-296.082377
4425.912139,296.082377,-9039.926876,-148.041188
4425.912464,444.123565,-8580.269578,-296.082377
4425.912788,370.102971,-8810.098227,-370.102971
4425.913112,518.144159,-8580.269578,-296.082377
4425.913437,444.123565,-8580.269578,0.000000
4425.913761,444.123565,-8427.050478,-592.164754
4425.914085,518.144159,-8733.488677,-444.123565
4425.914410,296.082377,-8427.050478,-592.164754
4425.914734,666.185348,-8656.879127,-148.041188
4425.915059,74.020594,-8503.660028,-592.164754
4425.915383,444.123565,-8503.660028,-444.123565
4425.915707,296.082377,-8503.660028,-296.082377
4425.916032,444.123565,-8427.050478,-296.082377
4425.916356,444.123565,-9039.926876,-370.102971
4425.916680,518.144159,-8427.050478,0.000000
4425.917005,666.185348,-8120.612279,-222.061783
4425.917329,296.082377,-8503.660028,-518.144159
4425.917653,222.061783,-8350.440928,-444.123565
4425.917978,814.226536,-8733.488677,-370.102971
4425.918302,444.123565,-8580.269578,-370.102971
4425.918626,666.185348,-8580.269578,-222.061783
4425.918951,222.061783,-8427.050478,0.000000
4425.919275,444.123565,-8810.098227,-148.041188
4425.919600,666.185348,-8427.050478,-222.061783
4425.919924,444.123565,-8580.269578,0.000000
4425.920248,296.082377,-8580.269578,-148.041188
4425.920573,370.102971,-8350.440928,-222.061783
4425.920897,222.061783,-8503.660028,0.000000
4425.921221,370.102971,-8580.269578,-74.020594
4425.921546,148.041188,-8580.269578,-222.061783
4425.921870,370.102971,-8656.879127,-296.082377
4425.922194,222.061783,-8580.269578,0.000000
4425.922519,370.102971,-8656.879127,-148.041188
4425.922843,148.041188,-8427.050478,-444.123565
4425.923167,370.102971,-8580.269578,-222.061783
4425.923492,0.000000,-9116.536426,0.000000
4425.923816,814.226536,-8120.612279,-222.061783
4425.924141,296.082377,-8427.050478,-740.205942
4425.924465,370.102971,-8733.488677,-370.102971
4425.924789,518.144159,-8580.269578,-592.164754
4425.925114,444.123565,-8503.660028,-888.247130
4425.925438,518.144159,-8427.050478,-592.164754
4425.925762,518.144159,-8503.660028,-296.082377
4425.926087,518.144159,-8886.707777,-296.082377
4425.926411,518.144159,-8273.831378,-888.247130
4425.926735,592.164754,-8886.707777,-518.144159
4425.927060,518.144159,-8350.440928,-518.144159
4425.927384,592.164754,-8733.488677,-518.144159
4425.927708,666.185348,-8810.098227,-518.144159
4425.928033,592.164754,-8733.488677,-296.082377
4425.928357,444.123565,-8503.660028,-444.123565
4425.928682,518.144159,-8580.269578,-444.123565
4425.929006,296.082377,-8427.050478,-296.082377
4425.929330,518.144159,-8733.488677,-296.082377
4425.929655,74.020594,-8656.879127,-518.144159
4425.929979,222.061783,-8580.269578,-444.123565
4425.930303,296.082377,-8656.879127,-370.102971
4425.930628,1332.370696,-9422.974625,-592.164754
4425.930952,592.164754,-8503.660028,-444.123565
4425.931276,592.164754,-8733.488677,-666.185348
4425.931601,370.102971,-8580.269578,-222.061783
4425.931925,518.144159,-8656.879127,-518.144159
4425.932249,296.082377,-9116.536426,-444.123565
4425.932574,296.082377,-8427.050478,-222.061783
4425.932898,444.123565,-8886.707777,-370.102971
4425.933223,518.144159,-8810.098227,-666.185348
4425.933547,518.144159,-8886.707777,-370.102971
4425.933871,222.061783,-8656.879127,-666.185348
4425.934196,592.164754,-8503.660028,-518.144159
4425.934520,296.082377,-8656.879127,-444.123565
4425.934844,740.205942,-8197.221829,-370.102971
4425.935169,740.205942,-8580.269578,-740.205942
4425.935493,592.164754,-8580.269578,-666.185348
4425.935817,370.102971,-8656.879127,-370.102971
4425.936142,444.123565,-8580.269578,-592.164754
4425.936466,74.020594,-8733.488677,-518.144159
4425.936790,222.061783,-8197.221829,-444.123565
4425.937115,296.082377,-8427.050478,-592.164754
4425.937439,296.082377,-8503.660028,-444.123565
4425.937764,814.226536,-8656.879127,-370.102971
4425.938088,592.164754,-8197.221829,-518.144159
4425.938412,444.123565,-8580.269578,-444.123565
4425.938737,222.061783,-8350.440928,-592.164754
4425.939061,814.226536,-8733.488677,-518.144159
4425.939385,296.082377,-8503.660028,-518.144159
4425.939710,370.102971,-8656.879127,-518.144159
4425.940034,296.082377,-8503.660028,-444.123565
4425.940358,518.144159,-8886.707777,-296.082377
4425.940683,666.185348,-8503.660028,-444.123565
4425.941007,444.123565,-8503.660028,-222.061783
4425.941331,518.144159,-8120.612279,-370.102971
4425.941656,518.144159,-8580.269578,-148.041188
4425.941980,962.267725,-8273.831378,0.000000
4425.942305,740.205942,-8350.440928,-518.144159
4425.942629,296.082377,-8503.660028,-370.102971
4425.942953,444.123565,-8503.660028,-222.061783
4425.943278,444.123565,-7737.564530,0.000000
4425.943602,370.102971,-8733.488677,-222.061783
4425.943926,518.144159,-8503.660028,-518.144159
4425.944251,370.102971,-8733.488677,-444.123565
4425.944575,518.144159,-8427.050478,-518.144159
4425.944899,444.123565,-8503.660028,-222.061783
4425.945224,370.102971,-8503.660028,-740.205942
4425.945548,666.185348,-8733.488677,-666.185348
4425.945872,666.185348,-8273.831378,-666.185348
4425.946197,444.123565,-8427.050478,-296.082377
4425.946521,518.144159,-8656.879127,-740.205942
4425.946845,222.061783,-8733.488677,-296.082377
4425.947170,222.061783,-8733.488677,-296.082377
4425.947494,222.061783,-8273.831378,-592.164754
4425.947818,518.144159,-8733.488677,-444.123565
4425.948143,518.144159,-8350.440928,-370.102971
4425.948467,518.144159,-8580.269578,-296.082377
4425.948791,518.144159,-8656.879127,-592.164754
4425.949115,814.226536,-8427.050478,-296.082377
4425.949440,444.123565,-8580.269578,-518.144159
4425.949764,444.123565,-8733.488677,-296.082377
4425.950088,444.123565,-8656.879127,-296.082377
4425.950413,518.144159,-9499.584175,-296.082377
4425.950737,222.061783,-8656.879127,-296.082377
4425.951061,296.082377,-8656.879127,-222.061783
4425.951386,296.082377,-8580.269578,-370.102971
4425.951710,592.164754,-8503.660028,0.000000
4425.952034,296.082377,-8427.050478,-592.164754
4425.952358,592.164754,-8886.707777,-148.041188
4425.952683,666.185348,-8350.440928,-370.102971
4425.953007,518.144159,-8503.660028,-370.102971
4425.953331,592.164754,-8963.317327,-296.082377
4425.953656,148.041188,-8810.098227,-370.102971
4425.953980,222.061783,-8580.269578,-222.061783
4425.954304,222.061783,-8733.488677,-370.102971
4425.954629,666.185348,-9346.365076,-592.164754
4425.954953,444.123565,-8503.660028,-148.041188
4425.955277,296.082377,-8427.050478,-296.082377
4425.955602,222.061783,-8886.707777,-444.123565
4425.955926,370.102971,-8427.050478,-296.082377
4425.956250,740.205942,-9039.926876,-592.164754
4425.956574,444.123565,-8350.440928,-444.123565
4425.956899,444.123565,-8810.098227,-296.082377
4425.957223,370.102971,-8580.269578,-370.102971
4425.957547,740.205942,-8656.879127,0.000000
4425.957872,296.082377,-8656.879127,-666.185348
4425.958196,370.102971,-8580.269578,-296.082377
4425.958520,370.102971,-8197.221829,-370.102971
4425.958845,370.102971,-7967.393179,-222.061783
4425.959169,518.144159,-8503.660028,-370.102971
4425.959493,444.123565,-8350.440928,-444.123565
4425.959817,518.144159,-8503.660028,-592.164754
4425.960142,518.144159,-8503.660028,-592.164754
4425.960466,148.041188,-8427.050478,-148.041188
4425.960790,296.082377,-8733.488677,-518.144159
4425.961115,296.082377,-8503.660028,-740.205942
4425.961439,444.123565,-8580.269578,-444.123565
4425.961763,444.123565,-9039.926876,-148.041188
4425.962088,370.102971,-8580.269578,-296.082377
4425.962412,592.164754,-8580.269578,-444.123565
4425.962736,370.102971,-8656.879127,-370.102971
4425.963061,222.061783,-8810.098227,-518.144159
4425.963385,592.164754,-8810.098227,-518.144159
4425.963709,0.000000,-8503.660028,-370.102971
4425.964033,296.082377,-8733.488677,-296.082377
4425.964358,444.123565,-8656.879127,-518.144159
4425.964682,74.020594,-8733.488677,-370.102971
4425.965006,370.102971,-8427.050478,-444.123565
4425.965331,518.144159,-8733.488677,-370.102971
4425.965655,592.164754,-8197.221829,-666.185348
4425.965979,370.102971,-8580.269578,-740.205942
4425.966304,370.102971,-8580.269578,-592.164754
4425.966628,370.102971,-8580.269578,-370.102971
4425.966952,444.123565,-8503.660028,-666.185348
4425.967276,518.144159,-8656.879127,-592.164754
4425.967601,518.144159,-8733.488677,-518.144159
4425.967925,148.041188,-8810.098227,-296.082377
4425.968249,592.164754,-8503.660028,-740.205942
4425.968574,666.185348,-8810.098227,-592.164754
4425.968898,1036.288319,-8656.879127,-592.164754
4425.969222,592.164754,-8503.660028,-444.123565
4425.969547,370.102971,-8656.879127,-370.102971
4425.969871,740.205942,-8503.660028,-592.164754
4425.970195,444.123565,-9039.926876,222.061783
4425.970520,370.102971,-8503.660028,-296.082377
4425.970844,370.102971,-8580.269578,-296.082377
4425.971168,296.082377,-9039.926876,-370.102971
4425.971492,518.144159,-8580.269578,-370.102971
4425.971817,592.164754,-8580.269578,-592.164754
4425.972141,518.144159,-8580.269578,-148.041188
4425.972465,296.082377,-8350.440928,0.000000
4425.972790,370.102971,-8427.050478,-518.144159
4425.973114,370.102971,-8273.831378,0.000000
4425.973438,444.123565,-8427.050478,-296.082377
4425.973763,296.082377,-8580.269578,-148.041188
4425.974087,518.144159,-8580.269578,-296.082377
4425.974411,222.061783,-8580.269578,0.000000
4425.974735,148.041188,-8733.488677,0.000000
4425.975060,370.102971,-8350.440928,0.000000
4425.975384,518.144159,-8427.050478,-222.061783
4425.975708,370.102971,-8427.050478,0.000000
4425.976033,518.144159,-8503.660028,0.000000
4425.976357,222.061783,-8580.269578,0.000000
4425.976681,444.123565,-8810.098227,0.000000
4425.977006,518.144159,-8427.050478,-296.082377
4425.977330,962.267725,-8580.269578,-296.082377
4425.977654,444.123565,-8580.269578,0.000000
4425.977978,444.123565,-8810.098227,0.000000
4425.978303,222.061783,-8503.660028,0.000000
4425.978627,518.144159,-9039.926876,0.000000
4425.978951,518.144159,-8656.879127,-296.082377
4425.979276,740.205942,-8273.831378,-148.041188
4425.979600,518.144159,-8273.831378,-148.041188
4425.979924,518.144159,-8656.879127,-148.041188
4425.980249,370.102971,-8810.098227,0.000000
4425.980573,444.123565,-8427.050478,-518.144159
4425.980897,518.144159,-8733.488677,-296.082377
4425.981222,222.061783,-8656.879127,0.000000
4425.981546,148.041188,-7890.783629,74.020594
4425.981870,296.082377,-8503.660028,-222.061783
4425.982194,592.164754,-8886.707777,-370.102971
4425.982519,296.082377,-8656.879127,-370.102971
4425.982843,444.123565,-8580.269578,-222.061783
4425.983167,222.061783,-8503.660028,-296.082377
4425.983492,444.123565,-8580.269578,0.000000
4425.983816,444.123565,-8580.269578,0.000000
4425.984140,518.144159,-8886.707777,-592.164754
4425.984465,222.061783,-8503.660028,0.000000
4425.984789,148.041188,-8580.269578,-296.082377
4425.985113,444.123565,-8810.098227,-222.061783
4425.985437,296.082377,-8503.660028,-370.102971
4425.985762,444.123565,-7890.783629,-148.041188
4425.986086,296.082377,-8350.440928,-222.061783
4425.986410,518.144159,-8580.269578,0.000000
4425.986735,444.123565,-8503.660028,-444.123565
4425.987059,296.082377,-8733.488677,-222.061783
4425.987383,518.144159,-8503.660028,-370.102971
4425.987708,592.164754,-8503.660028,-370.102971
4425.988032,370.102971,-8427.050478,-518.144159
4425.988356,74.020594,-8810.098227,0.000000
4425.988681,0.000000,-8427.050478,-518.144159
4425.989005,444.123565,-8580.269578,-444.123565
4425.989329,370.102971,-8733.488677,-444.123565
4425.989653,444.123565,-8503.660028,-222.061783
4425.989978,222.061783,-8733.488677,0.000000
4425.990302,370.102971,-8656.879127,-444.123565
4425.990626,666.185348,-8656.879127,-296.082377
4425.990951,518.144159,-8810.098227,-592.164754
4425.991275,444.123565,-8580.269578,-444.123565
4425.991599,592.164754,-8580.269578,-518.144159
4425.991924,222.061783,-8810.098227,-296.082377
4425.992248,444.123565,-8427.050478,-518.144159
4425.992572,296.082377,-8733.488677,-444.123565
4425.992896,888.247130,-8580.269578,0.000000
4425.993221,666.185348,-8120.612279,0.000000
4425.993545,740.205942,-8810.098227,-148.041188
4425.993869,740.205942,-8580.269578,-296.082377
4425.994194,814.226536,-7737.564530,0.000000
4425.994518,518.144159,-8733.488677,-666.185348
4425.994842,444.123565,-8656.879127,-222.061783
4425.995167,296.082377,-8503.660028,-148.041188
4425.995491,222.061783,-8656.879127,0.000000
4425.995815,148.041188,-8273.831378,-296.082377
4425.996140,370.102971,-8810.098227,-222.061783
4425.996464,444.123565,-8656.879127,-222.061783
4425.996788,518.144159,-8656.879127,-148.041188
4425.997112,296.082377,-8503.660028,0.000000
4425.997437,518.144159,-8503.660028,-296.082377
4425.997761,370.102971,-8733.488677,-148.041188
4425.998085,296.082377,-8503.660028,-148.041188
4425.998410,222.061783,-9116.536426,0.000000
4425.998734,296.082377,-8656.879127,-444.123565
4425.999058,370.102971,-8656.879127,-370.102971
4425.999383,296.082377,-8273.831378,-518.144159
4425.999707,444.123565,-8810.098227,-222.061783
4426.000031,518.144159,-7890.783629,-222.061783
4426.000355,370.102971,-8656.879127,-444.123565
4426.000680,296.082377,-8810.098227,-444.123565
4426.001004,444.123565,-8503.660028,-296.082377
4426.001328,666.185348,-8810.098227,-592.164754
4426.001653,296.082377,-8580.269578,-444.123565
4426.001977,0.000000,-8580.269578,0.000000
4426.002301,0.000000,-8656.879127,0.000000
4426.002626,148.041188,-8503.660028,-222.061783
4426.002950,222.061783,-8656.879127,0.000000
4426.003274,370.102971,-8503.660028,-148.041188
4426.003599,518.144159,-8503.660028,0.000000
4426.003923,370.102971,-8733.488677,0.000000
4426.004247,296.082377,-8656.879127,-370.102971
4426.004571,518.144159,-8810.098227,0.000000
4426.004896,370.102971,-8427.050478,0.000000
4426.005220,296.082377,-8810.098227,74.020594
4426.005544,444.123565,-8733.488677,-296.082377
4426.005869,518.144159,-8580.269578,0.000000
4426.006193,518.144159,-8503.660028,74.020594
4426.006517,370.102971,-8427.050478,-148.041188
4426.006842,518.144159,-8733.488677,0.000000
4426.007166,370.102971,-8427.050478,0.000000
4426.007490,444.123565,-8580.269578,0.000000
4426.007814,222.061783,-8656.879127,-222.061783
4426.008139,444.123565,-8427.050478,-296.082377
4426.008463,814.226536,-8656.879127,-296.082377
4426.008787,666.185348,-8656.879127,-148.041188
4426.009112,370.102971,-8427.050478,0.000000
4426.009436,222.061783,-8503.660028,0.000000
4426.009760,296.082377,-8273.831378,-222.061783
4426.010085,370.102971,-8810.098227,-222.061783
4426.010409,444.123565,-8427.050478,-148.041188
4426.010733,592.164754,-8427.050478,0.000000
4426.011058,370.102971,-8580.269578,-370.102971
4426.011382,740.205942,-8503.660028,-222.061783
4426.011706,814.226536,-8503.660028,-592.164754
4426.012030,518.144159,-8503.660028,-370.102971
4426.012355,666.185348,-8350.440928,-296.082377
4426.012679,222.061783,-8886.707777,222.061783
4426.013003,444.123565,-8733.488677,-370.102971
4426.013328,370.102971,-8656.879127,-592.164754
4426.013652,296.082377,-8886.707777,-592.164754
4426.013976,222.061783,-8656.879127,-148.041188
4426.014301,370.102971,-8273.831378,-518.144159
4426.014625,370.102971,-8656.879127,-370.102971
4426.014949,518.144159,-8273.831378,-370.102971
4426.015273,370.102971,-8656.879127,-518.144159
4426.015598,740.205942,-8733.488677,-444.123565
4426.015922,0.000000,-8580.269578,0.000000
4426.016246,370.102971,-8810.098227,-592.164754
4426.016571,0.000000,-8733.488677,-222.061783
4426.016895,222.061783,-9269.755526,0.000000
4426.017219,148.041188,-8810.098227,-296.082377
4426.017544,222.061783,-8273.831378,-296.082377
4426.017868,444.123565,-8656.879127,-148.041188
4426.018192,222.061783,-8886.707777,-518.144159
4426.018517,148.041188,-8886.707777,0.000000
4426.018841,296.082377,-8273.831378,-518.144159
4426.019165,370.102971,-8656.879127,-296.082377
4426.019489,444.123565,-8656.879127,-518.144159
4426.019814,370.102971,-8963.317327,-296.082377
4426.020138,222.061783,-8580.269578,-592.164754
4426.020462,444.123565,-8963.317327,-518.144159
4426.020787,518.144159,-8503.660028,-592.164754
4426.021111,222.061783,-8580.269578,-222.061783
4426.021435,296.082377,-8580.269578,-592.164754
4426.021760,518.144159,-8580.269578,-518.144159
4426.022084,518.144159,-8273.831378,-370.102971
4426.022408,296.082377,-8350.440928,-444.123565
4426.022732,444.123565,-8580.269578,-666.185348
4426.023057,370.102971,-8733.488677,-518.144159
4426.023381,148.041188,-8427.050478,-370.102971
4426.023705,296.082377,-8733.488677,-518.144159
4426.024030,666.185348,-8350.440928,-370.102971
4426.024354,444.123565,-8197.221829,-370.102971
4426.024678,518.144159,-8427.050478,-296.082377
4426.025003,222.061783,-8503.660028,-444.123565
4426.025327,740.205942,-8810.098227,-296.082377
4426.025651,592.164754,-8580.269578,-370.102971
4426.025976,518.144159,-8656.879127,-444.123565
4426.026300,518.144159,-8503.660028,-370.102971
4426.026624,370.102971,-8503.660028,-370.102971
4426.026948,666.185348,-8197.221829,-370.102971
4426.027273,444.123565,-8580.269578,-296.082377
4426.027597,444.123565,-8656.879127,-370.102971
4426.027921,444.123565,-8350.440928,0.000000
4426.028246,222.061783,-8350.440928,0.000000
4426.028570,444.123565,-8810.098227,-296.082377
4426.028894,592.164754,-8427.050478,-370.102971
4426.029219,666.185348,-8656.879127,-444.123565
4426.029543,518.144159,-9116.536426,222.061783
4426.029867,444.123565,-8427.050478,-222.061783
4426.030191,518.144159,-8733.488677,-222.061783
4426.030516,370.102971,-8580.269578,-444.123565
4426.030840,518.144159,-9039.926876,-370.102971
4426.031164,740.205942,-8273.831378,-592.164754
4426.031489,444.123565,-8810.098227,-296.082377
4426.031813,444.123565,-8886.707777,-592.164754
4426.032137,444.123565,-8580.269578,-444.123565
4426.032462,740.205942,-8886.707777,-592.164754
4426.032786,296.082377,-8427.050478,-592.164754
4426.033110,592.164754,-8580.269578,-370.102971
4426.033435,518.144159,-8656.879127,-444.123565
4426.033759,592.164754,-8580.269578,-296.082377
4426.034083,370.102971,-8656.879127,-592.164754
4426.034407,592.164754,-8810.098227,-518.144159
4426.034732,296.082377,-8350.440928,-222.061783
4426.035056,148.041188,-8656.879127,-370.102971
4426.035380,444.123565,-8656.879127,-296.082377
4426.035705,296.082377,-8503.660028,-518.144159
4426.036029,0.000000,-8503.660028,-444.123565
4426.036353,148.041188,-8656.879127,-296.082377
4426.036678,740.205942,-8044.002729,148.041188
4426.037002,666.185348,-8656.879127,-296.082377
4426.037326,666.185348,-8503.660028,-518.144159
4426.037650,518.144159,-8656.879127,-592.164754
4426.037975,592.164754,-8580.269578,0.000000
4426.038299,518.144159,-8503.660028,-148.041188
4426.038623,74.020594,-8656.879127,-444.123565
4426.038948,296.082377,-8656.879127,-296.082377
4426.039272,74.020594,-8810.098227,-296.082377
4426.039596,370.102971,-8656.879127,-370.102971
4426.039921,518.144159,-8503.660028,0.000000
4426.040245,444.123565,-8427.050478,-296.082377
4426.040569,444.123565,-8580.269578,0.000000
4426.040894,666.185348,-8273.831378,-222.061783
4426.041218,444.123565,-8580.269578,-370.102971
4426.041542,592.164754,-8273.831378,-518.144159
4426.041866,518.144159,-8656.879127,-296.082377
4426.042191,0.000000,-8733.488677,-444.123565
4426.042515,370.102971,-8273.831378,-370.102971
4426.042839,444.123565,-8580.269578,-370.102971
4426.043164,148.041188,-8580.269578,-222.061783
4426.043488,370.102971,-8503.660028,-296.082377
4426.043812,888.247130,-8350.440928,-592.164754
4426.044137,518.144159,-8580.269578,-370.102971
4426.044461,518.144159,-8273.831378,-444.123565
4426.044785,370.102971,-8580.269578,-296.082377
4426.045109,444.123565,-7890.783629,0.000000
4426.045434,222.061783,-8503.660028,-592.164754
4426.045758,370.102971,-8656.879127,-666.185348
4426.046082,444.123565,-8580.269578,-518.144159
4426.046406,296.082377,-8656.879127,-740.205942
4426.046731,444.123565,-8427.050478,-370.102971
4426.047055,370.102971,-8427.050478,-444.123565
4426.047379,296.082377,-8503.660028,-592.164754
4426.047704,444.123565,-8273.831378,-444.123565
4426.048028,222.061783,-8427.050478,-518.144159
4426.048352,740.205942,-8656.879127,-518.144159
4426.048677,592.164754,-8427.050478,-592.164754
4426.049001,518.144159,-8656.879127,-592.164754
4426.049325,370.102971,-8273.831378,-370.102971
4426.049650,444.123565,-8886.707777,-444.123565
4426.049974,296.082377,-8810.098227,-592.164754
4426.050298,148.041188,-8580.269578,-370.102971
4426.050623,592.164754,-8503.660028,-370.102971
4426.050947,740.205942,-8656.879127,-518.144159
4426.051271,518.144159,-8427.050478,-370.102971
4426.051596,666.185348,-8427.050478,-592.164754
4426.051920,814.226536,-8656.879127,-518.144159
4426.052244,592.164754,-9346.365076,-888.247130
4426.052569,148.041188,-8963.317327,-444.123565
4426.052893,444.123565,-8580.269578,-888.247130
4426.053217,518.144159,-8580.269578,-592.164754
4426.053542,518.144159,-8963.317327,-814.226536
4426.053866,740.205942,-8733.488677,-518.144159
4426.054191,888.247130,-8886.707777,-518.144159
4426.054515,740.205942,-8503.660028,-666.185348
4426.054839,518.144159,-8580.269578,-592.164754
4426.055164,370.102971,-8886.707777,-296.082377
4426.055488,814.226536,-8580.269578,-666.185348
4426.055812,518.144159,-8810.098227,-666.185348
4426.056137,148.041188,-8810.098227,-518.144159
4426.056461,592.164754,-8044.002729,-444.123565
4426.056785,148.041188,-8810.098227,-444.123565
4426.057110,222.061783,-8503.660028,-222.061783
4426.057434,518.144159,-8656.879127,-444.123565
4426.057758,296.082377,-8886.707777,-222.061783
4426.058083,444.123565,-8580.269578,-444.123565
4426.058407,592.164754,-8503.660028,-444.123565
4426.058731,296.082377,-8503.660028,0.000000
4426.059056,370.102971,-8733.488677,-148.041188
4426.059380,148.041188,-9116.536426,0.000000
4426.059704,370.102971,-8963.317327,-222.061783
4426.060029,222.061783,-8656.879127,-370.102971
4426.060353,296.082377,-8810.098227,-222.061783
4426.060677,222.061783,-9039.926876,0.000000
4426.061002,444.123565,-8733.488677,0.000000
4426.061326,518.144159,-8350.440928,-296.082377
4426.061650,444.123565,-8350.440928,-222.061783
4426.061975,444.123565,-8427.050478,-444.123565
4426.062299,370.102971,-8427.050478,0.000000
4426.062624,444.123565,-8503.660028,-518.144159
4426.062948,296.082377,-8810.098227,-222.061783
4426.063272,148.041188,-8656.879127,-370.102971
4426.063597,444.123565,-8427.050478,-74.020594
4426.063921,444.123565,-8503.660028,-222.061783
4426.064245,370.102971,-8656.879127,-296.082377
4426.064570,518.144159,-8503.660028,-444.123565
4426.064894,370.102971,-8963.317327,0.000000
4426.065218,592.164754,-8273.831378,-370.102971
4426.065543,592.164754,-8503.660028,-592.164754
4426.065867,444.123565,-8273.831378,0.000000
4426.066191,370.102971,-8503.660028,0.000000
4426.066516,444.123565,-8886.707777,-518.144159
4426.066840,296.082377,-8503.660028,-518.144159
4426.067164,370.102971,-8656.879127,-296.082377
4426.067489,296.082377,-8503.660028,-370.102971
4426.067813,222.061783,-9039.926876,518.144159
4426.068137,592.164754,-8503.660028,-444.123565
4426.068462,444.123565,-8656.879127,-296.082377
4426.068786,518.144159,-8427.050478,-518.144159
4426.069110,740.205942,-8427.050478,0.000000
4426.069435,666.185348,-8197.221829,-148.041188
4426.069759,370.102971,-8580.269578,-222.061783
4426.070084,444.123565,-8656.879127,-518.144159
4426.070408,592.164754,-8503.660028,-592.164754
4426.070732,518.144159,-8810.098227,-518.144159
4426.071057,222.061783,-8656.879127,-222.061783
4426.071381,148.041188,-8656.879127,-444.123565
4426.071705,444.123565,-8580.269578,-222.061783
4426.072030,740.205942,-8656.879127,-222.061783
4426.072354,740.205942,-8656.879127,-592.164754
4426.072678,814.226536,-8656.879127,-518.144159
4426.073003,666.185348,-8580.269578,-444.123565
4426.073327,444.123565,-9422.974625,-370.102971
4426.073651,148.041188,-8810.098227,-666.185348
4426.073976,370.102971,-8886.707777,-444.123565
4426.074300,74.020594,-8580.269578,-518.144159
4426.074624,518.144159,-8886.707777,-370.102971
4426.074949,444.123565,-8656.879127,-296.082377
4426.075273,370.102971,-8733.488677,-296.082377
4426.075597,296.082377,-8350.440928,-370.102971
4426.075922,518.144159,-8656.879127,-444.123565
4426.076246,518.144159,-8656.879127,296.082377
4426.076570,222.061783,-8733.488677,-222.061783
4426.076895,222.061783,-8656.879127,-518.144159
4426.077219,222.061783,-8350.440928,-148.041188
4426.077543,148.041188,-8656.879127,-370.102971
4426.077868,222.061783,-8503.660028,-222.061783
4426.078192,222.061783,-8503.660028,0.000000
4426.078517,444.123565,-8273.831378,-296.082377
4426.078841,296.082377,-8503.660028,-296.082377
4426.079165,888.247130,-8273.831378,-740.205942
4426.079490,444.123565,-8580.269578,0.000000
4426.079814,518.144159,-8350.440928,-444.123565
4426.080138,518.144159,-8273.831378,0.000000
4426.080463,296.082377,-8656.879127,-444.123565
4426.080787,666.185348,-8580.269578,-296.082377
4426.081111,740.205942,-8580.269578,-370.102971
4426.081436,296.082377,-8733.488677,-444.123565
4426.081760,296.082377,-8503.660028,-296.082377
4426.082084,296.082377,-9116.536426,0.000000
4426.082409,296.082377,-8733.488677,-444.123565
4426.082733,444.123565,-8733.488677,-296.082377
4426.083057,592.164754,-8273.831378,-74.020594
4426.083382,518.144159,-8733.488677,0.000000
4426.083706,518.144159,-8503.660028,-296.082377
4426.084030,296.082377,-8350.440928,0.000000
4426.084355,592.164754,-8656.879127,-444.123565
4426.084679,444.123565,-8656.879127,0.000000
4426.085003,296.082377,-8580.269578,-296.082377
4426.085328,444.123565,-8427.050478,-222.061783
4426.085652,296.082377,-8580.269578,-222.061783
4426.085977,444.123565,-8733.488677,-370.102971
4426.086301,740.205942,-8733.488677,-296.082377
4426.086625,518.144159,-8580.269578,-296.082377
4426.086950,222.061783,-8427.050478,-296.082377
4426.087274,222.061783,-8580.269578,-518.144159
4426.087598,444.123565,-8886.707777,-370.102971
4426.087923,148.041188,-8656.879127,-518.144159
4426.088247,296.082377,-8656.879127,-444.123565
4426.088571,370.102971,-8733.488677,-296.082377
4426.088896,444.123565,-8886.707777,0.000000
4426.089220,518.144159,-8503.660028,-592.164754
4426.089544,370.102971,-8810.098227,-740.205942
4426.089869,444.123565,-9116.536426,-592.164754
4426.090193,296.082377,-8350.440928,-518.144159
4426.090517,962.267725,-8886.707777,-740.205942
4426.090842,148.041188,-8656.879127,-370.102971
4426.091166,518.144159,-8580.269578,-592.164754
4426.091490,370.102971,-8733.488677,-518.144159
4426.091815,666.185348,-8656.879127,-222.061783
4426.092139,296.082377,-8810.098227,-370.102971
4426.092463,296.082377,-8503.660028,-444.123565
4426.092788,296.082377,-8580.269578,-592.164754
4426.093112,370.102971,-9039.926876,-592.164754
4426.093436,814.226536,-8810.098227,-370.102971
4426.093761,370.102971,-8580.269578,-222.061783
4426.094085,370.102971,-8810.098227,0.000000
4426.094410,370.102971,-8580.269578,-370.102971
4426.094734,740.205942,-8580.269578,0.000000
4426.095058,518.144159,-8656.879127,-518.144159
4426.095383,370.102971,-8963.317327,0.000000
4426.095707,296.082377,-8503.660028,-370.102971
4426.096031,222.061783,-8044.002729,74.020594
4426.096356,222.061783,-8656.879127,-444.123565
4426.096680,592.164754,-8580.269578,-296.082377
4426.097004,814.226536,-8580.269578,-222.061783
4426.097329,518.144159,-8197.221829,-148.041188
4426.097653,370.102971,-8273.831378,-370.102971
4426.097977,518.144159,-8503.660028,-296.082377
4426.098302,592.164754,-8427.050478,-370.102971
4426.098626,592.164754,-8580.269578,-296.082377
4426.098950,740.205942,-7967.393179,0.000000
4426.099275,74.020594,-8427.050478,-222.061783
4426.099599,444.123565,-8350.440928,-370.102971
4426.099923,444.123565,-8580.269578,-370.102971
4426.100248,370.102971,-7967.393179,-222.061783
4426.100572,444.123565,-8350.440928,0.000000
4426.100896,370.102971,-8273.831378,-148.041188
4426.101221,666.185348,-8503.660028,-444.123565
4426.101545,370.102971,-8120.612279,-370.102971
4426.101870,666.185348,-8656.879127,-222.061783
4426.102194,74.020594,-8273.831378,0.000000
4426.102518,148.041188,-8350.440928,74.020594
4426.102843,296.082377,-8350.440928,0.000000
4426.103167,222.061783,-7967.393179,-296.082377
4426.103491,296.082377,-8503.660028,-444.123565
4426.103816,444.123565,-8733.488677,0.000000
4426.104140,592.164754,-8120.612279,0.000000
4426.104464,592.164754,-8427.050478,0.000000
4426.104789,592.164754,-8503.660028,-370.102971
4426.105113,444.123565,-8656.879127,-148.041188
4426.105437,296.082377,-8733.488677,-148.041188
4426.105762,296.082377,-8580.269578,-222.061783
4426.106086,518.144159,-8656.879127,-296.082377
4426.106410,370.102971,-8656.879127,0.000000
4426.106735,222.061783,-8580.269578,0.000000
4426.107059,222.061783,-8810.098227,-444.123565
4426.107383,518.144159,-8886.707777,-370.102971
4426.107708,222.061783,-8733.488677,-296.082377
4426.108032,518.144159,-8810.098227,-444.123565
4426.108356,148.041188,-8656.879127,-296.082377
4426.108681,370.102971,-9039.926876,-74.020594
4426.109005,592.164754,-8886.707777,-296.082377
4426.109329,444.123565,-8810.098227,0.000000
4426.109654,296.082377,-8886.707777,-296.082377
4426.109978,370.102971,-8886.707777,-296.082377
4426.110303,148.041188,-9039.926876,-148.041188
4426.110627,370.102971,-8810.098227,-370.102971
4426.110951,592.164754,-8580.269578,0.000000
4426.111276,370.102971,-8656.879127,-74.020594
4426.111600,222.061783,-9346.365076,0.000000
4426.111924,296.082377,-8963.317327,-222.061783
4426.112249,518.144159,-8810.098227,-296.082377
4426.112573,370.102971,-8810.098227,-296.082377
4426.112897,222.061783,-8580.269578,-370.102971
4426.113222,296.082377,-8733.488677,-370.102971
4426.113546,370.102971,-8656.879127,-370.102971
4426.113870,592.164754,-8580.269578,-518.144159
4426.114195,518.144159,-8733.488677,-148.041188
4426.114519,666.185348,-8197.221829,-222.061783
4426.114843,370.102971,-8656.879127,-296.082377
4426.115168,444.123565,-8580.269578,-444.123565
4426.115492,666.185348,-8656.879127,-148.041188
4426.115816,666.185348,-8427.050478,-740.205942
4426.116141,592.164754,-8503.660028,-296.082377
4426.116465,592.164754,-8503.660028,-666.185348
4426.116789,296.082377,-8580.269578,-518.144159
4426.117114,296.082377,-8580.269578,-444.123565
4426.117438,444.123565,-8733.488677,-814.226536
4426.117763,444.123565,-8350.440928,-444.123565
4426.118087,444.123565,-8427.050478,-444.123565
4426.118411,370.102971,-9039.926876,-518.144159
4426.118736,148.041188,-8503.660028,-444.123565
4426.119060,518.144159,-8427.050478,-370.102971
4426.119384,518.144159,-8427.050478,-518.144159
4426.119709,592.164754,-8580.269578,-370.102971
4426.120033,444.123565,-9039.926876,-370.102971
4426.120357,518.144159,-8580.269578,0.000000
4426.120682,444.123565,-8350.440928,-444.123565
4426.121006,518.144159,-8733.488677,-370.102971
4426.121330,370.102971,-8350.440928,-296.082377
4426.121655,444.123565,-8273.831378,-148.041188
4426.121979,296.082377,-8503.660028,-222.061783
4426.122303,370.102971,-8197.221829,-148.041188
4426.122628,592.164754,-8580.269578,-296.082377
4426.122952,0.000000,-8656.879127,0.000000
4426.123276,518.144159,-8580.269578,0.000000
4426.123601,370.102971,-8503.660028,-296.082377
4426.123925,444.123565,-8810.098227,-370.102971
4426.124249,74.020594,-8503.660028,-370.102971
4426.124574,444.123565,-8656.879127,-444.123565
4426.124898,148.041188,-8273.831378,-222.061783
4426.125222,74.020594,-8503.660028,-296.082377
4426.125547,370.102971,-8656.879127,-222.061783
4426.125871,222.061783,-8350.440928,-222.061783
4426.126196,666.185348,-8656.879127,-370.102971
4426.126520,666.185348,-8350.440928,-370.102971
4426.126844,444.123565,-8580.269578,-370.102971
4426.127169,444.123565,-8350.440928,-222.061783
4426.127493,444.123565,-8733.488677,-370.102971
4426.127817,74.020594,-8656.879127,-444.123565
4426.128142,296.082377,-8656.879127,-370.102971
4426.128466,444.123565,-8733.488677,-444.123565
4426.128790,370.102971,-8733.488677,-370.102971
4426.129115,518.144159,-8503.660028,-740.205942
4426.129439,518.144159,-8886.707777,-370.102971
4426.129763,518.144159,-8503.660028,-370.102971
4426.130088,740.205942,-8810.098227,-296.082377
4426.130412,666.185348,-8810.098227,-518.144159
4426.130736,444.123565,-8810.098227,-296.082377
4426.131061,222.061783,-8886.707777,-148.041188
4426.131385,666.185348,-8656.879127,-296.082377
4426.131709,518.144159,-8580.269578,0.000000
4426.132034,444.123565,-8580.269578,-518.144159
4426.132358,296.082377,-8503.660028,0.000000
4426.132682,592.164754,-8427.050478,-222.061783
4426.133007,444.123565,-8963.317327,-222.061783
4426.133331,518.144159,-8656.879127,-296.082377
4426.133656,444.123565,-8656.879127,-296.082377
4426.133980,518.144159,-8810.098227,-148.041188
4426.134304,740.205942,-8427.050478,0.000000
4426.134629,740.205942,-8810.098227,-222.061783
4426.134953,370.102971,-8656.879127,-296.082377
4426.135277,444.123565,-8580.269578,0.000000
4426.135602,222.061783,-8120.612279,-222.061783
4426.135926,592.164754,-8427.050478,-148.041188
4426.136250,592.164754,-8580.269578,-444.123565
4426.136575,666.185348,-8656.879127,-370.102971
4426.136899,296.082377,-8503.660028,-222.061783
4426.137223,518.144159,-8810.098227,-222.061783
4426.137548,444.123565,-8733.488677,-444.123565
4426.137872,222.061783,-8427.050478,-296.082377
4426.138196,518.144159,-8963.317327,-444.123565
4426.138521,518.144159,-9346.365076,-444.123565
4426.138845,518.144159,-8733.488677,-296.082377
4426.139169,518.144159,-8580.269578,-518.144159
4426.139494,148.041188,-8350.440928,-370.102971
4426.139818,518.144159,-8886.707777,-518.144159
4426.140142,222.061783,-8503.660028,0.000000
4426.140467,370.102971,-8197.221829,-370.102971
4426.140791,148.041188,-8503.660028,-74.020594
4426.141115,444.123565,-8503.660028,-296.082377
4426.141440,0.000000,-8580.269578,0.000000
4426.141764,370.102971,-8810.098227,-296.082377
4426.142089,666.185348,-8350.440928,-148.041188
4426.142413,222.061783,-8580.269578,-148.041188
4426.142737,444.123565,-8120.612279,-222.061783
4426.143062,222.061783,-8427.050478,-370.102971
4426.143386,370.102971,-8733.488677,-592.164754
4426.143710,296.082377,-8503.660028,-296.082377
4426.144035,148.041188,-8886.707777,-296.082377
4426.144359,444.123565,-8580.269578,-518.144159
4426.144683,444.123565,-8427.050478,-296.082377
4426.145008,222.061783,-8580.269578,-666.185348
4426.145332,592.164754,-9116.536426,-370.102971
4426.145656,740.205942,-8120.612279,-370.102971
4426.145981,444.123565,-8656.879127,-370.102971
4426.146305,370.102971,-8580.269578,-592.164754
4426.146629,296.082377,-8503.660028,-296.082377
4426.146954,592.164754,-9269.755526,-962.267725
4426.147278,592.164754,-8503.660028,-814.226536
4426.147602,370.102971,-8503.660028,-444.123565
4426.147926,518.144159,-8733.488677,-518.144159
4426.148251,222.061783,-8427.050478,-444.123565
4426.148575,518.144159,-8886.707777,-666.185348
4426.148899,666.185348,-8656.879127,-888.247130
4426.149224,370.102971,-8580.269578,-518.144159
4426.149548,222.061783,-8427.050478,-666.185348
4426.149872,222.061783,-9039.926876,-370.102971
4426.150197,518.144159,-8503.660028,-740.205942
4426.150521,518.144159,-8733.488677,-518.144159
4426.150845,592.164754,-8427.050478,-370.102971
4426.151169,518.144159,-9039.926876,-370.102971
4426.151494,518.144159,-8580.269578,-518.144159
4426.151818,518.144159,-8503.660028,-592.164754
4426.152142,370.102971,-8733.488677,-518.144159
4426.152467,592.164754,-8580.269578,-444.123565
4426.152791,74.020594,-8580.269578,0.000000
4426.153115,296.082377,-8886.707777,-296.082377
4426.153439,444.123565,-8580.269578,-296.082377
4426.153764,444.123565,-8580.269578,-592.164754
4426.154088,592.164754,-8810.098227,-592.164754
4426.154412,74.020594,-8427.050478,-370.102971
4426.154737,518.144159,-9039.926876,-148.041188
4426.155061,222.061783,-8427.050478,-370.102971
4426.155385,740.205942,-9039.926876,-296.082377
4426.155710,666.185348,-8733.488677,-370.102971
4426.156034,370.102971,-8503.660028,-222.061783
4426.156358,296.082377,-8733.488677,-296.082377
4426.156682,296.082377,-8580.269578,-296.082377
4426.157007,592.164754,-9039.926876,-296.082377
4426.157331,296.082377,-8733.488677,-222.061783
4426.157655,296.082377,-8656.879127,0.000000
4426.157980,370.102971,-8656.879127,0.000000
4426.158304,0.000000,-9116.536426,148.041188
4426.158628,74.020594,-8350.440928,-296.082377
4426.158952,592.164754,-8350.440928,-444.123565
4426.159277,518.144159,-8656.879127,-296.082377
4426.159601,370.102971,-8427.050478,-222.061783
4426.159925,222.061783,-8886.707777,-370.102971
4426.160250,222.061783,-8427.050478,0.000000
4426.160574,444.123565,-8427.050478,-444.123565
4426.160898,518.144159,-8656.879127,-148.041188
4426.161223,444.123565,-8197.221829,0.000000
4426.161547,370.102971,-8656.879127,-148.041188
4426.161871,296.082377,-8656.879127,0.000000
4426.162195,370.102971,-8580.269578,-518.144159
4426.162520,0.000000,-8580.269578,0.000000
4426.162844,444.123565,-8503.660028,-296.082377
4426.163168,222.061783,-8580.269578,-370.102971
4426.163493,222.061783,-8733.488677,-370.102971
4426.163817,222.061783,-8503.660028,-370.102971
4426.164141,592.164754,-8810.098227,-222.061783
4426.164465,370.102971,-8656.879127,-370.102971
4426.164790,592.164754,-8503.660028,-296.082377
4426.165114,814.226536,-8580.269578,-444.123565
4426.165438,888.247130,-8427.050478,-296.082377
4426.165763,370.102971,-8810.098227,-370.102971
4426.166087,518.144159,-8427.050478,-296.082377
4426.166411,592.164754,-8580.269578,-296.082377
4426.166735,592.164754,-9039.926876,-222.061783
4426.167060,518.144159,-8656.879127,-518.144159
4426.167384,592.164754,-8350.440928,-592.164754
4426.167708,296.082377,-8656.879127,-518.144159
4426.168033,518.144159,-8656.879127,-666.185348
4426.168357,222.061783,-8733.488677,-222.061783
4426.168681,518.144159,-8580.269578,-592.164754
4426.169006,444.123565,-8427.050478,-666.185348
4426.169330,444.123565,-8886.707777,-592.164754
4426.169654,592.164754,-8120.612279,-222.061783
4426.169978,222.061783,-8427.050478,-814.226536
4426.170303,222.061783,-8810.098227,-592.164754
4426.170627,444.123565,-8580.269578,-740.205942
4426.170951,518.144159,-8503.660028,-444.123565
4426.171276,370.102971,-8580.269578,-592.164754
4426.171600,518.144159,-8580.269578,-222.061783
4426.171924,370.102971,-8733.488677,-518.144159
4426.172248,370.102971,-8503.660028,-592.164754
4426.172573,444.123565,-8427.050478,-740.205942
4426.172897,444.123565,-8810.098227,-370.102971
4426.173221,592.164754,-8503.660028,-370.102971
4426.173546,148.041188,-8580.269578,-444.123565
4426.173870,666.185348,-8197.221829,-518.144159
4426.174194,518.144159,-8503.660028,-518.144159
4426.174519,444.123565,-8733.488677,-592.164754
4426.174843,518.144159,-8733.488677,-444.123565
4426.175167,444.123565,-8656.879127,0.000000
4426.175491,444.123565,-8810.098227,-74.020594
4426.175816,444.123565,-8427.050478,-222.061783
4426.176140,518.144159,-8733.488677,-296.082377
4426.176464,444.123565,-8810.098227,-296.082377
4426.176789,888.247130,-8656.879127,0.000000
4426.177113,444.123565,-8503.660028,-296.082377
4426.177437,370.102971,-8350.440928,0.000000
4426.177761,518.144159,-8580.269578,-296.082377
4426.178086,1036.288319,-8963.317327,0.000000
4426.178410,296.082377,-8810.098227,0.000000
4426.178734,518.144159,-8656.879127,-148.041188
4426.179059,370.102971,-8886.707777,0.000000
4426.179383,592.164754,-8427.050478,-296.082377
4426.179707,222.061783,-8580.269578,0.000000
4426.180032,518.144159,-8580.269578,-148.041188
4426.180356,518.144159,-8350.440928,0.000000
4426.180680,370.102971,-8656.879127,-222.061783
4426.181004,518.144159,-8503.660028,222.061783
4426.181329,592.164754,-8503.660028,-370.102971
4426.181653,592.164754,-8580.269578,-444.123565
4426.181977,592.164754,-8580.269578,-222.061783
4426.182302,814.226536,-8886.707777,-296.082377
4426.182626,370.102971,-8427.050478,-148.041188
4426.182950,370.102971,-8580.269578,-222.061783
4426.183274,666.185348,-8656.879127,-444.123565
4426.183599,666.185348,-8580.269578,-296.082377
4426.183923,296.082377,-8427.050478,0.000000
4426.184247,370.102971,-8886.707777,-296.082377
4426.184572,444.123565,-8580.269578,-518.144159
4426.184896,518.144159,-8503.660028,0.000000
4426.185220,518.144159,-8197.221829,0.000000
4426.185545,370.102971,-8656.879127,-222.061783
4426.185869,222.061783,-8580.269578,-370.102971
4426.186193,296.082377,-8580.269578,-296.082377
4426.186517,0.000000,-7967.393179,-222.061783
4426.186842,222.061783,-8810.098227,0.000000
4426.187166,592.164754,-8350.440928,-222.061783
4426.187490,370.102971,-8733.488677,-296.082377
4426.187815,370.102971,-8580.269578,-518.144159
4426.188139,222.061783,-8427.050478,-518.144159
4426.188463,444.123565,-8733.488677,-592.164754
4426.188787,148.041188,-8886.707777,-518.144159
4426.189112,222.061783,-8580.269578,-444.123565
4426.189436,370.102971,-8580.269578,-814.226536
4426.189760,518.144159,-8427.050478,-592.164754
4426.190085,814.226536,-8733.488677,-666.185348
4426.190409,592.164754,-8656.879127,-740.205942
4426.190733,666.185348,-8733.488677,-296.082377
4426.191057,444.123565,-8350.440928,-592.164754
4426.191382,592.164754,-8580.269578,-592.164754
4426.191706,518.144159,-8273.831378,-592.164754
4426.192030,740.205942,-8963.317327,-592.164754
4426.192355,74.020594,-8273.831378,-666.185348
4426.192679,444.123565,-8656.879127,-148.041188
4426.193003,222.061783,-8580.269578,-444.123565
4426.193328,296.082377,-8656.879127,-74.020594
4426.193652,370.102971,-8503.660028,-222.061783
4426.193976,666.185348,-8580.269578,-148.041188
4426.194300,518.144159,-8503.660028,-148.041188
4426.194625,444.123565,-8810.098227,-222.061783
4426.194949,296.082377,-8273.831378,-370.102971
4426.195273,370.102971,-8503.660028,-296.082377
4426.195598,148.041188,-8350.440928,-222.061783
4426.195922,296.082377,-8427.050478,0.000000
4426.196246,148.041188,-8810.098227,0.000000
4426.196570,222.061783,-8273.831378,0.000000
4426.196895,222.061783,-8580.269578,-296.082377
4426.197219,666.185348,-8580.269578,-222.061783
4426.197543,444.123565,-8656.879127,0.000000
4426.197868,518.144159,-8273.831378,-370.102971
4426.198192,518.144159,-8503.660028,-444.123565
4426.198516,518.144159,-8427.050478,-222.061783
4426.198841,370.102971,-8810.098227,-296.082377
4426.199165,370.102971,-8963.317327,-296.082377
4426.199489,518.144159,-8503.660028,-370.102971
4426.199813,370.102971,-8733.488677,0.000000
4426.200138,370.102971,-8427.050478,-148.041188
4426.200462,370.102971,-8580.269578,-518.144159
4426.200786,666.185348,-9039.926876,148.041188
4426.201111,666.185348,-8503.660028,-370.102971
4426.201435,666.185348,-8580.269578,-592.164754
4426.201759,370.102971,-8580.269578,-518.144159
4426.202083,518.144159,-9039.926876,-148.041188
4426.202408,444.123565,-8656.879127,-592.164754
4426.202732,222.061783,-8656.879127,-444.123565
4426.203056,592.164754,-8733.488677,-370.102971
4426.203381,592.164754,-8503.660028,-518.144159
4426.203705,592.164754,-8886.707777,-592.164754
4426.204029,370.102971,-9039.926876,-518.144159
4426.204354,740.205942,-8350.440928,-370.102971
4426.204678,222.061783,-8427.050478,-370.102971
4426.205002,518.144159,-8273.831378,0.000000
4426.205326,296.082377,-8503.660028,-296.082377
4426.205651,444.123565,-8580.269578,-296.082377
4426.205975,444.123565,-8580.269578,-444.123565
4426.206299,518.144159,-9116.536426,0.000000
4426.206624,74.020594,-8886.707777,0.000000
4426.206948,296.082377,-8273.831378,74.020594
4426.207272,148.041188,-8350.440928,-370.102971
4426.207596,370.102971,-8810.098227,0.000000
4426.207921,370.102971,-8350.440928,0.000000
4426.208245,296.082377,-8656.879127,0.000000
4426.208569,222.061783,-8580.269578,-370.102971
4426.208894,370.102971,-8427.050478,-222.061783
4426.209218,444.123565,-8350.440928,0.000000
4426.209542,148.041188,-8580.269578,-222.061783
4426.209866,74.020594,-8427.050478,148.041188
4426.210191,0.000000,-8503.660028,0.000000
4426.210515,148.041188,-8427.050478,-222.061783
4426.210839,888.247130,-8350.440928,-592.164754
4426.211164,444.123565,-8580.269578,-222.061783
4426.211488,518.144159,-8273.831378,0.000000
4426.211812,370.102971,-8503.660028,0.000000
4426.212137,1110.308913,-8503.660028,-222.061783
4426.212461,518.144159,-8580.269578,-370.102971
4426.212785,444.123565,-8656.879127,-518.144159
4426.213109,296.082377,-8580.269578,0.000000
4426.213434,444.123565,-8427.050478,0.000000
4426.213758,592.164754,-8197.221829,-296.082377
4426.214082,592.164754,-8427.050478,-222.061783
4426.214407,444.123565,-8810.098227,-148.041188
4426.214731,666.185348,-8273.831378,-444.123565
4426.215055,666.185348,-8273.831378,-296.082377
4426.215379,444.123565,-8580.269578,-444.123565
4426.215704,592.164754,-8503.660028,-296.082377
4426.216028,518.144159,-8810.098227,-370.102971
4426.216352,444.123565,-8503.660028,-1110.308913
4426.216677,444.123565,-8733.488677,-148.041188
4426.217001,444.123565,-8580.269578,-518.144159
4426.217325,444.123565,-8733.488677,-370.102971
4426.217650,740.205942,-8120.612279,-296.082377
4426.217974,666.185348,-8963.317327,-666.185348
4426.218298,666.185348,-8273.831378,-518.144159
4426.218622,296.082377,-8656.879127,-444.123565
4426.218947,518.144159,-8810.098227,-296.082377
4426.219271,518.144159,-8656.879127,-370.102971
4426.219595,444.123565,-8810.098227,-962.267725
4426.219920,222.061783,-8503.660028,-296.082377
4426.220244,370.102971,-8503.660028,-592.164754
4426.220568,666.185348,-8963.317327,-370.102971
4426.220892,444.123565,-8503.660028,-666.185348
4426.221217,148.041188,-8886.707777,-740.205942
4426.221541,666.185348,-8733.488677,-666.185348
4426.221865,740.205942,-8350.440928,0.000000
4426.222190,518.144159,-8733.488677,-592.164754
4426.222514,296.082377,-8810.098227,-444.123565
4426.222838,518.144159,-8656.879127,-814.226536
4426.223163,518.144159,-8656.879127,-740.205942
4426.223487,592.164754,-8580.269578,-444.123565
4426.223811,518.144159,-8733.488677,-444.123565
4426.224135,296.082377,-8810.098227,-296.082377
4426.224460,370.102971,-8503.660028,-666.185348
4426.224784,74.020594,-8580.269578,-1110.308913
4426.225108,444.123565,-8580.269578,-518.144159
4426.225433,518.144159,-8580.269578,-518.144159
4426.225757,518.144159,-8656.879127,-518.144159
4426.226081,518.144159,-7814.174080,-592.164754
4426.226405,370.102971,-8350.440928,-370.102971
4426.226730,518.144159,-8656.879127,-370.102971
4426.227054,148.041188,-8656.879127,0.000000
4426.227378,222.061783,-8733.488677,0.000000
4426.227703,222.061783,-8350.440928,-370.102971
4426.228027,148.041188,-8656.879127,-74.020594
4426.228351,74.020594,-9039.926876,0.000000
4426.228675,296.082377,-8197.221829,0.000000
4426.229000,296.082377,-8120.612279,222.061783
4426.229324,518.144159,-8733.488677,0.000000
4426.229648,592.164754,-8273.831378,0.000000
4426.229973,592.164754,-8733.488677,0.000000
4426.230297,370.102971,-8810.098227,0.000000
4426.230621,148.041188,-8503.660028,74.020594
4426.230946,222.061783,-8810.098227,0.000000
4426.231270,370.102971,-8503.660028,0.000000
4426.231594,518.144159,-8427.050478,-74.020594
4426.231918,814.226536,-8886.707777,-296.082377
4426.232243,888.247130,-8273.831378,0.000000
4426.232567,666.185348,-8427.050478,0.000000
4426.232891,518.144159,-8580.269578,-222.061783
4426.233216,518.144159,-8810.098227,0.000000
4426.233540,518.144159,-8580.269578,-370.102971
4426.233864,444.123565,-8886.707777,0.000000
4426.234188,296.082377,-8580.269578,-296.082377
4426.234513,592.164754,-8580.269578,-222.061783
4426.234837,592.164754,-8350.440928,0.000000
4426.235161,444.123565,-8963.317327,-518.144159
4426.235486,740.205942,-8427.050478,-148.041188
4426.235810,592.164754,-8580.269578,-148.041188
4426.236134,148.041188,-8503.660028,-444.123565
4426.236459,296.082377,-8273.831378,0.000000
4426.236783,518.144159,-8580.269578,-296.082377
4426.237107,518.144159,-8810.098227,-518.144159
4426.237431,444.123565,-8810.098227,-666.185348
4426.237756,370.102971,-9039.926876,-444.123565
4426.238080,370.102971,-8810.098227,-370.102971
4426.238404,518.144159,-8810.098227,-370.102971
4426.238729,370.102971,-8580.269578,-518.144159
4426.239053,888.247130,-8733.488677,-370.102971
4426.239377,518.144159,-8733.488677,-444.123565
4426.239701,666.185348,-8503.660028,-444.123565
4426.240026,592.164754,-8656.879127,-592.164754
4426.240350,592.164754,-8580.269578,-888.247130
4426.240674,518.144159,-8810.098227,-666.185348
4426.240999,74.020594,-8886.707777,-444.123565
4426.241323,296.082377,-8886.707777,-592.164754
4426.241647,296.082377,-9729.412825,-444.123565
4426.241972,296.082377,-8580.269578,-666.185348
4426.242296,592.164754,-8656.879127,-666.185348
4426.242620,592.164754,-8427.050478,-518.144159
4426.242944,444.123565,-8580.269578,-370.102971
4426.243269,666.185348,-8886.707777,-592.164754
4426.243593,592.164754,-8427.050478,-740.205942
4426.243917,592.164754,-8810.098227,-666.185348
4426.244242,592.164754,-8580.269578,-666.185348
4426.244566,296.082377,-9269.755526,-592.164754
4426.244890,296.082377,-8503.660028,-370.102971
4426.245214,148.041188,-8197.221829,-740.205942
4426.245539,444.123565,-8580.269578,-518.144159
4426.245863,592.164754,-9116.536426,-592.164754
4426.246187,222.061783,-8197.221829,-370.102971
4426.246512,296.082377,-8350.440928,-666.185348
4426.246836,370.102971,-8427.050478,-296.082377
4426.247160,296.082377,-8350.440928,-370.102971
4426.247485,444.123565,-8503.660028,-666.185348
4426.247809,222.061783,-8427.050478,-148.041188
4426.248133,222.061783,-8580.269578,0.000000
4426.248458,148.041188,-8580.269578,-222.061783
4426.248782,296.082377,-8580.269578,-444.123565
4426.249106,222.061783,-8963.317327,-296.082377
4426.249431,518.144159,-8120.612279,-296.082377
4426.249755,296.082377,-8503.660028,-222.061783
4426.250079,222.061783,-8350.440928,-296.082377
4426.250404,592.164754,-8350.440928,-370.102971
4426.250728,518.144159,-8503.660028,-444.123565
4426.251053,370.102971,-8580.269578,-222.061783
4426.251377,296.082377,-8427.050478,-74.020594
4426.251701,740.205942,-8273.831378,-444.123565
4426.252026,222.061783,-8580.269578,-444.123565
4426.252350,370.102971,-8886.707777,-444.123565
4426.252674,444.123565,-8656.879127,-444.123565
4426.252999,370.102971,-8273.831378,-296.082377
4426.253323,222.061783,-8427.050478,-518.144159
4426.253647,222.061783,-8350.440928,-296.082377
4426.253972,444.123565,-8580.269578,-518.144159
4426.254296,740.205942,-8580.269578,-444.123565
4426.254621,444.123565,-8580.269578,-370.102971
4426.254945,444.123565,-8810.098227,-296.082377
4426.255269,518.144159,-8427.050478,-592.164754
4426.255594,518.144159,-8503.660028,-444.123565
4426.255918,814.226536,-9039.926876,-962.267725
4426.256242,740.205942,-8656.879127,-740.205942
4426.256567,518.144159,-8733.488677,-444.123565
4426.256891,444.123565,-8580.269578,-592.164754
4426.257215,518.144159,-9269.755526,-370.102971
4426.257540,370.102971,-8656.879127,-296.082377
4426.257864,814.226536,-8886.707777,-444.123565
4426.258188,666.185348,-9039.926876,-592.164754
4426.258513,592.164754,-8656.879127,-518.144159
4426.258837,370.102971,-8733.488677,-222.061783
4426.259162,296.082377,-8580.269578,-592.164754
4426.259486,444.123565,-9116.536426,-592.164754
4426.259810,296.082377,-8503.660028,-296.082377
4426.260135,592.164754,-8656.879127,-740.205942
4426.260459,148.041188,-8886.707777,-296.082377
4426.260783,444.123565,-8350.440928,-370.102971
4426.261108,518.144159,-8733.488677,-370.102971
4426.261432,370.102971,-8580.269578,0.000000
4426.261756,518.144159,-8733.488677,-370.102971
4426.262081,296.082377,-8963.317327,-444.123565
4426.262405,370.102971,-8580.269578,-444.123565
4426.262729,296.082377,-8886.707777,0.000000
4426.263054,666.185348,-8810.098227,-444.123565
4426.263378,296.082377,-8427.050478,-148.041188
4426.263703,222.061783,-8810.098227,0.000000
4426.264027,444.123565,-8580.269578,-222.061783
4426.264351,1110.308913,-8350.440928,-222.061783
4426.264676,444.123565,-8656.879127,0.000000
4426.265000,666.185348,-8503.660028,-370.102971
4426.265324,370.102971,-8580.269578,-296.082377
4426.265649,370.102971,-8427.050478,0.000000
4426.265973,296.082377,-8350.440928,-148.041188
4426.266297,444.123565,-8656.879127,-296.082377
4426.266622,222.061783,-8350.440928,-296.082377
4426.266946,296.082377,-8427.050478,0.000000
4426.267270,666.185348,-8120.612279,74.020594
4426.267595,518.144159,-8120.612279,-370.102971
4426.267919,518.144159,-8350.440928,-222.061783
4426.268244,666.185348,-8503.660028,0.000000
4426.268568,518.144159,-7814.174080,0.000000
4426.268892,444.123565,-8350.440928,0.000000
4426.269217,148.041188,-8350.440928,-370.102971
4426.269541,148.041188,-8350.440928,-222.061783
4426.269865,296.082377,-8580.269578,-518.144159
4426.270190,518.144159,-8656.879127,-296.082377
4426.270514,518.144159,-8273.831378,-296.082377
4426.270838,370.102971,-8810.098227,-148.041188
4426.271163,444.123565,-8656.879127,0.000000
4426.271487,962.267725,-8044.002729,-222.061783
4426.271811,518.144159,-8503.660028,-592.164754
4426.272136,222.061783,-8580.269578,-666.185348
4426.272460,444.123565,-8733.488677,-518.144159
4426.272785,740.205942,-8733.488677,-518.144159
4426.273109,296.082377,-8656.879127,-148.041188
4426.273433,222.061783,-9116.536426,-666.185348
4426.273758,518.144159,-8580.269578,-148.041188
4426.274082,444.123565,-8580.269578,-370.102971
4426.274406,370.102971,-8810.098227,-296.082377
4426.274731,518.144159,-8427.050478,-370.102971
4426.275055,592.164754,-8810.098227,-666.185348
4426.275379,370.102971,-8656.879127,-444.123565
4426.275704,370.102971,-8886.707777,-444.123565
4426.276028,222.061783,-8810.098227,-296.082377
4426.276352,370.102971,-8656.879127,-518.144159
4426.276677,296.082377,-8733.488677,-666.185348
4426.277001,592.164754,-8273.831378,-518.144159
4426.277326,370.102971,-8273.831378,-444.123565
4426.277650,518.144159,-8503.660028,-666.185348
4426.277974,296.082377,-8733.488677,-370.102971
4426.278299,592.164754,-8656.879127,-444.123565
4426.278623,444.123565,-8503.660028,-1036.288319
4426.278947,370.102971,-8810.098227,-518.144159
4426.279272,444.123565,-8580.269578,-666.185348
4426.279596,370.102971,-9039.926876,-444.123565
4426.279920,444.123565,-8503.660028,0.000000
4426.280245,592.164754,-8963.317327,-370.102971
4426.280569,296.082377,-8810.098227,0.000000
4426.280893,444.123565,-8503.660028,-370.102971
4426.281218,296.082377,-8810.098227,-444.123565
4426.281542,518.144159,-8733.488677,-296.082377
4426.281867,370.102971,-8580.269578,-370.102971
4426.282191,518.144159,-8810.098227,-222.061783
4426.282515,0.000000,-8503.660028,0.000000
4426.282840,592.164754,-9039.926876,-444.123565
4426.283164,148.041188,-8350.440928,-370.102971
4426.283488,148.041188,-8810.098227,-222.061783
4426.283813,370.102971,-8656.879127,-296.082377
4426.284137,1110.308913,-9269.755526,0.000000
4426.284461,666.185348,-8580.269578,-222.061783
4426.284786,222.061783,-8733.488677,-148.041188
4426.285110,370.102971,-8580.269578,-370.102971
4426.285434,296.082377,-8503.660028,-296.082377
4426.285759,518.144159,-8580.269578,-370.102971
4426.286083,222.061783,-8427.050478,-222.061783
4426.286408,296.082377,-8580.269578,-444.123565
4426.286732,444.123565,-8580.269578,-148.041188
4426.287056,666.185348,-8810.098227,-148.041188
4426.287381,518.144159,-8963.317327,-370.102971
4426.287705,666.185348,-8197.221829,-444.123565
4426.288029,518.144159,-8733.488677,-444.123565
4426.288354,296.082377,-8733.488677,-296.082377
4426.288678,444.123565,-8044.002729,-296.082377
4426.289002,370.102971,-8580.269578,-518.144159
4426.289327,370.102971,-8733.488677,-222.061783
4426.289651,518.144159,-8350.440928,-222.061783
4426.289976,592.164754,-8427.050478,-444.123565
4426.290300,740.205942,-8350.440928,-592.164754
4426.290624,592.164754,-8580.269578,0.000000
4426.290949,592.164754,-8503.660028,-370.102971
4426.291273,444.123565,-9346.365076,74.020594
4426.291597,222.061783,-8503.660028,-444.123565
4426.291922,222.061783,-8656.879127,-222.061783
4426.292246,296.082377,-8503.660028,-148.041188
4426.292570,444.123565,-9576.193725,-296.082377
4426.292895,222.061783,-8350.440928,-222.061783
4426.293219,592.164754,-8886.707777,-222.061783
4426.293543,518.144159,-8427.050478,-592.164754
4426.293868,370.102971,-8810.098227,-444.123565
4426.294192,74.020594,-8810.098227,-296.082377
4426.294517,666.185348,-8503.660028,-222.061783
4426.294841,370.102971,-8656.879127,-666.185348
4426.295165,296.082377,-8656.879127,-296.082377
4426.295490,148.041188,-8963.317327,-222.061783
4426.295814,444.123565,-8963.317327,-592.164754
4426.296138,444.123565,-8656.879127,-518.144159
4426.296463,444.123565,-8427.050478,-370.102971
4426.296787,444.123565,-8963.317327,-592.164754
4426.297111,444.123565,-8656.879127,-370.102971
4426.297436,518.144159,-8886.707777,-740.205942
4426.297760,518.144159,-8656.879127,-444.123565
4426.298084,444.123565,-8427.050478,-296.082377
4426.298409,148.041188,-8427.050478,-444.123565
4426.298733,370.102971,-8503.660028,-444.123565
4426.299058,666.185348,-8810.098227,-148.041188
4426.299382,740.205942,-8656.879127,-444.123565
4426.299706,444.123565,-8733.488677,-222.061783
4426.300031,518.144159,-8503.660028,-222.061783
4426.300355,444.123565,-8656.879127,-222.061783
4426.300679,370.102971,-8656.879127,-296.082377
4426.301004,444.123565,-8503.660028,-370.102971
4426.301328,592.164754,-8963.317327,-518.144159
4426.301652,444.123565,-8350.440928,0.000000
4426.301977,148.041188,-8656.879127,0.000000
4426.302301,518.144159,-8580.269578,-148.041188
4426.302625,592.164754,-8963.317327,222.061783
4426.302950,444.123565,-8656.879127,-296.082377
4426.303274,296.082377,-8580.269578,0.000000
4426.303599,296.082377,-8656.879127,0.000000
4426.303923,0.000000,-8810.098227,740.205942
4426.304247,222.061783,-8503.660028,-296.082377
4426.304572,518.144159,-8733.488677,-296.082377
4426.304896,370.102971,-8044.002729,-370.102971
4426.305220,222.061783,-8733.488677,74.020594
4426.305545,370.102971,-8427.050478,-222.061783
4426.305869,222.061783,-8656.879127,-222.061783
4426.306193,518.144159,-8273.831378,-222.061783
4426.306518,296.082377,-8503.660028,-222.061783
4426.306842,518.144159,-7814.174080,0.000000
4426.307166,592.164754,-8503.660028,-370.102971
4426.307491,296.082377,-8580.269578,-370.102971
4426.307815,222.061783,-8963.317327,-444.123565
4426.308140,222.061783,-9116.536426,-370.102971
4426.308464,518.144159,-8810.098227,0.000000
4426.308788,296.082377,-8350.440928,-592.164754
4426.309113,518.144159,-8656.879127,-518.144159
4426.309437,444.123565,-8120.612279,-370.102971
4426.309761,814.226536,-8580.269578,-296.082377
4426.310086,518.144159,-8427.050478,-444.123565
4426.310410,444.123565,-8580.269578,-296.082377
4426.310734,592.164754,-8656.879127,-666.185348
4426.311059,962.267725,-8427.050478,-222.061783
4426.311383,444.123565,-8733.488677,-740.205942
4426.311707,222.061783,-8656.879127,-370.102971
4426.312032,296.082377,-8273.831378,-296.082377
4426.312356,296.082377,-8810.098227,-222.061783
4426.312681,148.041188,-8656.879127,-296.082377
4426.313005,222.061783,-8503.660028,-296.082377
4426.313329,444.123565,-8733.488677,-666.185348
4426.313654,296.082377,-8350.440928,-296.082377
4426.313978,296.082377,-8350.440928,0.000000
4426.314302,370.102971,-8580.269578,-370.102971
4426.314627,296.082377,-8656.879127,-666.185348
4426.314951,592.164754,-8886.707777,-592.164754
4426.315275,888.247130,-8886.707777,-592.164754
4426.315600,444.123565,-8886.707777,-518.144159
4426.315924,444.123565,-8656.879127,-518.144159
4426.316248,222.061783,-8810.098227,-518.144159
4426.316573,592.164754,-8733.488677,-592.164754
4426.316897,666.185348,-8810.098227,-296.082377
4426.317222,592.164754,-8580.269578,-296.082377
4426.317546,592.164754,-8733.488677,-518.144159
4426.317870,518.144159,-8733.488677,-370.102971
4426.318195,666.185348,-8886.707777,-444.123565
4426.318519,666.185348,-8733.488677,-444.123565
4426.318843,222.061783,-8656.879127,-518.144159
4426.319168,74.020594,-8733.488677,-370.102971
4426.319492,666.185348,-8350.440928,-148.041188
4426.319816,592.164754,-8656.879127,-370.102971
4426.320141,592.164754,-8427.050478,-592.164754
4426.320465,444.123565,-8503.660028,-370.102971
4426.320789,370.102971,-8656.879127,-222.061783
4426.321114,592.164754,-8503.660028,0.000000
4426.321438,444.123565,-8733.488677,-444.123565
4426.321763,370.102971,-8350.440928,-296.082377
4426.322087,370.102971,-8886.707777,0.000000
4426.322411,0.000000,-8350.440928,-296.082377
4426.322736,296.082377,-8810.098227,-148.041188
4426.323060,74.020594,-8044.002729,-148.041188
4426.323384,518.144159,-8733.488677,0.000000
4426.323709,740.205942,-8044.002729,-370.102971
4426.324033,666.185348,-8656.879127,0.000000
4426.324357,444.123565,-8503.660028,-222.061783
4426.324682,592.164754,-8733.488677,0.000000
4426.325006,74.020594,-8656.879127,-222.061783
4426.325331,444.123565,-8733.488677,-148.041188
4426.325655,296.082377,-8427.050478,0.000000
4426.325979,222.061783,-8503.660028,-222.061783
4426.326304,444.123565,-8580.269578,-444.123565
4426.326628,296.082377,-9269.755526,-444.123565
4426.326952,592.164754,-8503.660028,-370.102971
4426.327277,592.164754,-8427.050478,-296.082377
4426.327601,444.123565,-8427.050478,-296.082377
4426.327925,518.144159,-9039.926876,-222.061783
4426.328250,296.082377,-8427.050478,-222.061783
4426.328574,296.082377,-8810.098227,-444.123565
4426.328898,296.082377,-8656.879127,-370.102971
4426.329223,444.123565,-8427.050478,74.020594
4426.329547,0.000000,-8733.488677,74.020594
4426.329872,370.102971,-8656.879127,-222.061783
4426.330196,444.123565,-8427.050478,-370.102971
4426.330520,518.144159,-8656.879127,-296.082377
4426.330845,444.123565,-9193.145976,0.000000
4426.331169,518.144159,-8733.488677,-222.061783
4426.331493,444.123565,-8580.269578,-370.102971
4426.331818,444.123565,-8580.269578,-222.061783
4426.332142,518.144159,-8656.879127,-370.102971
4426.332466,740.205942,-8427.050478,-296.082377
4426.332791,444.123565,-8503.660028,-148.041188
4426.333115,296.082377,-8273.831378,-222.061783
4426.333439,370.102971,-8427.050478,-222.061783
4426.333764,0.000000,-8197.221829,-296.082377
4426.334088,592.164754,-8656.879127,-592.164754
4426.334413,518.144159,-8427.050478,-592.164754
4426.334737,370.102971,-8580.269578,-148.041188
4426.335061,74.020594,-8273.831378,-814.226536
4426.335386,592.164754,-8427.050478,-222.061783
4426.335710,444.123565,-8656.879127,-444.123565
4426.336034,592.164754,-8733.488677,-370.102971
4426.336359,296.082377,-8273.831378,-444.123565
4426.336683,222.061783,-8963.317327,0.000000
4426.337007,222.061783,-8273.831378,-370.102971
4426.337332,444.123565,-8656.879127,-296.082377
4426.337656,444.123565,-8350.440928,-592.164754
4426.337980,222.061783,-9039.926876,0.000000
4426.338305,592.164754,-8656.879127,-666.185348
4426.338629,370.102971,-9039.926876,-370.102971
4426.338954,518.144159,-8580.269578,-148.041188
4426.339278,518.144159,-8733.488677,-518.144159
4426.339602,296.082377,-8580.269578,-370.102971
4426.339927,592.164754,-8810.098227,-518.144159
4426.340251,296.082377,-8810.098227,-592.164754
4426.340575,296.082377,-8503.660028,-592.164754
4426.340900,148.041188,-8656.879127,-370.102971
4426.341224,518.144159,-8886.707777,-592.164754
4426.341548,592.164754,-8580.269578,-666.185348
4426.341873,666.185348,-8580.269578,-518.144159
4426.342197,148.041188,-8427.050478,-222.061783
4426.342521,666.185348,-8580.269578,-518.144159
4426.342846,814.226536,-8886.707777,-814.226536
4426.343170,370.102971,-8427.050478,-444.123565
4426.343495,444.123565,-9116.536426,-518.144159
4426.343819,0.000000,-8580.269578,-666.185348
4426.344143,296.082377,-8427.050478,-444.123565
4426.344468,666.185348,-8580.269578,-666.185348
4426.344792,518.144159,-8656.879127,-518.144159
4426.345116,666.185348,-8503.660028,-370.102971
4426.345441,518.144159,-8810.098227,-592.164754
4426.345765,370.102971,-8427.050478,-592.164754
4426.346089,444.123565,-8656.879127,-666.185348
4426.346414,518.144159,-9116.536426,0.000000
4426.346738,370.102971,-8503.660028,-444.123565
4426.347062,444.123565,-8580.269578,-148.041188
4426.347387,222.061783,-8656.879127,-444.123565
4426.347711,370.102971,-8810.098227,-444.123565
4426.348036,370.102971,-8810.098227,-444.123565
4426.348360,518.144159,-8580.269578,0.000000
4426.348684,148.041188,-8580.269578,-148.041188
4426.349009,444.123565,-8427.050478,-222.061783
4426.349333,222.061783,-8580.269578,0.000000
4426.349657,666.185348,-8733.488677,-296.082377
4426.349982,370.102971,-8503.660028,-296.082377
4426.350306,370.102971,-8503.660028,-296.082377
4426.350630,0.000000,-8886.707777,222.061783
4426.350955,444.123565,-8503.660028,-444.123565
4426.351279,666.185348,-8886.707777,-444.123565
4426.351604,370.102971,-8580.269578,-222.061783
4426.351928,222.061783,-8427.050478,-296.082377
4426.352252,444.123565,-8580.269578,-370.102971
