#time,accel_x,accel_y,accel_z
5722.197716,518.144159,-8580.269578,-370.102971
5722.198040,592.164754,-8503.660028,-222.061783
5722.198365,148.041188,-8580.269578,-296.082377
5722.198689,888.247130,-8810.098227,-666.185348
5722.199014,666.185348,-8580.269578,-370.102971
5722.199338,592.164754,-8580.269578,-666.185348
5722.199663,592.164754,-8427.050478,-370.102971
5722.199987,444.123565,-8963.317327,-518.144159
5722.200312,296.082377,-8656.879127,0.000000
5722.200636,222.061783,-8350.440928,-370.102971
5722.200961,518.144159,-8733.488677,-222.061783
5722.201285,592.164754,-8427.050478,-444.123565
5722.201610,740.205942,-9039.926876,-296.082377
5722.201934,444.123565,-8810.098227,-370.102971
5722.202259,518.144159,-8580.269578,-444.123565
5722.202583,518.144159,-8427.050478,-296.082377
5722.202908,888.247130,-8656.879127,-222.061783
5722.203232,296.082377,-8580.269578,-370.102971
5722.203557,148.041188,-8350.440928,-222.061783
5722.203881,666.185348,-8656.879127,-444.123565
5722.204206,74.020594,-8427.050478,-444.123565
5722.204530,370.102971,-8503.660028,-222.061783
5722.204855,518.144159,-8427.050478,-370.102971
5722.205179,370.102971,-8427.050478,-148.041188
5722.205504,0.000000,-8733.488677,-222.061783
5722.205828,222.061783,-8350.440928,-666.185348
5722.206153,518.144159,-8810.098227,-444.123565
5722.206477,518.144159,-8580.269578,-518.144159
5722.206802,518.144159,-8733.488677,-296.082377
5722.207126,444.123565,-8580.269578,-74.020594
5722.207451,222.061783,-8886.707777,-296.082377
5722.207775,222.061783,-8350.440928,-296.082377
5722.208100,518.144159,-8656.879127,-518.144159
5722.208424,296.082377,-8273.831378,-444.123565
5722.208749,296.082377,-8656.879127,-222.061783
5722.209073,296.082377,-8656.879127,-444.123565
5722.209398,740.205942,-8273.831378,-296.082377
5722.209722,222.061783,-8503.660028,-370.102971
5722.210047,888.247130,-8580.269578,-740.205942
5722.210371,296.082377,-8503.660028,-370.102971
5722.210696,444.123565,-8580.269578,-222.061783
5722.211021,592.164754,-8503.660028,-518.144159
5722.211345,444.123565,-8120.612279,-296.082377
5722.211670,444.123565,-8350.440928,-444.123565
5722.211994,518.144159,-8273.831378,-296.082377
5722.212319,296.082377,-8810.098227,-370.102971
5722.212643,518.144159,-8503.660028,-222.061783
5722.212968,666.185348,-8656.879127,-666.185348
5722.213292,370.102971,-8580.269578,-518.144159
5722.213617,518.144159,-8886.707777,-148.041188
5722.213941,296.082377,-8503.660028,-296.082377
5722.214266,740.205942,-9346.365076,0.000000
5722.214590,518.144159,-8427.050478,-592.164754
5722.214915,370.102971,-8810.098227,-222.061783
5722.215239,296.082377,-8503.660028,-370.102971
5722.215564,148.041188,-8810.098227,-148.041188
5722.215888,370.102971,-8810.098227,-444.123565
5722.216213,444.123565,-8503.660028,-296.082377
5722.216537,740.205942,-8580.269578,-666.185348
5722.216862,666.185348,-8656.879127,-370.102971
5722.217186,0.000000,-8273.831378,-370.102971
5722.217511,0.000000,-8810.098227,-296.082377
5722.217835,370.102971,-8580.269578,-444.123565
5722.218160,222.061783,-8503.660028,-444.123565
5722.218484,666.185348,-8580.269578,-888.247130
5722.218809,222.061783,-8044.002729,-444.123565
5722.219133,370.102971,-8503.660028,-444.123565
5722.219458,296.082377,-8350.440928,-740.205942
5722.219782,814.226536,-8810.098227,-888.247130
5722.220107,444.123565,-8503.660028,-1036.288319
5722.220431,444.123565,-8656.879127,-592.164754
5722.220756,148.041188,-8503.660028,-518.144159
5722.221080,592.164754,-8580.269578,-814.226536
5722.221405,592.164754,-8427.050478,-962.267725
5722.221729,296.082377,-8427.050478,-740.205942
5722.222054,444.123565,-8580.269578,-740.205942
5722.222378,444.123565,-8503.660028,-888.247130
5722.222703,444.123565,-9576.193725,-814.226536
5722.223027,518.144159,-8503.660028,-814.226536
5722.223352,666.185348,-8656.879127,-888.247130
5722.223676,370.102971,-8580.269578,-1184.329507
5722.224001,666.185348,-8580.269578,-962.267725
5722.224325,592.164754,-8810.098227,-888.247130
5722.224650,444.123565,-8656.879127,-740.205942
5722.224974,518.144159,-8503.660028,-1036.288319
5722.225299,592.164754,-8963.317327,-1332.370696
5722.225623,296.082377,-8656.879127,-666.185348
5722.225948,296.082377,-8120.612279,-740.205942
5722.226272,444.123565,-8963.317327,-888.247130
5722.226597,444.123565,-8580.269578,-962.267725
5722.226921,888.247130,-8580.269578,-814.226536
5722.227246,370.102971,-8427.050478,-888.247130
5722.227570,444.123565,-8656.879127,-518.144159
5722.227895,444.123565,-8580.269578,-740.205942
5722.228219,592.164754,-8580.269578,-666.185348
5722.228544,666.185348,-8656.879127,-888.247130
5722.228868,518.144159,-8733.488677,-666.185348
5722.229193,666.185348,-8503.660028,-666.185348
5722.229517,370.102971,-8427.050478,-592.164754
5722.229842,814.226536,-8733.488677,-666.185348
5722.230166,296.082377,-8503.660028,-592.164754
5722.230491,370.102971,-8810.098227,-592.164754
5722.230815,74.020594,-8580.269578,-592.164754
5722.231140,518.144159,-8656.879127,-74.020594
5722.231464,296.082377,-8427.050478,-370.102971
5722.231789,740.205942,-8886.707777,-370.102971
5722.232113,444.123565,-8810.098227,-444.123565
5722.232438,888.247130,-8733.488677,-296.082377
5722.232762,740.205942,-8503.660028,-296.082377
5722.233087,518.144159,-8733.488677,-296.082377
5722.233412,444.123565,-8656.879127,-296.082377
5722.233736,518.144159,-8656.879127,-296.082377
5722.234061,444.123565,-9193.145976,-888.247130
5722.234385,296.082377,-8427.050478,74.020594
5722.234710,74.020594,-8886.707777,148.041188
5722.235034,296.082377,-8656.879127,0.000000
5722.235359,592.164754,-8886.707777,0.000000
5722.235683,370.102971,-8886.707777,0.000000
5722.236008,518.144159,-8733.488677,74.020594
5722.236332,296.082377,-8197.221829,0.000000
5722.236657,518.144159,-8963.317327,0.000000
5722.236981,148.041188,-8886.707777,518.144159
5722.237306,444.123565,-8580.269578,148.041188
5722.237630,74.020594,-8427.050478,148.041188
5722.237955,370.102971,-8580.269578,222.061783
5722.238279,0.000000,-9269.755526,222.061783
5722.238604,370.102971,-8810.098227,0.000000
5722.238928,370.102971,-8503.660028,0.000000
5722.239253,518.144159,-8503.660028,0.000000
5722.239577,740.205942,-8580.269578,222.061783
5722.239902,444.123565,-8350.440928,148.041188
5722.240226,814.226536,-8886.707777,74.020594
5722.240551,518.144159,-8273.831378,74.020594
5722.240875,592.164754,-8733.488677,444.123565
5722.241200,888.247130,-8197.221829,0.000000
5722.241524,444.123565,-8503.660028,148.041188
5722.241849,518.144159,-8503.660028,0.000000
5722.242173,296.082377,-8427.050478,74.020594
5722.242498,518.144159,-8963.317327,370.102971
5722.242822,296.082377,-8656.879127,148.041188
5722.243147,518.144159,-8273.831378,148.041188
5722.243471,518.144159,-8503.660028,148.041188
5722.243796,444.123565,-8810.098227,296.082377
5722.244120,592.164754,-8580.269578,74.020594
5722.244445,888.247130,-8963.317327,74.020594
5722.244769,444.123565,-8580.269578,0.000000
5722.245094,592.164754,-8656.879127,0.000000
5722.245418,222.061783,-8427.050478,296.082377
5722.245743,370.102971,-8580.269578,-74.020594
5722.246067,0.000000,-8810.098227,-370.102971
5722.246392,222.061783,-8656.879127,0.000000
5722.246716,296.082377,-8503.660028,444.123565
5722.247041,370.102971,-8273.831378,0.000000
5722.247365,444.123565,-8273.831378,0.000000
5722.247690,666.185348,-8580.269578,0.000000
5722.248014,666.185348,-8733.488677,-296.082377
5722.248339,666.185348,-8580.269578,0.000000
5722.248663,592.164754,-8350.440928,-296.082377
5722.248988,222.061783,-8656.879127,-222.061783
5722.249312,296.082377,-8656.879127,-370.102971
5722.249637,592.164754,-8656.879127,0.000000
5722.249961,222.061783,-8580.269578,-222.061783
5722.250286,0.000000,-8350.440928,0.000000
5722.250610,148.041188,-8580.269578,-444.123565
5722.250935,222.061783,-8580.269578,-370.102971
5722.251259,444.123565,-8503.660028,-518.144159
5722.251584,518.144159,-8656.879127,-444.123565
5722.251908,518.144159,-8580.269578,-444.123565
5722.252233,814.226536,-8580.269578,-370.102971
5722.252557,888.247130,-8503.660028,-814.226536
5722.252882,518.144159,-8580.269578,-814.226536
5722.253206,666.185348,-8733.488677,-814.226536
5722.253531,296.082377,-8427.050478,-370.102971
5722.253855,518.144159,-9193.145976,-814.226536
5722.254180,148.041188,-8580.269578,-740.205942
5722.254504,222.061783,-8427.050478,-444.123565
5722.254828,74.020594,-8580.269578,-592.164754
5722.255152,222.061783,-9116.536426,-296.082377
5722.255476,370.102971,-8886.707777,-370.102971
5722.255800,814.226536,-8810.098227,-370.102971
5722.256125,814.226536,-8733.488677,-592.164754
5722.256449,592.164754,-8886.707777,-518.144159
5722.256773,1110.308913,-8733.488677,-518.144159
5722.257097,666.185348,-8580.269578,-592.164754
5722.257421,444.123565,-8733.488677,-962.267725
5722.257745,74.020594,-8273.831378,-740.205942
5722.258069,444.123565,-7967.393179,-740.205942
5722.258394,0.000000,-8273.831378,-962.267725
5722.258718,0.000000,-8350.440928,-814.226536
5722.259042,370.102971,-8427.050478,-888.247130
5722.259366,740.205942,-8503.660028,-888.247130
5722.259690,666.185348,-8350.440928,-740.205942
5722.260014,1110.308913,-8810.098227,-666.185348
5722.260339,888.247130,-8810.098227,-666.185348
5722.260663,888.247130,-8580.269578,-740.205942
5722.260987,666.185348,-9193.145976,-666.185348
5722.261311,222.061783,-8503.660028,-888.247130
5722.261635,148.041188,-8580.269578,-666.185348
5722.261959,0.000000,-8733.488677,-740.205942
5722.262283,0.000000,-9193.145976,-370.102971
5722.262608,74.020594,-8886.707777,-592.164754
5722.262932,370.102971,-8656.879127,-222.061783
5722.263256,740.205942,-8656.879127,-296.082377
5722.263580,888.247130,-9039.926876,0.000000
5722.263904,888.247130,-8733.488677,0.000000
5722.264228,666.185348,-8580.269578,74.020594
5722.264553,444.123565,-8810.098227,0.000000
5722.264877,296.082377,-8580.269578,-518.144159
5722.265201,592.164754,-9193.145976,-296.082377
5722.265525,74.020594,-8503.660028,-518.144159
5722.265849,148.041188,-8503.660028,-666.185348
5722.266173,-148.041188,-8427.050478,-296.082377
5722.266497,222.061783,-8580.269578,74.020594
5722.266822,370.102971,-8733.488677,222.061783
5722.267146,518.144159,-8963.317327,0.000000
5722.267470,666.185348,-8120.612279,74.020594
5722.267794,962.267725,-8580.269578,222.061783
5722.268118,814.226536,-8733.488677,74.020594
5722.268442,1258.350101,-8350.440928,0.000000
5722.268767,592.164754,-8733.488677,0.000000
5722.269091,370.102971,-8273.831378,296.082377
5722.269415,444.123565,-8273.831378,592.164754
5722.269739,0.000000,-8427.050478,666.185348
5722.270063,296.082377,-8044.002729,518.144159
5722.270387,148.041188,-8350.440928,148.041188
5722.270711,444.123565,-8427.050478,592.164754
5722.271036,592.164754,-8427.050478,592.164754
5722.271360,740.205942,-8580.269578,814.226536
5722.271684,962.267725,-8580.269578,592.164754
5722.272008,814.226536,-8963.317327,592.164754
5722.272332,814.226536,-8733.488677,962.267725
5722.272656,666.185348,-8656.879127,888.247130
5722.272981,74.020594,-8503.660028,666.185348
5722.273305,74.020594,-8273.831378,518.144159
5722.273629,-518.144159,-7890.783629,592.164754
5722.273953,74.020594,-8427.050478,148.041188
5722.274277,0.000000,-8273.831378,444.123565
5722.274601,222.061783,-8503.660028,740.205942
5722.274925,222.061783,-8427.050478,666.185348
5722.275250,592.164754,-8656.879127,592.164754
5722.275574,888.247130,-8810.098227,592.164754
5722.275898,666.185348,-8427.050478,740.205942
5722.276222,222.061783,-8580.269578,814.226536
5722.276546,814.226536,-8656.879127,222.061783
5722.276870,370.102971,-8273.831378,-148.041188
5722.277195,74.020594,-8503.660028,74.020594
5722.277519,0.000000,-9039.926876,0.000000
5722.277843,74.020594,-8580.269578,-222.061783
5722.278167,444.123565,-8580.269578,222.061783
5722.278491,0.000000,-9039.926876,370.102971
5722.278815,296.082377,-8503.660028,370.102971
5722.279139,740.205942,-8886.707777,666.185348
5722.279464,592.164754,-8503.660028,222.061783
5722.279788,888.247130,-8733.488677,444.123565
5722.280112,592.164754,-8273.831378,0.000000
5722.280436,296.082377,-8503.660028,148.041188
5722.280760,370.102971,-8197.221829,74.020594
5722.281084,222.061783,-8580.269578,-370.102971
5722.281409,74.020594,-8273.831378,-222.061783
5722.281733,0.000000,-8350.440928,0.000000
5722.282057,222.061783,-8350.440928,0.000000
5722.282381,444.123565,-8503.660028,-222.061783
5722.282705,518.144159,-8656.879127,0.000000
5722.283029,518.144159,-8810.098227,-222.061783
5722.283353,888.247130,-8656.879127,-444.123565
5722.283678,1110.308913,-8656.879127,-592.164754
5722.284002,888.247130,-8503.660028,-814.226536
5722.284326,370.102971,-8580.269578,-962.267725
5722.284650,444.123565,-8427.050478,-592.164754
5722.284974,518.144159,-8733.488677,-444.123565
5722.285298,0.000000,-8273.831378,-814.226536
5722.285623,74.020594,-8197.221829,-740.205942
5722.285947,518.144159,-8350.440928,-962.267725
5722.286271,444.123565,-8427.050478,-1110.308913
5722.286595,518.144159,-8350.440928,-592.164754
5722.286919,740.205942,-8580.269578,-592.164754
5722.287243,814.226536,-8656.879127,-592.164754
5722.287567,888.247130,-8273.831378,-666.185348
5722.287892,592.164754,-8963.317327,-592.164754
5722.288216,444.123565,-8350.440928,-592.164754
5722.288540,0.000000,-8273.831378,-740.205942
5722.288864,74.020594,-8503.660028,-1184.329507
5722.289188,592.164754,-8580.269578,-1258.350101
5722.289512,0.000000,-8810.098227,-1258.350101
5722.289837,296.082377,-8427.050478,-1258.350101
5722.290161,148.041188,-8733.488677,-740.205942
5722.290485,222.061783,-8580.269578,-666.185348
5722.290809,666.185348,-8273.831378,-592.164754
5722.291133,592.164754,-8733.488677,-592.164754
5722.291457,444.123565,-8886.707777,-592.164754
5722.291782,518.144159,-8350.440928,-814.226536
5722.292106,74.020594,-8350.440928,-1332.370696
5722.292430,296.082377,-8733.488677,-1184.329507
5722.292754,0.000000,-8350.440928,-1258.350101
5722.293078,370.102971,-8810.098227,-1036.288319
5722.293402,296.082377,-7967.393179,-444.123565
5722.293726,370.102971,-8273.831378,-962.267725
5722.294051,444.123565,-8580.269578,-740.205942
5722.294375,814.226536,-8503.660028,-518.144159
5722.294699,740.205942,-8733.488677,-740.205942
5722.295023,1184.329507,-8733.488677,-666.185348
5722.295347,814.226536,-8656.879127,-592.164754
5722.295671,518.144159,-8733.488677,-888.247130
5722.295996,592.164754,-8886.707777,-888.247130
5722.296320,814.226536,-8350.440928,-592.164754
5722.296644,296.082377,-9039.926876,-740.205942
5722.296968,148.041188,-8273.831378,-518.144159
5722.297292,222.061783,-8580.269578,-592.164754
5722.297616,74.020594,-7737.564530,-222.061783
5722.297940,444.123565,-8350.440928,-518.144159
5722.298265,444.123565,-8350.440928,-888.247130
5722.298589,666.185348,-8733.488677,-518.144159
5722.298913,592.164754,-8503.660028,-888.247130
5722.299237,740.205942,-8733.488677,-666.185348
5722.299561,518.144159,-8580.269578,-666.185348
5722.299885,888.247130,-8503.660028,-666.185348
5722.300210,518.144159,-8197.221829,-814.226536
5722.300534,592.164754,-8044.002729,-1110.308913
5722.300858,222.061783,-8580.269578,-740.205942
5722.301182,296.082377,-8273.831378,-592.164754
5722.301506,370.102971,-8427.050478,-888.247130
5722.301830,370.102971,-8503.660028,-740.205942
5722.302154,592.164754,-8503.660028,-222.061783
5722.302479,222.061783,-8503.660028,74.020594
5722.302803,370.102971,-8580.269578,74.020594
5722.303127,370.102971,-8273.831378,0.000000
5722.303451,518.144159,-8886.707777,-222.061783
5722.303775,296.082377,-8810.098227,-592.164754
5722.304099,74.020594,-8886.707777,-296.082377
5722.304424,0.000000,-8427.050478,-444.123565
5722.304748,148.041188,-9269.755526,-222.061783
5722.305072,0.000000,-8963.317327,-296.082377
5722.305396,518.144159,-8810.098227,0.000000
5722.305720,444.123565,-8580.269578,0.000000
5722.306044,296.082377,-8427.050478,0.000000
5722.306368,370.102971,-8656.879127,0.000000
5722.306693,666.185348,-8044.002729,-370.102971
5722.307017,888.247130,-8503.660028,-666.185348
5722.307341,518.144159,-8503.660028,-740.205942
5722.307665,148.041188,-8273.831378,-888.247130
5722.307989,222.061783,-8810.098227,-592.164754
5722.308313,370.102971,-8427.050478,-592.164754
5722.308638,518.144159,-8503.660028,-592.164754
5722.308962,518.144159,-8427.050478,-518.144159
5722.309286,148.041188,-8350.440928,0.000000
5722.309610,296.082377,-8503.660028,0.000000
5722.309934,592.164754,-8350.440928,-444.123565
5722.310258,666.185348,-8733.488677,-148.041188
5722.310582,1036.288319,-8580.269578,-666.185348
5722.310907,444.123565,-8810.098227,0.000000
5722.311231,518.144159,-8733.488677,0.000000
5722.311555,444.123565,-8580.269578,0.000000
5722.311879,814.226536,-8427.050478,0.000000
5722.312203,444.123565,-8810.098227,0.000000
5722.312527,740.205942,-8350.440928,0.000000
5722.312852,370.102971,-8427.050478,-222.061783
5722.313176,666.185348,-9346.365076,-444.123565
5722.313500,518.144159,-8350.440928,-444.123565
5722.313824,518.144159,-8810.098227,-222.061783
5722.314148,296.082377,-8427.050478,-370.102971
5722.314472,518.144159,-8503.660028,74.020594
5722.314796,444.123565,-8503.660028,0.000000
5722.315121,518.144159,-8273.831378,-222.061783
5722.315445,592.164754,-8273.831378,-592.164754
5722.315769,666.185348,-8503.660028,-592.164754
5722.316093,370.102971,-8656.879127,-148.041188
5722.316417,592.164754,-8886.707777,-1036.288319
5722.316741,222.061783,-8580.269578,-1110.308913
5722.317066,370.102971,-8656.879127,-962.267725
5722.317390,592.164754,-8656.879127,-740.205942
5722.317714,222.061783,-8656.879127,-592.164754
5722.318038,222.061783,-8733.488677,-296.082377
5722.318362,518.144159,-8656.879127,-740.205942
5722.318686,592.164754,-8503.660028,-740.205942
5722.319010,370.102971,-8427.050478,-1036.288319
5722.319335,518.144159,-9116.536426,-888.247130
5722.319659,518.144159,-8503.660028,-1110.308913
5722.319983,666.185348,-9116.536426,-888.247130
5722.320307,666.185348,-8886.707777,-444.123565
5722.320631,222.061783,-8503.660028,-888.247130
5722.320955,370.102971,-8963.317327,-888.247130
5722.321280,370.102971,-8656.879127,-666.185348
5722.321604,444.123565,-8656.879127,-814.226536
5722.321928,592.164754,-8656.879127,-1184.329507
5722.322252,370.102971,-8656.879127,-1110.308913
5722.322576,518.144159,-9039.926876,-1332.370696
5722.322900,296.082377,-8810.098227,-1184.329507
5722.323224,814.226536,-8810.098227,-1184.329507
5722.323549,222.061783,-8886.707777,-1036.288319
5722.323873,370.102971,-8273.831378,-888.247130
5722.324197,444.123565,-8580.269578,-888.247130
5722.324521,814.226536,-8580.269578,-962.267725
5722.324845,296.082377,-8503.660028,-740.205942
5722.325169,518.144159,-8427.050478,-888.247130
5722.325494,296.082377,-8656.879127,-962.267725
5722.325818,222.061783,-8580.269578,-1110.308913
5722.326142,370.102971,-8886.707777,-1110.308913
5722.326466,592.164754,-8580.269578,-962.267725
5722.326790,370.102971,-8656.879127,-518.144159
5722.327114,370.102971,-8580.269578,-962.267725
5722.327438,814.226536,-8503.660028,-888.247130
5722.327763,666.185348,-8810.098227,-962.267725
5722.328087,518.144159,-8427.050478,-1110.308913
5722.328411,296.082377,-8656.879127,-962.267725
5722.328735,518.144159,-8733.488677,-888.247130
5722.329059,222.061783,-8810.098227,-592.164754
5722.329383,592.164754,-8350.440928,-740.205942
5722.329708,148.041188,-8656.879127,-296.082377
5722.330032,296.082377,-8044.002729,-296.082377
5722.330356,740.205942,-8427.050478,-518.144159
5722.330680,666.185348,-8273.831378,-518.144159
5722.331004,666.185348,-8350.440928,-444.123565
5722.331328,666.185348,-8503.660028,-740.205942
5722.331652,1110.308913,-8733.488677,-222.061783
5722.331977,444.123565,-8427.050478,-518.144159
5722.332301,518.144159,-8503.660028,-370.102971
5722.332625,296.082377,-8273.831378,-518.144159
5722.332949,666.185348,-8963.317327,0.000000
5722.333273,592.164754,-8350.440928,-518.144159
5722.333597,444.123565,-8580.269578,-444.123565
5722.333922,370.102971,-8886.707777,-666.185348
5722.334246,296.082377,-8886.707777,-888.247130
5722.334570,222.061783,-8503.660028,-518.144159
5722.334894,518.144159,-8810.098227,-740.205942
5722.335218,296.082377,-8656.879127,-592.164754
5722.335542,296.082377,-8810.098227,-296.082377
5722.335866,370.102971,-8273.831378,0.000000
5722.336191,148.041188,-8733.488677,74.020594
5722.336515,148.041188,-8733.488677,-518.144159
5722.336839,222.061783,-8273.831378,0.000000
5722.337163,0.000000,-8656.879127,-370.102971
5722.337487,518.144159,-9039.926876,-592.164754
5722.337811,222.061783,-8580.269578,-74.020594
5722.338136,740.205942,-8656.879127,0.000000
5722.338460,592.164754,-8810.098227,148.041188
5722.338784,592.164754,-8120.612279,148.041188
5722.339108,518.144159,-8656.879127,222.061783
5722.339432,666.185348,-8197.221829,74.020594
5722.339756,370.102971,-8656.879127,-296.082377
5722.340080,296.082377,-8886.707777,0.000000
5722.340405,222.061783,-8350.440928,0.000000
5722.340729,148.041188,-8580.269578,-296.082377
5722.341053,444.123565,-8580.269578,0.000000
5722.341377,592.164754,-8273.831378,0.000000
5722.341701,740.205942,-8580.269578,0.000000
5722.342025,592.164754,-8120.612279,-222.061783
5722.342350,518.144159,-8503.660028,74.020594
5722.342674,666.185348,-8273.831378,-444.123565
5722.342998,888.247130,-8580.269578,-370.102971
5722.343322,518.144159,-8427.050478,-518.144159
5722.343646,592.164754,-8656.879127,-296.082377
5722.343970,222.061783,-8427.050478,0.000000
5722.344294,148.041188,-8197.221829,148.041188
5722.344619,740.205942,-8503.660028,-148.041188
5722.344943,518.144159,-8427.050478,0.000000
5722.345267,592.164754,-8427.050478,-222.061783
5722.345591,666.185348,-8503.660028,370.102971
5722.345915,592.164754,-8427.050478,-518.144159
5722.346239,666.185348,-8810.098227,0.000000
5722.346564,444.123565,-8350.440928,-296.082377
5722.346888,296.082377,-9039.926876,-148.041188
5722.347212,518.144159,-8580.269578,0.000000
5722.347536,444.123565,-8273.831378,0.000000
5722.347860,0.000000,-8810.098227,444.123565
5722.348184,0.000000,-8350.440928,296.082377
5722.348508,296.082377,-9116.536426,0.000000
5722.348833,296.082377,-8197.221829,-296.082377
5722.349157,296.082377,-8580.269578,-222.061783
5722.349481,222.061783,-9116.536426,-370.102971
5722.349805,222.061783,-8350.440928,-296.082377
5722.350129,592.164754,-8427.050478,-444.123565
5722.350453,444.123565,-8580.269578,-222.061783
5722.350778,370.102971,-8350.440928,74.020594
5722.351102,444.123565,-8580.269578,0.000000
5722.351426,222.061783,-8733.488677,-518.144159
5722.351750,518.144159,-8427.050478,-518.144159
5722.352074,370.102971,-8580.269578,-814.226536
5722.352398,222.061783,-8656.879127,-592.164754
5722.352722,148.041188,-9499.584175,-740.205942
5722.353047,518.144159,-8350.440928,-370.102971
5722.353371,296.082377,-8580.269578,0.000000
5722.353695,296.082377,-8656.879127,-592.164754
5722.354019,666.185348,-8656.879127,-148.041188
5722.354343,222.061783,-8273.831378,0.000000
5722.354669,518.144159,-8656.879127,-222.061783
5722.354993,370.102971,-8733.488677,-444.123565
5722.355317,740.205942,-8656.879127,-444.123565
5722.355642,296.082377,-8886.707777,-222.061783
5722.355966,444.123565,-8886.707777,0.000000
5722.356290,370.102971,-8733.488677,0.000000
5722.356614,370.102971,-8503.660028,296.082377
5722.356938,296.082377,-8503.660028,0.000000
5722.357263,518.144159,-8350.440928,0.000000
5722.357587,888.247130,-8273.831378,0.000000
5722.357911,592.164754,-8427.050478,0.000000
5722.358235,222.061783,-8810.098227,-296.082377
5722.358559,592.164754,-8350.440928,-592.164754
5722.358884,666.185348,-8733.488677,0.000000
5722.359208,592.164754,-8656.879127,-296.082377
5722.359532,444.123565,-8656.879127,0.000000
5722.359856,518.144159,-8963.317327,148.041188
5722.360181,444.123565,-8580.269578,0.000000
5722.360505,518.144159,-8733.488677,-148.041188
5722.360829,444.123565,-8503.660028,-518.144159
5722.361153,1110.308913,-8580.269578,-518.144159
5722.361477,148.041188,-8427.050478,-740.205942
5722.361802,444.123565,-8963.317327,-296.082377
5722.362126,444.123565,-8503.660028,-296.082377
5722.362450,518.144159,-8810.098227,74.020594
5722.362774,296.082377,-8044.002729,0.000000
5722.363099,518.144159,-8580.269578,0.000000
5722.363423,518.144159,-8273.831378,0.000000
5722.363747,814.226536,-8427.050478,-518.144159
5722.364071,888.247130,-9193.145976,0.000000
5722.364395,592.164754,-8427.050478,-666.185348
5722.364720,444.123565,-8580.269578,-222.061783
5722.365044,222.061783,-8503.660028,-370.102971
5722.365368,296.082377,-8656.879127,-148.041188
5722.365692,444.123565,-8120.612279,-444.123565
5722.366017,814.226536,-8580.269578,-370.102971
5722.366341,0.000000,-8427.050478,-148.041188
5722.366665,518.144159,-8656.879127,-444.123565
5722.366989,740.205942,-8810.098227,-444.123565
5722.367313,148.041188,-8350.440928,-370.102971
5722.367638,518.144159,-8810.098227,-518.144159
5722.367962,148.041188,-9039.926876,-148.041188
5722.368286,444.123565,-8427.050478,0.000000
5722.368610,0.000000,-8350.440928,74.020594
5722.368934,296.082377,-8656.879127,222.061783
5722.369259,592.164754,-8197.221829,-222.061783
5722.369583,444.123565,-8580.269578,-370.102971
5722.369907,296.082377,-8120.612279,0.000000
5722.370231,444.123565,-8733.488677,-296.082377
5722.370556,0.000000,-8733.488677,-148.041188
5722.370880,370.102971,-8656.879127,0.000000
5722.371204,518.144159,-8427.050478,148.041188
5722.371528,592.164754,-8273.831378,222.061783
5722.371852,370.102971,-8350.440928,0.000000
5722.372177,444.123565,-8733.488677,0.000000
5722.372501,518.144159,-8580.269578,0.000000
5722.372825,444.123565,-8733.488677,0.000000
5722.373149,148.041188,-8580.269578,-444.123565
5722.373474,148.041188,-8733.488677,74.020594
5722.373798,370.102971,-8580.269578,0.000000
5722.374122,0.000000,-8273.831378,222.061783
5722.374446,444.123565,-8503.660028,222.061783
5722.374770,296.082377,-8503.660028,222.061783
5722.375095,888.247130,-8273.831378,148.041188
5722.375419,814.226536,-8044.002729,-148.041188
5722.375743,592.164754,-8427.050478,0.000000
5722.376067,518.144159,-8427.050478,-296.082377
5722.376392,592.164754,-8503.660028,-370.102971
5722.376716,148.041188,-8733.488677,0.000000
5722.377040,592.164754,-8580.269578,74.020594
5722.377364,518.144159,-8580.269578,0.000000
5722.377688,518.144159,-8503.660028,74.020594
5722.378013,518.144159,-8733.488677,0.000000
5722.378337,666.185348,-8503.660028,0.000000
5722.378661,444.123565,-8427.050478,0.000000
5722.378985,222.061783,-8580.269578,0.000000
5722.379309,296.082377,-8963.317327,0.000000
5722.379634,666.185348,-8733.488677,-222.061783
5722.379958,518.144159,-8886.707777,-148.041188
5722.380282,444.123565,-8733.488677,148.041188
5722.380606,296.082377,-8733.488677,296.082377
5722.380931,296.082377,-8427.050478,148.041188
5722.381255,148.041188,-8197.221829,444.123565
5722.381579,370.102971,-8656.879127,0.000000
5722.381903,592.164754,-8427.050478,0.000000
5722.382227,296.082377,-8350.440928,0.000000
5722.382552,370.102971,-9652.803275,0.000000
5722.382876,74.020594,-8350.440928,74.020594
5722.383200,444.123565,-8580.269578,0.000000
5722.383524,148.041188,-8733.488677,296.082377
5722.383849,296.082377,-9116.536426,222.061783
5722.384173,296.082377,-8580.269578,148.041188
5722.384497,222.061783,-8656.879127,-370.102971
5722.384821,888.247130,-8733.488677,-296.082377
5722.385145,296.082377,-8733.488677,-444.123565
5722.385470,0.000000,-8427.050478,-148.041188
5722.385794,0.000000,-8427.050478,-370.102971
5722.386118,0.000000,-8810.098227,-296.082377
5722.386442,148.041188,-8886.707777,0.000000
5722.386767,296.082377,-8120.612279,-518.144159
5722.387091,296.082377,-8273.831378,0.000000
5722.387415,518.144159,-8427.050478,-222.061783
5722.387739,518.144159,-8656.879127,-740.205942
5722.388063,296.082377,-8120.612279,-370.102971
5722.388388,444.123565,-8810.098227,-666.185348
5722.388712,296.082377,-8810.098227,-592.164754
5722.389036,666.185348,-8656.879127,-518.144159
5722.389360,222.061783,-8427.050478,-296.082377
5722.389684,666.185348,-8963.317327,-296.082377
5722.390009,444.123565,-8273.831378,-370.102971
5722.390333,666.185348,-8810.098227,-370.102971
5722.390657,444.123565,-8580.269578,-444.123565
5722.390981,740.205942,-8963.317327,-888.247130
5722.391306,592.164754,-8733.488677,-888.247130
5722.391630,370.102971,-8273.831378,-740.205942
5722.391954,592.164754,-9116.536426,-888.247130
5722.392278,666.185348,-9193.145976,-518.144159
5722.392602,148.041188,-8427.050478,-296.082377
5722.392927,222.061783,-8733.488677,-370.102971
5722.393251,518.144159,-8197.221829,-740.205942
5722.393575,518.144159,-8810.098227,-666.185348
5722.393899,518.144159,-8427.050478,-666.185348
5722.394224,0.000000,-8886.707777,-740.205942
5722.394548,148.041188,-8733.488677,-666.185348
5722.394872,222.061783,-8656.879127,-592.164754
5722.395196,592.164754,-8656.879127,-592.164754
5722.395520,518.144159,-8273.831378,-962.267725
5722.395845,370.102971,-8350.440928,-296.082377
5722.396169,222.061783,-8580.269578,-740.205942
5722.396493,74.020594,-8656.879127,-814.226536
5722.396817,444.123565,-8656.879127,-1110.308913
5722.397142,370.102971,-8656.879127,-1184.329507
5722.397466,370.102971,-8733.488677,-814.226536
5722.397790,222.061783,-8580.269578,-518.144159
5722.398114,518.144159,-8427.050478,-592.164754
5722.398438,222.061783,-8733.488677,-296.082377
5722.398763,518.144159,-8580.269578,-740.205942
5722.399087,370.102971,-8503.660028,-370.102971
5722.399411,814.226536,-8733.488677,-370.102971
5722.399735,222.061783,-8810.098227,-666.185348
5722.400059,518.144159,-8656.879127,-592.164754
5722.400384,296.082377,-8733.488677,-444.123565
5722.400708,148.041188,-9116.536426,-296.082377
5722.401032,296.082377,-8580.269578,222.061783
5722.401356,296.082377,-8733.488677,74.020594
5722.401681,444.123565,-8580.269578,0.000000
5722.402005,370.102971,-8197.221829,0.000000
5722.402329,518.144159,-8273.831378,148.041188
5722.402653,666.185348,-8273.831378,-296.082377
5722.402977,518.144159,-8427.050478,-296.082377
5722.403302,222.061783,-8580.269578,-370.102971
5722.403626,296.082377,-8886.707777,148.041188
5722.403950,518.144159,-8580.269578,-222.061783
5722.404274,666.185348,-8503.660028,-222.061783
5722.404599,370.102971,-8503.660028,0.000000
5722.404923,296.082377,-8656.879127,0.000000
5722.405247,814.226536,-8120.612279,0.000000
5722.405571,444.123565,-8197.221829,-222.061783
5722.405895,740.205942,-8580.269578,-518.144159
5722.406220,888.247130,-8656.879127,-370.102971
5722.406544,444.123565,-8044.002729,0.000000
5722.406868,296.082377,-8810.098227,0.000000
5722.407192,296.082377,-8503.660028,0.000000
5722.407517,592.164754,-8580.269578,0.000000
5722.407841,518.144159,-8427.050478,296.082377
5722.408165,370.102971,-8580.269578,0.000000
5722.408489,740.205942,-8733.488677,-444.123565
5722.408813,370.102971,-8427.050478,-592.164754
5722.409138,222.061783,-8656.879127,-592.164754
5722.409462,148.041188,-8656.879127,-296.082377
5722.409786,296.082377,-8580.269578,-296.082377
5722.410110,222.061783,-8580.269578,-296.082377
5722.410434,148.041188,-8503.660028,-370.102971
5722.410759,296.082377,-7737.564530,0.000000
5722.411083,518.144159,-8886.707777,-296.082377
5722.411407,444.123565,-8350.440928,-740.205942
5722.411731,370.102971,-8656.879127,-888.247130
5722.412056,370.102971,-8580.269578,-888.247130
5722.412380,148.041188,-8580.269578,-962.267725
5722.412704,814.226536,-8810.098227,-888.247130
5722.413028,518.144159,-8503.660028,-592.164754
5722.413352,370.102971,-8120.612279,-370.102971
5722.413677,888.247130,-8350.440928,-296.082377
5722.414001,666.185348,-8427.050478,-962.267725
5722.414325,666.185348,-8503.660028,-592.164754
5722.414649,444.123565,-8350.440928,-814.226536
5722.414974,666.185348,-9269.755526,-962.267725
5722.415298,296.082377,-9039.926876,-814.226536
5722.415622,370.102971,-8656.879127,-666.185348
5722.415946,666.185348,-8580.269578,-962.267725
5722.416270,444.123565,-8733.488677,-740.205942
5722.416595,666.185348,-8044.002729,-296.082377
5722.416919,518.144159,-8273.831378,-592.164754
5722.417243,666.185348,-8810.098227,-592.164754
5722.417567,518.144159,-8503.660028,-518.144159
5722.417892,518.144159,-8350.440928,-1332.370696
5722.418216,370.102971,-8503.660028,-888.247130
5722.418540,444.123565,-8656.879127,-592.164754
5722.418864,444.123565,-8733.488677,-444.123565
5722.419188,592.164754,-8273.831378,-370.102971
5722.419513,518.144159,-8197.221829,-592.164754
5722.419837,666.185348,-8197.221829,-370.102971
5722.420161,888.247130,-7814.174080,-444.123565
5722.420485,666.185348,-8350.440928,-592.164754
5722.420809,740.205942,-8350.440928,-814.226536
5722.421134,444.123565,-8197.221829,-814.226536
5722.421458,592.164754,-8886.707777,-740.205942
5722.421782,518.144159,-8273.831378,-592.164754
5722.422106,592.164754,-9193.145976,-296.082377
5722.422431,592.164754,-8427.050478,0.000000
5722.422755,740.205942,-8580.269578,-370.102971
5722.423079,518.144159,-8656.879127,-296.082377
5722.423403,666.185348,-8886.707777,-370.102971
5722.423727,592.164754,-8656.879127,-518.144159
5722.424052,370.102971,-8503.660028,-666.185348
5722.424376,444.123565,-8886.707777,-370.102971
5722.424700,666.185348,-8886.707777,-444.123565
5722.425024,296.082377,-8503.660028,-222.061783
5722.425349,148.041188,-8656.879127,74.020594
5722.425673,74.020594,-8580.269578,296.082377
5722.425997,148.041188,-9116.536426,0.000000
5722.426321,740.205942,-9346.365076,-222.061783
5722.426645,444.123565,-9039.926876,-666.185348
5722.426970,444.123565,-8886.707777,-592.164754
5722.427294,148.041188,-8503.660028,-518.144159
5722.427618,148.041188,-9039.926876,-222.061783
5722.427942,444.123565,-8733.488677,-296.082377
5722.428267,518.144159,-8733.488677,-148.041188
5722.428591,296.082377,-8733.488677,-370.102971
5722.428915,148.041188,-8503.660028,0.000000
5722.429239,0.000000,-8656.879127,148.041188
5722.429563,444.123565,-8427.050478,-740.205942
5722.429888,296.082377,-8656.879127,-666.185348
5722.430212,296.082377,-8580.269578,-814.226536
5722.430536,444.123565,-9116.536426,-888.247130
5722.430860,370.102971,-8273.831378,-666.185348
5722.431184,518.144159,-8427.050478,-222.061783
5722.431509,222.061783,-8580.269578,-444.123565
5722.431833,370.102971,-8580.269578,-370.102971
5722.432157,592.164754,-8427.050478,-740.205942
5722.432481,666.185348,-8580.269578,-518.144159
5722.432806,444.123565,-8733.488677,-1110.308913
5722.433130,370.102971,-8963.317327,-962.267725
5722.433454,444.123565,-8427.050478,-814.226536
5722.433778,666.185348,-8733.488677,-444.123565
5722.434102,592.164754,-8427.050478,-518.144159
5722.434427,296.082377,-8427.050478,-370.102971
5722.434751,666.185348,-8733.488677,-740.205942
5722.435075,518.144159,-8273.831378,-592.164754
5722.435399,666.185348,-8503.660028,-740.205942
5722.435724,518.144159,-8273.831378,-740.205942
5722.436048,444.123565,-8580.269578,-666.185348
5722.436372,444.123565,-8580.269578,-814.226536
5722.436696,518.144159,-8427.050478,-592.164754
5722.437020,518.144159,-8580.269578,-518.144159
5722.437345,666.185348,-8656.879127,-370.102971
5722.437669,296.082377,-8427.050478,222.061783
5722.437993,296.082377,-8503.660028,-148.041188
5722.438317,222.061783,-8350.440928,-370.102971
5722.438642,444.123565,-8656.879127,-740.205942
5722.438966,444.123565,-9039.926876,-962.267725
5722.439290,370.102971,-8886.707777,-962.267725
5722.439614,148.041188,-8580.269578,-592.164754
5722.439938,370.102971,-8197.221829,-444.123565
5722.440263,444.123565,-8273.831378,-370.102971
5722.440587,370.102971,-8656.879127,-370.102971
5722.440911,518.144159,-8580.269578,-222.061783
5722.441235,370.102971,-8350.440928,-740.205942
5722.441559,518.144159,-8656.879127,-666.185348
5722.441884,0.000000,-8963.317327,-370.102971
5722.442208,444.123565,-8810.098227,-888.247130
5722.442532,74.020594,-8733.488677,-814.226536
5722.442856,370.102971,-8503.660028,-296.082377
5722.443181,222.061783,-8656.879127,-370.102971
5722.443505,222.061783,-8733.488677,0.000000
5722.443829,444.123565,-8427.050478,-296.082377
5722.444153,518.144159,-8580.269578,-592.164754
5722.444477,814.226536,-8580.269578,-444.123565
5722.444802,296.082377,-8197.221829,-740.205942
5722.445126,518.144159,-9039.926876,-592.164754
5722.445450,370.102971,-8810.098227,-740.205942
5722.445774,518.144159,-8886.707777,-222.061783
5722.446099,370.102971,-8350.440928,-666.185348
5722.446423,592.164754,-8656.879127,0.000000
5722.446747,148.041188,-8427.050478,0.000000
5722.447071,666.185348,-8810.098227,222.061783
5722.447395,518.144159,-8656.879127,-370.102971
5722.447720,814.226536,-8656.879127,-444.123565
5722.448044,740.205942,-8503.660028,-444.123565
5722.448368,370.102971,-8886.707777,0.000000
5722.448692,592.164754,-8810.098227,0.000000
5722.449017,740.205942,-8120.612279,0.000000
5722.449341,888.247130,-8503.660028,0.000000
5722.449665,370.102971,-8120.612279,222.061783
5722.449989,444.123565,-8656.879127,370.102971
5722.450313,296.082377,-8350.440928,-370.102971
5722.450638,666.185348,-8656.879127,-148.041188
5722.450962,296.082377,-8810.098227,-148.041188
5722.451286,666.185348,-8733.488677,0.000000
5722.451610,592.164754,-8273.831378,0.000000
5722.451934,666.185348,-8886.707777,148.041188
5722.452259,222.061783,-8580.269578,74.020594
5722.452583,518.144159,-8350.440928,0.000000
5722.452907,444.123565,-8580.269578,0.000000
5722.453231,740.205942,-8503.660028,-370.102971
5722.453556,666.185348,-8427.050478,-518.144159
5722.453880,296.082377,-8503.660028,-296.082377
5722.454204,666.185348,-8733.488677,-370.102971
5722.454528,222.061783,-8886.707777,-370.102971
5722.454852,518.144159,-8580.269578,-148.041188
5722.455177,74.020594,-8273.831378,0.000000
5722.455501,148.041188,-8580.269578,0.000000
5722.455825,666.185348,-8120.612279,-592.164754
5722.456149,518.144159,-8810.098227,-370.102971
5722.456474,296.082377,-8580.269578,-444.123565
5722.456798,296.082377,-8580.269578,-592.164754
5722.457122,444.123565,-8656.879127,-814.226536
5722.457446,740.205942,-8963.317327,-592.164754
5722.457770,518.144159,-9116.536426,-370.102971
5722.458095,74.020594,-8733.488677,-444.123565
5722.458419,518.144159,-8810.098227,0.000000
5722.458743,296.082377,-8886.707777,-296.082377
5722.459068,148.041188,-8810.098227,-222.061783
5722.459392,296.082377,-8427.050478,-444.123565
5722.459716,222.061783,-8580.269578,-888.247130
5722.460041,296.082377,-8810.098227,-1036.288319
5722.460365,0.000000,-8427.050478,-592.164754
5722.460689,666.185348,-8886.707777,-296.082377
5722.461013,592.164754,-8503.660028,-222.061783
5722.461338,518.144159,-8733.488677,-370.102971
5722.461662,370.102971,-8350.440928,-518.144159
5722.461986,518.144159,-8120.612279,-296.082377
5722.462311,222.061783,-8580.269578,-666.185348
5722.462635,592.164754,-8580.269578,-444.123565
5722.462959,370.102971,-8580.269578,-1110.308913
5722.463284,370.102971,-8886.707777,-1036.288319
5722.463608,296.082377,-8350.440928,-296.082377
5722.463932,518.144159,-8810.098227,-148.041188
5722.464257,370.102971,-8273.831378,-370.102971
5722.464581,962.267725,-8427.050478,-518.144159
5722.464905,740.205942,-8503.660028,-296.082377
5722.465230,518.144159,-8197.221829,-222.061783
5722.465554,666.185348,-8350.440928,-592.164754
5722.465878,740.205942,-9193.145976,-518.144159
5722.466202,592.164754,-8656.879127,-666.185348
5722.466527,518.144159,-8580.269578,-592.164754
5722.466851,814.226536,-8810.098227,-370.102971
5722.467175,222.061783,-8427.050478,0.000000
5722.467500,666.185348,-8963.317327,0.000000
5722.467824,370.102971,-8580.269578,0.000000
5722.468148,814.226536,-8427.050478,-592.164754
5722.468473,518.144159,-8580.269578,-592.164754
5722.468797,888.247130,-8044.002729,74.020594
5722.469121,444.123565,-8350.440928,-592.164754
5722.469446,296.082377,-8810.098227,-148.041188
5722.469770,518.144159,-8427.050478,0.000000
5722.470094,444.123565,-8580.269578,222.061783
5722.470419,444.123565,-8580.269578,222.061783
5722.470743,0.000000,-8350.440928,74.020594
5722.471067,222.061783,-8733.488677,370.102971
5722.471391,222.061783,-8427.050478,-148.041188
5722.471716,518.144159,-8886.707777,0.000000
5722.472040,74.020594,-8810.098227,0.000000
5722.472364,370.102971,-8733.488677,74.020594
5722.472689,0.000000,-8810.098227,0.000000
5722.473013,814.226536,-8503.660028,296.082377
5722.473337,370.102971,-8656.879127,370.102971
5722.473662,518.144159,-8580.269578,222.061783
5722.473986,222.061783,-8503.660028,148.041188
5722.474310,222.061783,-8503.660028,0.000000
5722.474635,518.144159,-8810.098227,0.000000
5722.474959,296.082377,-8580.269578,-370.102971
5722.475283,518.144159,-8886.707777,-296.082377
5722.475608,148.041188,-8427.050478,0.000000
5722.475932,296.082377,-8733.488677,148.041188
5722.476256,0.000000,-8580.269578,0.000000
5722.476580,740.205942,-8273.831378,0.000000
5722.476905,296.082377,-8580.269578,0.000000
5722.477229,814.226536,-8733.488677,-74.020594
5722.477553,222.061783,-8350.440928,0.000000
5722.477878,444.123565,-8810.098227,0.000000
5722.478202,518.144159,-8580.269578,-222.061783
5722.478526,518.144159,-8810.098227,-222.061783
5722.478851,444.123565,-8580.269578,0.000000
5722.479175,222.061783,-8120.612279,518.144159
5722.479499,296.082377,-8197.221829,74.020594
5722.479824,148.041188,-8350.440928,0.000000
5722.480148,518.144159,-8580.269578,0.000000
5722.480472,592.164754,-8427.050478,-296.082377
5722.480797,444.123565,-8427.050478,-222.061783
5722.481121,222.061783,-8580.269578,-222.061783
5722.481445,222.061783,-8120.612279,0.000000
5722.481769,518.144159,-8733.488677,0.000000
5722.482094,148.041188,-8503.660028,-148.041188
5722.482418,222.061783,-8733.488677,0.000000
5722.482742,0.000000,-8120.612279,74.020594
5722.483067,74.020594,-8350.440928,0.000000
5722.483391,296.082377,-8427.050478,0.000000
5722.483715,222.061783,-8503.660028,-444.123565
5722.484040,296.082377,-8656.879127,-1036.288319
5722.484364,444.123565,-9039.926876,-296.082377
5722.484688,222.061783,-8580.269578,-444.123565
5722.485013,370.102971,-8580.269578,-296.082377
5722.485337,148.041188,-8427.050478,-518.144159
5722.485661,888.247130,-8427.050478,-222.061783
5722.485986,444.123565,-8197.221829,-370.102971
5722.486310,518.144159,-8580.269578,-296.082377
5722.486634,518.144159,-8580.269578,-666.185348
5722.486958,222.061783,-8427.050478,-666.185348
5722.487283,444.123565,-8503.660028,-370.102971
5722.487607,296.082377,-8350.440928,-296.082377
5722.487931,444.123565,-8656.879127,0.000000
5722.488256,444.123565,-8503.660028,-222.061783
5722.488580,296.082377,-8580.269578,-222.061783
5722.488904,222.061783,-8580.269578,-296.082377
5722.489229,666.185348,-8656.879127,-592.164754
5722.489553,518.144159,-8427.050478,-296.082377
5722.489877,592.164754,-8580.269578,-592.164754
5722.490202,222.061783,-8733.488677,-222.061783
5722.490526,296.082377,-8427.050478,-444.123565
5722.490850,444.123565,-8656.879127,0.000000
5722.491175,148.041188,-8580.269578,-296.082377
5722.491499,370.102971,-8427.050478,0.000000
5722.491823,74.020594,-8427.050478,-370.102971
5722.492147,518.144159,-8810.098227,-296.082377
5722.492472,592.164754,-8580.269578,-666.185348
5722.492796,666.185348,-9652.803275,-814.226536
5722.493120,444.123565,-8350.440928,-592.164754
5722.493445,444.123565,-8656.879127,-518.144159
5722.493769,518.144159,-8886.707777,-296.082377
5722.494093,296.082377,-8733.488677,0.000000
5722.494418,222.061783,-8427.050478,-592.164754
5722.494742,444.123565,-8503.660028,148.041188
5722.495066,370.102971,-8503.660028,-148.041188
5722.495391,592.164754,-8810.098227,-222.061783
5722.495715,148.041188,-8810.098227,0.000000
5722.496039,666.185348,-8810.098227,0.000000
5722.496364,370.102971,-8503.660028,-148.041188
5722.496688,296.082377,-8427.050478,74.020594
5722.497012,222.061783,-9039.926876,0.000000
5722.497336,148.041188,-8427.050478,296.082377
5722.497661,370.102971,-8350.440928,74.020594
5722.497985,444.123565,-8656.879127,74.020594
5722.498309,222.061783,-8580.269578,0.000000
5722.498634,370.102971,-8656.879127,-370.102971
5722.498958,444.123565,-8733.488677,-592.164754
5722.499282,592.164754,-8273.831378,-370.102971
5722.499607,222.061783,-8810.098227,-518.144159
5722.499931,518.144159,-7814.174080,0.000000
5722.500255,592.164754,-8503.660028,0.000000
5722.500580,222.061783,-8886.707777,-370.102971
5722.500904,370.102971,-8580.269578,-296.082377
5722.501228,518.144159,-8427.050478,-962.267725
5722.501553,370.102971,-8810.098227,-814.226536
5722.501877,296.082377,-8656.879127,-740.205942
5722.502201,148.041188,-8733.488677,-370.102971
5722.502525,0.000000,-8580.269578,-592.164754
5722.502850,592.164754,-8656.879127,-444.123565
5722.503174,148.041188,-8963.317327,-592.164754
5722.503498,444.123565,-8580.269578,0.000000
5722.503823,370.102971,-8503.660028,0.000000
5722.504147,740.205942,-9039.926876,-222.061783
5722.504471,444.123565,-8733.488677,-444.123565
5722.504796,370.102971,-8886.707777,-296.082377
5722.505120,222.061783,-8733.488677,-296.082377
5722.505444,444.123565,-8503.660028,0.000000
5722.505769,222.061783,-8656.879127,0.000000
5722.506093,296.082377,-8273.831378,74.020594
5722.506417,518.144159,-8350.440928,0.000000
5722.506742,296.082377,-8580.269578,0.000000
5722.507066,592.164754,-8427.050478,0.000000
5722.507390,518.144159,-8427.050478,-296.082377
5722.507714,296.082377,-8963.317327,-370.102971
5722.508039,296.082377,-8197.221829,-666.185348
5722.508363,74.020594,-8886.707777,-148.041188
5722.508687,370.102971,-8350.440928,-370.102971
5722.509012,444.123565,-8733.488677,-222.061783
5722.509336,148.041188,-8503.660028,-444.123565
5722.509660,296.082377,-9039.926876,-518.144159
5722.509985,444.123565,-8656.879127,-740.205942
5722.510309,518.144159,-8427.050478,-666.185348
5722.510633,592.164754,-8273.831378,-666.185348
5722.510958,148.041188,-8656.879127,-592.164754
5722.511282,370.102971,-9039.926876,-592.164754
5722.511606,444.123565,-8810.098227,-370.102971
5722.511931,814.226536,-8503.660028,-592.164754
5722.512255,518.144159,-8273.831378,-370.102971
5722.512579,296.082377,-8886.707777,296.082377
5722.512903,666.185348,-8580.269578,-740.205942
5722.513228,814.226536,-8580.269578,-444.123565
5722.513552,296.082377,-8273.831378,-888.247130
5722.513876,666.185348,-8273.831378,-592.164754
5722.514201,518.144159,-8350.440928,-814.226536
5722.514525,444.123565,-8886.707777,-296.082377
5722.514849,444.123565,-8273.831378,-370.102971
5722.515174,666.185348,-8580.269578,-296.082377
5722.515498,962.267725,-8656.879127,-296.082377
5722.515822,444.123565,-8350.440928,-222.061783
5722.516147,370.102971,-8580.269578,-296.082377
5722.516471,222.061783,-8580.269578,-148.041188
5722.516795,592.164754,-9039.926876,-592.164754
5722.517120,0.000000,-8733.488677,-518.144159
5722.517444,296.082377,-8273.831378,0.000000
5722.517768,74.020594,-8503.660028,-148.041188
5722.518092,148.041188,-8580.269578,-148.041188
5722.518417,592.164754,-8580.269578,-296.082377
5722.518741,518.144159,-8580.269578,-148.041188
5722.519065,296.082377,-8427.050478,-518.144159
5722.519390,740.205942,-8656.879127,-518.144159
5722.519714,888.247130,-7967.393179,-444.123565
5722.520038,518.144159,-8963.317327,-592.164754
5722.520363,444.123565,-8886.707777,-740.205942
5722.520687,518.144159,-8580.269578,-444.123565
5722.521011,296.082377,-8427.050478,370.102971
5722.521336,370.102971,-8350.440928,-222.061783
5722.521660,444.123565,-8503.660028,-296.082377
5722.521984,740.205942,-8656.879127,-444.123565
5722.522309,444.123565,-8503.660028,-370.102971
5722.522633,296.082377,-9116.536426,-296.082377
5722.522957,518.144159,-8733.488677,-296.082377
5722.523282,740.205942,-8580.269578,-148.041188
5722.523606,592.164754,-8427.050478,-222.061783
5722.523930,518.144159,-8580.269578,74.020594
5722.524254,444.123565,-8273.831378,0.000000
5722.524579,370.102971,-8120.612279,0.000000
5722.524903,222.061783,-8733.488677,0.000000
5722.525227,444.123565,-8427.050478,-370.102971
5722.525552,666.185348,-8733.488677,-666.185348
5722.525876,518.144159,-8733.488677,-740.205942
5722.526200,444.123565,-8810.098227,-666.185348
5722.526525,222.061783,-8656.879127,-518.144159
5722.526849,592.164754,-8427.050478,-296.082377
5722.527173,518.144159,-8580.269578,-666.185348
5722.527498,444.123565,-8886.707777,-740.205942
5722.527822,444.123565,-8350.440928,-592.164754
5722.528146,592.164754,-8886.707777,-740.205942
5722.528471,222.061783,-8656.879127,-1036.288319
5722.528795,592.164754,-8733.488677,-962.267725
5722.529119,370.102971,-8733.488677,-1258.350101
5722.529443,592.164754,-8733.488677,-740.205942
5722.529768,222.061783,-8580.269578,-370.102971
5722.530092,666.185348,-8963.317327,0.000000
5722.530416,370.102971,-8580.269578,-592.164754
5722.530741,666.185348,-9039.926876,-592.164754
5722.531065,74.020594,-8197.221829,-592.164754
5722.531389,666.185348,-8503.660028,-444.123565
5722.531714,518.144159,-8580.269578,-740.205942
5722.532038,592.164754,-8733.488677,-444.123565
5722.532362,518.144159,-8197.221829,0.000000
5722.532687,814.226536,-8503.660028,-370.102971
5722.533011,444.123565,-8197.221829,0.000000
5722.533335,444.123565,-8273.831378,-296.082377
5722.533660,740.205942,-8733.488677,-444.123565
5722.533984,370.102971,-7967.393179,-666.185348
5722.534308,518.144159,-8810.098227,-592.164754
5722.534632,370.102971,-8427.050478,-740.205942
5722.534957,222.061783,-8733.488677,-370.102971
5722.535281,222.061783,-8580.269578,-888.247130
5722.535605,444.123565,-8656.879127,-296.082377
5722.535930,814.226536,-8427.050478,-370.102971
5722.536254,296.082377,-8503.660028,-444.123565
5722.536578,814.226536,-8656.879127,-814.226536
5722.536903,148.041188,-8810.098227,-296.082377
5722.537227,296.082377,-8580.269578,-518.144159
5722.537551,296.082377,-8656.879127,-814.226536
5722.537876,444.123565,-8886.707777,-666.185348
5722.538200,296.082377,-8427.050478,-592.164754
5722.538524,148.041188,-8503.660028,-444.123565
5722.538849,444.123565,-8503.660028,-444.123565
5722.539173,518.144159,-8350.440928,-444.123565
5722.539497,296.082377,-8197.221829,-444.123565
5722.539821,444.123565,-8350.440928,-518.144159
5722.540146,296.082377,-8580.269578,-444.123565
5722.540470,592.164754,-8580.269578,-666.185348
5722.540794,222.061783,-8197.221829,-592.164754
5722.541119,296.082377,-8427.050478,-666.185348
5722.541443,370.102971,-8886.707777,-148.041188
5722.541767,222.061783,-8427.050478,-296.082377
5722.542092,370.102971,-8580.269578,-222.061783
5722.542416,518.144159,-8580.269578,-296.082377
5722.542740,814.226536,-8580.269578,-370.102971
5722.543065,666.185348,-8503.660028,-592.164754
5722.543389,666.185348,-8503.660028,-666.185348
5722.543713,888.247130,-8963.317327,-740.205942
5722.544038,518.144159,-8427.050478,-740.205942
5722.544362,518.144159,-8427.050478,-814.226536
5722.544686,518.144159,-8733.488677,-740.205942
5722.545010,666.185348,-8503.660028,-444.123565
5722.545335,370.102971,-8427.050478,-296.082377
5722.545659,296.082377,-8733.488677,-444.123565
5722.545983,444.123565,-8733.488677,-666.185348
5722.546308,740.205942,-8580.269578,-962.267725
5722.546632,666.185348,-8427.050478,-888.247130
5722.546956,518.144159,-8580.269578,-370.102971
5722.547281,444.123565,-8350.440928,-518.144159
5722.547605,592.164754,-8886.707777,-222.061783
5722.547929,296.082377,-8580.269578,-518.144159
5722.548254,444.123565,-8656.879127,-296.082377
5722.548578,148.041188,-8427.050478,0.000000
5722.548902,296.082377,-8427.050478,-222.061783
5722.549227,518.144159,-8810.098227,-444.123565
5722.549551,148.041188,-8427.050478,-518.144159
5722.549875,592.164754,-8656.879127,-444.123565
5722.550199,370.102971,-8580.269578,-296.082377
5722.550524,222.061783,-8656.879127,74.020594
5722.550848,666.185348,-8656.879127,0.000000
5722.551172,296.082377,-8580.269578,148.041188
5722.551497,444.123565,-8503.660028,-296.082377
5722.551821,370.102971,-8656.879127,-518.144159
5722.552145,444.123565,-8810.098227,-518.144159
5722.552470,222.061783,-8656.879127,-666.185348
5722.552794,74.020594,-8963.317327,-592.164754
5722.553118,222.061783,-8503.660028,-592.164754
5722.553443,518.144159,-8810.098227,-296.082377
5722.553767,148.041188,-8656.879127,0.000000
5722.554091,222.061783,-8656.879127,-296.082377
5722.554416,296.082377,-8580.269578,-296.082377
5722.554740,296.082377,-8427.050478,-444.123565
5722.555064,74.020594,-8963.317327,-370.102971
5722.555388,592.164754,-8733.488677,-592.164754
5722.555713,370.102971,-8886.707777,-666.185348
5722.556037,296.082377,-8886.707777,-666.185348
5722.556361,592.164754,-8503.660028,-370.102971
5722.556686,444.123565,-8273.831378,-74.020594
5722.557010,444.123565,-8580.269578,-222.061783
5722.557334,518.144159,-8503.660028,-370.102971
5722.557658,518.144159,-8427.050478,0.000000
5722.557983,444.123565,-8503.660028,-370.102971
5722.558307,592.164754,-8580.269578,-370.102971
5722.558631,518.144159,-8733.488677,-814.226536
5722.558955,592.164754,-8656.879127,-370.102971
5722.559280,666.185348,-8350.440928,-592.164754
5722.559604,370.102971,-8580.269578,-222.061783
5722.559928,444.123565,-8350.440928,-370.102971
5722.560252,592.164754,-8503.660028,-222.061783
5722.560577,592.164754,-8580.269578,0.000000
5722.560901,592.164754,-8503.660028,-370.102971
5722.561225,444.123565,-8350.440928,-518.144159
5722.561549,444.123565,-8273.831378,-370.102971
5722.561874,222.061783,-8273.831378,-666.185348
5722.562198,444.123565,-8810.098227,-444.123565
5722.562522,444.123565,-8273.831378,0.000000
5722.562846,370.102971,-8350.440928,0.000000
5722.563171,222.061783,-8580.269578,0.000000
5722.563495,370.102971,-8886.707777,-370.102971
5722.563819,518.144159,-8427.050478,-296.082377
5722.564143,296.082377,-8503.660028,-222.061783
5722.564468,370.102971,-8427.050478,-518.144159
5722.564792,444.123565,-8656.879127,-296.082377
5722.565116,74.020594,-8427.050478,-296.082377
5722.565441,296.082377,-8886.707777,-148.041188
5722.565765,222.061783,-8580.269578,-370.102971
5722.566089,444.123565,-8044.002729,0.000000
5722.566413,518.144159,-8197.221829,-222.061783
5722.566738,444.123565,-8580.269578,0.000000
5722.567062,370.102971,-8503.660028,-370.102971
5722.567386,296.082377,-8427.050478,-518.144159
5722.567710,296.082377,-9346.365076,0.000000
5722.568035,222.061783,-8810.098227,-370.102971
5722.568359,222.061783,-8886.707777,0.000000
5722.568683,444.123565,-8350.440928,0.000000
5722.569007,296.082377,-8580.269578,0.000000
5722.569332,370.102971,-8810.098227,74.020594
5722.569656,222.061783,-8427.050478,-296.082377
5722.569980,222.061783,-8810.098227,-296.082377
5722.570304,222.061783,-8733.488677,-296.082377
5722.570629,518.144159,-8503.660028,0.000000
5722.570953,518.144159,-8886.707777,-592.164754
5722.571277,444.123565,-8503.660028,-518.144159
5722.571601,592.164754,-8733.488677,0.000000
5722.571926,296.082377,-7890.783629,74.020594
5722.572250,370.102971,-8350.440928,-148.041188
5722.572574,518.144159,-8810.098227,-518.144159
5722.572898,592.164754,-8427.050478,-444.123565
5722.573223,592.164754,-8350.440928,-814.226536
5722.573547,222.061783,-8503.660028,-518.144159
5722.573871,370.102971,-8656.879127,-666.185348
5722.574196,518.144159,-8503.660028,-592.164754
5722.574520,666.185348,-8503.660028,-592.164754
5722.574844,592.164754,-8120.612279,296.082377
5722.575168,370.102971,-8350.440928,0.000000
5722.575493,370.102971,-8503.660028,-222.061783
5722.575817,518.144159,-8120.612279,-518.144159
5722.576141,1258.350101,-8656.879127,-444.123565
5722.576465,740.205942,-8427.050478,-444.123565
5722.576790,222.061783,-8580.269578,-518.144159
5722.577114,518.144159,-8733.488677,-74.020594
5722.577438,222.061783,-8503.660028,0.000000
5722.577762,814.226536,-8656.879127,-296.082377
5722.578087,444.123565,-8350.440928,74.020594
5722.578411,518.144159,-8273.831378,148.041188
5722.578735,1036.288319,-8733.488677,0.000000
5722.579059,888.247130,-8656.879127,0.000000
5722.579384,592.164754,-8886.707777,-222.061783
5722.579708,148.041188,-8427.050478,-444.123565
5722.580032,148.041188,-8580.269578,0.000000
5722.580356,296.082377,-8810.098227,-148.041188
5722.580681,370.102971,-8503.660028,0.000000
5722.581005,74.020594,-8656.879127,0.000000
5722.581329,444.123565,-8580.269578,0.000000
5722.581653,222.061783,-8580.269578,0.000000
5722.581978,592.164754,-8733.488677,0.000000
5722.582302,222.061783,-8503.660028,-444.123565
5722.582626,296.082377,-8503.660028,-518.144159
5722.582951,444.123565,-8656.879127,-666.185348
5722.583275,814.226536,-9422.974625,-592.164754
5722.583599,370.102971,-8580.269578,-148.041188
5722.583923,148.041188,-8580.269578,0.000000
5722.584248,148.041188,-8733.488677,0.000000
5722.584572,296.082377,-8197.221829,-222.061783
5722.584896,518.144159,-9039.926876,-148.041188
5722.585220,74.020594,-8427.050478,-370.102971
5722.585545,222.061783,-9039.926876,-222.061783
5722.585869,74.020594,-8503.660028,-296.082377
5722.586193,444.123565,-8810.098227,0.000000
5722.586517,444.123565,-8503.660028,0.000000
5722.586842,296.082377,-8350.440928,0.000000
5722.587166,296.082377,-8503.660028,74.020594
5722.587490,592.164754,-9269.755526,74.020594
5722.587814,740.205942,-8350.440928,-148.041188
5722.588139,444.123565,-8503.660028,-222.061783
5722.588463,222.061783,-8656.879127,-518.144159
5722.588787,518.144159,-8733.488677,-592.164754
5722.589111,518.144159,-8273.831378,-296.082377
5722.589436,592.164754,-8580.269578,-148.041188
5722.589760,518.144159,-8503.660028,-222.061783
5722.590084,592.164754,-8503.660028,-296.082377
5722.590408,370.102971,-8044.002729,0.000000
5722.590733,444.123565,-8580.269578,-222.061783
5722.591057,444.123565,-8733.488677,-518.144159
5722.591381,666.185348,-8810.098227,-888.247130
5722.591706,666.185348,-9116.536426,-1110.308913
5722.592030,592.164754,-8810.098227,-666.185348
5722.592354,296.082377,-8580.269578,-444.123565
5722.592678,518.144159,-8810.098227,0.000000
5722.593003,222.061783,-8273.831378,0.000000
5722.593327,740.205942,-8886.707777,0.000000
5722.593651,370.102971,-8427.050478,0.000000
5722.593975,592.164754,-8350.440928,0.000000
5722.594300,296.082377,-8886.707777,-370.102971
5722.594624,222.061783,-9116.536426,0.000000
5722.594948,518.144159,-8733.488677,-296.082377
5722.595272,296.082377,-8733.488677,-222.061783
5722.595597,444.123565,-8963.317327,296.082377
5722.595921,222.061783,-8350.440928,0.000000
5722.596245,74.020594,-8580.269578,148.041188
5722.596569,296.082377,-8350.440928,-444.123565
5722.596894,370.102971,-8963.317327,-444.123565
5722.597218,296.082377,-8503.660028,-370.102971
5722.597542,296.082377,-8503.660028,-370.102971
5722.597866,74.020594,-8656.879127,-666.185348
5722.598191,222.061783,-8733.488677,-148.041188
5722.598515,518.144159,-8273.831378,-518.144159
5722.598839,0.000000,-8810.098227,-148.041188
5722.599163,370.102971,-8427.050478,-444.123565
5722.599488,296.082377,-8810.098227,-296.082377
5722.599812,518.144159,-8503.660028,-444.123565
5722.600136,666.185348,-8810.098227,-740.205942
5722.600461,370.102971,-8656.879127,-1184.329507
5722.600785,0.000000,-8427.050478,-444.123565
5722.601109,222.061783,-9116.536426,-740.205942
5722.601433,0.000000,-8656.879127,-296.082377
5722.601758,1036.288319,-8427.050478,-296.082377
5722.602082,296.082377,-8350.440928,0.000000
5722.602406,666.185348,-8503.660028,-148.041188
5722.602730,370.102971,-8427.050478,-222.061783
5722.603055,814.226536,-8656.879127,222.061783
5722.603379,592.164754,-8273.831378,-592.164754
5722.603703,370.102971,-8503.660028,-666.185348
5722.604027,370.102971,-8656.879127,-296.082377
5722.604352,444.123565,-8273.831378,0.000000
5722.604676,518.144159,-8273.831378,0.000000
5722.605000,592.164754,-8197.221829,0.000000
5722.605324,1036.288319,-8503.660028,222.061783
5722.605649,518.144159,-8350.440928,-222.061783
5722.605973,814.226536,-8197.221829,0.000000
5722.606297,370.102971,-8503.660028,0.000000
5722.606621,592.164754,-8427.050478,0.000000
5722.606946,370.102971,-8656.879127,-444.123565
5722.607270,592.164754,-8963.317327,222.061783
5722.607594,370.102971,-8273.831378,0.000000
5722.607918,592.164754,-8656.879127,0.000000
5722.608243,444.123565,-8580.269578,0.000000
5722.608567,666.185348,-8580.269578,-222.061783
5722.608891,666.185348,-8503.660028,-740.205942
5722.609216,666.185348,-8656.879127,-888.247130
5722.609540,0.000000,-9039.926876,-592.164754
5722.609864,296.082377,-8886.707777,-296.082377
5722.610188,0.000000,-8273.831378,-296.082377
5722.610513,444.123565,-8350.440928,-148.041188
5722.610837,370.102971,-8810.098227,-296.082377
5722.611161,444.123565,-8427.050478,0.000000
5722.611485,296.082377,-8503.660028,0.000000
5722.611810,296.082377,-8733.488677,-518.144159
5722.612134,740.205942,-8656.879127,-370.102971
5722.612458,370.102971,-8656.879127,-444.123565
5722.612782,666.185348,-8580.269578,-518.144159
5722.613107,296.082377,-8503.660028,-518.144159
5722.613431,444.123565,-8810.098227,0.000000
5722.613755,74.020594,-8350.440928,0.000000
5722.614079,444.123565,-8580.269578,0.000000
5722.614404,814.226536,-8273.831378,74.020594
5722.614728,740.205942,-8197.221829,-222.061783
5722.615052,370.102971,-8427.050478,-666.185348
5722.615376,296.082377,-8656.879127,-518.144159
5722.615701,296.082377,-8810.098227,-148.041188
5722.616025,74.020594,-8810.098227,-666.185348
5722.616349,222.061783,-8733.488677,-370.102971
5722.616674,296.082377,-8427.050478,-148.041188
5722.616998,666.185348,-8273.831378,0.000000
5722.617322,74.020594,-8273.831378,0.000000
5722.617646,592.164754,-8656.879127,-370.102971
5722.617971,592.164754,-8427.050478,-370.102971
5722.618295,518.144159,-8580.269578,-370.102971
5722.618619,444.123565,-8886.707777,-370.102971
5722.618943,444.123565,-8733.488677,-296.082377
5722.619268,518.144159,-8503.660028,-592.164754
5722.619592,222.061783,-8580.269578,-148.041188
5722.619916,296.082377,-8427.050478,-222.061783
5722.620240,222.061783,-8733.488677,0.000000
5722.620565,518.144159,-8427.050478,0.000000
5722.620889,592.164754,-8580.269578,-444.123565
5722.621213,518.144159,-8503.660028,-740.205942
5722.621537,222.061783,-8197.221829,-296.082377
5722.621862,222.061783,-8580.269578,-444.123565
5722.622186,222.061783,-8733.488677,-518.144159
5722.622510,296.082377,-8120.612279,0.000000
5722.622834,370.102971,-7660.954980,148.041188
5722.623159,370.102971,-8580.269578,-296.082377
5722.623483,148.041188,-8427.050478,-370.102971
5722.623807,666.185348,-8273.831378,-444.123565
5722.624131,370.102971,-8656.879127,-370.102971
5722.624456,740.205942,-8656.879127,-888.247130
5722.624780,666.185348,-8427.050478,-666.185348
5722.625104,592.164754,-8350.440928,-592.164754
5722.625429,370.102971,-8503.660028,-592.164754
5722.625753,518.144159,-8427.050478,-592.164754
5722.626077,444.123565,-8580.269578,-444.123565
5722.626401,444.123565,-8810.098227,-592.164754
5722.626726,740.205942,-8503.660028,-888.247130
5722.627050,666.185348,-8197.221829,-814.226536
5722.627374,74.020594,-8810.098227,-740.205942
5722.627698,222.061783,-8656.879127,-1036.288319
5722.628023,592.164754,-9116.536426,-814.226536
5722.628347,666.185348,-8503.660028,-740.205942
5722.628671,296.082377,-8273.831378,-222.061783
5722.628995,222.061783,-8656.879127,-444.123565
5722.629320,370.102971,-8427.050478,-740.205942
5722.629644,814.226536,-8733.488677,-592.164754
5722.629968,444.123565,-8044.002729,-1184.329507
5722.630292,518.144159,-8733.488677,-370.102971
5722.630617,370.102971,-8580.269578,-740.205942
5722.630941,666.185348,-8656.879127,-444.123565
5722.631265,444.123565,-8044.002729,-222.061783
5722.631589,444.123565,-8656.879127,-148.041188
5722.631914,444.123565,-8350.440928,0.000000
5722.632238,222.061783,-8503.660028,-148.041188
5722.632562,370.102971,-8886.707777,-222.061783
5722.632886,518.144159,-8120.612279,-740.205942
5722.633211,518.144159,-8580.269578,-740.205942
5722.633535,222.061783,-8656.879127,-740.205942
5722.633859,444.123565,-8810.098227,-444.123565
5722.634184,518.144159,-9729.412825,-370.102971
5722.634508,222.061783,-8580.269578,-296.082377
5722.634832,148.041188,-8503.660028,-444.123565
5722.635156,370.102971,-8427.050478,-592.164754
5722.635481,592.164754,-8273.831378,-518.144159
5722.635805,370.102971,-8503.660028,-518.144159
5722.636129,592.164754,-8350.440928,-814.226536
5722.636453,666.185348,-8656.879127,-888.247130
5722.636778,444.123565,-8886.707777,-740.205942
5722.637102,222.061783,-8580.269578,-518.144159
5722.637426,370.102971,-8503.660028,0.000000
5722.637750,296.082377,-8656.879127,-296.082377
5722.638075,296.082377,-8427.050478,-74.020594
5722.638399,518.144159,-8503.660028,-222.061783
5722.638723,518.144159,-8427.050478,-148.041188
5722.639047,740.205942,-8273.831378,-296.082377
5722.639372,296.082377,-8656.879127,-518.144159
5722.639696,444.123565,-8810.098227,-370.102971
5722.640020,518.144159,-8503.660028,-148.041188
5722.640344,666.185348,-8886.707777,0.000000
5722.640669,296.082377,-8273.831378,0.000000
5722.640993,592.164754,-8656.879127,0.000000
5722.641317,74.020594,-8120.612279,0.000000
5722.641641,592.164754,-8427.050478,0.000000
5722.641966,518.144159,-8503.660028,-814.226536
5722.642290,370.102971,-8503.660028,-444.123565
5722.642614,222.061783,-8580.269578,-1110.308913
5722.642939,296.082377,-9039.926876,-296.082377
5722.643263,444.123565,-8350.440928,-222.061783
5722.643587,296.082377,-8580.269578,0.000000
5722.643911,370.102971,-8273.831378,-444.123565
5722.644236,296.082377,-8656.879127,-296.082377
5722.644560,296.082377,-8656.879127,-740.205942
5722.644884,370.102971,-8350.440928,-518.144159
5722.645208,592.164754,-8810.098227,-888.247130
5722.645533,296.082377,-9422.974625,-592.164754
5722.645857,592.164754,-8580.269578,-814.226536
5722.646181,0.000000,-8733.488677,-296.082377
5722.646505,518.144159,-8810.098227,-296.082377
5722.646830,222.061783,-9116.536426,-74.020594
5722.647154,444.123565,-8580.269578,-518.144159
5722.647478,592.164754,-8427.050478,-296.082377
5722.647802,296.082377,-8350.440928,-518.144159
5722.648127,518.144159,-8656.879127,-740.205942
5722.648451,370.102971,-8580.269578,-666.185348
5722.648775,518.144159,-8810.098227,-814.226536
5722.649099,296.082377,-8886.707777,-666.185348
5722.649424,592.164754,-8503.660028,0.000000
5722.649748,222.061783,-9039.926876,0.000000
5722.650072,592.164754,-8733.488677,0.000000
5722.650396,518.144159,-8427.050478,-370.102971
5722.650721,962.267725,-8963.317327,-592.164754
5722.651045,518.144159,-9116.536426,-518.144159
5722.651369,222.061783,-9193.145976,-518.144159
5722.651694,370.102971,-8886.707777,-444.123565
5722.652018,592.164754,-8427.050478,-370.102971
5722.652342,518.144159,-8656.879127,-370.102971
5722.652666,592.164754,-8733.488677,0.000000
5722.652991,814.226536,-8197.221829,0.000000
5722.653315,370.102971,-8810.098227,-370.102971
5722.653639,518.144159,-8580.269578,-370.102971
5722.653963,518.144159,-8810.098227,0.000000
5722.654288,666.185348,-8963.317327,-962.267725
5722.654612,296.082377,-8656.879127,-592.164754
5722.654936,518.144159,-8580.269578,-518.144159
5722.655260,518.144159,-8503.660028,0.000000
5722.655585,370.102971,-8273.831378,-222.061783
5722.655909,296.082377,-8427.050478,-296.082377
5722.656233,518.144159,-8273.831378,0.000000
5722.656557,222.061783,-8197.221829,-370.102971
5722.656882,518.144159,-8503.660028,-370.102971
5722.657206,592.164754,-8656.879127,-666.185348
5722.657530,592.164754,-8503.660028,-814.226536
5722.657855,222.061783,-8656.879127,-222.061783
5722.658179,222.061783,-8580.269578,0.000000
5722.658503,296.082377,-8580.269578,74.020594
5722.658827,370.102971,-8427.050478,-222.061783
5722.659152,222.061783,-8733.488677,-518.144159
5722.659476,592.164754,-8810.098227,-444.123565
5722.659800,222.061783,-8503.660028,-148.041188
5722.660125,370.102971,-8580.269578,-444.123565
5722.660449,148.041188,-8733.488677,-666.185348
5722.660773,370.102971,-8733.488677,-518.144159
5722.661097,666.185348,-8886.707777,-370.102971
5722.661422,296.082377,-8656.879127,-444.123565
5722.661746,296.082377,-8810.098227,-296.082377
5722.662070,148.041188,-8580.269578,-370.102971
5722.662395,74.020594,-9116.536426,0.000000
5722.662719,444.123565,-8503.660028,-592.164754
5722.663043,0.000000,-8886.707777,-666.185348
5722.663367,444.123565,-8503.660028,-888.247130
5722.663692,222.061783,-8963.317327,-814.226536
5722.664016,0.000000,-8656.879127,-444.123565
5722.664340,666.185348,-8503.660028,-296.082377
5722.664665,444.123565,-8656.879127,-148.041188
5722.664989,592.164754,-8580.269578,0.000000
5722.665313,370.102971,-8273.831378,370.102971
5722.665637,444.123565,-8810.098227,-370.102971
5722.665962,148.041188,-8273.831378,-370.102971
5722.666286,444.123565,-8810.098227,-518.144159
5722.666610,296.082377,-8733.488677,-74.020594
5722.666935,370.102971,-8503.660028,-222.061783
5722.667259,222.061783,-8580.269578,-296.082377
5722.667583,444.123565,-8656.879127,148.041188
5722.667907,370.102971,-8350.440928,-296.082377
5722.668232,592.164754,-8503.660028,-296.082377
5722.668556,740.205942,-8350.440928,-148.041188
5722.668880,518.144159,-8503.660028,-296.082377
5722.669205,592.164754,-8427.050478,-444.123565
5722.669529,962.267725,-8733.488677,-518.144159
5722.669853,592.164754,-8656.879127,0.000000
5722.670178,740.205942,-7967.393179,-296.082377
5722.670502,592.164754,-8197.221829,0.000000
5722.670826,222.061783,-8350.440928,0.000000
5722.671150,592.164754,-8350.440928,-148.041188
5722.671475,740.205942,-8656.879127,-888.247130
5722.671799,592.164754,-8656.879127,-592.164754
5722.672123,370.102971,-8503.660028,-148.041188
5722.672448,740.205942,-9116.536426,-296.082377
5722.672772,666.185348,-8427.050478,-370.102971
5722.673096,518.144159,-8427.050478,-74.020594
5722.673420,666.185348,-8733.488677,0.000000
5722.673745,814.226536,-7890.783629,148.041188
5722.674069,296.082377,-8427.050478,-222.061783
5722.674393,296.082377,-8580.269578,0.000000
5722.674718,444.123565,-8427.050478,-148.041188
5722.675042,370.102971,-8886.707777,-666.185348
5722.675366,0.000000,-8733.488677,74.020594
5722.675690,148.041188,-8810.098227,222.061783
5722.676015,222.061783,-8580.269578,-148.041188
5722.676339,370.102971,-8503.660028,222.061783
5722.676663,518.144159,-8273.831378,518.144159
5722.676988,222.061783,-8810.098227,370.102971
5722.677312,370.102971,-8044.002729,-222.061783
5722.677636,444.123565,-8810.098227,-370.102971
5722.677960,444.123565,-8044.002729,-518.144159
5722.678285,296.082377,-8656.879127,-592.164754
5722.678609,296.082377,-8580.269578,-666.185348
5722.678933,370.102971,-8733.488677,0.000000
5722.679258,444.123565,-8656.879127,-370.102971
5722.679582,370.102971,-8733.488677,-444.123565
5722.679906,444.123565,-8580.269578,-296.082377
5722.680230,518.144159,-8656.879127,-296.082377
5722.680555,888.247130,-8350.440928,-740.205942
5722.680879,666.185348,-8963.317327,-444.123565
5722.681203,296.082377,-8580.269578,-814.226536
5722.681528,296.082377,-8580.269578,-666.185348
5722.681852,444.123565,-8580.269578,-518.144159
5722.682176,444.123565,-8733.488677,-592.164754
5722.682500,222.061783,-8427.050478,-74.020594
5722.682825,148.041188,-8350.440928,0.000000
5722.683149,370.102971,-8580.269578,0.000000
5722.683473,518.144159,-8350.440928,-370.102971
5722.683798,222.061783,-8580.269578,-592.164754
5722.684122,666.185348,-8273.831378,-592.164754
5722.684446,370.102971,-8656.879127,-518.144159
5722.684770,666.185348,-8580.269578,0.000000
5722.685095,592.164754,-7814.174080,-740.205942
5722.685419,740.205942,-8810.098227,0.000000
5722.685743,222.061783,-8580.269578,-222.061783
5722.686068,592.164754,-8580.269578,-148.041188
5722.686392,592.164754,-8427.050478,-296.082377
5722.686716,592.164754,-8273.831378,-592.164754
5722.687040,592.164754,-8580.269578,-444.123565
5722.687365,666.185348,-8273.831378,-370.102971
5722.687689,592.164754,-8580.269578,-296.082377
5722.688013,592.164754,-8656.879127,-296.082377
5722.688338,444.123565,-8656.879127,0.000000
5722.688662,370.102971,-8580.269578,74.020594
5722.688986,666.185348,-8580.269578,0.000000
5722.689310,444.123565,-9346.365076,-222.061783
5722.689635,518.144159,-8656.879127,0.000000
5722.689959,148.041188,-8810.098227,-296.082377
5722.690283,444.123565,-8580.269578,-296.082377
5722.690608,222.061783,-8503.660028,-222.061783
5722.690932,296.082377,-9039.926876,0.000000
5722.691256,148.041188,-8580.269578,0.000000
5722.691580,444.123565,-8886.707777,0.000000
5722.691905,592.164754,-8580.269578,0.000000
5722.692229,148.041188,-8733.488677,-148.041188
5722.692553,444.123565,-8580.269578,-296.082377
5722.692878,296.082377,-8350.440928,-296.082377
5722.693202,222.061783,-8886.707777,-666.185348
5722.693526,296.082377,-8733.488677,-814.226536
5722.693850,518.144159,-8656.879127,-444.123565
5722.694175,222.061783,-8733.488677,-148.041188
5722.694499,296.082377,-8350.440928,0.000000
5722.694823,148.041188,-8350.440928,0.000000
5722.695148,148.041188,-8503.660028,74.020594
5722.695472,444.123565,-8503.660028,0.000000
5722.695796,370.102971,-8656.879127,-148.041188
5722.696120,592.164754,-8886.707777,-296.082377
5722.696445,222.061783,-8350.440928,0.000000
5722.696769,592.164754,-8810.098227,-148.041188
5722.697093,222.061783,-8427.050478,0.000000
5722.697418,666.185348,-8580.269578,-148.041188
5722.697742,296.082377,-8350.440928,-296.082377
5722.698066,518.144159,-8044.002729,0.000000
5722.698390,296.082377,-8350.440928,-444.123565
5722.698715,518.144159,-8427.050478,-370.102971
5722.699039,444.123565,-8503.660028,-666.185348
5722.699363,666.185348,-8580.269578,-592.164754
5722.699688,370.102971,-8810.098227,-592.164754
5722.700012,296.082377,-8580.269578,-370.102971
5722.700336,444.123565,-8733.488677,-222.061783
5722.700660,888.247130,-8197.221829,-592.164754
5722.700985,444.123565,-8810.098227,-222.061783
5722.701309,518.144159,-8044.002729,-148.041188
5722.701633,222.061783,-8656.879127,-444.123565
5722.701958,370.102971,-9039.926876,-592.164754
5722.702282,592.164754,-8503.660028,-296.082377
5722.702606,444.123565,-8580.269578,-814.226536
5722.702930,592.164754,-8810.098227,-148.041188
5722.703255,370.102971,-8656.879127,-296.082377
5722.703579,296.082377,-8810.098227,0.000000
5722.703903,370.102971,-8503.660028,-296.082377
5722.704228,592.164754,-8350.440928,-444.123565
5722.704552,444.123565,-8810.098227,-518.144159
5722.704876,222.061783,-8197.221829,-592.164754
5722.705200,74.020594,-8350.440928,-814.226536
5722.705525,-222.061783,-9116.536426,-444.123565
5722.705849,370.102971,-8427.050478,-518.144159
5722.706173,444.123565,-8350.440928,-592.164754
5722.706498,444.123565,-8427.050478,-370.102971
5722.706822,222.061783,-8503.660028,0.000000
5722.707146,370.102971,-8733.488677,-444.123565
5722.707470,666.185348,-8273.831378,-592.164754
5722.707795,1184.329507,-8427.050478,-814.226536
5722.708119,296.082377,-8656.879127,-592.164754
5722.708443,444.123565,-8197.221829,-666.185348
5722.708768,518.144159,-9039.926876,-592.164754
5722.709092,666.185348,-8580.269578,-444.123565
5722.709416,518.144159,-8656.879127,-222.061783
5722.709740,444.123565,-8503.660028,-222.061783
5722.710065,444.123565,-8427.050478,0.000000
5722.710389,370.102971,-8503.660028,0.000000
5722.710713,518.144159,-8503.660028,-222.061783
5722.711038,74.020594,-8580.269578,-444.123565
5722.711362,370.102971,-9193.145976,-370.102971
5722.711686,370.102971,-8656.879127,-222.061783
5722.712010,666.185348,-8503.660028,296.082377
5722.712335,518.144159,-8580.269578,74.020594
5722.712659,444.123565,-8273.831378,0.000000
5722.712983,592.164754,-8733.488677,0.000000
5722.713308,296.082377,-8656.879127,222.061783
5722.713632,444.123565,-8580.269578,-296.082377
5722.713956,444.123565,-8503.660028,-222.061783
5722.714280,444.123565,-8656.879127,-296.082377
5722.714605,518.144159,-8580.269578,-592.164754
5722.714929,814.226536,-8886.707777,-296.082377
5722.715253,370.102971,-8350.440928,74.020594
5722.715578,444.123565,-8273.831378,0.000000
5722.715902,0.000000,-8503.660028,-222.061783
5722.716226,1036.288319,-9039.926876,-148.041188
5722.716550,518.144159,-8580.269578,-296.082377
5722.716875,296.082377,-8886.707777,-444.123565
5722.717199,148.041188,-8273.831378,-592.164754
5722.717523,296.082377,-8733.488677,-444.123565
5722.717848,296.082377,-8580.269578,0.000000
5722.718172,296.082377,-8580.269578,0.000000
5722.718496,444.123565,-8886.707777,-148.041188
5722.718820,370.102971,-8427.050478,74.020594
5722.719145,370.102971,-8656.879127,0.000000
5722.719469,222.061783,-8273.831378,0.000000
5722.719793,518.144159,-8656.879127,0.000000
5722.720118,370.102971,-8350.440928,-666.185348
5722.720442,74.020594,-9193.145976,222.061783
5722.720766,0.000000,-8886.707777,-222.061783
5722.721090,296.082377,-8733.488677,0.000000
5722.721415,222.061783,-8580.269578,-148.041188
5722.721739,370.102971,-8503.660028,0.000000
5722.722063,592.164754,-8273.831378,-296.082377
5722.722388,518.144159,-8580.269578,0.000000
5722.722712,518.144159,-8580.269578,-740.205942
5722.723036,296.082377,-8886.707777,-592.164754
5722.723360,888.247130,-8810.098227,-814.226536
5722.723685,222.061783,-8656.879127,-592.164754
5722.724009,370.102971,-8580.269578,-296.082377
5722.724333,148.041188,-8580.269578,-370.102971
5722.724658,666.185348,-9193.145976,-148.041188
5722.724982,296.082377,-8503.660028,-222.061783
5722.725306,370.102971,-8427.050478,-666.185348
5722.725630,666.185348,-8427.050478,-814.226536
5722.725955,148.041188,-8580.269578,-518.144159
5722.726279,518.144159,-8810.098227,-666.185348
5722.726603,222.061783,-8427.050478,-592.164754
5722.726928,518.144159,-8580.269578,-296.082377
5722.727252,222.061783,-8810.098227,0.000000
5722.727576,814.226536,-8810.098227,-296.082377
5722.727900,296.082377,-8350.440928,-222.061783
5722.728225,444.123565,-8656.879127,-296.082377
5722.728549,444.123565,-8503.660028,-962.267725
5722.728873,444.123565,-8656.879127,-666.185348
5722.729198,740.205942,-8120.612279,-370.102971
5722.729522,296.082377,-8963.317327,-592.164754
5722.729846,148.041188,-8656.879127,-444.123565
5722.730170,370.102971,-8197.221829,-370.102971
5722.730495,888.247130,-8580.269578,-370.102971
5722.730819,518.144159,-8427.050478,-370.102971
5722.731143,370.102971,-8810.098227,-296.082377
5722.731468,444.123565,-8427.050478,-592.164754
5722.731792,888.247130,-8120.612279,-592.164754
5722.732116,592.164754,-8810.098227,-1184.329507
5722.732440,888.247130,-8580.269578,-1258.350101
5722.732765,740.205942,-8503.660028,-592.164754
5722.733089,148.041188,-8350.440928,-740.205942
5722.733413,518.144159,-8886.707777,-296.082377
5722.733738,444.123565,-8580.269578,-296.082377
5722.734062,666.185348,-8656.879127,-518.144159
5722.734386,296.082377,-8656.879127,-518.144159
5722.734710,444.123565,-8580.269578,-370.102971
5722.735035,148.041188,-8733.488677,-740.205942
5722.735359,444.123565,-8656.879127,-518.144159
5722.735683,518.144159,-8886.707777,-444.123565
5722.736008,962.267725,-9576.193725,-222.061783
5722.736332,222.061783,-8503.660028,0.000000
5722.736656,148.041188,-8580.269578,0.000000
5722.736980,370.102971,-8427.050478,0.000000
5722.737305,592.164754,-8503.660028,-148.041188
5722.737629,444.123565,-8427.050478,-296.082377
5722.737953,148.041188,-8580.269578,-296.082377
5722.738278,518.144159,-8656.879127,-370.102971
5722.738602,370.102971,-8427.050478,74.020594
5722.738926,148.041188,-8503.660028,-370.102971
5722.739250,370.102971,-8580.269578,-370.102971
5722.739575,592.164754,-8044.002729,0.000000
5722.739899,74.020594,-8503.660028,-148.041188
5722.740223,296.082377,-8427.050478,-888.247130
5722.740548,444.123565,-8427.050478,-592.164754
5722.740872,444.123565,-8580.269578,-592.164754
5722.741196,296.082377,-8503.660028,-740.205942
5722.741521,0.000000,-8580.269578,-148.041188
5722.741845,148.041188,-8350.440928,-370.102971
5722.742169,222.061783,-8733.488677,0.000000
5722.742493,592.164754,-8273.831378,-148.041188
5722.742818,740.205942,-8733.488677,0.000000
5722.743142,888.247130,-8580.269578,-222.061783
5722.743466,148.041188,-8656.879127,-296.082377
5722.743791,518.144159,-8656.879127,0.000000
5722.744115,370.102971,-8503.660028,-592.164754
5722.744439,592.164754,-9882.631924,-222.061783
5722.744763,296.082377,-8656.879127,148.041188
5722.745088,370.102971,-8503.660028,296.082377
5722.745412,444.123565,-8656.879127,-222.061783
5722.745736,370.102971,-8350.440928,74.020594
5722.746061,666.185348,-8886.707777,74.020594
5722.746385,666.185348,-8503.660028,-296.082377
5722.746709,592.164754,-8273.831378,-222.061783
5722.747033,296.082377,-8580.269578,-592.164754
5722.747358,74.020594,-8427.050478,-222.061783
5722.747682,370.102971,-8503.660028,-370.102971
5722.748006,370.102971,-8733.488677,0.000000
5722.748331,296.082377,-8350.440928,0.000000
5722.748655,444.123565,-8886.707777,-518.144159
5722.748979,296.082377,-8427.050478,-370.102971
5722.749303,518.144159,-8120.612279,-592.164754
5722.749628,444.123565,-8810.098227,-888.247130
5722.749952,370.102971,-8580.269578,-962.267725
5722.750276,444.123565,-8350.440928,-888.247130
5722.750601,296.082377,-8886.707777,-814.226536
5722.750925,370.102971,-8427.050478,-444.123565
5722.751249,518.144159,-8580.269578,-740.205942
5722.751573,444.123565,-8273.831378,-888.247130
5722.751898,518.144159,-8580.269578,-296.082377
5722.752222,592.164754,-8503.660028,-592.164754
5722.752546,666.185348,-8503.660028,-592.164754
5722.752871,666.185348,-8810.098227,-1184.329507
5722.753195,666.185348,-8886.707777,-888.247130
5722.753519,222.061783,-8503.660028,-888.247130
5722.753843,518.144159,-8656.879127,-592.164754
5722.754168,222.061783,-8503.660028,-370.102971
5722.754492,296.082377,-8580.269578,-222.061783
5722.754816,444.123565,-8427.050478,-592.164754
5722.755141,444.123565,-8733.488677,0.000000
5722.755465,518.144159,-8580.269578,-592.164754
5722.755789,444.123565,-9576.193725,-370.102971
5722.756113,444.123565,-8656.879127,-592.164754
5722.756438,222.061783,-8656.879127,-518.144159
5722.756762,592.164754,-8733.488677,-444.123565
5722.757086,296.082377,-8427.050478,-296.082377
5722.757411,-148.041188,-8503.660028,0.000000
5722.757735,148.041188,-8580.269578,-222.061783
5722.758060,666.185348,-8503.660028,-370.102971
5722.758384,518.144159,-8580.269578,-666.185348
5722.758708,1036.288319,-8810.098227,-592.164754
5722.759033,148.041188,-8503.660028,-666.185348
5722.759357,222.061783,-8733.488677,-370.102971
5722.759682,370.102971,-8656.879127,-518.144159
5722.760006,888.247130,-8733.488677,-222.061783
5722.760330,296.082377,-8503.660028,-296.082377
5722.760655,148.041188,-8427.050478,-148.041188
5722.760979,444.123565,-8580.269578,0.000000
5722.761304,370.102971,-8350.440928,-296.082377
5722.761628,518.144159,-8886.707777,-296.082377
5722.761952,444.123565,-8503.660028,-666.185348
5722.762277,222.061783,-8656.879127,0.000000
5722.762601,370.102971,-8427.050478,-296.082377
5722.762926,222.061783,-8350.440928,148.041188
5722.763250,296.082377,-8503.660028,0.000000
5722.763574,444.123565,-8580.269578,0.000000
5722.763899,888.247130,-8427.050478,-148.041188
5722.764223,814.226536,-7967.393179,148.041188
5722.764548,74.020594,-8427.050478,-296.082377
5722.764872,370.102971,-8656.879127,-592.164754
5722.765196,370.102971,-8580.269578,-222.061783
5722.765521,518.144159,-8886.707777,-222.061783
5722.765845,444.123565,-8350.440928,-296.082377
5722.766170,296.082377,-8503.660028,-74.020594
5722.766494,296.082377,-8503.660028,0.000000
5722.766818,518.144159,-8580.269578,-148.041188
5722.767143,1258.350101,-8886.707777,-370.102971
5722.767467,444.123565,-8427.050478,-370.102971
5722.767791,592.164754,-9116.536426,-222.061783
5722.768116,148.041188,-8580.269578,-518.144159
5722.768440,592.164754,-8656.879127,-518.144159
5722.768765,370.102971,-8656.879127,-222.061783
5722.769089,370.102971,-8733.488677,-74.020594
5722.769413,370.102971,-8656.879127,-370.102971
5722.769738,370.102971,-8810.098227,0.000000
5722.770062,370.102971,-8197.221829,-148.041188
5722.770387,444.123565,-8810.098227,-518.144159
5722.770711,592.164754,-9039.926876,-592.164754
5722.771035,592.164754,-8656.879127,-370.102971
5722.771360,592.164754,-8580.269578,-518.144159
5722.771684,592.164754,-8656.879127,-444.123565
5722.772009,962.267725,-8580.269578,-148.041188
5722.772333,666.185348,-8810.098227,0.000000
5722.772657,370.102971,-8656.879127,-370.102971
5722.772982,444.123565,-8503.660028,-296.082377
5722.773306,370.102971,-8580.269578,-296.082377
5722.773631,148.041188,-8197.221829,-666.185348
5722.773955,222.061783,-8963.317327,-592.164754
5722.774279,592.164754,-8810.098227,-666.185348
5722.774604,370.102971,-8350.440928,-518.144159
5722.774928,296.082377,-8810.098227,-370.102971
5722.775253,518.144159,-8120.612279,-296.082377
5722.775577,518.144159,-8580.269578,-222.061783
5722.775901,518.144159,-8350.440928,-444.123565
5722.776226,444.123565,-8503.660028,-370.102971
5722.776550,444.123565,-8580.269578,-962.267725
5722.776875,370.102971,-8350.440928,-1110.308913
5722.777199,148.041188,-8886.707777,-518.144159
5722.777523,444.123565,-8580.269578,-444.123565
5722.777848,592.164754,-8427.050478,-518.144159
5722.778172,370.102971,-8503.660028,-592.164754
5722.778497,592.164754,-8656.879127,148.041188
5722.778821,592.164754,-8427.050478,-296.082377
5722.779145,814.226536,-8580.269578,-592.164754
5722.779470,666.185348,-8350.440928,-518.144159
5722.779794,888.247130,-8044.002729,-592.164754
5722.780118,222.061783,-8427.050478,-518.144159
5722.780443,444.123565,-8503.660028,-370.102971
5722.780767,444.123565,-8350.440928,-148.041188
5722.781092,296.082377,-8503.660028,0.000000
5722.781416,518.144159,-8273.831378,0.000000
5722.781740,444.123565,-8656.879127,0.000000
5722.782065,592.164754,-8580.269578,0.000000
5722.782389,666.185348,-8427.050478,-222.061783
5722.782714,222.061783,-9193.145976,0.000000
5722.783038,296.082377,-8580.269578,-222.061783
5722.783362,222.061783,-8580.269578,-222.061783
5722.783687,222.061783,-8810.098227,0.000000
5722.784011,444.123565,-8656.879127,74.020594
5722.784336,148.041188,-8963.317327,0.000000
5722.784660,518.144159,-8273.831378,-296.082377
5722.784984,518.144159,-8273.831378,-518.144159
5722.785309,296.082377,-8733.488677,-666.185348
5722.785633,222.061783,-8580.269578,-296.082377
5722.785958,222.061783,-8963.317327,-740.205942
5722.786282,296.082377,-8580.269578,-518.144159
5722.786606,296.082377,-8503.660028,-444.123565
5722.786931,592.164754,-8580.269578,0.000000
5722.787255,518.144159,-8580.269578,-370.102971
5722.787580,518.144159,-8580.269578,-370.102971
5722.787904,518.144159,-8503.660028,-296.082377
5722.788228,592.164754,-8350.440928,-148.041188
5722.788553,444.123565,-8427.050478,-370.102971
5722.788877,444.123565,-8963.317327,-592.164754
5722.789202,592.164754,-8656.879127,-444.123565
5722.789526,222.061783,-8580.269578,-296.082377
5722.789850,1036.288319,-8886.707777,148.041188
5722.790175,444.123565,-8963.317327,296.082377
5722.790499,444.123565,-9039.926876,222.061783
5722.790824,370.102971,-8503.660028,0.000000
5722.791148,444.123565,-9422.974625,296.082377
5722.791472,296.082377,-8656.879127,-222.061783
5722.791797,370.102971,-8656.879127,-296.082377
5722.792121,444.123565,-8580.269578,-222.061783
5722.792445,518.144159,-8580.269578,0.000000
5722.792770,222.061783,-8656.879127,-222.061783
5722.793094,592.164754,-8503.660028,0.000000
5722.793419,518.144159,-8733.488677,0.000000
5722.793743,370.102971,-8580.269578,-74.020594
5722.794067,518.144159,-8503.660028,0.000000
5722.794392,444.123565,-8350.440928,-518.144159
5722.794716,666.185348,-8810.098227,-592.164754
5722.795041,296.082377,-8656.879127,-592.164754
5722.795365,370.102971,-8810.098227,-296.082377
5722.795689,370.102971,-8580.269578,-592.164754
5722.796014,444.123565,-8810.098227,-296.082377
5722.796338,666.185348,-8273.831378,-518.144159
5722.796663,814.226536,-8503.660028,-370.102971
5722.796987,444.123565,-8810.098227,-444.123565
5722.797311,444.123565,-8427.050478,-518.144159
5722.797636,296.082377,-8810.098227,-518.144159
5722.797960,370.102971,-8656.879127,-740.205942
5722.798285,1036.288319,-8963.317327,-740.205942
5722.798609,444.123565,-8273.831378,-370.102971
5722.798933,296.082377,-8350.440928,-222.061783
5722.799258,222.061783,-8886.707777,0.000000
5722.799582,444.123565,-8886.707777,-296.082377
5722.799907,296.082377,-8427.050478,-444.123565
5722.800231,592.164754,-8656.879127,-148.041188
5722.800555,222.061783,-8580.269578,-444.123565
5722.800880,444.123565,-8810.098227,-296.082377
5722.801204,74.020594,-8580.269578,-222.061783
5722.801529,222.061783,-8810.098227,-518.144159
5722.801853,222.061783,-8580.269578,-370.102971
5722.802177,74.020594,-8273.831378,296.082377
5722.802502,148.041188,-7814.174080,444.123565
5722.802826,74.020594,-8427.050478,-444.123565
5722.803151,888.247130,-8350.440928,-518.144159
5722.803475,518.144159,-8350.440928,-814.226536
5722.803799,370.102971,-9116.536426,-296.082377
5722.804124,370.102971,-8273.831378,-666.185348
5722.804448,592.164754,-8580.269578,-888.247130
5722.804772,444.123565,-8197.221829,-370.102971
5722.805097,370.102971,-8580.269578,-296.082377
5722.805421,370.102971,-8503.660028,-296.082377
5722.805746,444.123565,-8273.831378,-148.041188
5722.806070,444.123565,-8580.269578,-370.102971
5722.806394,592.164754,-8427.050478,-444.123565
5722.806719,518.144159,-7354.516781,-518.144159
5722.807043,444.123565,-8503.660028,-518.144159
5722.807368,296.082377,-8350.440928,-518.144159
5722.807692,222.061783,-8580.269578,0.000000
5722.808016,370.102971,-8733.488677,0.000000
5722.808341,222.061783,-8273.831378,0.000000
5722.808665,518.144159,-8656.879127,-444.123565
5722.808990,222.061783,-8580.269578,0.000000
5722.809314,518.144159,-8044.002729,-370.102971
5722.809638,518.144159,-9039.926876,-444.123565
5722.809963,518.144159,-8580.269578,-518.144159
5722.810287,444.123565,-8810.098227,0.000000
5722.810612,444.123565,-8656.879127,-518.144159
5722.810936,666.185348,-8580.269578,0.000000
5722.811260,296.082377,-8580.269578,74.020594
5722.811585,592.164754,-8427.050478,-296.082377
5722.811909,296.082377,-8427.050478,-444.123565
5722.812234,814.226536,-8733.488677,-370.102971
5722.812558,370.102971,-8503.660028,-296.082377
5722.812882,74.020594,-8886.707777,-592.164754
5722.813207,74.020594,-8810.098227,-296.082377
5722.813531,296.082377,-8810.098227,0.000000
5722.813856,888.247130,-8580.269578,-666.185348
5722.814180,518.144159,-8580.269578,-148.041188
5722.814504,148.041188,-8886.707777,296.082377
5722.814829,444.123565,-8656.879127,0.000000
5722.815153,888.247130,-9193.145976,-74.020594
5722.815477,296.082377,-8886.707777,-370.102971
5722.815802,370.102971,-8733.488677,-370.102971
5722.816126,296.082377,-8733.488677,-296.082377
5722.816451,592.164754,-9039.926876,0.000000
5722.816775,370.102971,-8733.488677,0.000000
5722.817099,296.082377,-8810.098227,-222.061783
5722.817424,444.123565,-8810.098227,-222.061783
5722.817748,666.185348,-8656.879127,74.020594
5722.818073,592.164754,-8350.440928,296.082377
5722.818397,592.164754,-8503.660028,-370.102971
5722.818721,370.102971,-8580.269578,-518.144159
5722.819046,296.082377,-9039.926876,-370.102971
5722.819370,296.082377,-8273.831378,-148.041188
5722.819695,444.123565,-8044.002729,-148.041188
5722.820019,370.102971,-8810.098227,-222.061783
5722.820343,444.123565,-8427.050478,0.000000
5722.820668,444.123565,-8503.660028,-444.123565
5722.820992,518.144159,-8273.831378,-518.144159
5722.821317,444.123565,-8197.221829,-370.102971
5722.821641,222.061783,-8656.879127,-444.123565
5722.821965,370.102971,-8427.050478,-444.123565
5722.822290,518.144159,-8886.707777,-814.226536
5722.822614,592.164754,-8733.488677,-444.123565
5722.822939,444.123565,-8503.660028,0.000000
5722.823263,222.061783,-8350.440928,0.000000
5722.823587,444.123565,-8656.879127,-222.061783
5722.823912,370.102971,-8197.221829,-222.061783
5722.824236,518.144159,-8273.831378,-518.144159
5722.824561,666.185348,-8580.269578,-518.144159
5722.824885,74.020594,-8503.660028,-370.102971
5722.825209,740.205942,-8197.221829,-518.144159
5722.825534,518.144159,-8427.050478,-518.144159
5722.825858,518.144159,-8580.269578,-370.102971
5722.826183,592.164754,-8427.050478,-370.102971
5722.826507,444.123565,-8120.612279,-148.041188
5722.826831,296.082377,-8044.002729,-222.061783
5722.827156,148.041188,-8580.269578,-296.082377
5722.827480,592.164754,-8427.050478,-592.164754
5722.827804,370.102971,-8733.488677,-962.267725
5722.828129,370.102971,-8580.269578,-814.226536
5722.828453,0.000000,-8580.269578,-666.185348
5722.828778,518.144159,-8733.488677,-444.123565
5722.829102,222.061783,-8427.050478,-518.144159
5722.829426,1110.308913,-8656.879127,-592.164754
5722.829751,444.123565,-8580.269578,-592.164754
5722.830075,444.123565,-8273.831378,-740.205942
5722.830400,518.144159,-8656.879127,-962.267725
5722.830724,370.102971,-9193.145976,-1110.308913
5722.831048,518.144159,-8810.098227,-888.247130
5722.831373,444.123565,-8503.660028,-962.267725
5722.831697,0.000000,-8656.879127,-444.123565
5722.832022,222.061783,-8580.269578,-592.164754
5722.832346,444.123565,-8810.098227,0.000000
5722.832670,222.061783,-8427.050478,-518.144159
5722.832995,370.102971,-8656.879127,-444.123565
5722.833319,444.123565,-8427.050478,-370.102971
5722.833644,296.082377,-8810.098227,0.000000
5722.833968,370.102971,-8580.269578,-666.185348
5722.834292,370.102971,-8580.269578,-370.102971
5722.834617,444.123565,-8733.488677,-222.061783
5722.834941,370.102971,-8503.660028,0.000000
5722.835266,518.144159,-8580.269578,74.020594
5722.835590,296.082377,-8503.660028,-222.061783
5722.835914,518.144159,-8580.269578,-74.020594
5722.836239,666.185348,-8427.050478,-444.123565
5722.836563,1036.288319,-9116.536426,-444.123565
5722.836888,518.144159,-8580.269578,-592.164754
5722.837212,518.144159,-8810.098227,-518.144159
5722.837536,444.123565,-8580.269578,0.000000
5722.837861,444.123565,-7967.393179,444.123565
5722.838185,518.144159,-8656.879127,0.000000
5722.838510,444.123565,-8197.221829,0.000000
5722.838834,740.205942,-8810.098227,0.000000
5722.839158,370.102971,-8886.707777,-222.061783
5722.839483,444.123565,-8886.707777,-148.041188
5722.839807,222.061783,-8733.488677,-148.041188
5722.840131,592.164754,-8580.269578,0.000000
5722.840456,222.061783,-8427.050478,222.061783
5722.840780,148.041188,-8273.831378,444.123565
5722.841105,370.102971,-8427.050478,74.020594
5722.841429,518.144159,-8427.050478,222.061783
5722.841753,370.102971,-8350.440928,0.000000
5722.842078,1036.288319,-8503.660028,-296.082377
5722.842402,370.102971,-8273.831378,-222.061783
5722.842727,518.144159,-8580.269578,-148.041188
5722.843051,370.102971,-8580.269578,-444.123565
5722.843375,444.123565,-9039.926876,-444.123565
5722.843700,222.061783,-8733.488677,-222.061783
5722.844024,74.020594,-8350.440928,0.000000
5722.844349,222.061783,-8733.488677,-222.061783
5722.844673,444.123565,-8350.440928,0.000000
5722.844997,814.226536,-8503.660028,-222.061783
5722.845322,444.123565,-8503.660028,-666.185348
5722.845646,444.123565,-8733.488677,-592.164754
5722.845971,222.061783,-8810.098227,-666.185348
5722.846295,222.061783,-8197.221829,-222.061783
5722.846619,222.061783,-8427.050478,-370.102971
5722.846944,444.123565,-8503.660028,-296.082377
5722.847268,74.020594,-8580.269578,-370.102971
5722.847593,222.061783,-8580.269578,-444.123565
5722.847917,444.123565,-8656.879127,-518.144159
5722.848241,518.144159,-8733.488677,-666.185348
5722.848566,814.226536,-8733.488677,-1110.308913
5722.848890,592.164754,-8733.488677,-666.185348
5722.849215,888.247130,-8427.050478,-814.226536
5722.849539,444.123565,-8733.488677,-592.164754
5722.849863,518.144159,-8580.269578,-222.061783
5722.850188,518.144159,-8273.831378,-592.164754
5722.850512,962.267725,-9116.536426,-592.164754
5722.850837,666.185348,-8120.612279,-518.144159
5722.851161,740.205942,-8503.660028,-518.144159
5722.851485,222.061783,-8273.831378,-814.226536
5722.851810,740.205942,-8427.050478,-814.226536
5722.852134,888.247130,-9116.536426,-814.226536
5722.852458,666.185348,-8503.660028,-296.082377
5722.852783,370.102971,-8580.269578,-296.082377
5722.853107,592.164754,-8503.660028,-222.061783
5722.853432,888.247130,-8580.269578,-296.082377
5722.853756,814.226536,-8580.269578,-444.123565
5722.854080,666.185348,-8810.098227,-740.205942
5722.854405,740.205942,-8427.050478,-518.144159
5722.854729,666.185348,-8197.221829,-666.185348
5722.855054,74.020594,-8580.269578,-518.144159
5722.855378,740.205942,-8503.660028,-888.247130
5722.855702,518.144159,-8350.440928,-370.102971
5722.856027,444.123565,-8656.879127,-296.082377
5722.856351,222.061783,-8273.831378,-444.123565
5722.856676,592.164754,-8580.269578,-444.123565
5722.857000,296.082377,-8733.488677,-370.102971
5722.857324,370.102971,-8733.488677,-592.164754
5722.857649,518.144159,-8886.707777,-740.205942
5722.857973,148.041188,-8427.050478,-370.102971
5722.858298,222.061783,-8810.098227,-296.082377
5722.858622,592.164754,-8273.831378,-296.082377
5722.858947,370.102971,-8733.488677,-222.061783
5722.859271,0.000000,-8273.831378,0.000000
5722.859596,0.000000,-8656.879127,0.000000
5722.859920,370.102971,-8733.488677,-370.102971
5722.860245,0.000000,-8273.831378,-296.082377
5722.860569,370.102971,-9116.536426,-592.164754
5722.860894,370.102971,-8810.098227,-518.144159
5722.861218,370.102971,-8733.488677,-370.102971
5722.861543,370.102971,-8503.660028,-296.082377
5722.861867,444.123565,-9652.803275,-222.061783
5722.862192,370.102971,-8580.269578,-370.102971
5722.862516,592.164754,-8503.660028,-296.082377
5722.862840,444.123565,-8350.440928,-370.102971
5722.863165,222.061783,-8810.098227,-518.144159
5722.863489,518.144159,-8503.660028,-74.020594
5722.863814,518.144159,-8120.612279,-518.144159
5722.864138,518.144159,-8886.707777,-592.164754
5722.864463,740.205942,-8503.660028,-222.061783
5722.864787,888.247130,-8963.317327,0.000000
5722.865112,444.123565,-8427.050478,0.000000
5722.865436,444.123565,-8580.269578,0.000000
5722.865761,740.205942,-8350.440928,0.000000
5722.866085,740.205942,-9499.584175,-296.082377
5722.866410,370.102971,-8656.879127,-296.082377
5722.866734,444.123565,-8580.269578,-518.144159
5722.867059,444.123565,-8810.098227,-444.123565
5722.867383,592.164754,-8503.660028,-444.123565
5722.867708,592.164754,-8580.269578,-222.061783
5722.868032,740.205942,-8273.831378,-296.082377
5722.868356,518.144159,-8503.660028,-222.061783
5722.868681,740.205942,-8656.879127,-444.123565
5722.869005,518.144159,-8886.707777,0.000000
5722.869330,740.205942,-8427.050478,-592.164754
5722.869654,444.123565,-8656.879127,-592.164754
5722.869979,592.164754,-8886.707777,-222.061783
5722.870303,814.226536,-9346.365076,0.000000
5722.870628,444.123565,-8350.440928,-296.082377
5722.870952,370.102971,-8580.269578,-222.061783
5722.871277,0.000000,-8580.269578,-296.082377
5722.871601,148.041188,-8350.440928,0.000000
5722.871926,0.000000,-8427.050478,-296.082377
5722.872250,222.061783,-8733.488677,-444.123565
5722.872575,296.082377,-8503.660028,-962.267725
5722.872899,222.061783,-8733.488677,-888.247130
5722.873223,0.000000,-8963.317327,148.041188
5722.873548,222.061783,-8810.098227,-444.123565
5722.873872,222.061783,-8810.098227,-444.123565
5722.874197,222.061783,-8656.879127,-296.082377
5722.874521,444.123565,-8656.879127,-444.123565
5722.874846,518.144159,-8580.269578,-740.205942
5722.875170,296.082377,-8503.660028,-592.164754
5722.875495,148.041188,-8656.879127,-814.226536
5722.875819,148.041188,-8503.660028,-962.267725
5722.876144,444.123565,-8427.050478,-740.205942
5722.876468,592.164754,-8503.660028,-518.144159
5722.876793,518.144159,-8580.269578,-518.144159
5722.877117,296.082377,-8120.612279,-148.041188
5722.877442,0.000000,-8733.488677,-370.102971
5722.877766,444.123565,-8273.831378,-370.102971
5722.878091,592.164754,-8733.488677,-592.164754
5722.878415,370.102971,-8656.879127,-592.164754
5722.878739,222.061783,-8503.660028,-370.102971
5722.879064,74.020594,-8580.269578,-370.102971
5722.879388,296.082377,-8656.879127,-148.041188
5722.879713,444.123565,-8427.050478,0.000000
5722.880037,370.102971,-8427.050478,0.000000
5722.880362,222.061783,-8427.050478,518.144159
5722.880686,444.123565,-8503.660028,0.000000
5722.881011,370.102971,-8273.831378,0.000000
5722.881335,518.144159,-8427.050478,-148.041188
5722.881660,444.123565,-8810.098227,0.000000
5722.881984,444.123565,-8350.440928,-148.041188
5722.882309,592.164754,-8427.050478,0.000000
5722.882633,444.123565,-8427.050478,-222.061783
5722.882958,666.185348,-8503.660028,0.000000
5722.883282,296.082377,-8120.612279,-370.102971
5722.883607,666.185348,-8273.831378,-148.041188
5722.883931,222.061783,-8503.660028,-296.082377
5722.884255,814.226536,-8733.488677,-444.123565
5722.884580,666.185348,-7967.393179,-444.123565
5722.884904,740.205942,-8656.879127,-74.020594
5722.885229,592.164754,-8503.660028,-444.123565
5722.885553,592.164754,-8886.707777,0.000000
5722.885878,222.061783,-8350.440928,296.082377
5722.886202,592.164754,-8886.707777,74.020594
5722.886527,296.082377,-8810.098227,0.000000
5722.886851,370.102971,-8656.879127,0.000000
5722.887176,518.144159,-8886.707777,-148.041188
5722.887500,370.102971,-8963.317327,-370.102971
5722.887825,370.102971,-9116.536426,222.061783
5722.888149,74.020594,-8580.269578,-222.061783
5722.888474,444.123565,-8810.098227,0.000000
5722.888798,962.267725,-8656.879127,0.000000
5722.889122,518.144159,-8503.660028,0.000000
5722.889447,222.061783,-8580.269578,-222.061783
5722.889771,222.061783,-8503.660028,-222.061783
5722.890096,74.020594,-8733.488677,-148.041188
5722.890420,148.041188,-8733.488677,-814.226536
5722.890745,0.000000,-9039.926876,-666.185348
5722.891069,370.102971,-8503.660028,-666.185348
5722.891394,370.102971,-9039.926876,-296.082377
5722.891718,666.185348,-8350.440928,-518.144159
5722.892043,370.102971,-8810.098227,-222.061783
5722.892367,370.102971,-8656.879127,0.000000
5722.892692,444.123565,-8427.050478,-666.185348
5722.893016,444.123565,-8963.317327,-740.205942
5722.893341,370.102971,-8503.660028,-592.164754
5722.893665,0.000000,-9039.926876,-888.247130
5722.893990,222.061783,-8733.488677,-740.205942
5722.894314,296.082377,-8733.488677,-296.082377
5722.894638,444.123565,-8810.098227,0.000000
5722.894963,518.144159,-8503.660028,-370.102971
5722.895287,518.144159,-8197.221829,-296.082377
5722.895612,592.164754,-8886.707777,-370.102971
5722.895936,592.164754,-8427.050478,-518.144159
5722.896261,148.041188,-8810.098227,-740.205942
5722.896585,74.020594,-8197.221829,-370.102971
5722.896910,222.061783,-8733.488677,-370.102971
5722.897234,962.267725,-8656.879127,-518.144159
5722.897559,444.123565,-8503.660028,-370.102971
5722.897883,444.123565,-8503.660028,148.041188
5722.898208,444.123565,-8197.221829,0.000000
5722.898532,518.144159,-8044.002729,-370.102971
5722.898857,592.164754,-8503.660028,-296.082377
5722.899181,592.164754,-8197.221829,-518.144159
5722.899506,666.185348,-8427.050478,-518.144159
5722.899830,296.082377,-8197.221829,-814.226536
5722.900154,444.123565,-7967.393179,-592.164754
5722.900479,666.185348,-8044.002729,-444.123565
5722.900803,370.102971,-8503.660028,-592.164754
5722.901128,296.082377,-8197.221829,-148.041188
5722.901452,370.102971,-9193.145976,-222.061783
5722.901777,518.144159,-8273.831378,-740.205942
5722.902101,666.185348,-8427.050478,-518.144159
5722.902426,518.144159,-8503.660028,-962.267725
5722.902750,666.185348,-8580.269578,-666.185348
5722.903075,370.102971,-8273.831378,-666.185348
5722.903399,444.123565,-9039.926876,-518.144159
5722.903724,518.144159,-8273.831378,-222.061783
5722.904048,592.164754,-8656.879127,0.000000
5722.904373,740.205942,-9116.536426,-518.144159
5722.904697,518.144159,-8503.660028,0.000000
5722.905021,592.164754,-8427.050478,-222.061783
5722.905346,148.041188,-8733.488677,-296.082377
5722.905670,296.082377,-8810.098227,-592.164754
5722.905995,296.082377,-8503.660028,-370.102971
5722.906319,296.082377,-8350.440928,0.000000
5722.906644,222.061783,-8580.269578,0.000000
5722.906968,444.123565,-8733.488677,0.000000
5722.907293,0.000000,-8733.488677,74.020594
5722.907617,444.123565,-9116.536426,0.000000
5722.907942,370.102971,-9116.536426,-148.041188
5722.908266,296.082377,-8886.707777,0.000000
5722.908591,444.123565,-8273.831378,-370.102971
5722.908915,222.061783,-8886.707777,-370.102971
5722.909240,222.061783,-8503.660028,-296.082377
5722.909564,148.041188,-8733.488677,0.000000
5722.909889,296.082377,-8733.488677,0.000000
5722.910213,148.041188,-8503.660028,-296.082377
5722.910537,444.123565,-8886.707777,0.000000
5722.910862,518.144159,-8580.269578,-222.061783
5722.911186,518.144159,-9116.536426,-370.102971
5722.911511,814.226536,-8963.317327,-740.205942
5722.911835,444.123565,-8963.317327,0.000000
5722.912160,296.082377,-8580.269578,-296.082377
5722.912484,592.164754,-8503.660028,0.000000
5722.912809,444.123565,-9116.536426,0.000000
5722.913133,666.185348,-8580.269578,222.061783
5722.913458,296.082377,-8044.002729,0.000000
5722.913782,518.144159,-9039.926876,0.000000
5722.914107,296.082377,-8427.050478,0.000000
5722.914431,666.185348,-9039.926876,-222.061783
5722.914756,296.082377,-8656.879127,-74.020594
5722.915080,148.041188,-8503.660028,74.020594
5722.915404,370.102971,-8580.269578,-148.041188
5722.915729,74.020594,-8886.707777,518.144159
5722.916053,370.102971,-8503.660028,0.000000
5722.916378,370.102971,-8503.660028,0.000000
5722.916702,666.185348,-8197.221829,-370.102971
5722.917027,444.123565,-8733.488677,-296.082377
5722.917351,592.164754,-8810.098227,-592.164754
5722.917676,370.102971,-8580.269578,-666.185348
5722.918000,518.144159,-8580.269578,-592.164754
5722.918325,296.082377,-8273.831378,-518.144159
5722.918649,444.123565,-8503.660028,-370.102971
5722.918974,370.102971,-8427.050478,-444.123565
5722.919298,444.123565,-8580.269578,-370.102971
5722.919623,666.185348,-8503.660028,-888.247130
5722.919947,296.082377,-8427.050478,-222.061783
5722.920272,444.123565,-8120.612279,-444.123565
5722.920596,296.082377,-8656.879127,-592.164754
5722.920920,444.123565,-8810.098227,-444.123565
5722.921245,444.123565,-8886.707777,0.000000
5722.921569,518.144159,-8503.660028,-370.102971
5722.921894,296.082377,-8580.269578,-296.082377
5722.922218,148.041188,-8503.660028,-222.061783
5722.922543,222.061783,-8810.098227,0.000000
5722.922867,370.102971,-8503.660028,-296.082377
5722.923192,444.123565,-8733.488677,-370.102971
5722.923516,740.205942,-8656.879127,-518.144159
5722.923841,814.226536,-8427.050478,-666.185348
5722.924165,370.102971,-8120.612279,74.020594
5722.924490,444.123565,-8350.440928,-370.102971
5722.924814,518.144159,-8580.269578,-296.082377
5722.925139,148.041188,-8733.488677,-296.082377
5722.925463,222.061783,-9116.536426,-370.102971
5722.925788,222.061783,-8503.660028,-666.185348
5722.926112,370.102971,-8656.879127,-740.205942
5722.926436,296.082377,-8580.269578,-962.267725
5722.926761,518.144159,-8963.317327,-814.226536
5722.927085,444.123565,-8427.050478,-296.082377
5722.927410,518.144159,-8503.660028,-296.082377
5722.927734,444.123565,-8503.660028,-444.123565
5722.928059,592.164754,-8503.660028,-444.123565
5722.928383,962.267725,-8810.098227,-592.164754
5722.928708,666.185348,-8733.488677,-518.144159
5722.929032,370.102971,-8503.660028,-592.164754
5722.929357,518.144159,-8810.098227,-518.144159
5722.929681,222.061783,-8503.660028,-740.205942
5722.930006,518.144159,-8733.488677,-444.123565
5722.930330,444.123565,-8810.098227,-74.020594
5722.930655,518.144159,-8503.660028,74.020594
5722.930979,444.123565,-8580.269578,0.000000
5722.931303,1110.308913,-8580.269578,0.000000
5722.931628,666.185348,-8810.098227,0.000000
5722.931952,592.164754,-8503.660028,-592.164754
5722.932277,740.205942,-8580.269578,-518.144159
5722.932601,666.185348,-8733.488677,-370.102971
5722.932926,370.102971,-8580.269578,-148.041188
5722.933250,296.082377,-8580.269578,0.000000
5722.933575,888.247130,-8733.488677,0.000000
5722.933899,444.123565,-8810.098227,0.000000
5722.934224,666.185348,-8503.660028,0.000000
5722.934548,148.041188,-8733.488677,-74.020594
5722.934873,814.226536,-8963.317327,-444.123565
5722.935197,444.123565,-8427.050478,-444.123565
5722.935522,1036.288319,-8810.098227,-814.226536
5722.935846,296.082377,-8963.317327,-296.082377
5722.936171,148.041188,-8580.269578,-370.102971
5722.936495,740.205942,-8656.879127,-222.061783
5722.936819,296.082377,-8503.660028,-296.082377
5722.937144,296.082377,-8810.098227,-148.041188
5722.937468,148.041188,-8427.050478,-296.082377
5722.937793,444.123565,-8427.050478,-370.102971
5722.938117,222.061783,-8733.488677,-444.123565
5722.938442,518.144159,-8580.269578,-592.164754
5722.938766,518.144159,-8656.879127,-444.123565
5722.939091,444.123565,-8503.660028,-296.082377
5722.939415,592.164754,-8580.269578,0.000000
5722.939740,148.041188,-8810.098227,148.041188
5722.940064,148.041188,-8580.269578,0.000000
5722.940389,0.000000,-8503.660028,-370.102971
5722.940713,296.082377,-8810.098227,-592.164754
5722.941038,666.185348,-8350.440928,-296.082377
5722.941362,0.000000,-8810.098227,-444.123565
5722.941687,74.020594,-8580.269578,-518.144159
5722.942011,518.144159,-8580.269578,-444.123565
5722.942335,518.144159,-8503.660028,-518.144159
5722.942660,370.102971,-8656.879127,0.000000
5722.942984,444.123565,-8580.269578,-222.061783
5722.943309,74.020594,-8427.050478,-148.041188
5722.943633,592.164754,-8656.879127,-740.205942
5722.943958,296.082377,-8044.002729,-1332.370696
5722.944282,518.144159,-8503.660028,-1036.288319
5722.944607,370.102971,-8273.831378,-666.185348
5722.944931,444.123565,-8580.269578,-888.247130
5722.945256,518.144159,-8273.831378,-518.144159
5722.945580,740.205942,-8503.660028,-592.164754
5722.945905,592.164754,-8656.879127,-370.102971
5722.946229,222.061783,-8273.831378,-444.123565
5722.946554,666.185348,-8656.879127,-444.123565
5722.946878,666.185348,-8503.660028,-370.102971
5722.947202,592.164754,-8656.879127,-518.144159
5722.947527,666.185348,-8810.098227,-666.185348
5722.947851,814.226536,-8733.488677,-666.185348
5722.948176,370.102971,-8273.831378,-518.144159
5722.948500,370.102971,-8580.269578,148.041188
5722.948825,518.144159,-8427.050478,0.000000
5722.949149,592.164754,-8427.050478,0.000000
5722.949474,592.164754,-8656.879127,0.000000
5722.949798,592.164754,-8197.221829,-518.144159
5722.950123,518.144159,-8810.098227,-444.123565
5722.950447,148.041188,-8580.269578,-370.102971
5722.950772,518.144159,-8656.879127,-296.082377
5722.951096,666.185348,-8503.660028,-518.144159
5722.951421,666.185348,-8427.050478,0.000000
5722.951745,370.102971,-8350.440928,0.000000
5722.952070,296.082377,-8503.660028,-296.082377
5722.952394,370.102971,-9193.145976,-444.123565
5722.952718,518.144159,-8656.879127,-296.082377
5722.953043,148.041188,-8810.098227,-666.185348
5722.953367,148.041188,-8580.269578,-666.185348
5722.953692,296.082377,-8503.660028,-518.144159
5722.954016,370.102971,-8580.269578,-518.144159
5722.954341,518.144159,-8733.488677,-592.164754
5722.954665,296.082377,-8810.098227,-148.041188
5722.954990,370.102971,-8427.050478,0.000000
5722.955314,148.041188,-8963.317327,0.000000
5722.955639,444.123565,-8810.098227,-296.082377
5722.955963,518.144159,-8350.440928,-518.144159
5722.956288,444.123565,-8656.879127,-222.061783
5722.956612,0.000000,-8963.317327,74.020594
5722.956937,444.123565,-8580.269578,-222.061783
5722.957261,370.102971,-8733.488677,0.000000
5722.957586,222.061783,-8197.221829,222.061783
5722.957910,148.041188,-8656.879127,0.000000
5722.958234,444.123565,-8810.098227,-222.061783
5722.958559,370.102971,-8350.440928,0.000000
5722.958883,296.082377,-8656.879127,-296.082377
5722.959208,222.061783,-8963.317327,-444.123565
5722.959532,222.061783,-8120.612279,222.061783
5722.959857,444.123565,-8886.707777,-222.061783
5722.960181,444.123565,-8656.879127,-296.082377
5722.960506,592.164754,-8427.050478,0.000000
5722.960830,592.164754,-8273.831378,74.020594
5722.961155,222.061783,-8350.440928,-370.102971
5722.961479,370.102971,-8503.660028,-370.102971
5722.961803,518.144159,-8503.660028,-148.041188
5722.962128,444.123565,-8197.221829,-666.185348
5722.962452,296.082377,-8197.221829,-740.205942
5722.962777,518.144159,-8656.879127,-740.205942
5722.963101,518.144159,-8580.269578,-666.185348
5722.963426,222.061783,-8886.707777,-444.123565
5722.963750,222.061783,-8503.660028,-666.185348
5722.964075,666.185348,-8656.879127,-296.082377
5722.964399,444.123565,-8350.440928,-296.082377
5722.964724,814.226536,-8503.660028,-1110.308913
5722.965048,666.185348,-8733.488677,-888.247130
5722.965373,888.247130,-8350.440928,-592.164754
5722.965697,444.123565,-8503.660028,-740.205942
5722.966021,444.123565,-8656.879127,-666.185348
5722.966346,296.082377,-8350.440928,-296.082377
5722.966670,592.164754,-8350.440928,-296.082377
5722.966995,518.144159,-8503.660028,-370.102971
5722.967319,370.102971,-8580.269578,-222.061783
5722.967644,148.041188,-9116.536426,-222.061783
5722.967968,296.082377,-9346.365076,-814.226536
5722.968293,592.164754,-8656.879127,-740.205942
5722.968617,592.164754,-8810.098227,-740.205942
5722.968942,592.164754,-8427.050478,-518.144159
5722.969266,148.041188,-8580.269578,-222.061783
5722.969590,296.082377,-8656.879127,0.000000
5722.969915,222.061783,-8580.269578,-222.061783
5722.970239,74.020594,-8427.050478,-222.061783
5722.970564,148.041188,-8656.879127,-222.061783
5722.970888,518.144159,-8350.440928,-888.247130
5722.971213,444.123565,-8810.098227,-592.164754
5722.971537,222.061783,-8503.660028,-814.226536
5722.971862,592.164754,-8963.317327,-592.164754
5722.972186,592.164754,-8350.440928,-444.123565
5722.972511,518.144159,-8503.660028,-222.061783
5722.972835,296.082377,-8580.269578,-518.144159
5722.973160,370.102971,-8350.440928,-370.102971
5722.973484,296.082377,-8273.831378,-444.123565
5722.973808,444.123565,-8503.660028,-666.185348
5722.974133,592.164754,-8350.440928,-444.123565
5722.974457,518.144159,-8656.879127,-370.102971
5722.974782,666.185348,-8580.269578,-370.102971
5722.975106,592.164754,-8886.707777,-222.061783
5722.975431,740.205942,-8733.488677,-296.082377
5722.975755,740.205942,-8044.002729,0.000000
5722.976080,518.144159,-8503.660028,0.000000
5722.976404,444.123565,-8580.269578,0.000000
5722.976729,518.144159,-8503.660028,-222.061783
5722.977053,518.144159,-8580.269578,-148.041188
5722.977378,296.082377,-8503.660028,-296.082377
5722.977702,296.082377,-8580.269578,-370.102971
5722.978026,296.082377,-8656.879127,0.000000
5722.978351,444.123565,-8273.831378,0.000000
5722.978675,222.061783,-8580.269578,0.000000
5722.979000,444.123565,-8810.098227,0.000000
5722.979324,518.144159,-7890.783629,148.041188
5722.979649,296.082377,-8350.440928,0.000000
5722.979973,444.123565,-8733.488677,-444.123565
5722.980298,444.123565,-8350.440928,-740.205942
5722.980622,592.164754,-9039.926876,-814.226536
5722.980947,296.082377,-8733.488677,-444.123565
5722.981271,296.082377,-8733.488677,0.000000
5722.981595,444.123565,-8580.269578,-444.123565
5722.981920,370.102971,-8580.269578,0.000000
5722.982244,444.123565,-8963.317327,-222.061783
5722.982569,444.123565,-8733.488677,-444.123565
5722.982893,296.082377,-8656.879127,-296.082377
5722.983218,370.102971,-8963.317327,-296.082377
5722.983542,740.205942,-9039.926876,-592.164754
5722.983867,370.102971,-8733.488677,-296.082377
5722.984191,444.123565,-8886.707777,0.000000
5722.984516,0.000000,-8503.660028,0.000000
5722.984840,296.082377,-8810.098227,-296.082377
5722.985165,74.020594,-8503.660028,0.000000
5722.985489,444.123565,-8733.488677,-148.041188
5722.985813,148.041188,-8886.707777,-518.144159
5722.986138,444.123565,-8580.269578,-296.082377
5722.986462,444.123565,-8810.098227,-518.144159
5722.986787,222.061783,-8810.098227,-296.082377
5722.987111,518.144159,-8503.660028,-666.185348
5722.987436,518.144159,-8580.269578,-222.061783
5722.987760,888.247130,-8350.440928,-148.041188
5722.988085,444.123565,-8503.660028,-370.102971
5722.988409,518.144159,-8427.050478,-370.102971
5722.988734,444.123565,-8350.440928,-222.061783
5722.989058,370.102971,-8810.098227,-592.164754
5722.989382,148.041188,-8427.050478,-592.164754
5722.989707,592.164754,-8273.831378,-370.102971
5722.990031,296.082377,-8656.879127,-222.061783
5722.990356,518.144159,-8427.050478,0.000000
5722.990680,666.185348,-8120.612279,-592.164754
5722.991005,518.144159,-8350.440928,0.000000
5722.991329,444.123565,-8503.660028,0.000000
5722.991654,444.123565,-8503.660028,-74.020594
5722.991978,814.226536,-8580.269578,0.000000
5722.992303,444.123565,-8580.269578,-296.082377
5722.992627,296.082377,-9116.536426,-370.102971
5722.992952,666.185348,-8197.221829,-370.102971
5722.993276,740.205942,-8197.221829,0.000000
5722.993600,370.102971,-8120.612279,0.000000
5722.993925,666.185348,-8656.879127,0.000000
5722.994249,444.123565,-8120.612279,-370.102971
5722.994574,814.226536,-8963.317327,-148.041188
5722.994898,592.164754,-8350.440928,-666.185348
5722.995223,370.102971,-8886.707777,-296.082377
5722.995547,296.082377,-8580.269578,-444.123565
5722.995872,296.082377,-8810.098227,-296.082377
5722.996196,370.102971,-8120.612279,0.000000
5722.996521,444.123565,-8580.269578,-296.082377
5722.996845,296.082377,-8273.831378,0.000000
5722.997170,222.061783,-8810.098227,-74.020594
5722.997494,592.164754,-8503.660028,-592.164754
5722.997818,518.144159,-8503.660028,-888.247130
5722.998143,518.144159,-8810.098227,-666.185348
5722.998467,370.102971,-8886.707777,-592.164754
5722.998792,370.102971,-8656.879127,-888.247130
5722.999116,370.102971,-9499.584175,0.000000
5722.999441,518.144159,-8427.050478,-296.082377
5722.999765,370.102971,-9039.926876,-444.123565
5723.000090,222.061783,-8580.269578,-370.102971
5723.000414,74.020594,-8580.269578,-666.185348
5723.000739,0.000000,-8656.879127,-592.164754
5723.001063,222.061783,-8656.879127,-740.205942
5723.001387,222.061783,-8656.879127,-740.205942
5723.001712,518.144159,-8963.317327,-666.185348
5723.002036,-148.041188,-8503.660028,-370.102971
5723.002361,666.185348,-8656.879127,0.000000
5723.002685,444.123565,-8503.660028,0.000000
5723.003010,888.247130,-8580.269578,0.000000
5723.003334,296.082377,-8273.831378,-666.185348
5723.003659,740.205942,-8427.050478,-222.061783
5723.003983,444.123565,-8503.660028,-444.123565
5723.004308,518.144159,-8580.269578,-222.061783
5723.004632,814.226536,-8733.488677,-444.123565
5723.004957,740.205942,-8350.440928,-444.123565
5723.005281,592.164754,-8503.660028,74.020594
5723.005605,296.082377,-8503.660028,0.000000
5723.005930,370.102971,-8810.098227,0.000000
5723.006254,148.041188,-8273.831378,0.000000
5723.006579,518.144159,-8580.269578,-222.061783
5723.006903,370.102971,-8350.440928,-444.123565
5723.007228,518.144159,-8427.050478,-444.123565
5723.007552,444.123565,-9576.193725,-296.082377
5723.007877,444.123565,-8120.612279,-518.144159
5723.008201,518.144159,-8427.050478,-296.082377
5723.008526,296.082377,-8350.440928,0.000000
5723.008850,444.123565,-8273.831378,-148.041188
5723.009174,296.082377,-8350.440928,-148.041188
5723.009499,444.123565,-8580.269578,-444.123565
5723.009823,370.102971,-8273.831378,-518.144159
5723.010148,444.123565,-8810.098227,-592.164754
5723.010472,296.082377,-9039.926876,-518.144159
5723.010797,370.102971,-8350.440928,0.000000
5723.011121,444.123565,-8810.098227,-370.102971
5723.011446,444.123565,-8580.269578,0.000000
5723.011770,518.144159,-9269.755526,-74.020594
5723.012095,740.205942,-8503.660028,-370.102971
5723.012419,222.061783,-8656.879127,0.000000
5723.012744,370.102971,-8580.269578,-370.102971
5723.013068,518.144159,-8656.879127,-370.102971
5723.013392,444.123565,-8580.269578,-444.123565
5723.013717,370.102971,-8810.098227,-518.144159
5723.014041,444.123565,-8350.440928,-222.061783
5723.014366,518.144159,-8656.879127,-148.041188
5723.014690,0.000000,-8273.831378,0.000000
5723.015015,370.102971,-8580.269578,-222.061783
5723.015339,370.102971,-8810.098227,-444.123565
5723.015664,444.123565,-8503.660028,-740.205942
5723.015988,222.061783,-8886.707777,-592.164754
5723.016313,222.061783,-8580.269578,-666.185348
5723.016637,444.123565,-8427.050478,-666.185348
5723.016962,222.061783,-8810.098227,-740.205942
5723.017286,370.102971,-8503.660028,-370.102971
5723.017610,518.144159,-8503.660028,-74.020594
5723.017935,370.102971,-8733.488677,-518.144159
5723.018259,148.041188,-8733.488677,-370.102971
5723.018584,592.164754,-8656.879127,-370.102971
5723.018908,518.144159,-8810.098227,-888.247130
5723.019233,592.164754,-8503.660028,-666.185348
5723.019557,370.102971,-8810.098227,-296.082377
5723.019882,518.144159,-8273.831378,-370.102971
