#time,accel_x,accel_y,accel_z
4210.160304,222.061783,-8580.269578,-222.061783
4210.160629,370.102971,-8197.221829,-148.041188
4210.160953,444.123565,-8810.098227,-148.041188
4210.161278,518.144159,-8427.050478,-518.144159
4210.161602,296.082377,-9346.365076,-370.102971
4210.161926,592.164754,-8580.269578,-444.123565
4210.162251,370.102971,-8580.269578,-222.061783
4210.162575,296.082377,-8656.879127,-370.102971
4210.162899,296.082377,-8733.488677,-222.061783
4210.163224,222.061783,-8503.660028,0.000000
4210.163548,444.123565,-9116.536426,-296.082377
4210.163873,518.144159,-8810.098227,-370.102971
4210.164197,592.164754,-8044.002729,-518.144159
4210.164521,740.205942,-9039.926876,0.000000
4210.164846,222.061783,-8656.879127,-518.144159
4210.165170,296.082377,-8427.050478,-222.061783
4210.165495,666.185348,-8656.879127,-296.082377
4210.165819,370.102971,-9193.145976,-740.205942
4210.166143,518.144159,-8656.879127,-592.164754
4210.166468,370.102971,-8427.050478,-444.123565
4210.166792,148.041188,-8580.269578,0.000000
4210.167117,444.123565,-8733.488677,-370.102971
4210.167441,518.144159,-8886.707777,-370.102971
4210.167765,666.185348,-8580.269578,0.000000
4210.168090,518.144159,-8810.098227,-296.082377
4210.168414,296.082377,-8580.269578,-444.123565
4210.168738,74.020594,-9269.755526,444.123565
4210.169063,592.164754,-8733.488677,-296.082377
4210.169387,296.082377,-8733.488677,-444.123565
4210.169712,222.061783,-8810.098227,-296.082377
4210.170036,740.205942,-9039.926876,-370.102971
4210.170360,222.061783,-8350.440928,-222.061783
4210.170685,370.102971,-8733.488677,-444.123565
4210.171009,592.164754,-8350.440928,-444.123565
4210.171334,666.185348,-8656.879127,-370.102971
4210.171658,370.102971,-8810.098227,-592.164754
4210.171982,444.123565,-8503.660028,-296.082377
4210.172307,592.164754,-8580.269578,-370.102971
4210.172631,74.020594,-8656.879127,-148.041188
4210.172955,666.185348,-8810.098227,-592.164754
4210.173280,74.020594,-9039.926876,-370.102971
4210.173604,740.205942,-8350.440928,-370.102971
4210.173929,148.041188,-8580.269578,-370.102971
4210.174253,592.164754,-9116.536426,-370.102971
4210.174577,370.102971,-8656.879127,0.000000
4210.174902,444.123565,-8503.660028,-370.102971
4210.175226,148.041188,-8810.098227,-222.061783
4210.175551,222.061783,-8503.660028,-222.061783
4210.175875,592.164754,-8963.317327,-148.041188
4210.176199,518.144159,-8580.269578,-444.123565
4210.176524,222.061783,-8810.098227,-444.123565
4210.176848,518.144159,-8503.660028,-370.102971
4210.177173,296.082377,-8656.879127,-518.144159
4210.177497,666.185348,-8733.488677,-370.102971
4210.177821,592.164754,-8656.879127,-518.144159
4210.178146,740.205942,-8503.660028,-666.185348
4210.178470,444.123565,-8733.488677,-222.061783
4210.178794,444.123565,-8503.660028,-370.102971
4210.179119,296.082377,-8427.050478,-296.082377
4210.179443,296.082377,-8733.488677,-370.102971
4210.179768,592.164754,-8503.660028,-444.123565
4210.180092,74.020594,-8427.050478,-444.123565
4210.180416,-666.185348,-8963.317327,0.000000
4210.180741,-962.267725,-8044.002729,-444.123565
4210.181065,-1924.535449,-9116.536426,-370.102971
4210.181390,-1850.514855,-8886.707777,-296.082377
4210.181714,-2072.576638,-8733.488677,222.061783
4210.182038,-1406.391290,-8580.269578,-962.267725
4210.182363,-1184.329507,-8656.879127,-296.082377
4210.182687,-1036.288319,-8197.221829,-518.144159
4210.183011,-1258.350101,-8733.488677,-296.082377
4210.183336,-1406.391290,-8273.831378,-888.247130
4210.183660,-2072.576638,-9422.974625,-518.144159
4210.183985,-2960.823768,-8656.879127,-370.102971
4210.184309,-3478.967927,-9193.145976,0.000000
4210.184633,-3775.050304,-8810.098227,-592.164754
4210.184958,-3997.112087,-8580.269578,-296.082377
4210.185282,-3182.885551,-8733.488677,-148.041188
4210.185607,-2738.761985,-8963.317327,-518.144159
4210.185931,-2220.617826,-8503.660028,-444.123565
4210.186255,-1924.535449,-8733.488677,-444.123565
4210.186580,-2146.597232,-8503.660028,-222.061783
4210.186904,-2442.679609,-8810.098227,-518.144159
4210.187229,-2664.741391,-9116.536426,-296.082377
4210.187553,-3108.864956,-9039.926876,0.000000
4210.187877,-3330.926739,-8963.317327,-222.061783
4210.188202,-3478.967927,-9116.536426,0.000000
4210.188526,-2960.823768,-9422.974625,0.000000
4210.188850,-2960.823768,-8886.707777,74.020594
4210.189175,-2368.659014,-8733.488677,-370.102971
4210.189499,-2072.576638,-8503.660028,-296.082377
4210.189824,-1628.453072,-9269.755526,0.000000
4210.190148,-1258.350101,-8656.879127,-74.020594
4210.190472,-1480.411884,-8656.879127,-444.123565
4210.190797,-1332.370696,-9116.536426,-148.041188
4210.191121,-2442.679609,-8656.879127,74.020594
4210.191446,-2738.761985,-9499.584175,74.020594
4210.191770,-2664.741391,-8580.269578,-296.082377
4210.192094,-2960.823768,-8963.317327,0.000000
4210.192419,-3034.844362,-8197.221829,-444.123565
4210.192743,-2590.720797,-9116.536426,74.020594
4210.193067,-2146.597232,-8120.612279,-962.267725
4210.193392,-1406.391290,-8350.440928,-222.061783
4210.193716,-1480.411884,-7890.783629,-592.164754
4210.194041,-1480.411884,-8350.440928,-518.144159
4210.194365,-2072.576638,-7660.954980,-296.082377
4210.194689,-1998.556043,-8350.440928,0.000000
4210.195014,-2146.597232,-8350.440928,-444.123565
4210.195338,-2072.576638,-8503.660028,-444.123565
4210.195663,-1332.370696,-8197.221829,-740.205942
4210.195987,-814.226536,-8350.440928,-296.082377
4210.196311,0.000000,-8503.660028,-962.267725
4210.196636,222.061783,-8733.488677,-592.164754
4210.196960,222.061783,-7967.393179,-814.226536
4210.197285,740.205942,-8427.050478,-666.185348
4210.197609,666.185348,-8656.879127,-518.144159
4210.197933,814.226536,-8503.660028,-222.061783
4210.198258,814.226536,-8733.488677,-592.164754
4210.198582,222.061783,-8886.707777,-370.102971
4210.198906,592.164754,-8427.050478,-74.020594
4210.199231,1036.288319,-9193.145976,-444.123565
4210.199555,962.267725,-8810.098227,-518.144159
4210.199880,666.185348,-8273.831378,-222.061783
4210.200204,592.164754,-9116.536426,-518.144159
4210.200528,-444.123565,-9039.926876,-888.247130
4210.200853,-1332.370696,-9039.926876,-740.205942
4210.201177,-2220.617826,-9499.584175,-370.102971
4210.201502,-2368.659014,-8886.707777,-518.144159
4210.201826,-3330.926739,-8733.488677,-518.144159
4210.202150,-3108.864956,-8503.660028,0.000000
4210.202475,-3256.906145,-8350.440928,-666.185348
4210.202799,-1924.535449,-8886.707777,-592.164754
4210.203123,-1628.453072,-8120.612279,-444.123565
4210.203448,-1480.411884,-8886.707777,-518.144159
4210.203772,-1332.370696,-8503.660028,-666.185348
4210.204097,-518.144159,-8810.098227,-222.061783
4210.204421,-1406.391290,-8886.707777,-888.247130
4210.204745,-1998.556043,-8656.879127,-518.144159
4210.205070,-1480.411884,-8733.488677,-370.102971
4210.205394,-2146.597232,-9422.974625,518.144159
4210.205719,-1258.350101,-8503.660028,-296.082377
4210.206043,-1258.350101,-8656.879127,0.000000
4210.206367,0.000000,-8656.879127,-666.185348
4210.206692,-296.082377,-8580.269578,-222.061783
4210.207016,666.185348,-8810.098227,-962.267725
4210.207341,-1406.391290,-9422.974625,-740.205942
4210.207665,-2664.741391,-8656.879127,-814.226536
4210.207989,-4071.132681,-8886.707777,-592.164754
4210.208314,-5181.441594,-9499.584175,74.020594
4210.208638,-5773.606348,-8810.098227,0.000000
4210.208962,-5773.606348,-9039.926876,370.102971
4210.209287,-4367.215058,-7967.393179,-222.061783
4210.209611,-3256.906145,-8886.707777,518.144159
4210.209936,-1702.473667,-8427.050478,222.061783
4210.210260,-888.247130,-8197.221829,222.061783
4210.210584,74.020594,-8580.269578,444.123565
4210.210909,0.000000,-8120.612279,-370.102971
4210.211233,0.000000,-9499.584175,666.185348
4210.211558,-1332.370696,-8733.488677,74.020594
4210.211882,-2886.803174,-9729.412825,518.144159
4210.212206,-4441.235652,-9269.755526,0.000000
4210.212531,-5477.523971,-9806.022374,222.061783
4210.212855,-5995.668130,-8656.879127,-444.123565
4210.213179,-4811.338623,-8733.488677,74.020594
4210.213504,-3923.091493,-7890.783629,-814.226536
4210.213828,-1924.535449,-7431.126331,-518.144159
4210.214153,74.020594,-7354.516781,-296.082377
4210.214477,1702.473667,-6971.469032,-296.082377
4210.214801,3182.885551,-7814.174080,-74.020594
4210.215126,2960.823768,-7660.954980,0.000000
4210.215450,3849.070898,-7431.126331,444.123565
4210.215775,1332.370696,-8656.879127,0.000000
4210.216099,1036.288319,-9116.536426,-666.185348
4210.216423,-148.041188,-9422.974625,-814.226536
4210.216748,-2738.761985,-9652.803275,-1332.370696
4210.217072,-4515.256246,-9499.584175,-962.267725
4210.217397,-5329.482782,-8273.831378,-2146.597232
4210.217721,-5625.565159,-8427.050478,-1554.432478
4210.218045,-3923.091493,-7277.907231,-1702.473667
4210.218370,-1776.494261,-8427.050478,-444.123565
4210.218694,962.267725,-7277.907231,-740.205942
4210.219018,3330.926739,-8273.831378,148.041188
4210.219343,5255.462188,-8427.050478,0.000000
4210.219667,5921.647536,-9576.193725,296.082377
4210.219992,3478.967927,-9806.022374,-370.102971
4210.220316,1258.350101,-10342.289223,-296.082377
4210.220640,-1924.535449,-10035.851024,-1184.329507
4210.220965,-5995.668130,-10035.851024,-814.226536
4210.221289,-7994.224174,-9959.241474,-814.226536
4210.221614,-7105.977043,-9116.536426,-1554.432478
4210.221938,-5551.544565,-8044.002729,-444.123565
4210.222262,-3478.967927,-7201.297681,-1702.473667
4210.222587,-592.164754,-7507.735880,-1332.370696
4210.222911,7254.018232,-7507.735880,-814.226536
4210.223235,7550.100608,-6665.030833,-592.164754
4210.223560,8586.388927,-9269.755526,148.041188
4210.223884,5329.482782,-9346.365076,-1554.432478
4210.224209,814.226536,-11414.822920,-666.185348
4210.224533,-4885.359217,-10265.679673,-1628.453072
4210.224857,-9474.636058,-12027.699319,-962.267725
4210.225182,-11843.295072,-10801.946522,-666.185348
4210.225506,-12435.459826,-9269.755526,-666.185348
4210.225831,-11251.130318,-7814.174080,0.000000
4210.226155,-5995.668130,-7201.297681,-1258.350101
4210.226479,-222.061783,-5669.106685,-666.185348
4210.226804,4589.276840,-5132.839837,0.000000
4210.227128,8734.430116,-6665.030833,296.082377
4210.227453,8882.471304,-8273.831378,370.102971
4210.227777,5995.668130,-9422.974625,-592.164754
4210.228102,1036.288319,-10265.679673,592.164754
4210.228426,-5699.585753,-11261.603821,148.041188
4210.228750,-9918.759623,-12257.527968,592.164754
4210.229075,-12805.562797,-11031.775171,0.000000
4210.229399,-10658.965565,-10801.946522,1332.370696
4210.229724,-7031.956449,-6971.469032,-1110.308913
4210.230048,-5329.482782,-7507.735880,-296.082377
4210.230372,1110.308913,-6511.811733,-1924.535449
4210.230697,3182.885551,-6588.421283,0.000000
4210.231021,5847.626942,-6665.030833,0.000000
4210.231346,4885.359217,-6128.763984,-222.061783
4210.231670,1332.370696,-7431.126331,1184.329507
4210.231994,-2294.638420,-7584.345430,592.164754
4210.232319,-5033.400406,-10112.460574,1332.370696
4210.232643,-5921.647536,-10265.679673,962.267725
4210.232968,-5995.668130,-10878.556072,1184.329507
4210.233292,-3627.009116,-10265.679673,74.020594
4210.233616,-2812.782580,-8963.317327,-1332.370696
4210.233941,-222.061783,-8044.002729,-2072.576638
4210.234265,1924.535449,-7048.078582,-444.123565
4210.234590,962.267725,-6665.030833,0.000000
4210.234914,1850.514855,-6588.421283,814.226536
4210.235239,2886.803174,-6435.202183,1258.350101
4210.235563,1406.391290,-7660.954980,1036.288319
4210.235887,2368.659014,-9346.365076,666.185348
4210.236212,2146.597232,-11108.384721,-666.185348
4210.236536,-1702.473667,-10035.851024,-1850.514855
4210.236861,-740.205942,-11568.042020,-370.102971
4210.237185,-3034.844362,-7201.297681,-1480.411884
4210.237509,-592.164754,-11338.213370,-296.082377
4210.237834,222.061783,-7124.688131,-2072.576638
4210.238158,1924.535449,-8427.050478,592.164754
4210.238483,3997.112087,-5056.230287,592.164754
4210.238807,4959.379811,-6511.811733,222.061783
4210.239131,6143.709319,-8580.269578,1036.288319
4210.239456,8290.306550,-6511.811733,-814.226536
4210.239780,3923.091493,-8733.488677,-740.205942
4210.240105,592.164754,-8350.440928,-2442.679609
4210.240429,-444.123565,-10801.946522,-1702.473667
4210.240754,-814.226536,-10648.727422,-2516.700203
4210.241078,-2072.576638,-11031.775171,-2220.617826
4210.241402,-222.061783,-8273.831378,-1628.453072
4210.241727,518.144159,-9959.241474,-1554.432478
4210.242051,3034.844362,-9116.536426,-740.205942
4210.242376,3701.029710,-8427.050478,-888.247130
4210.242700,2886.803174,-7431.126331,-518.144159
4210.243024,2516.700203,-7967.393179,-370.102971
4210.243349,1998.556043,-7507.735880,74.020594
4210.243673,1554.432478,-7967.393179,-444.123565
4210.243998,1258.350101,-9039.926876,-888.247130
4210.244322,1184.329507,-8580.269578,-2368.659014
4210.244646,1480.411884,-10418.898773,-444.123565
4210.244971,888.247130,-9576.193725,-1702.473667
4210.245295,1702.473667,-10648.727422,-740.205942
4210.245620,962.267725,-8886.707777,-592.164754
4210.245944,740.205942,-9729.412825,222.061783
4210.246268,888.247130,-8044.002729,74.020594
4210.246593,1406.391290,-8503.660028,1036.288319
4210.246917,1406.391290,-6665.030833,444.123565
4210.247242,2812.782580,-7967.393179,370.102971
4210.247566,2368.659014,-7890.783629,-962.267725
4210.247891,1036.288319,-9346.365076,-1850.514855
4210.248215,-1258.350101,-8733.488677,-296.082377
4210.248539,-3849.070898,-9499.584175,-1332.370696
4210.248864,-5329.482782,-10189.070123,-814.226536
4210.249188,-5625.565159,-9729.412825,666.185348
4210.249513,-4737.318029,-8733.488677,1998.556043
4210.249837,-1776.494261,-7890.783629,962.267725
4210.250161,1184.329507,-8273.831378,1776.494261
4210.250486,2738.761985,-6818.249932,814.226536
4210.250810,2516.700203,-6665.030833,148.041188
4210.251135,3627.009116,-7277.907231,-444.123565
4210.251459,1036.288319,-7584.345430,0.000000
4210.251783,148.041188,-8427.050478,0.000000
4210.252108,-1924.535449,-9193.145976,74.020594
4210.252432,-3404.947333,-9269.755526,518.144159
4210.252757,-2738.761985,-9499.584175,-222.061783
4210.253081,-2146.597232,-9882.631924,222.061783
4210.253405,-2368.659014,-9499.584175,962.267725
4210.253730,-1184.329507,-9729.412825,74.020594
4210.254054,-296.082377,-8810.098227,-518.144159
4210.254379,-370.102971,-7584.345430,296.082377
4210.254703,370.102971,-7277.907231,-1406.391290
4210.255028,1258.350101,-7354.516781,0.000000
4210.255352,2368.659014,-7277.907231,592.164754
4210.255676,2516.700203,-7354.516781,-222.061783
4210.256001,2072.576638,-8197.221829,-222.061783
4210.256325,2442.679609,-8963.317327,-370.102971
4210.256650,592.164754,-9652.803275,-444.123565
4210.256974,-1110.308913,-10265.679673,74.020594
4210.257298,-2294.638420,-9576.193725,-444.123565
4210.257623,-2368.659014,-10189.070123,0.000000
4210.257947,1184.329507,-8197.221829,370.102971
4210.258272,0.000000,-8350.440928,-1110.308913
4210.258596,4515.256246,-8350.440928,-814.226536
4210.258920,3775.050304,-7507.735880,-1628.453072
4210.259245,4145.153275,-8427.050478,-1110.308913
4210.259569,3108.864956,-7890.783629,-1258.350101
4210.259894,-888.247130,-8503.660028,-962.267725
4210.260218,-1998.556043,-9499.584175,-148.041188
4210.260542,-2220.617826,-7890.783629,-1110.308913
4210.260867,-2368.659014,-10955.165621,666.185348
4210.261191,148.041188,-7354.516781,-1258.350101
4210.261516,3627.009116,-9193.145976,0.000000
4210.261840,4293.194464,-7814.174080,-962.267725
4210.262165,5181.441594,-8044.002729,0.000000
4210.262489,5477.523971,-7354.516781,-1702.473667
4210.262813,4663.297435,-8044.002729,-1628.453072
4210.263138,3552.988522,-7431.126331,-1480.411884
4210.263462,1776.494261,-8427.050478,-1554.432478
4210.263787,592.164754,-8963.317327,-296.082377
4210.264111,-1036.288319,-9346.365076,0.000000
4210.264435,-222.061783,-9039.926876,-1924.535449
4210.264760,-148.041188,-10112.460574,0.000000
4210.265084,-814.226536,-8120.612279,-1480.411884
4210.265409,-962.267725,-9959.241474,-814.226536
4210.265733,-740.205942,-8580.269578,-1480.411884
4210.266057,1184.329507,-9116.536426,-370.102971
4210.266382,1332.370696,-8350.440928,-1110.308913
4210.266706,1702.473667,-8197.221829,74.020594
4210.267031,2146.597232,-7814.174080,370.102971
4210.267355,3182.885551,-8427.050478,740.205942
4210.267679,1554.432478,-9576.193725,0.000000
4210.268004,814.226536,-9269.755526,0.000000
4210.268328,-296.082377,-9039.926876,0.000000
4210.268653,-1702.473667,-8963.317327,-592.164754
4210.268977,-2368.659014,-10112.460574,444.123565
4210.269302,-2220.617826,-9346.365076,0.000000
4210.269626,-1702.473667,-10035.851024,370.102971
4210.269950,962.267725,-7660.954980,0.000000
4210.270275,814.226536,-9959.241474,-148.041188
4210.270599,1628.453072,-7890.783629,-666.185348
4210.270924,2146.597232,-9269.755526,1332.370696
4210.271248,-1258.350101,-7048.078582,-1776.494261
4210.271572,-3849.070898,-10265.679673,962.267725
4210.271897,-3923.091493,-7431.126331,-444.123565
4210.272221,-3627.009116,-9652.803275,814.226536
4210.272546,-1702.473667,-7967.393179,-296.082377
4210.272870,-962.267725,-9422.974625,296.082377
4210.273194,1258.350101,-7737.564530,0.000000
4210.273519,2368.659014,-8427.050478,-74.020594
4210.273843,2590.720797,-7737.564530,0.000000
4210.274168,1776.494261,-7737.564530,296.082377
4210.274492,2516.700203,-8886.707777,-74.020594
4210.274817,0.000000,-7890.783629,222.061783
4210.275141,-592.164754,-8886.707777,-222.061783
4210.275465,-1406.391290,-7660.954980,-592.164754
4210.275790,0.000000,-8810.098227,2368.659014
4210.276114,740.205942,-7890.783629,-1332.370696
4210.276439,148.041188,-10418.898773,-1110.308913
4210.276763,-370.102971,-9346.365076,-1628.453072
4210.277087,-1036.288319,-9576.193725,-2146.597232
4210.277412,-2146.597232,-8733.488677,-666.185348
4210.277736,-1480.411884,-7737.564530,222.061783
4210.278061,-444.123565,-8963.317327,296.082377
4210.278385,1184.329507,-7354.516781,0.000000
4210.278709,4219.173869,-7814.174080,814.226536
4210.279034,5107.421000,-8503.660028,-370.102971
4210.279358,5255.462188,-8427.050478,-1110.308913
4210.279683,3478.967927,-7814.174080,-888.247130
4210.280007,370.102971,-9039.926876,0.000000
4210.280331,222.061783,-8350.440928,-1258.350101
4210.280656,-888.247130,-9499.584175,-592.164754
4210.280980,-592.164754,-8810.098227,-1406.391290
4210.281305,370.102971,-8273.831378,-148.041188
4210.281629,1850.514855,-8886.707777,-1702.473667
4210.281954,3034.844362,-9729.412825,-740.205942
4210.282278,1776.494261,-9269.755526,-1110.308913
4210.282602,1554.432478,-8197.221829,-1850.514855
4210.282927,0.000000,-7890.783629,-296.082377
4210.283251,518.144159,-8197.221829,-1184.329507
4210.283576,-592.164754,-9193.145976,-814.226536
4210.283900,222.061783,-8580.269578,-518.144159
4210.284224,666.185348,-8427.050478,-74.020594
4210.284549,1554.432478,-8120.612279,-222.061783
4210.284873,2368.659014,-8044.002729,-1184.329507
4210.285198,3627.009116,-9806.022374,-444.123565
4210.285522,2368.659014,-7737.564530,-888.247130
4210.285846,2294.638420,-8733.488677,-888.247130
4210.286171,666.185348,-8580.269578,-740.205942
4210.286495,-888.247130,-9806.022374,0.000000
4210.286820,-296.082377,-8656.879127,-444.123565
4210.287144,-888.247130,-8350.440928,-296.082377
4210.287468,-666.185348,-8733.488677,-740.205942
4210.287793,-296.082377,-8503.660028,-666.185348
4210.288117,-1184.329507,-9346.365076,-666.185348
4210.288442,-2812.782580,-8733.488677,-962.267725
4210.288766,-2442.679609,-9269.755526,-222.061783
4210.289091,-1406.391290,-9039.926876,-592.164754
4210.289415,-1776.494261,-8886.707777,518.144159
4210.289739,-370.102971,-6588.421283,370.102971
4210.290064,2442.679609,-8656.879127,2072.576638
4210.290388,2146.597232,-6894.859482,592.164754
4210.290713,2146.597232,-8810.098227,518.144159
4210.291037,2294.638420,-8120.612279,-222.061783
4210.291361,148.041188,-8503.660028,-148.041188
4210.291686,-1554.432478,-7660.954980,0.000000
4210.292010,-1184.329507,-9039.926876,888.247130
4210.292335,-2368.659014,-9193.145976,518.144159
4210.292659,0.000000,-8656.879127,-370.102971
4210.292983,-296.082377,-8963.317327,518.144159
4210.293308,2294.638420,-8197.221829,-592.164754
4210.293632,148.041188,-8580.269578,-222.061783
4210.293957,-666.185348,-8810.098227,518.144159
4210.294281,-370.102971,-8580.269578,-518.144159
4210.294605,-2072.576638,-8963.317327,-592.164754
4210.294930,-2886.803174,-7048.078582,-222.061783
4210.295254,-1628.453072,-7737.564530,592.164754
4210.295579,148.041188,-8350.440928,518.144159
4210.295903,2960.823768,-7048.078582,592.164754
4210.296228,4219.173869,-8656.879127,518.144159
4210.296552,3552.988522,-7890.783629,-1036.288319
4210.296876,2072.576638,-8273.831378,-148.041188
4210.297201,1258.350101,-8656.879127,0.000000
4210.297525,1036.288319,-8810.098227,-222.061783
4210.297850,74.020594,-8963.317327,-740.205942
4210.298174,0.000000,-8810.098227,-592.164754
4210.298498,222.061783,-8580.269578,74.020594
4210.298823,814.226536,-9422.974625,-1110.308913
4210.299147,444.123565,-9039.926876,-1110.308913
4210.299472,222.061783,-9346.365076,-1332.370696
4210.299796,222.061783,-8427.050478,-1406.391290
4210.300120,-444.123565,-8733.488677,-666.185348
4210.300445,-962.267725,-8273.831378,-888.247130
4210.300769,-1110.308913,-9116.536426,-370.102971
4210.301094,1036.288319,-7890.783629,-592.164754
4210.301418,1924.535449,-8197.221829,-518.144159
4210.301743,3182.885551,-8810.098227,740.205942
4210.302067,3552.988522,-7967.393179,-222.061783
4210.302391,2590.720797,-9039.926876,-592.164754
4210.302716,1628.453072,-8580.269578,-1332.370696
4210.303040,1036.288319,-9422.974625,-1480.411884
4210.303365,-1036.288319,-8886.707777,-962.267725
4210.303689,-370.102971,-9422.974625,0.000000
4210.304013,-148.041188,-8120.612279,-296.082377
4210.304338,1776.494261,-8656.879127,-1110.308913
4210.304662,1406.391290,-9269.755526,-1628.453072
4210.304987,592.164754,-10112.460574,-1406.391290
4210.305311,1554.432478,-8886.707777,-1702.473667
4210.305635,-962.267725,-9499.584175,-1110.308913
4210.305960,-2368.659014,-8273.831378,-888.247130
4210.306284,-1406.391290,-8963.317327,-518.144159
4210.306609,-2664.741391,-9039.926876,74.020594
4210.306933,-222.061783,-7354.516781,-222.061783
4210.307257,1184.329507,-8120.612279,1258.350101
4210.307582,2960.823768,-8197.221829,74.020594
4210.307906,3997.112087,-7814.174080,0.000000
4210.308231,2442.679609,-7584.345430,0.000000
4210.308555,1332.370696,-8427.050478,-592.164754
4210.308880,888.247130,-8044.002729,-444.123565
4210.309204,-296.082377,-9039.926876,-222.061783
4210.309528,-1850.514855,-9116.536426,-814.226536
4210.309853,0.000000,-8656.879127,-740.205942
4210.310177,74.020594,-9193.145976,370.102971
4210.310502,-1406.391290,-8810.098227,-296.082377
4210.310826,-1406.391290,-8886.707777,-740.205942
4210.311150,-2368.659014,-8427.050478,-962.267725
4210.311475,-2442.679609,-8886.707777,-296.082377
4210.311799,-1924.535449,-7737.564530,-1036.288319
4210.312124,-2442.679609,-8503.660028,666.185348
4210.312448,222.061783,-7967.393179,74.020594
4210.312772,740.205942,-7354.516781,0.000000
4210.313097,3034.844362,-8656.879127,1332.370696
4210.313421,3404.947333,-7201.297681,-444.123565
4210.313746,3034.844362,-9422.974625,1406.391290
4210.314070,1258.350101,-7814.174080,-740.205942
4210.314394,1850.514855,-9499.584175,370.102971
4210.314719,-888.247130,-8503.660028,-370.102971
4210.315043,-518.144159,-9039.926876,222.061783
4210.315368,-296.082377,-8733.488677,0.000000
4210.315692,148.041188,-8886.707777,-592.164754
4210.316017,592.164754,-9422.974625,148.041188
4210.316341,1776.494261,-8656.879127,-666.185348
4210.316665,888.247130,-9729.412825,-1184.329507
4210.316990,-370.102971,-8733.488677,-1850.514855
4210.317314,-962.267725,-9652.803275,0.000000
4210.317639,-1628.453072,-8503.660028,-962.267725
4210.317963,-2220.617826,-8810.098227,518.144159
4210.318287,-518.144159,-8197.221829,0.000000
4210.318612,592.164754,-8044.002729,370.102971
4210.318936,2294.638420,-7890.783629,0.000000
4210.319261,4515.256246,-8886.707777,-148.041188
4210.319585,5477.523971,-7967.393179,-518.144159
4210.319909,3034.844362,-8580.269578,-1628.453072
4210.320234,2960.823768,-9422.974625,-962.267725
4210.320558,-222.061783,-7660.954980,-592.164754
4210.320883,-1406.391290,-9729.412825,0.000000
4210.321207,-296.082377,-9269.755526,-1036.288319
4210.321531,518.144159,-10572.117872,-444.123565
4210.321856,0.000000,-8580.269578,-1924.535449
4210.322180,-296.082377,-9652.803275,-962.267725
4210.322505,-740.205942,-9806.022374,-1406.391290
4210.322829,-740.205942,-8810.098227,-1036.288319
4210.323154,-1628.453072,-8350.440928,-1480.411884
4210.323478,-1554.432478,-8197.221829,74.020594
4210.323802,1110.308913,-7201.297681,0.000000
4210.324127,1480.411884,-8197.221829,-148.041188
4210.324451,4367.215058,-8656.879127,148.041188
4210.324776,3478.967927,-7814.174080,-296.082377
4210.325100,2664.741391,-9806.022374,-148.041188
4210.325424,1036.288319,-7814.174080,-740.205942
4210.325748,370.102971,-9806.022374,592.164754
4210.326073,-962.267725,-8656.879127,-962.267725
4210.326397,-1628.453072,-9039.926876,-666.185348
4210.326721,-1924.535449,-8733.488677,-370.102971
4210.327045,-592.164754,-9116.536426,-222.061783
4210.327369,1184.329507,-7737.564530,-888.247130
4210.327693,1406.391290,-8656.879127,148.041188
4210.328018,1924.535449,-8580.269578,-444.123565
4210.328342,518.144159,-8580.269578,-962.267725
4210.328666,-518.144159,-8733.488677,-444.123565
4210.328990,-1554.432478,-8120.612279,-592.164754
4210.329314,-1998.556043,-8886.707777,518.144159
4210.329638,-1480.411884,-8656.879127,74.020594
4210.329963,1850.514855,-7660.954980,1702.473667
4210.330287,518.144159,-7431.126331,518.144159
4210.330611,2368.659014,-8503.660028,0.000000
4210.330935,1554.432478,-7277.907231,-518.144159
4210.331259,1924.535449,-8886.707777,0.000000
4210.331583,666.185348,-7584.345430,-296.082377
4210.331908,-148.041188,-9039.926876,444.123565
4210.332232,-962.267725,-8503.660028,-296.082377
4210.332556,-666.185348,-9269.755526,-370.102971
4210.332880,0.000000,-8273.831378,-444.123565
4210.333204,592.164754,-9499.584175,222.061783
4210.333528,0.000000,-8273.831378,-888.247130
4210.333853,222.061783,-9806.022374,-592.164754
4210.334177,-888.247130,-8273.831378,0.000000
4210.334501,-1332.370696,-7967.393179,-740.205942
4210.334825,-814.226536,-8810.098227,-1110.308913
4210.335149,-2146.597232,-7584.345430,222.061783
4210.335473,444.123565,-7737.564530,962.267725
4210.335798,1036.288319,-7354.516781,-814.226536
4210.336122,2738.761985,-8580.269578,222.061783
4210.336446,4367.215058,-8120.612279,0.000000
4210.336770,2294.638420,-8273.831378,-518.144159
4210.337094,1480.411884,-9729.412825,-592.164754
4210.337419,1110.308913,-9346.365076,-962.267725
4210.337743,-740.205942,-9729.412825,-222.061783
4210.338067,-1258.350101,-8427.050478,-1332.370696
4210.338391,-222.061783,-9882.631924,-370.102971
4210.338715,0.000000,-8197.221829,-296.082377
4210.339039,296.082377,-9039.926876,-148.041188
4210.339364,1702.473667,-9193.145976,-1406.391290
4210.339688,-222.061783,-8886.707777,-1406.391290
4210.340012,-962.267725,-8350.440928,-1258.350101
4210.340336,-814.226536,-9039.926876,0.000000
4210.340660,-740.205942,-8197.221829,-296.082377
4210.340984,-444.123565,-8810.098227,0.000000
4210.341309,1184.329507,-8044.002729,74.020594
4210.341633,2886.803174,-8810.098227,296.082377
4210.341957,3775.050304,-8503.660028,222.061783
4210.342281,3701.029710,-8273.831378,-518.144159
4210.342605,1702.473667,-9806.022374,-296.082377
4210.342929,444.123565,-7890.783629,-1184.329507
4210.343254,-444.123565,-8503.660028,-592.164754
4210.343578,0.000000,-8733.488677,0.000000
4210.343902,-518.144159,-8656.879127,-296.082377
4210.344226,222.061783,-9039.926876,-1184.329507
4210.344550,0.000000,-9039.926876,-1184.329507
4210.344874,1554.432478,-9499.584175,-370.102971
4210.345199,74.020594,-8656.879127,-1184.329507
4210.345523,-296.082377,-8580.269578,-222.061783
4210.345847,-888.247130,-8273.831378,0.000000
4210.346171,-1406.391290,-8580.269578,0.000000
4210.346495,-1258.350101,-8580.269578,-296.082377
4210.346819,-666.185348,-8733.488677,0.000000
4210.347144,148.041188,-7660.954980,0.000000
4210.347468,2072.576638,-9193.145976,518.144159
4210.347792,2220.617826,-6741.640382,444.123565
4210.348116,2886.803174,-8044.002729,0.000000
4210.348440,1628.453072,-9193.145976,-740.205942
4210.348765,1036.288319,-8197.221829,-370.102971
4210.349089,1480.411884,-8733.488677,222.061783
4210.349413,-592.164754,-8503.660028,-444.123565
4210.349737,592.164754,-9039.926876,296.082377
4210.350061,1184.329507,-7890.783629,-148.041188
4210.350385,1184.329507,-9346.365076,0.000000
4210.350710,666.185348,-8503.660028,-592.164754
4210.351034,222.061783,-8580.269578,-1036.288319
4210.351358,-1406.391290,-9499.584175,-444.123565
4210.351682,-1480.411884,-8350.440928,-814.226536
4210.352006,-2812.782580,-8197.221829,-888.247130
4210.352330,-3923.091493,-8427.050478,1036.288319
4210.352655,444.123565,-7048.078582,1554.432478
4210.352979,74.020594,-7354.516781,444.123565
4210.353303,2664.741391,-9193.145976,0.000000
4210.353627,3034.844362,-8427.050478,-592.164754
4210.353951,2738.761985,-9422.974625,296.082377
4210.354275,2368.659014,-8350.440928,-1480.411884
4210.354600,222.061783,-8733.488677,-592.164754
4210.354924,-814.226536,-9193.145976,222.061783
4210.355248,-1480.411884,-9039.926876,-1036.288319
4210.355572,296.082377,-9346.365076,-1184.329507
4210.355896,-1036.288319,-8044.002729,-592.164754
4210.356220,-370.102971,-9422.974625,-888.247130
4210.356545,666.185348,-9193.145976,-1554.432478
4210.356869,0.000000,-9729.412825,-666.185348
4210.357193,-666.185348,-8273.831378,-1258.350101
4210.357517,-1406.391290,-8197.221829,-666.185348
4210.357841,-1628.453072,-9039.926876,0.000000
4210.358165,0.000000,-8120.612279,-518.144159
4210.358490,1480.411884,-8503.660028,296.082377
4210.358814,2368.659014,-7967.393179,0.000000
4210.359138,2812.782580,-8273.831378,-444.123565
4210.359462,4145.153275,-8886.707777,814.226536
4210.359786,1258.350101,-8580.269578,-592.164754
4210.360111,888.247130,-9039.926876,-740.205942
4210.360435,-888.247130,-9039.926876,-1184.329507
4210.360759,-1406.391290,-8963.317327,0.000000
4210.361083,-222.061783,-7890.783629,-592.164754
4210.361407,370.102971,-9193.145976,-222.061783
4210.361731,1258.350101,-8427.050478,0.000000
4210.362056,1998.556043,-9116.536426,-666.185348
4210.362380,592.164754,-9346.365076,-1258.350101
4210.362704,-370.102971,-9116.536426,-740.205942
4210.363028,0.000000,-8503.660028,-888.247130
4210.363352,-962.267725,-8427.050478,74.020594
4210.363676,-1184.329507,-8656.879127,666.185348
4210.364001,0.000000,-8580.269578,-518.144159
4210.364325,1776.494261,-7507.735880,518.144159
4210.364649,2960.823768,-7890.783629,74.020594
4210.364973,2590.720797,-7660.954980,-370.102971
4210.365297,2590.720797,-8197.221829,74.020594
4210.365621,3404.947333,-8197.221829,-148.041188
4210.365946,1702.473667,-9576.193725,-962.267725
4210.366270,740.205942,-8656.879127,-518.144159
4210.366594,-962.267725,-9193.145976,-444.123565
4210.366918,-296.082377,-8810.098227,222.061783
4210.367242,666.185348,-8197.221829,-592.164754
4210.367566,2072.576638,-9346.365076,444.123565
4210.367891,-370.102971,-8044.002729,-740.205942
4210.368215,-444.123565,-9116.536426,-296.082377
4210.368539,-1332.370696,-7967.393179,-888.247130
4210.368863,-222.061783,-9116.536426,0.000000
4210.369187,-962.267725,-7124.688131,-962.267725
4210.369511,74.020594,-8810.098227,592.164754
4210.369836,296.082377,-7277.907231,814.226536
4210.370160,3478.967927,-7967.393179,444.123565
4210.370484,2516.700203,-7507.735880,666.185348
4210.370808,3849.070898,-8273.831378,444.123565
4210.371132,3330.926739,-7890.783629,-592.164754
4210.371457,1332.370696,-9269.755526,-1110.308913
4210.371781,-1110.308913,-9193.145976,-666.185348
4210.372105,-1850.514855,-9193.145976,74.020594
4210.372429,-2146.597232,-9039.926876,-814.226536
4210.372753,-1184.329507,-8044.002729,-296.082377
4210.373077,74.020594,-8197.221829,-666.185348
4210.373402,888.247130,-9039.926876,-592.164754
4210.373726,148.041188,-9269.755526,-740.205942
4210.374050,-222.061783,-8963.317327,-888.247130
4210.374374,-2072.576638,-8580.269578,-1702.473667
4210.374698,-1702.473667,-8810.098227,-666.185348
4210.375022,-888.247130,-8656.879127,0.000000
4210.375347,-666.185348,-8427.050478,0.000000
4210.375671,1184.329507,-7737.564530,222.061783
4210.375995,518.144159,-7890.783629,0.000000
4210.376319,2294.638420,-8963.317327,0.000000
4210.376643,2442.679609,-7507.735880,-592.164754
4210.376967,2146.597232,-8503.660028,0.000000
4210.377292,0.000000,-8197.221829,-740.205942
4210.377616,-296.082377,-9116.536426,74.020594
4210.377940,592.164754,-8733.488677,-1036.288319
4210.378264,-370.102971,-8810.098227,-592.164754
4210.378588,666.185348,-8810.098227,-1480.411884
4210.378912,888.247130,-9193.145976,148.041188
4210.379237,1036.288319,-9193.145976,-740.205942
4210.379561,444.123565,-9039.926876,-962.267725
4210.379885,-3182.885551,-9346.365076,-1110.308913
4210.380209,-1924.535449,-8886.707777,-1184.329507
4210.380533,-1776.494261,-8503.660028,0.000000
4210.380857,-2368.659014,-8273.831378,-148.041188
4210.381182,1110.308913,-7737.564530,592.164754
4210.381506,1998.556043,-7048.078582,-148.041188
4210.381830,3701.029710,-7354.516781,888.247130
4210.382154,5403.503377,-7431.126331,0.000000
4210.382478,4367.215058,-9269.755526,0.000000
4210.382803,1924.535449,-8120.612279,-1258.350101
4210.383127,1406.391290,-9269.755526,0.000000
4210.383451,-1554.432478,-9422.974625,-888.247130
4210.383775,-444.123565,-9882.631924,296.082377
4210.384099,-666.185348,-8810.098227,-666.185348
4210.384423,592.164754,-9269.755526,296.082377
4210.384748,740.205942,-8273.831378,-1406.391290
4210.385072,-370.102971,-9499.584175,-592.164754
4210.385396,0.000000,-8810.098227,-962.267725
4210.385720,-592.164754,-8120.612279,-740.205942
4210.386044,-666.185348,-7967.393179,-666.185348
4210.386368,-592.164754,-8350.440928,0.000000
4210.386693,0.000000,-8044.002729,222.061783
4210.387017,-296.082377,-8044.002729,0.000000
4210.387341,3404.947333,-8810.098227,888.247130
4210.387665,2812.782580,-7431.126331,0.000000
4210.387989,3849.070898,-9039.926876,0.000000
4210.388313,2146.597232,-7890.783629,-888.247130
4210.388638,1628.453072,-9422.974625,222.061783
4210.388962,74.020594,-7737.564530,-1036.288319
4210.389286,-148.041188,-9576.193725,592.164754
4210.389610,-1184.329507,-8120.612279,-1036.288319
4210.389934,-148.041188,-8810.098227,74.020594
4210.390258,-814.226536,-7814.174080,-592.164754
4210.390583,962.267725,-9576.193725,0.000000
4210.390907,-444.123565,-9039.926876,-1110.308913
4210.391231,-1554.432478,-9499.584175,-814.226536
4210.391555,-1184.329507,-9422.974625,-370.102971
4210.391879,-1110.308913,-8273.831378,-222.061783
4210.392203,-1110.308913,-8580.269578,74.020594
4210.392528,-1480.411884,-6894.859482,296.082377
4210.392852,1554.432478,-9346.365076,1184.329507
4210.393176,3627.009116,-7507.735880,-592.164754
4210.393500,3775.050304,-9039.926876,1036.288319
4210.393824,2664.741391,-7431.126331,222.061783
4210.394149,1184.329507,-8733.488677,-296.082377
4210.394473,1036.288319,-9193.145976,-148.041188
4210.394797,222.061783,-8886.707777,-1480.411884
4210.395121,-740.205942,-9499.584175,-296.082377
4210.395445,-1702.473667,-7967.393179,-370.102971
4210.395769,444.123565,-9652.803275,592.164754
4210.396094,592.164754,-8427.050478,-814.226536
4210.396418,666.185348,-9116.536426,-444.123565
4210.396742,-296.082377,-9422.974625,-1406.391290
4210.397066,-2442.679609,-8963.317327,-1776.494261
4210.397390,-1924.535449,-8886.707777,-296.082377
4210.397714,-3701.029710,-7660.954980,-740.205942
4210.398039,-1776.494261,-8350.440928,222.061783
4210.398363,1036.288319,-8197.221829,148.041188
4210.398687,1628.453072,-7431.126331,0.000000
4210.399011,2886.803174,-7890.783629,-222.061783
4210.399335,4959.379811,-9346.365076,0.000000
4210.399659,2294.638420,-8810.098227,-518.144159
4210.399984,2886.803174,-8350.440928,-444.123565
4210.400308,888.247130,-8350.440928,-370.102971
4210.400632,-1776.494261,-8733.488677,-888.247130
4210.400956,-592.164754,-8810.098227,-74.020594
4210.401280,-518.144159,-8273.831378,-1036.288319
4210.401604,444.123565,-9193.145976,-592.164754
4210.401929,2368.659014,-7890.783629,0.000000
4210.402253,1406.391290,-8427.050478,-888.247130
4210.402577,592.164754,-9193.145976,-888.247130
4210.402901,74.020594,-8273.831378,-1628.453072
4210.403225,-2368.659014,-9116.536426,-740.205942
4210.403549,-1850.514855,-7967.393179,-666.185348
4210.403874,-814.226536,-8580.269578,370.102971
4210.404198,148.041188,-8350.440928,148.041188
4210.404522,2220.617826,-7814.174080,518.144159
4210.404846,3478.967927,-8350.440928,0.000000
4210.405170,3182.885551,-8044.002729,0.000000
4210.405495,4441.235652,-8350.440928,-666.185348
4210.405819,3034.844362,-8656.879127,-962.267725
4210.406143,1850.514855,-8427.050478,0.000000
4210.406467,888.247130,-9193.145976,0.000000
4210.406791,0.000000,-8503.660028,-666.185348
4210.407115,-518.144159,-8580.269578,-518.144159
4210.407440,666.185348,-8503.660028,-148.041188
4210.407764,1036.288319,-9652.803275,-666.185348
4210.408088,-1110.308913,-9806.022374,-1332.370696
4210.408412,-1258.350101,-9959.241474,-518.144159
4210.408736,-2072.576638,-8273.831378,-1406.391290
4210.409060,-1998.556043,-9346.365076,-444.123565
4210.409385,-962.267725,-7354.516781,-1184.329507
4210.409709,222.061783,-8886.707777,1036.288319
4210.410033,1850.514855,-7584.345430,-370.102971
4210.410357,3478.967927,-8120.612279,222.061783
4210.410681,3108.864956,-8197.221829,-296.082377
4210.411005,3108.864956,-8733.488677,74.020594
4210.411330,1110.308913,-8810.098227,-222.061783
4210.411654,592.164754,-9422.974625,-222.061783
4210.411978,-962.267725,-8733.488677,0.000000
4210.412302,-2368.659014,-8273.831378,-1110.308913
4210.412626,-1258.350101,-8886.707777,-296.082377
4210.412950,740.205942,-8350.440928,74.020594
4210.413275,518.144159,-9576.193725,-222.061783
4210.413599,740.205942,-8810.098227,-518.144159
4210.413923,-740.205942,-8886.707777,-296.082377
4210.414247,-2294.638420,-8120.612279,-1258.350101
4210.414571,-1332.370696,-8580.269578,-740.205942
4210.414895,-1924.535449,-8886.707777,444.123565
4210.415220,-2590.720797,-8350.440928,0.000000
4210.415544,-370.102971,-8044.002729,296.082377
4210.415868,1850.514855,-7967.393179,296.082377
4210.416192,2294.638420,-8120.612279,740.205942
4210.416516,3775.050304,-8120.612279,0.000000
4210.416841,3182.885551,-8733.488677,-370.102971
4210.417165,2664.741391,-8656.879127,-222.061783
4210.417489,0.000000,-7890.783629,-518.144159
4210.417813,-740.205942,-9652.803275,518.144159
4210.418137,-888.247130,-8273.831378,-666.185348
4210.418461,-370.102971,-7967.393179,-370.102971
4210.418786,962.267725,-8810.098227,296.082377
4210.419110,1406.391290,-8427.050478,-740.205942
4210.419434,-222.061783,-9729.412825,-962.267725
4210.419758,-370.102971,-8886.707777,-888.247130
4210.420082,-592.164754,-8733.488677,-592.164754
4210.420406,-2368.659014,-8810.098227,-1628.453072
4210.420731,0.000000,-8427.050478,-296.082377
4210.421055,74.020594,-8427.050478,296.082377
4210.421379,962.267725,-7814.174080,-222.061783
4210.421703,3256.906145,-8120.612279,296.082377
4210.422027,3627.009116,-7660.954980,-222.061783
4210.422351,2886.803174,-8503.660028,296.082377
4210.422676,3923.091493,-8044.002729,-1184.329507
4210.423000,962.267725,-9193.145976,-666.185348
4210.423324,0.000000,-8273.831378,-740.205942
4210.423648,222.061783,-9116.536426,0.000000
4210.423972,444.123565,-9422.974625,-1258.350101
4210.424296,592.164754,-8733.488677,0.000000
4210.424621,814.226536,-7584.345430,-296.082377
4210.424945,1776.494261,-9422.974625,-592.164754
4210.425269,74.020594,-8503.660028,-1406.391290
4210.425593,-740.205942,-8656.879127,-592.164754
4210.425917,-666.185348,-8656.879127,-1332.370696
4210.426242,-2442.679609,-9116.536426,-1036.288319
4210.426566,-1776.494261,-8886.707777,-518.144159
4210.426890,-370.102971,-7890.783629,-222.061783
4210.427215,592.164754,-8273.831378,0.000000
4210.427539,2960.823768,-8350.440928,-518.144159
4210.427863,3404.947333,-8427.050478,-222.061783
4210.428188,3034.844362,-9039.926876,0.000000
4210.428512,2960.823768,-9269.755526,-1036.288319
4210.428836,666.185348,-9499.584175,-518.144159
4210.429161,222.061783,-8733.488677,-592.164754
4210.429485,-1110.308913,-8427.050478,-444.123565
4210.429809,296.082377,-9576.193725,-1702.473667
4210.430134,1036.288319,-8810.098227,-592.164754
4210.430458,370.102971,-9116.536426,-814.226536
4210.430782,-888.247130,-9039.926876,-222.061783
4210.431107,-2146.597232,-8503.660028,-1776.494261
4210.431431,-2294.638420,-10342.289223,-962.267725
4210.431755,-2220.617826,-8886.707777,-666.185348
4210.432080,-2590.720797,-8656.879127,-444.123565
4210.432404,-1998.556043,-9039.926876,370.102971
4210.432728,222.061783,-6741.640382,370.102971
4210.433053,3182.885551,-8656.879127,666.185348
4210.433377,3627.009116,-7201.297681,-296.082377
4210.433701,4441.235652,-8273.831378,592.164754
4210.434025,3034.844362,-8273.831378,-444.123565
4210.434350,1776.494261,-8886.707777,-518.144159
4210.434674,0.000000,-8427.050478,74.020594
4210.434998,-1998.556043,-8886.707777,962.267725
4210.435323,-3330.926739,-8886.707777,-296.082377
4210.435647,-1924.535449,-8427.050478,444.123565
4210.435971,814.226536,-8886.707777,222.061783
4210.436296,0.000000,-8656.879127,-370.102971
4210.436620,148.041188,-9422.974625,-814.226536
4210.436944,0.000000,-8044.002729,-444.123565
4210.437269,74.020594,-8120.612279,-296.082377
4210.437593,-370.102971,-8427.050478,-814.226536
4210.437917,0.000000,-8273.831378,962.267725
4210.438242,1924.535449,-8197.221829,740.205942
4210.438566,2516.700203,-7967.393179,0.000000
4210.438890,2072.576638,-7354.516781,74.020594
4210.439215,2442.679609,-8656.879127,1702.473667
4210.439539,2516.700203,-7048.078582,-888.247130
4210.439863,1406.391290,-9499.584175,1924.535449
4210.440188,814.226536,-8044.002729,-592.164754
4210.440512,74.020594,-9499.584175,-222.061783
4210.440836,-444.123565,-7737.564530,-518.144159
4210.441161,3552.988522,-9039.926876,0.000000
4210.441485,2442.679609,-7507.735880,-888.247130
4210.441809,2220.617826,-9652.803275,-296.082377
4210.442133,0.000000,-9346.365076,-1036.288319
4210.442458,-1554.432478,-9116.536426,-666.185348
4210.442782,-3034.844362,-9729.412825,-1332.370696
4210.443106,-2738.761985,-8963.317327,-1776.494261
4210.443431,-3701.029710,-9576.193725,148.041188
4210.443755,-2886.803174,-6971.469032,0.000000
4210.444079,962.267725,-8044.002729,0.000000
4210.444404,2368.659014,-8733.488677,0.000000
4210.444728,4219.173869,-7660.954980,-814.226536
4210.445052,6513.812290,-7584.345430,-296.082377
4210.445377,3330.926739,-7890.783629,-1406.391290
4210.445701,2812.782580,-9652.803275,518.144159
4210.446025,2294.638420,-8503.660028,-1184.329507
4210.446350,-592.164754,-9806.022374,-1036.288319
4210.446674,0.000000,-9806.022374,0.000000
4210.446998,-222.061783,-8273.831378,-1628.453072
4210.447323,962.267725,-9729.412825,-666.185348
4210.447647,2368.659014,-9116.536426,-296.082377
4210.447971,222.061783,-9039.926876,-1850.514855
4210.448296,0.000000,-9422.974625,-814.226536
4210.448620,-1554.432478,-8427.050478,-2072.576638
4210.448944,-2738.761985,-9116.536426,-962.267725
4210.449269,-2960.823768,-9346.365076,-518.144159
4210.449593,-2220.617826,-8350.440928,-444.123565
4210.449917,-296.082377,-8120.612279,296.082377
4210.450241,1776.494261,-9346.365076,518.144159
4210.450566,3330.926739,-8197.221829,-518.144159
4210.450890,4515.256246,-8733.488677,814.226536
4210.451214,2590.720797,-8733.488677,-962.267725
4210.451539,3034.844362,-8886.707777,-1110.308913
4210.451863,222.061783,-9269.755526,0.000000
4210.452187,-888.247130,-9346.365076,-296.082377
4210.452512,-1554.432478,-8656.879127,-814.226536
4210.452836,-2294.638420,-8580.269578,148.041188
4210.453160,-444.123565,-8886.707777,0.000000
4210.453485,-666.185348,-8273.831378,-370.102971
4210.453809,-3034.844362,-8886.707777,-814.226536
4210.454133,-1258.350101,-9729.412825,-222.061783
4210.454458,-888.247130,-8044.002729,-1406.391290
4210.454782,-2220.617826,-9729.412825,0.000000
4210.455106,222.061783,-8503.660028,-370.102971
4210.455431,-370.102971,-8197.221829,518.144159
4210.455755,2516.700203,-7354.516781,148.041188
4210.456079,1998.556043,-7890.783629,1110.308913
4210.456404,3034.844362,-7660.954980,518.144159
4210.456728,3775.050304,-8656.879127,0.000000
4210.457052,2442.679609,-8886.707777,0.000000
4210.457377,2146.597232,-8810.098227,0.000000
4210.457701,0.000000,-7814.174080,-296.082377
4210.458025,-888.247130,-8656.879127,0.000000
4210.458350,296.082377,-8120.612279,148.041188
4210.458674,740.205942,-8273.831378,518.144159
4210.458998,1332.370696,-8810.098227,-296.082377
4210.459322,888.247130,-8120.612279,-444.123565
4210.459647,592.164754,-9806.022374,0.000000
4210.459971,-1850.514855,-8427.050478,-888.247130
4210.460295,-1480.411884,-9729.412825,-444.123565
4210.460620,-3330.926739,-8503.660028,0.000000
4210.460944,-2738.761985,-7890.783629,74.020594
4210.461268,0.000000,-8503.660028,518.144159
4210.461593,1480.411884,-6971.469032,0.000000
4210.461917,3108.864956,-8810.098227,666.185348
4210.462241,3330.926739,-7354.516781,-518.144159
4210.462566,3552.988522,-9039.926876,-148.041188
4210.462890,3034.844362,-8120.612279,-1110.308913
4210.463214,1628.453072,-8963.317327,0.000000
4210.463539,962.267725,-8886.707777,-888.247130
4210.463863,814.226536,-9346.365076,-222.061783
4210.464187,1258.350101,-8656.879127,-666.185348
4210.464512,1258.350101,-8733.488677,-592.164754
4210.464836,1776.494261,-8810.098227,-370.102971
4210.465160,-518.144159,-8886.707777,-2220.617826
4210.465485,-518.144159,-9806.022374,-1036.288319
4210.465809,-2590.720797,-8350.440928,-1332.370696
4210.466133,-3330.926739,-9039.926876,-1406.391290
4210.466458,-2812.782580,-8580.269578,-518.144159
4210.466782,-2146.597232,-8580.269578,-666.185348
4210.467106,370.102971,-8886.707777,370.102971
4210.467430,2220.617826,-7890.783629,-962.267725
4210.467755,1924.535449,-8886.707777,-444.123565
4210.468079,3256.906145,-8427.050478,-666.185348
4210.468403,3701.029710,-8810.098227,-222.061783
4210.468728,2368.659014,-9806.022374,-1332.370696
4210.469052,1184.329507,-9269.755526,-666.185348
4210.469376,-740.205942,-8810.098227,-666.185348
4210.469701,-1924.535449,-8656.879127,-592.164754
4210.470025,1110.308913,-8810.098227,74.020594
4210.470349,370.102971,-8044.002729,0.000000
4210.470674,-370.102971,-9116.536426,-740.205942
4210.470998,0.000000,-8963.317327,-1036.288319
4210.471322,-1924.535449,-9039.926876,-1332.370696
4210.471647,-2368.659014,-8350.440928,-740.205942
4210.471971,-2738.761985,-8350.440928,74.020594
4210.472295,-888.247130,-8580.269578,-222.061783
4210.472620,1036.288319,-9116.536426,0.000000
4210.472944,1702.473667,-7507.735880,-888.247130
4210.473268,2812.782580,-8044.002729,296.082377
4210.473593,2368.659014,-7354.516781,222.061783
4210.473917,3034.844362,-9422.974625,370.102971
4210.474241,2886.803174,-8503.660028,-148.041188
4210.474566,-444.123565,-8273.831378,148.041188
4210.474890,0.000000,-8886.707777,-888.247130
4210.475214,-518.144159,-8350.440928,888.247130
4210.475538,74.020594,-7507.735880,-370.102971
4210.475863,3182.885551,-9652.803275,0.000000
4210.476187,2146.597232,-7967.393179,-740.205942
4210.476511,0.000000,-9422.974625,-296.082377
4210.476836,-1554.432478,-8427.050478,-962.267725
4210.477160,-2294.638420,-8810.098227,0.000000
4210.477484,-2220.617826,-9269.755526,-666.185348
4210.477809,-2294.638420,-8580.269578,370.102971
4210.478133,-1480.411884,-8197.221829,0.000000
4210.478457,0.000000,-8120.612279,-222.061783
4210.478782,2294.638420,-7814.174080,518.144159
4210.479106,3330.926739,-7507.735880,0.000000
4210.479430,3108.864956,-7890.783629,74.020594
4210.479755,2812.782580,-8427.050478,222.061783
4210.480079,2220.617826,-8963.317327,0.000000
4210.480403,1850.514855,-9039.926876,-296.082377
4210.480728,0.000000,-9193.145976,74.020594
4210.481052,-1184.329507,-9039.926876,-740.205942
4210.481376,-1184.329507,-9729.412825,0.000000
4210.481701,-222.061783,-9116.536426,-888.247130
4210.482025,148.041188,-8886.707777,-296.082377
4210.482349,-296.082377,-8427.050478,-592.164754
4210.482674,-1406.391290,-8733.488677,-1998.556043
4210.482998,-296.082377,-9499.584175,-888.247130
4210.483322,370.102971,-7584.345430,-1036.288319
4210.483647,-740.205942,-9039.926876,-518.144159
4210.483971,-518.144159,-8273.831378,148.041188
4210.484295,1998.556043,-8503.660028,444.123565
4210.484619,2738.761985,-8350.440928,222.061783
4210.484944,3701.029710,-8963.317327,-296.082377
4210.485268,2368.659014,-8963.317327,0.000000
4210.485592,1110.308913,-8044.002729,-888.247130
4210.485917,370.102971,-8733.488677,-222.061783
4210.486241,0.000000,-9116.536426,-1036.288319
4210.486565,-740.205942,-8886.707777,0.000000
4210.486890,0.000000,-7737.564530,-1184.329507
4210.487214,-296.082377,-9652.803275,-962.267725
4210.487538,1702.473667,-8273.831378,-1184.329507
4210.487863,592.164754,-9346.365076,0.000000
4210.488187,0.000000,-9116.536426,-1184.329507
4210.488511,-740.205942,-8656.879127,-1110.308913
4210.488836,-2738.761985,-8963.317327,-1554.432478
4210.489160,-1554.432478,-9422.974625,-888.247130
4210.489484,-1258.350101,-9269.755526,-666.185348
4210.489809,-222.061783,-7890.783629,74.020594
4210.490133,2368.659014,-7660.954980,148.041188
4210.490457,3404.947333,-7967.393179,-370.102971
4210.490782,3701.029710,-8350.440928,-444.123565
4210.491106,4293.194464,-8350.440928,444.123565
4210.491430,3849.070898,-8427.050478,-444.123565
4210.491755,1554.432478,-8197.221829,-222.061783
4210.492079,296.082377,-8427.050478,74.020594
4210.492403,148.041188,-9193.145976,-296.082377
4210.492727,296.082377,-8733.488677,-296.082377
4210.493052,518.144159,-8350.440928,-814.226536
4210.493376,1258.350101,-9039.926876,0.000000
4210.493700,-518.144159,-8503.660028,-740.205942
4210.494025,-444.123565,-9116.536426,-888.247130
4210.494349,-1702.473667,-8350.440928,-962.267725
4210.494673,-2368.659014,-9193.145976,0.000000
4210.494998,-2072.576638,-8350.440928,-518.144159
4210.495322,-1554.432478,-8350.440928,444.123565
4210.495646,370.102971,-8120.612279,-222.061783
4210.495971,3701.029710,-7890.783629,370.102971
4210.496295,2368.659014,-8044.002729,222.061783
4210.496619,3108.864956,-8273.831378,-370.102971
4210.496944,1702.473667,-8120.612279,0.000000
4210.497268,1628.453072,-8810.098227,-296.082377
4210.497592,1036.288319,-8120.612279,-888.247130
4210.497917,-888.247130,-9269.755526,814.226536
4210.498241,296.082377,-8427.050478,-666.185348
4210.498565,74.020594,-8350.440928,-222.061783
4210.498890,666.185348,-8503.660028,-592.164754
4210.499214,296.082377,-8886.707777,-740.205942
4210.499538,-814.226536,-8044.002729,-888.247130
4210.499863,-1850.514855,-9269.755526,-592.164754
4210.500187,-1258.350101,-8810.098227,-1554.432478
4210.500511,-1776.494261,-9039.926876,-1036.288319
4210.500835,-2590.720797,-8810.098227,-222.061783
4210.501160,-1184.329507,-8503.660028,74.020594
4210.501484,0.000000,-8427.050478,0.000000
4210.501808,1850.514855,-8120.612279,444.123565
4210.502133,2368.659014,-7431.126331,-666.185348
4210.502457,3627.009116,-9116.536426,518.144159
4210.502781,2146.597232,-7660.954980,-1036.288319
4210.503106,1628.453072,-9116.536426,0.000000
4210.503430,222.061783,-8197.221829,-740.205942
4210.503754,-370.102971,-9422.974625,148.041188
4210.504079,962.267725,-7890.783629,-740.205942
4210.504403,1332.370696,-8427.050478,444.123565
4210.504727,1332.370696,-8733.488677,-1110.308913
4210.505052,1110.308913,-8810.098227,-1406.391290
4210.505376,222.061783,-10418.898773,-518.144159
4210.505700,-1628.453072,-8503.660028,-1628.453072
4210.506025,-2738.761985,-9039.926876,-666.185348
4210.506349,-4071.132681,-8427.050478,-592.164754
4210.506673,-1332.370696,-8886.707777,444.123565
4210.506998,-666.185348,-7890.783629,-888.247130
4210.507322,3849.070898,-9039.926876,-296.082377
4210.507646,5033.400406,-6894.859482,-518.144159
4210.507971,2886.803174,-7584.345430,-444.123565
4210.508295,3182.885551,-9039.926876,-370.102971
4210.508619,3034.844362,-9652.803275,1184.329507
4210.508944,1332.370696,-8580.269578,-1924.535449
4210.509268,444.123565,-9806.022374,518.144159
4210.509592,-592.164754,-7814.174080,-1036.288319
4210.509916,1036.288319,-10112.460574,148.041188
4210.510241,666.185348,-8733.488677,-1184.329507
4210.510565,1184.329507,-8963.317327,-518.144159
4210.510889,814.226536,-8656.879127,74.020594
4210.511214,-962.267725,-8350.440928,-1406.391290
4210.511538,-148.041188,-9346.365076,-148.041188
4210.511862,-2072.576638,-8350.440928,-740.205942
4210.512187,-2368.659014,-9959.241474,0.000000
4210.512511,-814.226536,-8273.831378,-370.102971
4210.512835,-296.082377,-8044.002729,444.123565
4210.513160,592.164754,-8273.831378,222.061783
4210.513484,2664.741391,-8350.440928,0.000000
4210.513808,2294.638420,-8197.221829,0.000000
4210.514133,3256.906145,-8886.707777,0.000000
4210.514457,1406.391290,-8273.831378,-592.164754
4210.514781,148.041188,-8886.707777,0.000000
4210.515106,1110.308913,-8044.002729,148.041188
4210.515430,888.247130,-8273.831378,-592.164754
4210.515754,1850.514855,-8656.879127,-518.144159
4210.516079,3182.885551,-7354.516781,0.000000
4210.516403,592.164754,-9039.926876,-1184.329507
4210.516727,740.205942,-8810.098227,148.041188
4210.517052,-1776.494261,-7814.174080,-296.082377
4210.517376,-3627.009116,-9193.145976,-962.267725
4210.517700,-2886.803174,-9039.926876,592.164754
4210.518024,-3256.906145,-9116.536426,444.123565
4210.518349,-592.164754,-8503.660028,-518.144159
4210.518673,1406.391290,-8580.269578,74.020594
4210.518997,1628.453072,-8273.831378,-962.267725
4210.519322,3034.844362,-8963.317327,74.020594
4210.519646,3034.844362,-7584.345430,-370.102971
4210.519970,1998.556043,-9806.022374,0.000000
4210.520295,1332.370696,-7277.907231,-370.102971
4210.520619,-296.082377,-9346.365076,666.185348
4210.520943,0.000000,-9499.584175,-1332.370696
4210.521268,0.000000,-9269.755526,-444.123565
4210.521592,370.102971,-8656.879127,-518.144159
4210.521916,-370.102971,-8503.660028,0.000000
4210.522241,444.123565,-7737.564530,296.082377
4210.522565,-74.020594,-9193.145976,0.000000
4210.522889,74.020594,-8273.831378,-518.144159
4210.523214,-1184.329507,-8656.879127,-1184.329507
4210.523538,-2072.576638,-9576.193725,-962.267725
4210.523862,-666.185348,-8580.269578,-370.102971
4210.524187,74.020594,-8427.050478,222.061783
4210.524511,1258.350101,-8197.221829,0.000000
4210.524835,2368.659014,-8120.612279,518.144159
4210.525160,1850.514855,-8580.269578,0.000000
4210.525484,2590.720797,-8886.707777,0.000000
4210.525808,1110.308913,-7967.393179,-444.123565
4210.526133,444.123565,-8886.707777,0.000000
4210.526457,592.164754,-8350.440928,-370.102971
4210.526781,666.185348,-8197.221829,-740.205942
4210.527105,518.144159,-8656.879127,-370.102971
4210.527429,2146.597232,-8273.831378,-444.123565
4210.527754,148.041188,-8733.488677,-888.247130
4210.528078,296.082377,-8886.707777,-592.164754
4210.528402,888.247130,-8963.317327,222.061783
4210.528726,-1480.411884,-8427.050478,-1554.432478
4210.529051,-1332.370696,-9269.755526,-518.144159
4210.529375,-1702.473667,-7890.783629,-222.061783
4210.529699,-296.082377,-9422.974625,592.164754
4210.530023,888.247130,-7660.954980,-518.144159
4210.530348,2146.597232,-8503.660028,740.205942
4210.530672,2960.823768,-7201.297681,0.000000
4210.530996,3923.091493,-9193.145976,-888.247130
4210.531320,1554.432478,-8503.660028,-814.226536
4210.531644,518.144159,-9576.193725,74.020594
4210.531969,-444.123565,-9039.926876,-296.082377
4210.532293,0.000000,-8963.317327,-296.082377
4210.532617,-740.205942,-9269.755526,-370.102971
4210.532941,1850.514855,-8733.488677,-592.164754
4210.533266,2072.576638,-8656.879127,-1480.411884
4210.533590,1480.411884,-9422.974625,-1036.288319
4210.533914,740.205942,-8963.317327,-518.144159
4210.534238,-740.205942,-8656.879127,-1184.329507
4210.534563,-2220.617826,-9422.974625,-222.061783
4210.534887,-2146.597232,-7660.954980,0.000000
4210.535211,-1998.556043,-9346.365076,-740.205942
4210.535535,-666.185348,-8503.660028,-370.102971
4210.535859,888.247130,-8350.440928,-370.102971
4210.536184,2590.720797,-8656.879127,148.041188
4210.536508,2812.782580,-7584.345430,-962.267725
4210.536832,3404.947333,-8963.317327,-444.123565
4210.537156,1998.556043,-8044.002729,-592.164754
4210.537481,1332.370696,-9346.365076,370.102971
4210.537805,0.000000,-8733.488677,-592.164754
4210.538129,-222.061783,-9499.584175,0.000000
4210.538453,74.020594,-7967.393179,0.000000
4210.538778,814.226536,-9346.365076,-592.164754
4210.539102,148.041188,-7967.393179,-444.123565
4210.539426,-666.185348,-8580.269578,-740.205942
4210.539750,-1110.308913,-9806.022374,0.000000
4210.540075,-2220.617826,-8580.269578,-1184.329507
4210.540399,-3034.844362,-9039.926876,-296.082377
4210.540723,-1924.535449,-8044.002729,370.102971
4210.541047,0.000000,-8580.269578,-296.082377
4210.541371,296.082377,-8503.660028,-592.164754
4210.541696,3552.988522,-8503.660028,74.020594
4210.542020,2886.803174,-7737.564530,-370.102971
4210.542344,2886.803174,-9499.584175,-444.123565
4210.542668,1332.370696,-8273.831378,148.041188
4210.542993,0.000000,-8656.879127,-148.041188
4210.543317,0.000000,-9116.536426,-518.144159
4210.543641,222.061783,-8810.098227,-222.061783
4210.543965,-962.267725,-9039.926876,-518.144159
4210.544290,444.123565,-8886.707777,-296.082377
4210.544614,814.226536,-7737.564530,-814.226536
4210.544938,1036.288319,-8656.879127,-592.164754
4210.545262,0.000000,-8656.879127,-814.226536
4210.545586,-666.185348,-8427.050478,-444.123565
4210.545911,-1628.453072,-8580.269578,-296.082377
4210.546235,-1998.556043,-8886.707777,0.000000
4210.546559,-1480.411884,-9269.755526,-444.123565
4210.546883,-444.123565,-8963.317327,592.164754
4210.547208,1332.370696,-8427.050478,592.164754
4210.547532,3552.988522,-7124.688131,-222.061783
4210.547856,4811.338623,-7890.783629,518.144159
4210.548180,3256.906145,-7431.126331,-148.041188
4210.548505,2516.700203,-8044.002729,-666.185348
4210.548829,1480.411884,-8810.098227,0.000000
4210.549153,888.247130,-8963.317327,-444.123565
4210.549477,74.020594,-8656.879127,-518.144159
4210.549802,-444.123565,-7967.393179,-296.082377
4210.550126,222.061783,-9039.926876,-222.061783
4210.550450,444.123565,-8810.098227,-1036.288319
4210.550774,0.000000,-9576.193725,-1110.308913
4210.551098,-1184.329507,-8733.488677,-1554.432478
4210.551423,-1480.411884,-9806.022374,-518.144159
4210.551747,-3182.885551,-7507.735880,-592.164754
4210.552071,0.000000,-9116.536426,-1036.288319
4210.552395,-1776.494261,-8810.098227,-296.082377
4210.552720,0.000000,-8733.488677,-1036.288319
4210.553044,2442.679609,-8503.660028,148.041188
4210.553368,2220.617826,-8350.440928,-666.185348
4210.553692,3775.050304,-9576.193725,370.102971
4210.554017,4293.194464,-7201.297681,-888.247130
4210.554341,2368.659014,-9346.365076,0.000000
4210.554665,1702.473667,-8810.098227,-888.247130
4210.554989,592.164754,-9269.755526,0.000000
4210.555313,-1184.329507,-8886.707777,-814.226536
4210.555638,0.000000,-9039.926876,-888.247130
4210.555962,740.205942,-8120.612279,-444.123565
4210.556286,-740.205942,-8810.098227,-814.226536
4210.556610,148.041188,-8886.707777,0.000000
4210.556935,-1332.370696,-8350.440928,-1480.411884
4210.557259,-1184.329507,-9576.193725,-962.267725
4210.557583,-1258.350101,-8733.488677,-592.164754
4210.557907,-1924.535449,-9499.584175,-296.082377
4210.558232,-888.247130,-9039.926876,222.061783
4210.558556,2294.638420,-7660.954980,74.020594
4210.558880,666.185348,-9039.926876,-1036.288319
4210.559204,4441.235652,-8656.879127,-222.061783
4210.559529,1776.494261,-8810.098227,-296.082377
4210.559853,2072.576638,-8427.050478,-296.082377
4210.560177,1184.329507,-7277.907231,592.164754
4210.560501,592.164754,-9422.974625,296.082377
4210.560825,444.123565,-7890.783629,-74.020594
4210.561150,2072.576638,-8120.612279,-222.061783
4210.561474,2294.638420,-8963.317327,74.020594
4210.561798,2516.700203,-8197.221829,-1110.308913
4210.562122,1998.556043,-9116.536426,-518.144159
4210.562447,-740.205942,-9193.145976,-592.164754
4210.562771,-2368.659014,-8350.440928,-1036.288319
4210.563095,-3034.844362,-8656.879127,74.020594
4210.563419,-4441.235652,-7967.393179,0.000000
4210.563744,-3182.885551,-9039.926876,0.000000
4210.564068,-2146.597232,-8273.831378,-666.185348
4210.564392,296.082377,-7967.393179,370.102971
4210.564716,2516.700203,-7048.078582,-222.061783
4210.565040,3775.050304,-7737.564530,0.000000
4210.565365,3627.009116,-8503.660028,148.041188
4210.565689,3627.009116,-8350.440928,-1036.288319
4210.566013,1998.556043,-9116.536426,222.061783
4210.566337,-518.144159,-7967.393179,-296.082377
4210.566662,-518.144159,-9039.926876,0.000000
4210.566986,-518.144159,-8503.660028,74.020594
4210.567310,296.082377,-8503.660028,-666.185348
4210.567634,-148.041188,-9269.755526,0.000000
4210.567959,0.000000,-8044.002729,-296.082377
4210.568283,-370.102971,-9039.926876,-740.205942
4210.568607,-740.205942,-7814.174080,-962.267725
4210.568931,-1480.411884,-8427.050478,222.061783
4210.569256,-1702.473667,-8273.831378,-962.267725
4210.569580,370.102971,-8580.269578,-740.205942
4210.569904,1406.391290,-8810.098227,-518.144159
4210.570228,2368.659014,-8733.488677,-444.123565
4210.570552,2738.761985,-8963.317327,222.061783
4210.570877,2220.617826,-9499.584175,0.000000
4210.571201,888.247130,-8656.879127,-444.123565
4210.571525,444.123565,-8350.440928,-296.082377
4210.571849,518.144159,-9193.145976,-148.041188
4210.572174,0.000000,-8427.050478,-1110.308913
4210.572498,1406.391290,-8273.831378,-592.164754
4210.572822,222.061783,-8273.831378,-592.164754
4210.573146,2368.659014,-8350.440928,-370.102971
4210.573471,2294.638420,-8120.612279,-592.164754
4210.573795,962.267725,-8503.660028,-1036.288319
4210.574119,1332.370696,-8733.488677,-962.267725
4210.574443,-1924.535449,-9806.022374,-814.226536
4210.574767,-1702.473667,-9576.193725,-888.247130
4210.575092,-2146.597232,-8197.221829,-370.102971
4210.575416,-2590.720797,-9116.536426,148.041188
4210.575740,592.164754,-8580.269578,-444.123565
4210.576064,518.144159,-7584.345430,-296.082377
4210.576389,2220.617826,-8350.440928,148.041188
4210.576713,2516.700203,-7890.783629,-518.144159
4210.577037,3182.885551,-8197.221829,-666.185348
4210.577361,2368.659014,-8503.660028,0.000000
4210.577686,888.247130,-8886.707777,-444.123565
4210.578010,518.144159,-9039.926876,-296.082377
4210.578334,1036.288319,-8580.269578,-592.164754
4210.578658,1332.370696,-9269.755526,-592.164754
4210.578982,888.247130,-8886.707777,-148.041188
4210.579307,962.267725,-8580.269578,-370.102971
4210.579631,0.000000,-8273.831378,-740.205942
4210.579955,-1776.494261,-8350.440928,-518.144159
4210.580279,-1924.535449,-8656.879127,-444.123565
4210.580604,-2960.823768,-8044.002729,-370.102971
4210.580928,-1110.308913,-9193.145976,370.102971
4210.581252,0.000000,-7660.954980,-888.247130
4210.581576,2738.761985,-8963.317327,-74.020594
4210.581901,3552.988522,-7354.516781,-444.123565
4210.582225,2886.803174,-9806.022374,666.185348
4210.582549,1850.514855,-8197.221829,-370.102971
4210.582873,-370.102971,-8963.317327,370.102971
4210.583198,1332.370696,-9269.755526,-740.205942
4210.583522,-1110.308913,-9882.631924,-222.061783
4210.583846,-1554.432478,-7354.516781,-518.144159
4210.584170,370.102971,-8044.002729,148.041188
4210.584494,-148.041188,-9193.145976,-592.164754
4210.584819,1776.494261,-8810.098227,-222.061783
4210.585143,814.226536,-8350.440928,0.000000
4210.585467,148.041188,-8427.050478,-814.226536
4210.585791,0.000000,-8350.440928,-222.061783
4210.586116,-592.164754,-8503.660028,-148.041188
4210.586440,-1702.473667,-9116.536426,-296.082377
4210.586764,-1702.473667,-8503.660028,-740.205942
4210.587088,-1554.432478,-9116.536426,0.000000
4210.587413,444.123565,-7967.393179,-370.102971
4210.587737,2294.638420,-9269.755526,74.020594
4210.588061,2220.617826,-8120.612279,-444.123565
4210.588385,1480.411884,-7967.393179,-370.102971
4210.588709,740.205942,-8197.221829,148.041188
4210.589034,444.123565,-8886.707777,-296.082377
4210.589358,-296.082377,-9193.145976,-666.185348
4210.589682,222.061783,-8503.660028,518.144159
4210.590006,74.020594,-8656.879127,-888.247130
4210.590331,4071.132681,-9269.755526,-962.267725
4210.590655,1184.329507,-8810.098227,-666.185348
4210.590979,370.102971,-9193.145976,-888.247130
4210.591303,-1850.514855,-8273.831378,-1258.350101
4210.591628,-2368.659014,-9193.145976,0.000000
4210.591952,-3108.864956,-9193.145976,-592.164754
4210.592276,-1998.556043,-7890.783629,-296.082377
4210.592600,-148.041188,-8810.098227,0.000000
4210.592925,1554.432478,-7431.126331,-370.102971
4210.593249,3404.947333,-7967.393179,-148.041188
4210.593573,3182.885551,-8503.660028,-888.247130
4210.593897,2960.823768,-9116.536426,296.082377
4210.594221,2294.638420,-7660.954980,-518.144159
4210.594546,1184.329507,-9729.412825,0.000000
4210.594870,-1036.288319,-9422.974625,-814.226536
4210.595194,-148.041188,-9269.755526,-888.247130
4210.595518,-1554.432478,-9193.145976,-444.123565
4210.595843,-740.205942,-8273.831378,-222.061783
4210.596167,370.102971,-8810.098227,-518.144159
4210.596491,740.205942,-8350.440928,-666.185348
4210.596815,1628.453072,-8350.440928,-1036.288319
4210.597140,148.041188,-7660.954980,-1258.350101
4210.597464,0.000000,-8427.050478,-518.144159
4210.597788,370.102971,-7967.393179,-592.164754
4210.598112,-740.205942,-9806.022374,0.000000
4210.598436,0.000000,-8580.269578,-222.061783
4210.598761,814.226536,-7890.783629,370.102971
4210.599085,2960.823768,-8886.707777,814.226536
4210.599409,1258.350101,-8810.098227,-740.205942
4210.599733,2220.617826,-9422.974625,-370.102971
4210.600058,1258.350101,-7890.783629,-148.041188
4210.600382,-666.185348,-9193.145976,-888.247130
4210.600706,0.000000,-8580.269578,-592.164754
4210.601030,666.185348,-8656.879127,74.020594
4210.601355,1850.514855,-8427.050478,-1184.329507
4210.601679,1110.308913,-8197.221829,-370.102971
4210.602003,2368.659014,-8350.440928,-222.061783
4210.602327,814.226536,-9193.145976,-592.164754
4210.602652,74.020594,-8273.831378,-370.102971
4210.602976,-962.267725,-9039.926876,444.123565
4210.603300,-1110.308913,-7967.393179,-592.164754
4210.603624,-2220.617826,-8810.098227,-592.164754
4210.603948,-518.144159,-8810.098227,444.123565
4210.604273,-2516.700203,-7584.345430,-740.205942
4210.604597,2812.782580,-8427.050478,296.082377
4210.604921,888.247130,-7354.516781,-518.144159
4210.605245,2812.782580,-9729.412825,888.247130
4210.605570,1480.411884,-7890.783629,-1036.288319
4210.605894,962.267725,-9576.193725,-740.205942
4210.606218,-740.205942,-9039.926876,-296.082377
4210.606542,-888.247130,-9422.974625,-592.164754
4210.606867,444.123565,-9422.974625,148.041188
4210.607191,0.000000,-8273.831378,-592.164754
4210.607515,1332.370696,-9806.022374,-370.102971
4210.607839,518.144159,-9499.584175,-888.247130
4210.608163,-1998.556043,-7737.564530,74.020594
4210.608488,-148.041188,-7967.393179,-2220.617826
4210.608812,-2146.597232,-9806.022374,-148.041188
4210.609136,-3404.947333,-7354.516781,-444.123565
4210.609460,-2146.597232,-7967.393179,518.144159
4210.609785,-1110.308913,-8503.660028,-1110.308913
4210.610109,1258.350101,-8963.317327,1036.288319
4210.610433,3552.988522,-7124.688131,-296.082377
4210.610757,3552.988522,-9422.974625,222.061783
4210.611082,2516.700203,-8427.050478,-444.123565
4210.611406,2738.761985,-8886.707777,0.000000
4210.611730,1110.308913,-8350.440928,74.020594
4210.612054,296.082377,-8963.317327,-444.123565
4210.612379,0.000000,-9039.926876,-592.164754
4210.612703,-888.247130,-8503.660028,222.061783
4210.613027,1406.391290,-8656.879127,-148.041188
4210.613351,592.164754,-7584.345430,-1258.350101
4210.613675,2294.638420,-8963.317327,0.000000
4210.614000,-370.102971,-8044.002729,-1406.391290
4210.614324,-222.061783,-10265.679673,0.000000
4210.614648,-1332.370696,-9116.536426,-444.123565
4210.614972,-2442.679609,-7584.345430,148.041188
4210.615297,-592.164754,-9422.974625,-222.061783
4210.615621,518.144159,-7431.126331,-222.061783
4210.615945,3182.885551,-8580.269578,296.082377
4210.616269,3256.906145,-7048.078582,-814.226536
4210.616594,3701.029710,-8886.707777,518.144159
4210.616918,2294.638420,-7967.393179,-1332.370696
4210.617242,2220.617826,-9652.803275,0.000000
4210.617566,518.144159,-8197.221829,-370.102971
4210.617890,-666.185348,-9729.412825,-666.185348
4210.618215,370.102971,-9039.926876,-962.267725
4210.618539,666.185348,-8427.050478,-592.164754
4210.618863,1110.308913,-9039.926876,-1332.370696
4210.619187,1702.473667,-8886.707777,-962.267725
4210.619512,1184.329507,-8810.098227,-370.102971
4210.619836,-592.164754,-8427.050478,-1332.370696
4210.620160,-740.205942,-8197.221829,-296.082377
4210.620484,-1480.411884,-8350.440928,-1036.288319
4210.620809,-1554.432478,-9039.926876,296.082377
4210.621133,-1036.288319,-7890.783629,-1258.350101
4210.621457,1184.329507,-9269.755526,888.247130
4210.621781,2442.679609,-7890.783629,-888.247130
4210.622106,3256.906145,-9422.974625,222.061783
4210.622430,1406.391290,-8427.050478,-962.267725
4210.622754,814.226536,-8656.879127,296.082377
4210.623078,74.020594,-8810.098227,-222.061783
4210.623402,-1036.288319,-9499.584175,-518.144159
4210.623727,-1036.288319,-8733.488677,-518.144159
4210.624051,-296.082377,-8810.098227,0.000000
4210.624375,592.164754,-8120.612279,-1480.411884
4210.624699,2072.576638,-9269.755526,-518.144159
4210.625024,2072.576638,-8350.440928,-814.226536
4210.625348,-592.164754,-9269.755526,-148.041188
4210.625672,-666.185348,-8580.269578,-888.247130
4210.625996,-1480.411884,-8503.660028,-148.041188
4210.626321,-3034.844362,-8886.707777,0.000000
4210.626645,-2516.700203,-8503.660028,-666.185348
4210.626969,-1332.370696,-8810.098227,222.061783
4210.627293,1332.370696,-8273.831378,0.000000
4210.627618,3330.926739,-7890.783629,0.000000
4210.627942,3330.926739,-8427.050478,0.000000
4210.628266,2664.741391,-7584.345430,-518.144159
4210.628590,2960.823768,-8656.879127,-296.082377
4210.628915,0.000000,-8120.612279,-962.267725
4210.629239,-222.061783,-9499.584175,222.061783
4210.629563,-148.041188,-8427.050478,-962.267725
4210.629887,-148.041188,-9116.536426,-222.061783
4210.630211,222.061783,-8580.269578,-666.185348
4210.630536,592.164754,-9039.926876,-222.061783
4210.630860,-888.247130,-8273.831378,-962.267725
4210.631184,-888.247130,-9116.536426,740.205942
4210.631508,-1554.432478,-7584.345430,-296.082377
4210.631833,-1036.288319,-9039.926876,-518.144159
4210.632157,-1332.370696,-7660.954980,-148.041188
4210.632481,518.144159,-9346.365076,148.041188
4210.632805,666.185348,-7354.516781,-222.061783
4210.633130,3849.070898,-8810.098227,518.144159
4210.633454,3182.885551,-7431.126331,0.000000
4210.633778,3182.885551,-8580.269578,814.226536
4210.634102,1850.514855,-7660.954980,-666.185348
4210.634427,1776.494261,-9652.803275,-370.102971
4210.634751,-148.041188,-8120.612279,0.000000
4210.635075,-518.144159,-9116.536426,-518.144159
4210.635399,-1998.556043,-8656.879127,-1110.308913
4210.635724,-888.247130,-8350.440928,-592.164754
4210.636048,1554.432478,-9193.145976,-148.041188
4210.636372,1036.288319,-8197.221829,-1702.473667
4210.636696,592.164754,-9882.631924,-148.041188
4210.637021,-222.061783,-7660.954980,-1332.370696
4210.637345,-888.247130,-9116.536426,0.000000
4210.637669,-1406.391290,-8044.002729,-1184.329507
4210.637993,-592.164754,-9346.365076,1184.329507
4210.638318,-518.144159,-7737.564530,0.000000
4210.638642,2442.679609,-9576.193725,0.000000
4210.638966,3108.864956,-8656.879127,-1036.288319
4210.639290,2812.782580,-8350.440928,-592.164754
4210.639615,1998.556043,-8273.831378,-370.102971
4210.639939,1110.308913,-8886.707777,1036.288319
4210.640263,-148.041188,-8963.317327,-148.041188
4210.640587,-296.082377,-9806.022374,-888.247130
4210.640912,-1850.514855,-8503.660028,-444.123565
4210.641236,-888.247130,-7584.345430,-666.185348
4210.641560,1776.494261,-8580.269578,-740.205942
4210.641884,2146.597232,-8503.660028,-962.267725
4210.642209,814.226536,-9346.365076,-1258.350101
4210.642533,-666.185348,-8733.488677,-814.226536
4210.642857,-1924.535449,-9193.145976,-592.164754
4210.643181,-2516.700203,-8656.879127,-1258.350101
4210.643506,-2886.803174,-8656.879127,-296.082377
4210.643830,-370.102971,-8580.269578,592.164754
4210.644154,-74.020594,-8350.440928,-370.102971
4210.644478,2072.576638,-8120.612279,-444.123565
4210.644803,3478.967927,-7814.174080,370.102971
4210.645127,2516.700203,-8580.269578,-666.185348
4210.645451,2368.659014,-8350.440928,-370.102971
4210.645775,962.267725,-8580.269578,0.000000
4210.646100,814.226536,-8580.269578,-592.164754
4210.646424,222.061783,-8350.440928,-296.082377
4210.646748,0.000000,-9346.365076,-222.061783
4210.647072,888.247130,-8733.488677,-370.102971
4210.647397,2146.597232,-8197.221829,-518.144159
4210.647721,1998.556043,-9116.536426,0.000000
4210.648045,370.102971,-7507.735880,-296.082377
4210.648369,296.082377,-8427.050478,222.061783
4210.648694,-1332.370696,-8273.831378,-1184.329507
4210.649018,-1480.411884,-9499.584175,-592.164754
4210.649342,-2294.638420,-8197.221829,-222.061783
4210.649666,-1480.411884,-9269.755526,370.102971
4210.649991,0.000000,-8503.660028,592.164754
4210.650315,1184.329507,-8350.440928,370.102971
4210.650639,2664.741391,-7584.345430,0.000000
4210.650963,3034.844362,-9422.974625,518.144159
4210.651288,1184.329507,-7737.564530,-814.226536
4210.651612,1554.432478,-9499.584175,222.061783
4210.651936,74.020594,-7967.393179,-296.082377
4210.652260,-814.226536,-9806.022374,-296.082377
4210.652585,-962.267725,-7507.735880,-1332.370696
4210.652909,666.185348,-8886.707777,592.164754
4210.653233,296.082377,-8120.612279,-888.247130
4210.653557,1480.411884,-9193.145976,-666.185348
4210.653882,296.082377,-8503.660028,0.000000
4210.654206,222.061783,-8733.488677,-222.061783
4210.654530,-592.164754,-8044.002729,-1036.288319
4210.654854,-814.226536,-8963.317327,0.000000
4210.655179,-296.082377,-8886.707777,518.144159
4210.655503,1110.308913,-7814.174080,-444.123565
4210.655827,2960.823768,-9193.145976,-148.041188
4210.656151,3034.844362,-7584.345430,-740.205942
4210.656476,2738.761985,-8656.879127,0.000000
4210.656800,1924.535449,-8044.002729,-814.226536
4210.657124,666.185348,-8503.660028,370.102971
4210.657448,-1258.350101,-8427.050478,-444.123565
4210.657773,-296.082377,-9346.365076,74.020594
4210.658097,-1332.370696,-7814.174080,-962.267725
4210.658421,592.164754,-9499.584175,-296.082377
4210.658745,2072.576638,-7967.393179,-1406.391290
4210.659070,1702.473667,-8656.879127,-592.164754
4210.659394,1036.288319,-8580.269578,-518.144159
4210.659718,444.123565,-8503.660028,-296.082377
4210.660042,-1480.411884,-8733.488677,0.000000
4210.660367,-2146.597232,-9499.584175,-1406.391290
4210.660691,-2664.741391,-10189.070123,-740.205942
4210.661015,-3701.029710,-9269.755526,888.247130
4210.661339,0.000000,-7584.345430,-1480.411884
4210.661664,1110.308913,-9806.022374,814.226536
4210.661988,2886.803174,-7277.907231,-1332.370696
4210.662312,3627.009116,-8273.831378,0.000000
4210.662636,2072.576638,-8120.612279,-666.185348
4210.662961,2072.576638,-8886.707777,-444.123565
4210.663285,740.205942,-8427.050478,-370.102971
4210.663609,-666.185348,-9269.755526,0.000000
4210.663933,222.061783,-9193.145976,-740.205942
4210.664258,518.144159,-8350.440928,-1332.370696
4210.664582,1184.329507,-9806.022374,0.000000
4210.664906,814.226536,-8273.831378,-592.164754
4210.665230,-222.061783,-8120.612279,0.000000
4210.665554,-296.082377,-8273.831378,-962.267725
4210.665879,-4441.235652,-8044.002729,148.041188
4210.666203,0.000000,-9422.974625,-444.123565
4210.666527,-3256.906145,-7277.907231,-1924.535449
4210.666851,0.000000,-11338.213370,962.267725
4210.667176,518.144159,-7354.516781,-1184.329507
4210.667500,2220.617826,-10112.460574,1110.308913
4210.667824,2368.659014,-7507.735880,-296.082377
4210.668148,2368.659014,-9346.365076,370.102971
4210.668473,592.164754,-7814.174080,0.000000
4210.668797,2146.597232,-9269.755526,-592.164754
4210.669121,0.000000,-8427.050478,-444.123565
4210.669445,-1702.473667,-8580.269578,-370.102971
4210.669770,-1184.329507,-8503.660028,-888.247130
4210.670094,1110.308913,-7890.783629,148.041188
4210.670418,740.205942,-7507.735880,-666.185348
4210.670742,1628.453072,-8810.098227,-592.164754
4210.671067,1332.370696,-9116.536426,-370.102971
4210.671391,-814.226536,-8350.440928,-1332.370696
4210.671715,-962.267725,-8963.317327,-222.061783
4210.672039,-1702.473667,-7124.688131,-148.041188
4210.672364,0.000000,-9576.193725,592.164754
4210.672688,0.000000,-7354.516781,-518.144159
4210.673012,2072.576638,-9269.755526,222.061783
4210.673336,2960.823768,-8120.612279,-1184.329507
4210.673661,3108.864956,-9269.755526,-296.082377
4210.673985,1554.432478,-7737.564530,-962.267725
4210.674309,1554.432478,-9269.755526,592.164754
4210.674633,222.061783,-8350.440928,-370.102971
4210.674958,-666.185348,-9806.022374,-296.082377
4210.675282,-666.185348,-8963.317327,-592.164754
4210.675606,-814.226536,-8273.831378,-1036.288319
4210.675930,2442.679609,-9729.412825,0.000000
4210.676255,2738.761985,-8044.002729,-1110.308913
4210.676579,814.226536,-9346.365076,-444.123565
4210.676903,-888.247130,-9039.926876,-1110.308913
4210.677227,-2294.638420,-9193.145976,-666.185348
4210.677552,-2294.638420,-9346.365076,-666.185348
4210.677876,-2590.720797,-8733.488677,0.000000
4210.678200,-1184.329507,-9422.974625,74.020594
4210.678524,-740.205942,-8503.660028,-370.102971
4210.678849,2442.679609,-8197.221829,148.041188
4210.679173,2738.761985,-7814.174080,-740.205942
4210.679497,2960.823768,-9882.631924,-518.144159
4210.679821,1702.473667,-8580.269578,-296.082377
4210.680146,888.247130,-8810.098227,-1036.288319
4210.680470,74.020594,-9116.536426,-592.164754
4210.680794,0.000000,-8886.707777,0.000000
4210.681118,0.000000,-8733.488677,-296.082377
4210.681443,0.000000,-8350.440928,-1406.391290
4210.681767,888.247130,-8810.098227,-518.144159
4210.682091,740.205942,-8350.440928,-296.082377
4210.682415,666.185348,-7814.174080,-666.185348
4210.682740,0.000000,-8197.221829,-518.144159
4210.683064,-370.102971,-8427.050478,-518.144159
4210.683388,-1110.308913,-7890.783629,-814.226536
4210.683712,-1184.329507,-9499.584175,222.061783
4210.684037,-370.102971,-8427.050478,296.082377
4210.684361,1110.308913,-8350.440928,74.020594
4210.684685,2516.700203,-8886.707777,74.020594
4210.685009,3997.112087,-9193.145976,518.144159
4210.685334,1850.514855,-8197.221829,-518.144159
4210.685658,222.061783,-8427.050478,0.000000
4210.685982,666.185348,-8503.660028,-444.123565
4210.686306,-444.123565,-9346.365076,-592.164754
4210.686631,-370.102971,-8503.660028,148.041188
4210.686955,148.041188,-8427.050478,666.185348
4210.687279,1184.329507,-8120.612279,-962.267725
4210.687603,1702.473667,-8427.050478,-444.123565
4210.687928,1998.556043,-8733.488677,0.000000
4210.688252,222.061783,-8580.269578,-444.123565
4210.688576,-1332.370696,-8810.098227,0.000000
4210.688900,-1776.494261,-8120.612279,-370.102971
4210.689225,-2072.576638,-9652.803275,518.144159
4210.689549,-962.267725,-8580.269578,-962.267725
4210.689873,1406.391290,-8963.317327,148.041188
4210.690197,2590.720797,-7354.516781,518.144159
4210.690522,3701.029710,-8963.317327,592.164754
4210.690846,3108.864956,-8044.002729,-370.102971
4210.691170,2590.720797,-8810.098227,-444.123565
4210.691494,814.226536,-8733.488677,-740.205942
4210.691819,370.102971,-9422.974625,-1258.350101
4210.692143,-1628.453072,-9346.365076,0.000000
4210.692467,-2220.617826,-9039.926876,-222.061783
4210.692791,-1184.329507,-8350.440928,0.000000
4210.693116,444.123565,-8886.707777,-1110.308913
4210.693440,1110.308913,-9039.926876,-592.164754
4210.693764,444.123565,-8580.269578,296.082377
4210.694088,0.000000,-8427.050478,-962.267725
4210.694413,-592.164754,-8580.269578,-962.267725
4210.694737,-1702.473667,-7814.174080,0.000000
4210.695061,-1776.494261,-9346.365076,444.123565
4210.695385,-666.185348,-8273.831378,-592.164754
4210.695710,74.020594,-9269.755526,148.041188
4210.696034,962.267725,-8350.440928,-666.185348
4210.696358,2590.720797,-8656.879127,-666.185348
4210.696682,1776.494261,-8503.660028,148.041188
4210.697007,1554.432478,-7354.516781,-444.123565
4210.697331,1702.473667,-8350.440928,0.000000
4210.697655,814.226536,-9576.193725,0.000000
4210.697979,-666.185348,-8733.488677,-1628.453072
4210.698304,666.185348,-8810.098227,-518.144159
4210.698628,444.123565,-8810.098227,-888.247130
4210.698952,740.205942,-9422.974625,-592.164754
4210.699276,1110.308913,-8350.440928,-370.102971
4210.699601,-1258.350101,-8427.050478,-296.082377
4210.699925,-370.102971,-8427.050478,-1110.308913
4210.700249,-1554.432478,-8810.098227,-148.041188
4210.700573,-222.061783,-8580.269578,148.041188
4210.700897,-1406.391290,-7967.393179,222.061783
4210.701222,1998.556043,-8350.440928,-222.061783
4210.701546,2812.782580,-8503.660028,0.000000
4210.701870,3404.947333,-8120.612279,296.082377
4210.702194,1924.535449,-8197.221829,0.000000
4210.702519,1924.535449,-9193.145976,148.041188
4210.702843,1332.370696,-8733.488677,-814.226536
4210.703167,740.205942,-9576.193725,148.041188
4210.703491,-1110.308913,-8197.221829,-518.144159
4210.703816,-444.123565,-8427.050478,-296.082377
4210.704140,-518.144159,-8120.612279,-740.205942
4210.704464,222.061783,-8350.440928,-666.185348
4210.704788,1480.411884,-8656.879127,0.000000
4210.705113,666.185348,-8197.221829,-592.164754
4210.705437,222.061783,-9193.145976,-370.102971
4210.705761,-592.164754,-8427.050478,-962.267725
4210.706085,-1406.391290,-9652.803275,-592.164754
4210.706410,-1184.329507,-8733.488677,0.000000
4210.706734,888.247130,-9576.193725,-296.082377
4210.707058,1554.432478,-8503.660028,0.000000
4210.707382,2960.823768,-8044.002729,0.000000
4210.707707,5033.400406,-8733.488677,0.000000
4210.708031,3256.906145,-9422.974625,-962.267725
4210.708355,2368.659014,-8197.221829,-592.164754
4210.708679,592.164754,-6818.249932,888.247130
4210.709004,888.247130,-8886.707777,-962.267725
4210.709328,-740.205942,-9116.536426,-1776.494261
4210.709652,-962.267725,-8273.831378,444.123565
4210.709976,888.247130,-7737.564530,-1332.370696
4210.710301,370.102971,-9652.803275,-296.082377
4210.710625,1110.308913,-10418.898773,1110.308913
4210.710949,148.041188,-7124.688131,-222.061783
4210.711273,-592.164754,-10648.727422,-518.144159
4210.711598,-2442.679609,-10112.460574,-962.267725
4210.711922,-2220.617826,-10035.851024,444.123565
4210.712246,-2368.659014,-8273.831378,-666.185348
4210.712570,-2368.659014,-10725.336972,666.185348
4210.712895,148.041188,-7354.516781,-962.267725
4210.713219,1406.391290,-7431.126331,-148.041188
4210.713543,2516.700203,-8120.612279,-518.144159
4210.713867,3701.029710,-7737.564530,-444.123565
4210.714192,3552.988522,-7890.783629,-740.205942
4210.714516,1406.391290,-9039.926876,-888.247130
4210.714840,962.267725,-9269.755526,-888.247130
4210.715164,-1036.288319,-7737.564530,-666.185348
4210.715489,-1554.432478,-8197.221829,148.041188
4210.715813,-592.164754,-8273.831378,-962.267725
4210.716137,444.123565,-9039.926876,-1036.288319
4210.716461,0.000000,-8273.831378,-1850.514855
4210.716786,296.082377,-8963.317327,-1332.370696
4210.717110,-814.226536,-7814.174080,-1110.308913
4210.717434,-666.185348,-8350.440928,0.000000
4210.717758,-1628.453072,-8503.660028,0.000000
4210.718083,2368.659014,-8350.440928,-148.041188
4210.718407,962.267725,-9959.241474,-740.205942
4210.718731,2368.659014,-8427.050478,-666.185348
4210.719055,1776.494261,-10035.851024,2368.659014
4210.719380,1554.432478,-8350.440928,-666.185348
4210.719704,3775.050304,-9193.145976,444.123565
4210.720028,148.041188,-8197.221829,-592.164754
4210.720352,222.061783,-9729.412825,370.102971
4210.720677,-1406.391290,-7584.345430,-1184.329507
4210.721001,-962.267725,-9959.241474,1406.391290
4210.721325,148.041188,-7277.907231,-1184.329507
4210.721649,1258.350101,-8044.002729,-370.102971
4210.721974,2072.576638,-8427.050478,-666.185348
4210.722298,1702.473667,-8580.269578,-148.041188
4210.722622,-666.185348,-8044.002729,-296.082377
4210.722946,-296.082377,-8810.098227,-148.041188
4210.723271,-2294.638420,-9576.193725,-740.205942
4210.723595,-1850.514855,-9116.536426,-296.082377
4210.723919,-1036.288319,-8044.002729,-370.102971
4210.724243,962.267725,-9116.536426,1110.308913
4210.724568,1924.535449,-7584.345430,-370.102971
4210.724892,3108.864956,-8197.221829,962.267725
4210.725216,3256.906145,-8580.269578,-666.185348
4210.725540,1924.535449,-8427.050478,-740.205942
4210.725865,2146.597232,-8656.879127,-444.123565
4210.726189,-296.082377,-8044.002729,-518.144159
4210.726513,-296.082377,-9806.022374,222.061783
4210.726837,-592.164754,-7660.954980,-444.123565
4210.727162,666.185348,-9116.536426,0.000000
4210.727487,222.061783,-8044.002729,-1184.329507
4210.727811,888.247130,-8963.317327,-74.020594
4210.728135,2146.597232,-7890.783629,-1184.329507
4210.728460,222.061783,-9116.536426,-666.185348
4210.728784,-1332.370696,-8197.221829,-1776.494261
4210.729108,-1258.350101,-8886.707777,-148.041188
4210.729432,-2072.576638,-7890.783629,-1258.350101
4210.729757,-1406.391290,-9576.193725,74.020594
4210.730081,1110.308913,-7814.174080,-444.123565
4210.730405,1924.535449,-8733.488677,74.020594
4210.730729,1554.432478,-8044.002729,-1628.453072
4210.731054,2590.720797,-9652.803275,814.226536
4210.731378,592.164754,-8197.221829,-888.247130
4210.731702,0.000000,-9806.022374,0.000000
4210.732026,-518.144159,-8273.831378,-444.123565
4210.732351,-888.247130,-9193.145976,0.000000
4210.732675,740.205942,-8886.707777,-1036.288319
4210.732999,740.205942,-8580.269578,-1258.350101
4210.733323,1406.391290,-8656.879127,444.123565
4210.733648,666.185348,-8427.050478,-666.185348
4210.733972,148.041188,-9652.803275,-962.267725
4210.734296,-1406.391290,-8350.440928,296.082377
4210.734620,-1702.473667,-8120.612279,-814.226536
4210.734945,-1628.453072,-8963.317327,-148.041188
4210.735269,-740.205942,-9193.145976,592.164754
4210.735593,74.020594,-7967.393179,-370.102971
4210.735917,2220.617826,-8350.440928,74.020594
4210.736242,2812.782580,-8044.002729,0.000000
4210.736566,2516.700203,-8963.317327,74.020594
4210.736890,2072.576638,-8044.002729,-296.082377
4210.737214,962.267725,-9193.145976,0.000000
4210.737539,-962.267725,-8656.879127,-592.164754
4210.737863,-1554.432478,-9039.926876,296.082377
4210.738187,-888.247130,-8503.660028,-148.041188
4210.738511,222.061783,-9116.536426,0.000000
4210.738836,1628.453072,-8580.269578,-592.164754
4210.739160,2664.741391,-9576.193725,-592.164754
4210.739484,296.082377,-8120.612279,-1776.494261
4210.739808,-814.226536,-8886.707777,-888.247130
4210.740133,-370.102971,-8273.831378,444.123565
4210.740457,-2442.679609,-7967.393179,222.061783
4210.740781,-1702.473667,-9116.536426,370.102971
4210.741105,-518.144159,-7967.393179,-666.185348
4210.741430,0.000000,-8427.050478,0.000000
4210.741754,1998.556043,-8503.660028,-518.144159
4210.742078,2368.659014,-7967.393179,222.061783
4210.742402,2590.720797,-7354.516781,592.164754
4210.742726,1776.494261,-7814.174080,0.000000
4210.743051,3034.844362,-9116.536426,0.000000
4210.743375,666.185348,-8580.269578,-1184.329507
4210.743699,222.061783,-9346.365076,-296.082377
4210.744023,-1110.308913,-8120.612279,-1332.370696
4210.744348,1110.308913,-9806.022374,148.041188
4210.744672,1924.535449,-7354.516781,-1628.453072
4210.744996,1332.370696,-9806.022374,0.000000
4210.745320,-222.061783,-7660.954980,-1184.329507
4210.745645,-2960.823768,-8810.098227,-1110.308913
4210.745969,-1184.329507,-9193.145976,-1554.432478
4210.746293,-2516.700203,-9346.365076,0.000000
4210.746617,-962.267725,-7048.078582,222.061783
4210.746942,3108.864956,-8963.317327,0.000000
4210.747266,444.123565,-8427.050478,-666.185348
4210.747590,4145.153275,-8963.317327,148.041188
4210.747914,2442.679609,-7124.688131,-1480.411884
4210.748239,3034.844362,-10189.070123,666.185348
4210.748563,3330.926739,-8197.221829,-888.247130
4210.748887,296.082377,-9039.926876,444.123565
4210.749211,-370.102971,-9193.145976,-1258.350101
4210.749536,-2368.659014,-9193.145976,-666.185348
4210.749860,370.102971,-8580.269578,-1110.308913
4210.750184,518.144159,-8886.707777,-518.144159
4210.750508,1406.391290,-9116.536426,-444.123565
4210.750833,1702.473667,-9193.145976,-444.123565
4210.751157,-370.102971,-7507.735880,-1184.329507
4210.751481,-370.102971,-9422.974625,-370.102971
4210.751805,-1628.453072,-7890.783629,-1554.432478
4210.752130,-888.247130,-9882.631924,148.041188
4210.752454,-962.267725,-7660.954980,-518.144159
4210.752778,370.102971,-9193.145976,444.123565
4210.753102,1776.494261,-7890.783629,-148.041188
4210.753427,2738.761985,-8810.098227,444.123565
4210.753751,1554.432478,-8120.612279,-1554.432478
4210.754075,1184.329507,-8886.707777,740.205942
4210.754399,1406.391290,-8273.831378,-666.185348
4210.754724,-740.205942,-9422.974625,0.000000
4210.755048,-962.267725,-8656.879127,-296.082377
4210.755372,-666.185348,-8427.050478,-444.123565
4210.755696,-296.082377,-8886.707777,-666.185348
4210.756021,2220.617826,-8427.050478,-148.041188
4210.756345,1998.556043,-8120.612279,-666.185348
4210.756669,592.164754,-8273.831378,0.000000
4210.756993,-592.164754,-8273.831378,-666.185348
4210.757318,-296.082377,-8350.440928,592.164754
4210.757642,-1776.494261,-8656.879127,0.000000
4210.757966,-2960.823768,-8886.707777,370.102971
4210.758290,-962.267725,-8197.221829,-296.082377
4210.758614,1036.288319,-7507.735880,148.041188
4210.758939,3256.906145,-8044.002729,-148.041188
4210.759263,3256.906145,-7431.126331,148.041188
4210.759587,3256.906145,-8963.317327,-222.061783
4210.759911,1036.288319,-8273.831378,740.205942
4210.760236,740.205942,-9576.193725,-444.123565
4210.760560,-740.205942,-8810.098227,148.041188
4210.760884,-740.205942,-9116.536426,0.000000
4210.761208,-962.267725,-8273.831378,-814.226536
4210.761533,-296.082377,-8886.707777,-666.185348
4210.761857,814.226536,-7584.345430,-444.123565
4210.762181,666.185348,-9193.145976,-740.205942
4210.762505,0.000000,-8273.831378,-296.082377
4210.762830,222.061783,-8503.660028,-740.205942
4210.763154,-296.082377,-8273.831378,-518.144159
4210.763478,-1184.329507,-9116.536426,-296.082377
4210.763802,-888.247130,-8350.440928,-296.082377
4210.764127,148.041188,-8656.879127,222.061783
4210.764451,1776.494261,-7660.954980,-592.164754
4210.764775,2812.782580,-9039.926876,-518.144159
4210.765099,3330.926739,-8044.002729,0.000000
4210.765424,2442.679609,-8733.488677,-444.123565
4210.765748,1628.453072,-7967.393179,-1258.350101
4210.766072,814.226536,-9116.536426,-1184.329507
4210.766396,-1184.329507,-8886.707777,-1036.288319
4210.766721,-1776.494261,-8886.707777,-1184.329507
4210.767045,-1776.494261,-8810.098227,-1036.288319
4210.767369,0.000000,-8733.488677,-222.061783
4210.767693,0.000000,-8197.221829,-1332.370696
4210.768018,0.000000,-9576.193725,-1332.370696
4210.768342,-1776.494261,-8733.488677,-1184.329507
4210.768666,814.226536,-9193.145976,-1480.411884
4210.768990,-1036.288319,-8427.050478,-1184.329507
4210.769315,0.000000,-9193.145976,814.226536
4210.769639,-518.144159,-8044.002729,-296.082377
4210.769963,1184.329507,-8963.317327,0.000000
4210.770287,2812.782580,-8886.707777,-814.226536
4210.770612,2886.803174,-9039.926876,296.082377
4210.770936,1850.514855,-8273.831378,-962.267725
4210.771260,1406.391290,-9039.926876,-666.185348
4210.771584,1998.556043,-8273.831378,-370.102971
4210.771909,-888.247130,-7814.174080,0.000000
4210.772233,-666.185348,-8963.317327,296.082377
4210.772557,1184.329507,-8963.317327,74.020594
4210.772881,1924.535449,-7890.783629,-1110.308913
4210.773206,2368.659014,-8733.488677,-592.164754
4210.773530,1554.432478,-7354.516781,-962.267725
4210.773854,518.144159,-9422.974625,-666.185348
4210.774178,-740.205942,-8810.098227,-1258.350101
4210.774503,-1332.370696,-9346.365076,74.020594
4210.774827,-2960.823768,-8580.269578,0.000000
4210.775151,-2516.700203,-9346.365076,0.000000
4210.775475,-962.267725,-7584.345430,592.164754
4210.775799,1110.308913,-7431.126331,518.144159
4210.776124,2368.659014,-7967.393179,-370.102971
4210.776448,3627.009116,-8197.221829,222.061783
4210.776772,2886.803174,-7660.954980,-222.061783
4210.777096,3256.906145,-8733.488677,0.000000
4210.777421,2738.761985,-9193.145976,-1110.308913
4210.777745,666.185348,-9346.365076,-444.123565
4210.778069,666.185348,-8656.879127,222.061783
4210.778393,148.041188,-9346.365076,-444.123565
4210.778718,-1258.350101,-9269.755526,-296.082377
4210.779042,-518.144159,-8044.002729,-148.041188
4210.779366,4589.276840,-9039.926876,740.205942
4210.779690,-888.247130,-8810.098227,-1628.453072
4210.780015,-1036.288319,-7277.907231,-1702.473667
4210.780339,-2220.617826,-8427.050478,2146.597232
4210.780663,-3034.844362,-6588.421283,-2516.700203
4210.780987,518.144159,-10112.460574,2072.576638
4210.781312,2146.597232,-7967.393179,-962.267725
4210.781636,2368.659014,-8810.098227,1480.411884
4210.781960,2886.803174,-7584.345430,-1702.473667
4210.782284,2368.659014,-10189.070123,1628.453072
4210.782609,3404.947333,-8733.488677,-814.226536
4210.782933,1628.453072,-9039.926876,-1258.350101
4210.783257,-1406.391290,-9039.926876,370.102971
4210.783581,-2664.741391,-8197.221829,-888.247130
4210.783906,-962.267725,-9269.755526,-592.164754
4210.784230,-1480.411884,-7890.783629,-1332.370696
4210.784554,148.041188,-8733.488677,296.082377
4210.784878,1480.411884,-7584.345430,-1628.453072
4210.785203,1258.350101,-10495.508323,-666.185348
4210.785527,814.226536,-8427.050478,-1258.350101
4210.785851,-1036.288319,-9116.536426,-666.185348
4210.786175,-2664.741391,-8886.707777,-1628.453072
4210.786500,-592.164754,-9039.926876,1184.329507
4210.786824,148.041188,-8580.269578,-592.164754
4210.787148,74.020594,-9039.926876,814.226536
4210.787472,2072.576638,-7584.345430,-962.267725
4210.787797,1702.473667,-9039.926876,-370.102971
4210.788121,3330.926739,-9193.145976,-444.123565
4210.788445,1036.288319,-8197.221829,-740.205942
4210.788769,1332.370696,-9346.365076,74.020594
4210.789094,-888.247130,-8120.612279,-444.123565
4210.789418,0.000000,-9576.193725,-814.226536
4210.789742,592.164754,-9269.755526,-296.082377
4210.790066,962.267725,-8120.612279,-666.185348
4210.790391,2664.741391,-8810.098227,-1036.288319
4210.790715,1406.391290,-8350.440928,-1258.350101
4210.791039,74.020594,-9269.755526,-222.061783
4210.791363,-2590.720797,-8197.221829,-1258.350101
4210.791688,-2368.659014,-9193.145976,0.000000
4210.792012,-2368.659014,-7814.174080,-814.226536
4210.792336,-1628.453072,-9039.926876,962.267725
4210.792660,-666.185348,-7201.297681,-518.144159
4210.792984,2368.659014,-8503.660028,222.061783
4210.793309,3775.050304,-7660.954980,-888.247130
4210.793633,3775.050304,-9193.145976,0.000000
4210.793957,3330.926739,-8656.879127,-518.144159
4210.794281,2072.576638,-8810.098227,296.082377
4210.794606,1628.453072,-8886.707777,-1110.308913
4210.794930,74.020594,-8963.317327,814.226536
4210.795254,-444.123565,-8427.050478,-1184.329507
4210.795578,-370.102971,-8810.098227,-740.205942
4210.795903,1110.308913,-8810.098227,-740.205942
4210.796227,1110.308913,-7814.174080,296.082377
4210.796551,370.102971,-8580.269578,-518.144159
4210.796875,296.082377,-7660.954980,-296.082377
4210.797200,518.144159,-8886.707777,-222.061783
4210.797524,-518.144159,-8044.002729,-1258.350101
4210.797848,-592.164754,-9039.926876,592.164754
4210.798172,0.000000,-8503.660028,0.000000
4210.798497,962.267725,-9116.536426,666.185348
4210.798821,2146.597232,-8350.440928,222.061783
4210.799145,2886.803174,-8886.707777,518.144159
4210.799469,1184.329507,-8197.221829,0.000000
4210.799794,1480.411884,-9193.145976,-444.123565
4210.800118,296.082377,-8350.440928,-888.247130
4210.800442,-592.164754,-8503.660028,148.041188
4210.800766,-2072.576638,-7967.393179,-962.267725
4210.801091,296.082377,-8886.707777,296.082377
4210.801415,0.000000,-7814.174080,-740.205942
4210.801739,1332.370696,-8656.879127,-296.082377
4210.802063,1776.494261,-8120.612279,-1184.329507
4210.802388,444.123565,-10342.289223,-370.102971
4210.802712,-1258.350101,-7890.783629,-1110.308913
4210.803036,-814.226536,-9499.584175,-444.123565
4210.803360,-2664.741391,-9039.926876,-592.164754
4210.803685,-2516.700203,-9193.145976,592.164754
4210.804009,-1850.514855,-7890.783629,-592.164754
4210.804333,962.267725,-9039.926876,888.247130
4210.804657,2294.638420,-7354.516781,-740.205942
4210.804982,3182.885551,-8427.050478,0.000000
4210.805306,3034.844362,-8273.831378,-814.226536
4210.805630,2590.720797,-9039.926876,-444.123565
4210.805954,1554.432478,-8963.317327,0.000000
4210.806279,-444.123565,-9193.145976,0.000000
4210.806603,-1850.514855,-9269.755526,-666.185348
4210.806927,-814.226536,-9039.926876,-740.205942
4210.807251,-222.061783,-9422.974625,-222.061783
4210.807576,370.102971,-8197.221829,-740.205942
4210.807900,814.226536,-8810.098227,0.000000
4210.808224,-222.061783,-7507.735880,-1406.391290
4210.808548,-592.164754,-9499.584175,-222.061783
4210.808873,-1258.350101,-7660.954980,-888.247130
4210.809197,-1776.494261,-9269.755526,592.164754
4210.809521,-888.247130,-7890.783629,-1036.288319
4210.809845,592.164754,-9422.974625,370.102971
4210.810169,1998.556043,-8120.612279,-592.164754
4210.810494,3182.885551,-8810.098227,-296.082377
4210.810818,1776.494261,-8120.612279,-592.164754
4210.811142,2220.617826,-9116.536426,0.000000
4210.811466,1184.329507,-7660.954980,-370.102971
4210.811791,888.247130,-8350.440928,148.041188
4210.812115,444.123565,-8656.879127,0.000000
4210.812439,296.082377,-7584.345430,-740.205942
4210.812763,1258.350101,-8580.269578,-1110.308913
4210.813088,1924.535449,-8427.050478,-518.144159
4210.813412,2664.741391,-8963.317327,0.000000
4210.813736,592.164754,-7967.393179,-1036.288319
4210.814060,740.205942,-9269.755526,148.041188
4210.814385,-814.226536,-8503.660028,-1184.329507
4210.814709,-1702.473667,-9576.193725,-740.205942
4210.815033,-2368.659014,-8120.612279,370.102971
4210.815357,-962.267725,-8503.660028,-370.102971
4210.815682,888.247130,-7814.174080,0.000000
4210.816006,2590.720797,-8503.660028,-296.082377
4210.816330,2516.700203,-7890.783629,592.164754
4210.816654,2886.803174,-7354.516781,-666.185348
4210.816979,2960.823768,-9806.022374,-518.144159
4210.817303,2664.741391,-7967.393179,-370.102971
4210.817627,1702.473667,-8886.707777,-296.082377
4210.817951,-1110.308913,-9039.926876,-444.123565
4210.818276,-666.185348,-9882.631924,-518.144159
4210.818600,-1110.308913,-8503.660028,74.020594
4210.818924,-2738.761985,-8350.440928,-1776.494261
4210.819248,-222.061783,-8580.269578,-1480.411884
4210.819573,-2220.617826,-10495.508323,-148.041188
4210.819897,-2738.761985,-7814.174080,-296.082377
4210.820221,-962.267725,-7277.907231,-1924.535449
4210.820545,740.205942,-10265.679673,-370.102971
4210.820870,1628.453072,-8273.831378,222.061783
4210.821194,1702.473667,-7584.345430,-888.247130
4210.821518,2886.803174,-9422.974625,370.102971
4210.821842,2812.782580,-8350.440928,-740.205942
4210.822167,2664.741391,-9193.145976,592.164754
4210.822491,1184.329507,-9116.536426,-1036.288319
4210.822815,666.185348,-8886.707777,0.000000
4210.823139,-1554.432478,-8350.440928,-370.102971
4210.823464,-2072.576638,-9193.145976,-888.247130
4210.823788,-1554.432478,-8810.098227,592.164754
4210.824112,-2368.659014,-7507.735880,-666.185348
4210.824436,222.061783,-9193.145976,0.000000
4210.824761,888.247130,-7737.564530,-1110.308913
4210.825085,1998.556043,-9959.241474,-1110.308913
4210.825409,666.185348,-7431.126331,-1332.370696
4210.825733,-370.102971,-9576.193725,0.000000
4210.826058,-2812.782580,-8656.879127,-666.185348
4210.826382,-3404.947333,-9193.145976,370.102971
4210.826706,-1702.473667,-8733.488677,296.082377
4210.827030,-518.144159,-8273.831378,666.185348
4210.827354,1776.494261,-8350.440928,296.082377
4210.827679,3108.864956,-7814.174080,296.082377
4210.828003,2590.720797,-8120.612279,0.000000
4210.828327,2368.659014,-7737.564530,0.000000
4210.828651,1924.535449,-8733.488677,-444.123565
4210.828976,0.000000,-7890.783629,296.082377
4210.829300,148.041188,-8273.831378,222.061783
4210.829624,962.267725,-8733.488677,0.000000
4210.829949,1110.308913,-8733.488677,-444.123565
4210.830273,1998.556043,-8963.317327,-148.041188
4210.830597,1332.370696,-8503.660028,-444.123565
4210.830921,444.123565,-9269.755526,370.102971
4210.831246,-1554.432478,-8273.831378,-518.144159
4210.831570,-2368.659014,-8273.831378,0.000000
4210.831894,-1776.494261,-8810.098227,-592.164754
4210.832218,-518.144159,-8963.317327,0.000000
4210.832543,-592.164754,-7507.735880,74.020594
4210.832867,1258.350101,-8427.050478,0.000000
4210.833191,4515.256246,-8427.050478,0.000000
4210.833515,2664.741391,-7890.783629,-296.082377
4210.833840,4737.318029,-9193.145976,444.123565
4210.834164,1406.391290,-8044.002729,-222.061783
4210.834488,962.267725,-10035.851024,518.144159
4210.834812,0.000000,-7814.174080,-1332.370696
4210.835137,-2146.597232,-9959.241474,0.000000
4210.835461,-888.247130,-8197.221829,-888.247130
4210.835785,0.000000,-7737.564530,-740.205942
4210.836109,1110.308913,-8886.707777,-666.185348
4210.836434,1110.308913,-8503.660028,-1036.288319
4210.836758,1258.350101,-8886.707777,-222.061783
4210.837082,0.000000,-8120.612279,-1776.494261
4210.837406,-370.102971,-9806.022374,-888.247130
4210.837731,-1628.453072,-9346.365076,-1110.308913
4210.838055,-1110.308913,-9039.926876,-148.041188
4210.838379,222.061783,-8733.488677,-666.185348
4210.838703,1258.350101,-8656.879127,0.000000
4210.839028,1850.514855,-9499.584175,0.000000
4210.839352,2220.617826,-7431.126331,-222.061783
4210.839676,2738.761985,-9193.145976,148.041188
4210.840000,1258.350101,-7814.174080,-1850.514855
4210.840325,518.144159,-8886.707777,0.000000
4210.840649,-518.144159,-8810.098227,-222.061783
4210.840973,444.123565,-9806.022374,0.000000
4210.841297,-1110.308913,-7967.393179,-1406.391290
4210.841622,518.144159,-10189.070123,592.164754
4210.841946,0.000000,-7201.297681,-2072.576638
4210.842270,370.102971,-9882.631924,74.020594
4210.842594,-592.164754,-8656.879127,-1702.473667
4210.842919,-1776.494261,-8810.098227,-518.144159
4210.843243,-2664.741391,-8810.098227,-740.205942
4210.843567,-2516.700203,-9116.536426,370.102971
4210.843891,0.000000,-9116.536426,-222.061783
4210.844216,1184.329507,-7354.516781,-518.144159
4210.844540,2220.617826,-9422.974625,444.123565
4210.844864,1258.350101,-8044.002729,0.000000
4210.845188,2220.617826,-8733.488677,592.164754
4210.845513,1702.473667,-7660.954980,-518.144159
4210.845837,1406.391290,-9959.241474,444.123565
4210.846161,148.041188,-7967.393179,-370.102971
4210.846485,-1480.411884,-9422.974625,222.061783
4210.846810,-1258.350101,-8120.612279,-814.226536
4210.847134,0.000000,-8503.660028,74.020594
4210.847458,888.247130,-7737.564530,-1110.308913
4210.847783,740.205942,-9039.926876,518.144159
4210.848107,888.247130,-8656.879127,0.000000
4210.848431,-370.102971,-8503.660028,-222.061783
4210.848755,0.000000,-8733.488677,-592.164754
4210.849080,-814.226536,-8503.660028,-296.082377
4210.849404,-1332.370696,-8886.707777,370.102971
4210.849728,0.000000,-8273.831378,148.041188
4210.850052,1702.473667,-8120.612279,74.020594
4210.850377,1406.391290,-8503.660028,962.267725
4210.850701,2516.700203,-7890.783629,-296.082377
4210.851025,2294.638420,-8963.317327,-222.061783
4210.851349,1702.473667,-8580.269578,-296.082377
4210.851674,1184.329507,-9039.926876,-740.205942
4210.851998,-962.267725,-8044.002729,-666.185348
4210.852322,-814.226536,-9346.365076,74.020594
4210.852646,-370.102971,-7890.783629,-1184.329507
4210.852971,740.205942,-9422.974625,0.000000
4210.853295,370.102971,-7277.907231,-740.205942
4210.853619,740.205942,-9959.241474,0.000000
4210.853943,444.123565,-8656.879127,-1850.514855
4210.854268,-370.102971,-9269.755526,-370.102971
4210.854592,-1480.411884,-8503.660028,-1850.514855
4210.854916,-1702.473667,-9499.584175,-222.061783
4210.855240,-1702.473667,-8197.221829,-592.164754
4210.855565,0.000000,-9116.536426,444.123565
4210.855889,1258.350101,-7967.393179,-1258.350101
4210.856213,2590.720797,-9116.536426,518.144159
4210.856537,2590.720797,-7584.345430,-888.247130
4210.856862,2368.659014,-8963.317327,-74.020594
4210.857186,1036.288319,-8503.660028,-888.247130
4210.857510,1850.514855,-8810.098227,0.000000
4210.857834,518.144159,-8810.098227,-1480.411884
4210.858159,-1110.308913,-9422.974625,-370.102971
4210.858483,-888.247130,-8963.317327,-444.123565
4210.858807,296.082377,-8580.269578,-444.123565
4210.859131,1036.288319,-8733.488677,-740.205942
4210.859456,148.041188,-8963.317327,-666.185348
4210.859780,0.000000,-8810.098227,-814.226536
4210.860104,-888.247130,-8427.050478,-1184.329507
4210.860428,-1036.288319,-9039.926876,-296.082377
4210.860753,-592.164754,-8963.317327,296.082377
4210.861077,-888.247130,-7890.783629,-296.082377
4210.861401,1110.308913,-9576.193725,0.000000
4210.861725,814.226536,-7431.126331,0.000000
4210.862050,1998.556043,-9039.926876,0.000000
4210.862374,2294.638420,-8810.098227,0.000000
4210.862698,518.144159,-8350.440928,0.000000
4210.863022,1036.288319,-7890.783629,-222.061783
4210.863347,296.082377,-8427.050478,-962.267725
4210.863671,-296.082377,-9346.365076,444.123565
4210.863995,-444.123565,-7431.126331,-370.102971
4210.864319,1554.432478,-8273.831378,0.000000
4210.864644,3256.906145,-8656.879127,-592.164754
4210.864968,1850.514855,-8273.831378,-1332.370696
4210.865292,666.185348,-8427.050478,0.000000
4210.865616,-296.082377,-7660.954980,-296.082377
4210.865941,-666.185348,-9193.145976,0.000000
4210.866265,-1702.473667,-8273.831378,-518.144159
4210.866589,-1924.535449,-8580.269578,370.102971
4210.866914,0.000000,-8350.440928,296.082377
4210.867238,1480.411884,-7507.735880,-222.061783
4210.867562,3552.988522,-8503.660028,0.000000
4210.867886,3330.926739,-7967.393179,0.000000
4210.868211,2368.659014,-8350.440928,444.123565
4210.868535,888.247130,-8120.612279,-444.123565
4210.868859,962.267725,-8580.269578,-222.061783
4210.869183,-592.164754,-9116.536426,-518.144159
4210.869508,-1554.432478,-8656.879127,296.082377
4210.869832,-888.247130,-8120.612279,-666.185348
4210.870156,-444.123565,-8733.488677,-518.144159
4210.870480,1184.329507,-8580.269578,-148.041188
4210.870805,2886.803174,-8120.612279,296.082377
4210.871129,370.102971,-9193.145976,-814.226536
4210.871453,740.205942,-8427.050478,-1036.288319
4210.871777,-814.226536,-8656.879127,-666.185348
4210.872102,-2738.761985,-8733.488677,-666.185348
4210.872426,-296.082377,-9193.145976,0.000000
4210.872750,740.205942,-8580.269578,-444.123565
4210.873074,1406.391290,-8810.098227,592.164754
4210.873399,1480.411884,-7201.297681,-1110.308913
4210.873723,2072.576638,-10189.070123,-222.061783
4210.874047,740.205942,-7584.345430,-666.185348
4210.874371,1332.370696,-9652.803275,-518.144159
4210.874696,148.041188,-8810.098227,0.000000
4210.875020,-1036.288319,-9039.926876,-740.205942
4210.875344,-888.247130,-8503.660028,-444.123565
4210.875668,-444.123565,-8810.098227,-666.185348
4210.875993,1110.308913,-8733.488677,-1110.308913
4210.876317,74.020594,-8350.440928,-1258.350101
4210.876641,444.123565,-8733.488677,-666.185348
4210.876965,0.000000,-9116.536426,-1406.391290
4210.877290,-1110.308913,-8886.707777,-592.164754
4210.877614,-1480.411884,-9422.974625,222.061783
4210.877938,-1628.453072,-9039.926876,-814.226536
4210.878262,-2368.659014,-9422.974625,0.000000
4210.878587,1850.514855,-7890.783629,-666.185348
4210.878911,518.144159,-8197.221829,74.020594
4210.879235,2072.576638,-8963.317327,-592.164754
4210.879559,2072.576638,-8350.440928,0.000000
4210.879884,1406.391290,-8733.488677,-888.247130
4210.880208,740.205942,-8656.879127,-296.082377
4210.880532,1184.329507,-8580.269578,-592.164754
4210.880856,-1110.308913,-9116.536426,-296.082377
4210.881181,592.164754,-8810.098227,222.061783
4210.881505,740.205942,-8810.098227,-296.082377
4210.881829,1850.514855,-8427.050478,-222.061783
4210.882153,148.041188,-8580.269578,-444.123565
4210.882478,0.000000,-8580.269578,-444.123565
4210.882802,-592.164754,-8580.269578,0.000000
4210.883126,-888.247130,-8580.269578,0.000000
4210.883450,-1406.391290,-8120.612279,-148.041188
4210.883775,-370.102971,-7890.783629,740.205942
4210.884099,1998.556043,-8580.269578,-148.041188
4210.884423,2664.741391,-8810.098227,0.000000
4210.884748,3182.885551,-8273.831378,444.123565
4210.885072,2590.720797,-8656.879127,-518.144159
4210.885396,2516.700203,-8886.707777,148.041188
4210.885720,1036.288319,-8503.660028,0.000000
4210.886045,370.102971,-8656.879127,-518.144159
4210.886369,-962.267725,-8197.221829,-222.061783
4210.886693,-1628.453072,-8427.050478,0.000000
4210.887017,-1110.308913,-7890.783629,0.000000
4210.887342,814.226536,-7814.174080,-296.082377
4210.887666,1036.288319,-7967.393179,-666.185348
4210.887990,1332.370696,-9346.365076,0.000000
4210.888314,592.164754,-7354.516781,-1110.308913
4210.888639,1110.308913,-9269.755526,-592.164754
4210.888963,-518.144159,-8350.440928,-1776.494261
4210.889287,-1998.556043,-9269.755526,0.000000
4210.889611,-1554.432478,-9039.926876,148.041188
4210.889936,592.164754,-8810.098227,-296.082377
4210.890260,1776.494261,-9193.145976,-666.185348
4210.890584,1110.308913,-8120.612279,-740.205942
4210.890908,1184.329507,-8810.098227,0.000000
4210.891233,962.267725,-8120.612279,-666.185348
4210.891557,1110.308913,-8580.269578,-1110.308913
4210.891881,74.020594,-9346.365076,-1184.329507
4210.892205,-888.247130,-8886.707777,-444.123565
4210.892530,-518.144159,-8810.098227,-814.226536
4210.892854,1776.494261,-8733.488677,-740.205942
4210.893178,2220.617826,-9039.926876,-592.164754
4210.893502,1406.391290,-8580.269578,-962.267725
4210.893827,962.267725,-9116.536426,-518.144159
4210.894151,148.041188,-8886.707777,-1036.288319
4210.894475,-1036.288319,-9729.412825,-1036.288319
4210.894799,-1702.473667,-8350.440928,-962.267725
4210.895124,-2368.659014,-9346.365076,296.082377
4210.895448,-1628.453072,-8120.612279,-740.205942
4210.895772,-666.185348,-8733.488677,-814.226536
4210.896096,1184.329507,-8427.050478,-888.247130
4210.896421,2368.659014,-8733.488677,0.000000
4210.896745,1480.411884,-8120.612279,-1036.288319
4210.897069,1924.535449,-9116.536426,-518.144159
4210.897393,222.061783,-8810.098227,-1332.370696
4210.897718,74.020594,-9652.803275,-148.041188
4210.898042,-518.144159,-7890.783629,-666.185348
4210.898366,-666.185348,-9269.755526,222.061783
4210.898690,444.123565,-7890.783629,-888.247130
4210.899015,740.205942,-8350.440928,-592.164754
4210.899339,592.164754,-8810.098227,-296.082377
4210.899663,222.061783,-7354.516781,-518.144159
4210.899987,74.020594,-7967.393179,370.102971
4210.900312,-740.205942,-7967.393179,-222.061783
4210.900636,-518.144159,-8963.317327,518.144159
4210.900960,888.247130,-8044.002729,222.061783
4210.901284,1554.432478,-8580.269578,-296.082377
4210.901609,2664.741391,-8503.660028,0.000000
4210.901933,4219.173869,-8503.660028,222.061783
4210.902257,2960.823768,-8656.879127,740.205942
4210.902581,1110.308913,-8350.440928,0.000000
4210.902906,-148.041188,-8580.269578,-296.082377
4210.903230,0.000000,-8273.831378,-444.123565
4210.903554,-1036.288319,-9039.926876,-148.041188
4210.903879,-1184.329507,-8427.050478,148.041188
4210.904203,-518.144159,-7737.564530,296.082377
4210.904527,1702.473667,-7354.516781,-592.164754
4210.904851,1776.494261,-9346.365076,-74.020594
4210.905176,1110.308913,-7431.126331,-740.205942
4210.905500,1110.308913,-9806.022374,148.041188
4210.905824,222.061783,-8120.612279,-1184.329507
4210.906148,-814.226536,-10265.679673,0.000000
4210.906473,-1332.370696,-8044.002729,-296.082377
4210.906797,148.041188,-9652.803275,666.185348
4210.907121,888.247130,-8120.612279,0.000000
4210.907445,3330.926739,-8886.707777,296.082377
4210.907770,1110.308913,-7201.297681,-1258.350101
4210.908094,2072.576638,-8963.317327,-296.082377
4210.908418,1184.329507,-8580.269578,-1480.411884
4210.908742,74.020594,-9269.755526,-148.041188
4210.909067,-1110.308913,-7890.783629,-1036.288319
4210.909391,-2072.576638,-9499.584175,-444.123565
4210.909715,-814.226536,-8503.660028,-1110.308913
4210.910039,296.082377,-9652.803275,-444.123565
4210.910364,0.000000,-9116.536426,-1110.308913
4210.910688,-148.041188,-8963.317327,-296.082377
4210.911012,0.000000,-9039.926876,-1258.350101
4210.911336,518.144159,-9576.193725,-962.267725
4210.911661,-592.164754,-9116.536426,-1480.411884
4210.911985,-1554.432478,-8963.317327,-814.226536
4210.912309,222.061783,-8120.612279,-222.061783
4210.912633,-296.082377,-9039.926876,-296.082377
4210.912958,1554.432478,-8503.660028,-370.102971
4210.913282,2220.617826,-7814.174080,-296.082377
4210.913606,2516.700203,-9116.536426,0.000000
4210.913930,1776.494261,-9116.536426,0.000000
4210.914255,592.164754,-7814.174080,-1480.411884
4210.914579,-222.061783,-8886.707777,444.123565
4210.914903,-1184.329507,-7660.954980,-1036.288319
4210.915227,-1258.350101,-8810.098227,0.000000
4210.915552,-370.102971,-7584.345430,0.000000
4210.915876,296.082377,-8810.098227,444.123565
4210.916200,1110.308913,-8733.488677,-666.185348
4210.916524,444.123565,-9346.365076,-444.123565
4210.916849,296.082377,-8503.660028,-1184.329507
4210.917173,-814.226536,-8886.707777,-666.185348
4210.917497,-2368.659014,-8503.660028,-814.226536
4210.917821,222.061783,-9346.365076,1480.411884
4210.918146,-222.061783,-7277.907231,-666.185348
4210.918470,74.020594,-8963.317327,1850.514855
4210.918794,2812.782580,-7431.126331,-222.061783
4210.919118,2368.659014,-8656.879127,444.123565
4210.919443,1480.411884,-7814.174080,0.000000
4210.919767,3627.009116,-9116.536426,148.041188
4210.920091,444.123565,-7124.688131,-1184.329507
4210.920415,148.041188,-8580.269578,370.102971
4210.920740,-1036.288319,-7354.516781,-296.082377
4210.921064,444.123565,-8273.831378,-592.164754
4210.921388,1850.514855,-8580.269578,222.061783
4210.921713,518.144159,-7814.174080,-814.226536
4210.922037,1110.308913,-8044.002729,888.247130
4210.922361,1406.391290,-8273.831378,-1776.494261
4210.922685,0.000000,-8733.488677,-444.123565
4210.923010,148.041188,-7967.393179,-888.247130
4210.923334,-1850.514855,-8886.707777,0.000000
4210.923658,-1406.391290,-8733.488677,-518.144159
4210.923982,-962.267725,-8120.612279,222.061783
4210.924307,1036.288319,-8886.707777,-222.061783
4210.924631,1776.494261,-8810.098227,-444.123565
4210.924955,2738.761985,-9193.145976,-296.082377
4210.925279,1776.494261,-8197.221829,-888.247130
4210.925604,2220.617826,-8886.707777,-666.185348
4210.925928,1480.411884,-8427.050478,-740.205942
4210.926252,-444.123565,-8733.488677,-222.061783
4210.926576,-370.102971,-9039.926876,-962.267725
4210.926901,-740.205942,-8963.317327,0.000000
4210.927225,1258.350101,-8580.269578,-740.205942
4210.927549,592.164754,-9346.365076,-740.205942
4210.927873,296.082377,-8427.050478,-1332.370696
4210.928198,0.000000,-8656.879127,-518.144159
4210.928522,148.041188,-8886.707777,-1332.370696
4210.928846,-1110.308913,-8733.488677,-962.267725
4210.929170,-2072.576638,-8580.269578,-814.226536
4210.929494,-1406.391290,-9269.755526,222.061783
4210.929819,-296.082377,-8963.317327,0.000000
4210.930143,2442.679609,-9193.145976,0.000000
4210.930467,2146.597232,-8810.098227,-370.102971
4210.930791,2812.782580,-8733.488677,296.082377
4210.931115,1332.370696,-8350.440928,-296.082377
4210.931439,814.226536,-8886.707777,-370.102971
4210.931764,0.000000,-8656.879127,-592.164754
4210.932088,-1406.391290,-8580.269578,-296.082377
4210.932412,-1036.288319,-8350.440928,-592.164754
4210.932736,-740.205942,-7660.954980,-666.185348
4210.933060,1184.329507,-8120.612279,74.020594
4210.933385,1184.329507,-7890.783629,-740.205942
4210.933709,1332.370696,-8656.879127,-592.164754
4210.934033,666.185348,-9806.022374,148.041188
4210.934357,-962.267725,-8733.488677,-222.061783
4210.934681,-370.102971,-9039.926876,222.061783
4210.935005,-1850.514855,-9116.536426,-74.020594
4210.935330,-1332.370696,-9193.145976,222.061783
4210.935654,0.000000,-7584.345430,148.041188
4210.935978,1184.329507,-8273.831378,148.041188
4210.936302,2294.638420,-8350.440928,370.102971
4210.936626,2368.659014,-7814.174080,296.082377
4210.936951,814.226536,-8350.440928,-148.041188
4210.937275,2368.659014,-8350.440928,0.000000
4210.937599,1184.329507,-8197.221829,-814.226536
4210.937923,-814.226536,-8273.831378,296.082377
4210.938247,444.123565,-8427.050478,-148.041188
4210.938571,888.247130,-8044.002729,148.041188
4210.938896,1036.288319,-8350.440928,-296.082377
4210.939220,2072.576638,-7890.783629,0.000000
4210.939544,814.226536,-8656.879127,-592.164754
4210.939868,370.102971,-8733.488677,-814.226536
4210.940192,-296.082377,-8427.050478,-1110.308913
4210.940517,-1702.473667,-9039.926876,444.123565
4210.940841,-1480.411884,-8350.440928,222.061783
4210.941165,-222.061783,-8044.002729,-666.185348
4210.941489,1036.288319,-8886.707777,148.041188
4210.941813,2368.659014,-8273.831378,-222.061783
4210.942137,2664.741391,-8733.488677,-814.226536
4210.942462,1332.370696,-8427.050478,74.020594
4210.942786,2072.576638,-8350.440928,-444.123565
4210.943110,962.267725,-8427.050478,-444.123565
4210.943434,-1036.288319,-8427.050478,-814.226536
4210.943758,-1850.514855,-8963.317327,-888.247130
4210.944083,-444.123565,-8503.660028,-1110.308913
4210.944407,962.267725,-8273.831378,-666.185348
4210.944731,962.267725,-9193.145976,-814.226536
4210.945055,814.226536,-8273.831378,-444.123565
4210.945379,-296.082377,-8886.707777,-148.041188
4210.945703,-666.185348,-8350.440928,-1776.494261
4210.946028,296.082377,-9269.755526,-814.226536
4210.946352,-1406.391290,-8350.440928,-740.205942
4210.946676,-148.041188,-9729.412825,148.041188
4210.947000,148.041188,-8197.221829,-740.205942
4210.947324,1850.514855,-10189.070123,0.000000
4210.947649,1184.329507,-7660.954980,-1554.432478
4210.947973,888.247130,-9499.584175,-370.102971
4210.948297,1480.411884,-8427.050478,-1554.432478
4210.948621,1406.391290,-8580.269578,-962.267725
4210.948945,148.041188,-8810.098227,-296.082377
4210.949270,-1480.411884,-8197.221829,-222.061783
4210.949594,-1184.329507,-8580.269578,-962.267725
4210.949918,592.164754,-8886.707777,-666.185348
4210.950242,2294.638420,-8580.269578,-370.102971
4210.950566,2368.659014,-8273.831378,222.061783
4210.950890,962.267725,-8427.050478,-888.247130
4210.951215,888.247130,-8963.317327,-74.020594
4210.951539,-2146.597232,-8273.831378,-1184.329507
4210.951863,-740.205942,-9806.022374,222.061783
4210.952187,-2664.741391,-7814.174080,0.000000
4210.952511,-1998.556043,-9422.974625,740.205942
4210.952836,0.000000,-7737.564530,0.000000
4210.953160,888.247130,-8044.002729,370.102971
4210.953484,1406.391290,-8810.098227,-814.226536
4210.953808,3256.906145,-8273.831378,740.205942
4210.954132,2368.659014,-7584.345430,74.020594
4210.954456,666.185348,-8886.707777,74.020594
4210.954781,888.247130,-8197.221829,-148.041188
4210.955105,-222.061783,-9039.926876,74.020594
4210.955429,-296.082377,-8733.488677,0.000000
4210.955753,222.061783,-7584.345430,370.102971
4210.956077,370.102971,-7660.954980,-296.082377
4210.956402,888.247130,-7967.393179,-444.123565
4210.956726,296.082377,-8350.440928,74.020594
4210.957050,-296.082377,-8044.002729,-370.102971
4210.957374,-222.061783,-8810.098227,592.164754
4210.957698,-814.226536,-8197.221829,0.000000
4210.958022,-444.123565,-9193.145976,0.000000
4210.958347,1480.411884,-8044.002729,-222.061783
4210.958671,2368.659014,-8810.098227,0.000000
4210.958995,1776.494261,-7967.393179,-296.082377
4210.959319,2812.782580,-8044.002729,592.164754
4210.959643,2590.720797,-8733.488677,-222.061783
4210.959968,814.226536,-8350.440928,-222.061783
4210.960292,962.267725,-9499.584175,-962.267725
4210.960616,-1406.391290,-8427.050478,-1480.411884
4210.960940,-1406.391290,-8656.879127,-444.123565
4210.961264,0.000000,-7967.393179,-1184.329507
4210.961588,2516.700203,-8503.660028,-740.205942
4210.961913,1924.535449,-8810.098227,-370.102971
4210.962237,962.267725,-8427.050478,-666.185348
4210.962561,-370.102971,-9652.803275,-296.082377
4210.962885,-1702.473667,-8656.879127,-814.226536
4210.963209,-1628.453072,-10035.851024,-444.123565
4210.963534,-3034.844362,-8656.879127,-1110.308913
4210.963858,-1184.329507,-9193.145976,-222.061783
