#time,accel_x,accel_y,accel_z
5733.455393,222.061783,-8503.660028,-518.144159
5733.455717,592.164754,-8350.440928,74.020594
5733.456042,444.123565,-8350.440928,-370.102971
5733.456366,518.144159,-8733.488677,-444.123565
5733.456691,222.061783,-8580.269578,-518.144159
5733.457015,296.082377,-7967.393179,0.000000
5733.457340,296.082377,-8580.269578,-222.061783
5733.457664,296.082377,-8427.050478,-296.082377
5733.457989,740.205942,-8503.660028,-666.185348
5733.458313,666.185348,-8810.098227,-444.123565
5733.458638,296.082377,-8427.050478,-444.123565
5733.458962,444.123565,-8580.269578,-296.082377
5733.459287,518.144159,-8580.269578,-148.041188
5733.459611,444.123565,-8427.050478,-444.123565
5733.459936,666.185348,-8350.440928,-592.164754
5733.460260,592.164754,-8350.440928,-370.102971
5733.460585,518.144159,-8580.269578,-518.144159
5733.460909,296.082377,-8733.488677,-444.123565
5733.461234,222.061783,-8503.660028,-222.061783
5733.461559,518.144159,-8656.879127,-370.102971
5733.461883,444.123565,-8580.269578,-370.102971
5733.462208,296.082377,-8656.879127,0.000000
5733.462532,296.082377,-8580.269578,-296.082377
5733.462857,370.102971,-8580.269578,0.000000
5733.463181,518.144159,-8273.831378,-222.061783
5733.463506,370.102971,-8656.879127,-296.082377
5733.463830,444.123565,-8503.660028,-222.061783
5733.464155,444.123565,-8427.050478,-592.164754
5733.464479,222.061783,-8886.707777,-518.144159
5733.464804,518.144159,-8503.660028,-370.102971
5733.465128,74.020594,-8656.879127,-444.123565
5733.465453,592.164754,-9039.926876,-370.102971
5733.465777,222.061783,-8733.488677,0.000000
5733.466102,370.102971,-8656.879127,-222.061783
5733.466426,444.123565,-8656.879127,-444.123565
5733.466751,444.123565,-8580.269578,-444.123565
5733.467075,666.185348,-8656.879127,-592.164754
5733.467400,518.144159,-8273.831378,-296.082377
5733.467724,518.144159,-8503.660028,-222.061783
5733.468049,74.020594,-8656.879127,-148.041188
5733.468374,592.164754,-9116.536426,-444.123565
5733.468698,296.082377,-8733.488677,-518.144159
5733.469023,814.226536,-8580.269578,-518.144159
5733.469347,518.144159,-8503.660028,-370.102971
5733.469672,518.144159,-8580.269578,-296.082377
5733.469996,74.020594,-8733.488677,0.000000
5733.470321,592.164754,-8580.269578,-592.164754
5733.470645,370.102971,-8503.660028,-370.102971
5733.470970,296.082377,-8503.660028,-370.102971
5733.471294,74.020594,-8886.707777,74.020594
5733.471619,370.102971,-8580.269578,-296.082377
5733.471943,592.164754,-8503.660028,-444.123565
5733.472268,518.144159,-8503.660028,-296.082377
5733.472592,370.102971,-8427.050478,0.000000
5733.472917,444.123565,-8886.707777,-370.102971
5733.473241,222.061783,-8656.879127,0.000000
5733.473566,370.102971,-8503.660028,-222.061783
5733.473890,444.123565,-8656.879127,-444.123565
5733.474215,370.102971,-8427.050478,0.000000
5733.474539,444.123565,-8273.831378,-666.185348
5733.474864,518.144159,-8733.488677,-444.123565
5733.475189,296.082377,-8580.269578,-74.020594
5733.475513,888.247130,-8886.707777,-518.144159
5733.475838,444.123565,-8580.269578,-518.144159
5733.476162,148.041188,-8580.269578,-222.061783
5733.476487,370.102971,-8580.269578,-370.102971
5733.476811,296.082377,-9193.145976,0.000000
5733.477136,444.123565,-8886.707777,-296.082377
5733.477460,370.102971,-8350.440928,-592.164754
5733.477785,518.144159,-8350.440928,0.000000
5733.478109,148.041188,-8427.050478,-444.123565
5733.478434,370.102971,-9039.926876,0.000000
5733.478758,222.061783,-8580.269578,-296.082377
5733.479083,518.144159,-8503.660028,-222.061783
5733.479407,222.061783,-8733.488677,-222.061783
5733.479732,0.000000,-8656.879127,74.020594
5733.480056,592.164754,-8810.098227,-444.123565
5733.480381,370.102971,-8656.879127,-296.082377
5733.480705,444.123565,-8580.269578,-370.102971
5733.481030,370.102971,-8427.050478,-592.164754
5733.481354,444.123565,-8656.879127,0.000000
5733.481679,74.020594,-8733.488677,-518.144159
5733.482004,444.123565,-8503.660028,-370.102971
5733.482328,296.082377,-8197.221829,-666.185348
5733.482653,222.061783,-8273.831378,-370.102971
5733.482977,370.102971,-8503.660028,-296.082377
5733.483302,444.123565,-8733.488677,-518.144159
5733.483626,222.061783,-8810.098227,-740.205942
5733.483951,444.123565,-8810.098227,-148.041188
5733.484275,296.082377,-8580.269578,-1036.288319
5733.484600,296.082377,-8427.050478,-666.185348
5733.484924,296.082377,-8273.831378,-666.185348
5733.485249,296.082377,-8963.317327,-814.226536
5733.485573,518.144159,-8656.879127,-888.247130
5733.485898,518.144159,-8580.269578,-888.247130
5733.486222,592.164754,-8580.269578,-888.247130
5733.486547,444.123565,-8656.879127,-740.205942
5733.486871,444.123565,-8580.269578,-1332.370696
5733.487196,370.102971,-8733.488677,-814.226536
5733.487520,592.164754,-8350.440928,-962.267725
5733.487845,296.082377,-9116.536426,-888.247130
5733.488169,740.205942,-7814.174080,-444.123565
5733.488494,592.164754,-8427.050478,-814.226536
5733.488818,222.061783,-8427.050478,-740.205942
5733.489143,518.144159,-8656.879127,-518.144159
5733.489468,444.123565,-8580.269578,-962.267725
5733.489792,592.164754,-8197.221829,-740.205942
5733.490117,370.102971,-8580.269578,-814.226536
5733.490441,370.102971,-8733.488677,-740.205942
5733.490766,296.082377,-8427.050478,-962.267725
5733.491090,888.247130,-9039.926876,-962.267725
5733.491415,370.102971,-8656.879127,-888.247130
5733.491739,444.123565,-8503.660028,-592.164754
5733.492064,370.102971,-8427.050478,-962.267725
5733.492388,1184.329507,-8503.660028,-888.247130
5733.492713,814.226536,-8427.050478,-666.185348
5733.493037,962.267725,-8503.660028,-1036.288319
5733.493362,518.144159,-8503.660028,-740.205942
5733.493686,518.144159,-8580.269578,-814.226536
5733.494011,814.226536,-8810.098227,-444.123565
5733.494335,296.082377,-8656.879127,-592.164754
5733.494660,592.164754,-8580.269578,-518.144159
5733.494984,444.123565,-8580.269578,-518.144159
5733.495309,814.226536,-8503.660028,0.000000
5733.495633,74.020594,-8580.269578,-296.082377
5733.495958,444.123565,-8503.660028,-444.123565
5733.496283,518.144159,-8656.879127,-592.164754
5733.496607,518.144159,-8733.488677,-592.164754
5733.496932,370.102971,-8810.098227,-296.082377
5733.497256,296.082377,-8580.269578,-370.102971
5733.497581,518.144159,-8963.317327,0.000000
5733.497905,296.082377,-8580.269578,-444.123565
5733.498230,370.102971,-8886.707777,0.000000
5733.498554,444.123565,-8427.050478,0.000000
5733.498879,222.061783,-8427.050478,0.000000
5733.499203,148.041188,-8503.660028,-296.082377
5733.499528,592.164754,-9193.145976,-518.144159
5733.499852,518.144159,-8733.488677,-296.082377
5733.500177,74.020594,-8733.488677,0.000000
5733.500501,222.061783,-8656.879127,148.041188
5733.500826,296.082377,-8963.317327,0.000000
5733.501150,592.164754,-8886.707777,222.061783
5733.501475,444.123565,-8580.269578,0.000000
5733.501799,666.185348,-8810.098227,0.000000
5733.502124,222.061783,-8350.440928,222.061783
5733.502448,0.000000,-8427.050478,296.082377
5733.502773,74.020594,-8580.269578,222.061783
5733.503098,296.082377,-8350.440928,148.041188
5733.503422,370.102971,-8656.879127,-74.020594
5733.503747,518.144159,-9269.755526,74.020594
5733.504071,148.041188,-8733.488677,148.041188
5733.504396,444.123565,-8503.660028,296.082377
5733.504720,444.123565,-8427.050478,222.061783
5733.505045,740.205942,-8656.879127,222.061783
5733.505369,370.102971,-8350.440928,444.123565
5733.505694,444.123565,-8197.221829,222.061783
5733.506018,222.061783,-8503.660028,148.041188
5733.506343,444.123565,-8503.660028,0.000000
5733.506667,296.082377,-8350.440928,0.000000
5733.506992,666.185348,-8503.660028,-296.082377
5733.507316,296.082377,-8503.660028,296.082377
5733.507641,296.082377,-8503.660028,0.000000
5733.507965,592.164754,-8733.488677,0.000000
5733.508290,518.144159,-8427.050478,148.041188
5733.508614,814.226536,-8503.660028,0.000000
5733.508939,888.247130,-8503.660028,0.000000
5733.509263,740.205942,-8427.050478,0.000000
5733.509588,370.102971,-8580.269578,0.000000
5733.509913,518.144159,-8580.269578,0.000000
5733.510237,444.123565,-8733.488677,148.041188
5733.510562,370.102971,-8656.879127,0.000000
5733.510886,740.205942,-8656.879127,0.000000
5733.511211,296.082377,-8580.269578,74.020594
5733.511535,296.082377,-8580.269578,74.020594
5733.511860,444.123565,-8656.879127,0.000000
5733.512184,518.144159,-8810.098227,0.000000
5733.512509,518.144159,-8273.831378,0.000000
5733.512833,296.082377,-8656.879127,-74.020594
5733.513158,444.123565,-8580.269578,0.000000
5733.513482,666.185348,-8427.050478,-296.082377
5733.513807,814.226536,-8886.707777,-444.123565
5733.514131,518.144159,-8656.879127,-148.041188
5733.514455,296.082377,-8580.269578,-222.061783
5733.514780,296.082377,-8963.317327,-296.082377
5733.515104,444.123565,-9039.926876,-296.082377
5733.515428,148.041188,-8886.707777,-444.123565
5733.515753,148.041188,-8656.879127,-518.144159
5733.516077,0.000000,-8580.269578,-370.102971
5733.516401,0.000000,-8733.488677,-518.144159
5733.516725,0.000000,-8656.879127,-444.123565
5733.517050,222.061783,-8580.269578,-518.144159
5733.517374,518.144159,-9039.926876,-592.164754
5733.517698,1036.288319,-8273.831378,-518.144159
5733.518023,444.123565,-8810.098227,0.000000
5733.518347,370.102971,-8810.098227,-666.185348
5733.518671,518.144159,-8886.707777,-666.185348
5733.518996,148.041188,-8656.879127,-740.205942
5733.519320,666.185348,-8733.488677,-444.123565
5733.519644,0.000000,-8503.660028,-740.205942
5733.519968,148.041188,-8810.098227,-518.144159
5733.520293,296.082377,-8350.440928,-666.185348
5733.520617,814.226536,-8656.879127,-888.247130
5733.520941,740.205942,-8810.098227,-962.267725
5733.521266,1110.308913,-8886.707777,-592.164754
5733.521590,814.226536,-8656.879127,-888.247130
5733.521914,814.226536,-8810.098227,-740.205942
5733.522239,1184.329507,-8886.707777,-592.164754
5733.522563,296.082377,-8810.098227,-666.185348
5733.522887,296.082377,-8503.660028,-666.185348
5733.523211,74.020594,-8427.050478,-962.267725
5733.523536,222.061783,-7890.783629,-592.164754
5733.523860,296.082377,-8120.612279,-1110.308913
5733.524184,296.082377,-8580.269578,-666.185348
5733.524509,370.102971,-8886.707777,-962.267725
5733.524833,518.144159,-9039.926876,-592.164754
5733.525157,444.123565,-8580.269578,-222.061783
5733.525482,814.226536,-8886.707777,-296.082377
5733.525806,888.247130,-8656.879127,-518.144159
5733.526130,518.144159,-8810.098227,-370.102971
5733.526454,296.082377,-8120.612279,-370.102971
5733.526779,0.000000,-8350.440928,-518.144159
5733.527103,0.000000,-8503.660028,-518.144159
5733.527427,0.000000,-8044.002729,-444.123565
5733.527752,0.000000,-8886.707777,-148.041188
5733.528076,0.000000,-8656.879127,-518.144159
5733.528400,74.020594,-8350.440928,0.000000
5733.528724,370.102971,-8810.098227,148.041188
5733.529049,740.205942,-8503.660028,148.041188
5733.529373,1036.288319,-8886.707777,-148.041188
5733.529697,1110.308913,-8733.488677,148.041188
5733.530022,666.185348,-8503.660028,0.000000
5733.530346,296.082377,-8580.269578,0.000000
5733.530670,518.144159,-8656.879127,-518.144159
5733.530995,0.000000,-8580.269578,-370.102971
5733.531319,-296.082377,-8580.269578,-296.082377
5733.531643,-296.082377,-8810.098227,74.020594
5733.531967,0.000000,-7890.783629,296.082377
5733.532292,666.185348,-8656.879127,0.000000
5733.532616,814.226536,-8733.488677,0.000000
5733.532940,962.267725,-8810.098227,148.041188
5733.533265,1258.350101,-8427.050478,222.061783
5733.533589,1036.288319,-8044.002729,370.102971
5733.533913,592.164754,-8886.707777,0.000000
5733.534238,592.164754,-8503.660028,-296.082377
5733.534562,74.020594,-8503.660028,148.041188
5733.534886,0.000000,-8350.440928,148.041188
5733.535210,-296.082377,-8733.488677,0.000000
5733.535535,0.000000,-8580.269578,0.000000
5733.535859,0.000000,-8427.050478,148.041188
5733.536183,518.144159,-8503.660028,74.020594
5733.536508,814.226536,-8810.098227,370.102971
5733.536832,962.267725,-8503.660028,518.144159
5733.537156,888.247130,-8810.098227,296.082377
5733.537481,962.267725,-8120.612279,296.082377
5733.537805,814.226536,-7967.393179,444.123565
5733.538129,666.185348,-8273.831378,0.000000
5733.538453,444.123565,-8427.050478,-148.041188
5733.538778,296.082377,-8120.612279,0.000000
5733.539102,444.123565,-8120.612279,0.000000
5733.539426,370.102971,-8044.002729,-296.082377
5733.539751,592.164754,-8197.221829,0.000000
5733.540075,518.144159,-8350.440928,0.000000
5733.540399,444.123565,-8580.269578,148.041188
5733.540723,740.205942,-8580.269578,0.000000
5733.541048,740.205942,-8656.879127,296.082377
5733.541372,888.247130,-8886.707777,0.000000
5733.541696,518.144159,-8810.098227,-370.102971
5733.542021,74.020594,-8197.221829,0.000000
5733.542345,0.000000,-8733.488677,0.000000
5733.542669,74.020594,-8810.098227,0.000000
5733.542994,222.061783,-8273.831378,-444.123565
5733.543318,518.144159,-8810.098227,-962.267725
5733.543642,222.061783,-8886.707777,0.000000
5733.543966,74.020594,-8810.098227,0.000000
5733.544291,370.102971,-8656.879127,370.102971
5733.544615,370.102971,-8503.660028,222.061783
5733.544939,222.061783,-8886.707777,0.000000
5733.545264,222.061783,-8580.269578,222.061783
5733.545588,518.144159,-8810.098227,444.123565
5733.545912,0.000000,-8580.269578,0.000000
5733.546237,-148.041188,-8580.269578,-518.144159
5733.546561,0.000000,-8350.440928,-296.082377
5733.546885,74.020594,-8733.488677,0.000000
5733.547209,0.000000,-8580.269578,-148.041188
5733.547534,296.082377,-8580.269578,222.061783
5733.547858,222.061783,-8580.269578,74.020594
5733.548182,740.205942,-8733.488677,0.000000
5733.548507,666.185348,-8503.660028,0.000000
5733.548831,888.247130,-8810.098227,370.102971
5733.549155,518.144159,-8656.879127,0.000000
5733.549480,444.123565,-8656.879127,0.000000
5733.549804,296.082377,-8503.660028,0.000000
5733.550128,296.082377,-8350.440928,-296.082377
5733.550452,518.144159,-8503.660028,-740.205942
5733.550777,0.000000,-8197.221829,-148.041188
5733.551101,-148.041188,-8503.660028,-370.102971
5733.551425,0.000000,-8350.440928,-148.041188
5733.551750,518.144159,-9193.145976,-148.041188
5733.552074,740.205942,-8810.098227,-148.041188
5733.552398,888.247130,-8503.660028,74.020594
5733.552723,518.144159,-8580.269578,-296.082377
5733.553047,592.164754,-8733.488677,0.000000
5733.553371,74.020594,-8197.221829,-592.164754
5733.553695,74.020594,-8503.660028,-370.102971
5733.554020,148.041188,-8120.612279,-222.061783
5733.554344,74.020594,-7890.783629,-666.185348
5733.554668,518.144159,-9193.145976,-518.144159
5733.554993,592.164754,-7890.783629,-444.123565
5733.555317,888.247130,-8580.269578,-666.185348
5733.555641,888.247130,-8197.221829,-148.041188
5733.555965,814.226536,-8350.440928,74.020594
5733.556290,814.226536,-8810.098227,0.000000
5733.556614,814.226536,-8810.098227,0.000000
5733.556938,518.144159,-8656.879127,-592.164754
5733.557263,222.061783,-8886.707777,-962.267725
5733.557587,518.144159,-8273.831378,-148.041188
5733.557911,148.041188,-8656.879127,-740.205942
5733.558236,74.020594,-8350.440928,-740.205942
5733.558560,74.020594,-8580.269578,-592.164754
5733.558884,222.061783,-8580.269578,-592.164754
5733.559208,0.000000,-8503.660028,-666.185348
5733.559533,296.082377,-8733.488677,-370.102971
5733.559857,370.102971,-8886.707777,-518.144159
5733.560181,592.164754,-9193.145976,-592.164754
5733.560506,962.267725,-8886.707777,-666.185348
5733.560830,666.185348,-9193.145976,-148.041188
5733.561154,296.082377,-8580.269578,-592.164754
5733.561479,370.102971,-8733.488677,-814.226536
5733.561803,444.123565,-8580.269578,-962.267725
5733.562127,0.000000,-8503.660028,-1036.288319
5733.562451,370.102971,-8810.098227,-1110.308913
5733.562776,296.082377,-8427.050478,-962.267725
5733.563100,518.144159,-9499.584175,-814.226536
5733.563424,444.123565,-8580.269578,-1110.308913
5733.563749,814.226536,-8656.879127,-592.164754
5733.564073,370.102971,-9116.536426,-666.185348
5733.564397,666.185348,-8656.879127,-814.226536
5733.564722,74.020594,-8503.660028,-666.185348
5733.565046,296.082377,-8886.707777,-814.226536
5733.565370,74.020594,-8503.660028,-888.247130
5733.565694,370.102971,-8580.269578,-1110.308913
5733.566019,666.185348,-8427.050478,-1480.411884
5733.566343,0.000000,-8580.269578,-962.267725
5733.566667,74.020594,-8273.831378,-740.205942
5733.566992,74.020594,-8580.269578,-814.226536
5733.567316,222.061783,-8733.488677,-814.226536
5733.567640,592.164754,-8427.050478,-666.185348
5733.567964,740.205942,-8350.440928,-148.041188
5733.568289,592.164754,-8656.879127,-740.205942
5733.568613,814.226536,-8963.317327,-814.226536
5733.568937,1184.329507,-7967.393179,-1184.329507
5733.569262,518.144159,-8580.269578,-1110.308913
5733.569586,148.041188,-8197.221829,-1332.370696
5733.569910,222.061783,-8427.050478,-888.247130
5733.570235,518.144159,-8810.098227,-740.205942
5733.570559,370.102971,-8197.221829,-740.205942
5733.570883,666.185348,-8656.879127,-666.185348
5733.571207,592.164754,-8656.879127,-518.144159
5733.571532,740.205942,-8044.002729,-592.164754
5733.571856,370.102971,-8733.488677,-444.123565
5733.572180,740.205942,-8580.269578,-518.144159
5733.572505,222.061783,-8273.831378,-666.185348
5733.572829,592.164754,-8580.269578,-962.267725
5733.573153,592.164754,-7967.393179,-296.082377
5733.573478,74.020594,-8810.098227,-666.185348
5733.573802,296.082377,-8197.221829,-666.185348
5733.574126,592.164754,-8273.831378,-666.185348
5733.574450,592.164754,-8273.831378,-148.041188
5733.574775,148.041188,-8580.269578,-370.102971
5733.575099,444.123565,-8503.660028,0.000000
5733.575423,444.123565,-8963.317327,0.000000
5733.575748,666.185348,-8656.879127,-296.082377
5733.576072,592.164754,-9116.536426,-444.123565
5733.576396,370.102971,-8656.879127,-444.123565
5733.576721,444.123565,-8733.488677,-296.082377
5733.577045,444.123565,-8503.660028,-370.102971
5733.577369,740.205942,-8350.440928,-296.082377
5733.577693,370.102971,-8427.050478,-296.082377
5733.578018,148.041188,-8810.098227,-444.123565
5733.578342,370.102971,-8580.269578,-296.082377
5733.578666,814.226536,-8656.879127,-666.185348
5733.578991,296.082377,-9039.926876,-296.082377
5733.579315,666.185348,-8733.488677,0.000000
5733.579639,444.123565,-8810.098227,-148.041188
5733.579963,444.123565,-8580.269578,-222.061783
5733.580288,370.102971,-9116.536426,0.000000
5733.580612,444.123565,-9039.926876,-444.123565
5733.580936,592.164754,-8350.440928,0.000000
5733.581261,740.205942,-8810.098227,-518.144159
5733.581585,962.267725,-8963.317327,-518.144159
5733.581909,592.164754,-8427.050478,0.000000
5733.582234,296.082377,-8733.488677,-296.082377
5733.582558,518.144159,-8886.707777,-222.061783
5733.582882,592.164754,-8656.879127,-222.061783
5733.583206,518.144159,-8580.269578,-296.082377
5733.583531,814.226536,-8733.488677,0.000000
5733.583855,518.144159,-8656.879127,0.000000
5733.584179,592.164754,-8733.488677,0.000000
5733.584504,296.082377,-8044.002729,-370.102971
5733.584828,296.082377,-8810.098227,-592.164754
5733.585152,518.144159,-8427.050478,-518.144159
5733.585477,370.102971,-8503.660028,-370.102971
5733.585801,518.144159,-8044.002729,0.000000
5733.586125,370.102971,-8427.050478,0.000000
5733.586449,814.226536,-8810.098227,-444.123565
5733.586774,370.102971,-8733.488677,0.000000
5733.587098,740.205942,-8656.879127,-222.061783
5733.587422,370.102971,-8503.660028,0.000000
5733.587747,592.164754,-8350.440928,-222.061783
5733.588071,518.144159,-8656.879127,-666.185348
5733.588395,444.123565,-8503.660028,-962.267725
5733.588720,592.164754,-8120.612279,-740.205942
5733.589044,148.041188,-8580.269578,-666.185348
5733.589368,444.123565,-8963.317327,-888.247130
5733.589692,444.123565,-8427.050478,-962.267725
5733.590017,592.164754,-8656.879127,-1184.329507
5733.590341,296.082377,-8656.879127,-740.205942
5733.590665,0.000000,-8503.660028,-962.267725
5733.590990,148.041188,-8733.488677,-1110.308913
5733.591314,74.020594,-8350.440928,-962.267725
5733.591638,740.205942,-8810.098227,-888.247130
5733.591963,518.144159,-8810.098227,-1036.288319
5733.592287,592.164754,-8580.269578,-1184.329507
5733.592611,148.041188,-8427.050478,-1036.288319
5733.592935,222.061783,-9269.755526,-666.185348
5733.593260,74.020594,-8427.050478,-962.267725
5733.593584,370.102971,-8886.707777,-1110.308913
5733.593908,222.061783,-8580.269578,-740.205942
5733.594233,370.102971,-9499.584175,-666.185348
5733.594557,444.123565,-8733.488677,-740.205942
5733.594881,444.123565,-8656.879127,-888.247130
5733.595205,296.082377,-8503.660028,-666.185348
5733.595530,444.123565,-8656.879127,-962.267725
5733.595854,370.102971,-8733.488677,-814.226536
5733.596178,370.102971,-8197.221829,-1036.288319
5733.596503,296.082377,-8733.488677,-1406.391290
5733.596827,222.061783,-8810.098227,-1184.329507
5733.597151,518.144159,-8733.488677,-1332.370696
5733.597476,296.082377,-8580.269578,-888.247130
5733.597800,370.102971,-8427.050478,-888.247130
5733.598124,296.082377,-8580.269578,-814.226536
5733.598448,222.061783,-9346.365076,-740.205942
5733.598773,222.061783,-8656.879127,-888.247130
5733.599097,666.185348,-8580.269578,-740.205942
5733.599421,518.144159,-8273.831378,-888.247130
5733.599746,518.144159,-8503.660028,-814.226536
5733.600070,814.226536,-8963.317327,-962.267725
5733.600394,888.247130,-8273.831378,-666.185348
5733.600719,814.226536,-8427.050478,-666.185348
5733.601043,222.061783,-8273.831378,-740.205942
5733.601367,0.000000,-9193.145976,0.000000
5733.601691,444.123565,-8273.831378,-370.102971
5733.602016,740.205942,-8427.050478,-296.082377
5733.602340,518.144159,-8580.269578,-518.144159
5733.602664,740.205942,-8350.440928,-296.082377
5733.602989,370.102971,-8580.269578,0.000000
5733.603313,370.102971,-8120.612279,-296.082377
5733.603637,518.144159,-8503.660028,-296.082377
5733.603962,666.185348,-8197.221829,-296.082377
5733.604286,296.082377,-9116.536426,0.000000
5733.604610,444.123565,-8886.707777,0.000000
5733.604934,444.123565,-8733.488677,-370.102971
5733.605259,592.164754,-8580.269578,-148.041188
5733.605583,814.226536,-8350.440928,-222.061783
5733.605907,370.102971,-8656.879127,0.000000
5733.606232,444.123565,-8350.440928,0.000000
5733.606556,74.020594,-8963.317327,0.000000
5733.606880,370.102971,-8810.098227,74.020594
5733.607204,518.144159,-8350.440928,-296.082377
5733.607529,814.226536,-8886.707777,148.041188
5733.607853,592.164754,-8656.879127,0.000000
5733.608177,370.102971,-9039.926876,0.000000
5733.608502,814.226536,-8503.660028,74.020594
5733.608826,0.000000,-8273.831378,148.041188
5733.609150,148.041188,-9116.536426,74.020594
5733.609475,148.041188,-8503.660028,0.000000
5733.609799,0.000000,-8656.879127,0.000000
5733.610123,74.020594,-8810.098227,-222.061783
5733.610447,296.082377,-8427.050478,0.000000
5733.610772,444.123565,-8580.269578,0.000000
5733.611096,444.123565,-8427.050478,-148.041188
5733.611420,222.061783,-8886.707777,-296.082377
5733.611745,222.061783,-8503.660028,-296.082377
5733.612069,222.061783,-8427.050478,74.020594
5733.612393,518.144159,-8580.269578,-296.082377
5733.612718,518.144159,-8963.317327,-666.185348
5733.613042,666.185348,-8503.660028,0.000000
5733.613366,444.123565,-8350.440928,-296.082377
5733.613690,148.041188,-8580.269578,-296.082377
5733.614015,666.185348,-8427.050478,0.000000
5733.614339,518.144159,-8733.488677,0.000000
5733.614663,370.102971,-8810.098227,-296.082377
5733.614988,518.144159,-8503.660028,0.000000
5733.615312,518.144159,-8580.269578,148.041188
5733.615636,666.185348,-8580.269578,-518.144159
5733.615960,740.205942,-8350.440928,-518.144159
5733.616285,666.185348,-8350.440928,-296.082377
5733.616609,518.144159,-8044.002729,-666.185348
5733.616933,444.123565,-9116.536426,-222.061783
5733.617257,222.061783,-8273.831378,-444.123565
5733.617582,444.123565,-8580.269578,-444.123565
5733.617906,518.144159,-8656.879127,-666.185348
5733.618230,518.144159,-8963.317327,-222.061783
5733.618554,518.144159,-8350.440928,-296.082377
5733.618879,518.144159,-8580.269578,-444.123565
5733.619203,370.102971,-8427.050478,-592.164754
5733.619527,444.123565,-8656.879127,-148.041188
5733.619851,962.267725,-8350.440928,-666.185348
5733.620176,296.082377,-8656.879127,-370.102971
5733.620500,296.082377,-8503.660028,-592.164754
5733.620824,444.123565,-8733.488677,-370.102971
5733.621148,1110.308913,-8963.317327,-666.185348
5733.621473,592.164754,-8427.050478,-592.164754
5733.621797,296.082377,-8963.317327,-296.082377
5733.622121,370.102971,-8733.488677,-518.144159
5733.622445,370.102971,-8656.879127,-148.041188
5733.622770,518.144159,-8427.050478,-592.164754
5733.623094,296.082377,-8656.879127,-518.144159
5733.623418,296.082377,-8656.879127,-518.144159
5733.623742,444.123565,-8503.660028,-444.123565
5733.624067,814.226536,-8503.660028,-518.144159
5733.624391,148.041188,-8503.660028,-296.082377
5733.624715,370.102971,-8733.488677,-666.185348
5733.625039,0.000000,-8656.879127,0.000000
5733.625364,592.164754,-9116.536426,370.102971
5733.625688,74.020594,-8886.707777,-148.041188
5733.626012,592.164754,-8580.269578,-222.061783
5733.626336,666.185348,-8656.879127,-518.144159
5733.626661,592.164754,-8197.221829,-148.041188
5733.626985,296.082377,-8427.050478,0.000000
5733.627309,0.000000,-8503.660028,74.020594
5733.627633,74.020594,-8273.831378,370.102971
5733.627958,370.102971,-8580.269578,0.000000
5733.628282,222.061783,-8273.831378,296.082377
5733.628606,666.185348,-8580.269578,74.020594
5733.628930,740.205942,-8810.098227,74.020594
5733.629255,888.247130,-8350.440928,0.000000
5733.629579,740.205942,-8580.269578,222.061783
5733.629903,222.061783,-8350.440928,0.000000
5733.630227,444.123565,-8503.660028,222.061783
5733.630552,148.041188,-8120.612279,0.000000
5733.630876,370.102971,-9039.926876,296.082377
5733.631200,296.082377,-8273.831378,148.041188
5733.631524,444.123565,-8810.098227,74.020594
5733.631849,518.144159,-8656.879127,222.061783
5733.632173,518.144159,-8810.098227,444.123565
5733.632497,592.164754,-9193.145976,74.020594
5733.632821,444.123565,-8733.488677,0.000000
5733.633146,444.123565,-8580.269578,0.000000
5733.633470,518.144159,-8733.488677,0.000000
5733.633794,814.226536,-8656.879127,-222.061783
5733.634118,444.123565,-8886.707777,74.020594
5733.634443,444.123565,-8656.879127,0.000000
5733.634767,444.123565,-8733.488677,-74.020594
5733.635091,370.102971,-8580.269578,0.000000
5733.635415,0.000000,-8427.050478,-296.082377
5733.635740,296.082377,-8580.269578,-148.041188
5733.636064,296.082377,-8656.879127,-444.123565
5733.636388,222.061783,-8656.879127,-296.082377
5733.636712,74.020594,-8427.050478,-222.061783
5733.637037,74.020594,-8580.269578,-518.144159
5733.637361,222.061783,-8580.269578,0.000000
5733.637685,0.000000,-8427.050478,-592.164754
5733.638009,74.020594,-8733.488677,-370.102971
5733.638334,370.102971,-8427.050478,-518.144159
5733.638658,444.123565,-8656.879127,-740.205942
5733.638982,74.020594,-8733.488677,-222.061783
5733.639306,444.123565,-8580.269578,-148.041188
5733.639631,444.123565,-8197.221829,-518.144159
5733.639955,592.164754,-8503.660028,0.000000
5733.640279,296.082377,-8350.440928,-222.061783
5733.640603,370.102971,-8810.098227,-296.082377
5733.640928,444.123565,-8656.879127,-444.123565
5733.641252,592.164754,-8503.660028,-222.061783
5733.641576,592.164754,-8580.269578,-296.082377
5733.641900,814.226536,-8273.831378,-592.164754
5733.642225,592.164754,-8656.879127,-444.123565
5733.642549,370.102971,-8120.612279,-370.102971
5733.642873,296.082377,-8503.660028,-222.061783
5733.643197,148.041188,-8350.440928,-222.061783
5733.643522,296.082377,-8656.879127,-296.082377
5733.643846,296.082377,-8427.050478,-444.123565
5733.644170,518.144159,-8580.269578,-148.041188
5733.644494,296.082377,-8427.050478,-148.041188
5733.644819,296.082377,-8580.269578,0.000000
5733.645143,518.144159,-8197.221829,0.000000
5733.645467,222.061783,-8503.660028,74.020594
5733.645791,148.041188,-8733.488677,0.000000
5733.646116,518.144159,-8733.488677,0.000000
5733.646440,518.144159,-8810.098227,0.000000
5733.646764,592.164754,-8273.831378,0.000000
5733.647088,666.185348,-8503.660028,-148.041188
5733.647413,592.164754,-8273.831378,0.000000
5733.647737,592.164754,-8273.831378,0.000000
5733.648061,444.123565,-8503.660028,-444.123565
5733.648385,370.102971,-8350.440928,-222.061783
5733.648710,222.061783,-8273.831378,0.000000
5733.649034,370.102971,-8733.488677,-222.061783
5733.649358,222.061783,-8810.098227,-222.061783
5733.649682,518.144159,-8810.098227,-370.102971
5733.650007,148.041188,-8733.488677,0.000000
5733.650331,148.041188,-8580.269578,0.000000
5733.650655,148.041188,-8810.098227,0.000000
5733.650979,370.102971,-8810.098227,74.020594
5733.651304,296.082377,-8580.269578,148.041188
5733.651628,0.000000,-8273.831378,-148.041188
5733.651952,370.102971,-8810.098227,0.000000
5733.652276,74.020594,-8503.660028,296.082377
5733.652601,444.123565,-8733.488677,0.000000
5733.652925,0.000000,-8733.488677,222.061783
5733.653249,222.061783,-8427.050478,222.061783
5733.653573,222.061783,-8580.269578,0.000000
5733.653898,444.123565,-8350.440928,-148.041188
5733.654222,814.226536,-8656.879127,-148.041188
5733.654546,518.144159,-8427.050478,0.000000
5733.654870,296.082377,-8886.707777,0.000000
5733.655195,740.205942,-8963.317327,-148.041188
5733.655519,444.123565,-8427.050478,-148.041188
5733.655843,0.000000,-8810.098227,0.000000
5733.656167,444.123565,-8656.879127,-296.082377
5733.656492,222.061783,-8733.488677,-444.123565
5733.656816,592.164754,-8427.050478,0.000000
5733.657140,592.164754,-8886.707777,0.000000
5733.657464,666.185348,-8427.050478,-148.041188
5733.657789,740.205942,-8580.269578,-370.102971
5733.658113,814.226536,-8503.660028,0.000000
5733.658437,370.102971,-8503.660028,-222.061783
5733.658761,222.061783,-8503.660028,0.000000
5733.659086,518.144159,-8503.660028,-148.041188
5733.659410,444.123565,-8733.488677,-666.185348
5733.659734,370.102971,-8733.488677,-370.102971
5733.660058,370.102971,-8427.050478,-222.061783
5733.660383,518.144159,-8580.269578,-296.082377
5733.660707,444.123565,-8886.707777,-740.205942
5733.661031,444.123565,-8580.269578,-814.226536
5733.661355,74.020594,-8963.317327,-592.164754
5733.661680,222.061783,-8120.612279,-370.102971
5733.662004,148.041188,-8656.879127,-740.205942
5733.662328,148.041188,-8350.440928,-444.123565
5733.662652,592.164754,-8427.050478,-444.123565
5733.662977,740.205942,-8810.098227,-888.247130
5733.663301,296.082377,-8273.831378,-518.144159
5733.663625,0.000000,-8963.317327,222.061783
5733.663949,370.102971,-8197.221829,-888.247130
5733.664274,296.082377,-8427.050478,-444.123565
5733.664598,444.123565,-8580.269578,-518.144159
5733.664922,370.102971,-8580.269578,-518.144159
5733.665246,370.102971,-8656.879127,-370.102971
5733.665571,370.102971,-8810.098227,-518.144159
5733.665895,592.164754,-8197.221829,-518.144159
5733.666219,370.102971,-8580.269578,-666.185348
5733.666543,444.123565,-8350.440928,-740.205942
5733.666868,148.041188,-8503.660028,-518.144159
5733.667192,444.123565,-8656.879127,-814.226536
5733.667516,370.102971,-8733.488677,-666.185348
5733.667840,518.144159,-8810.098227,-370.102971
5733.668165,444.123565,-8886.707777,-592.164754
5733.668489,444.123565,-8427.050478,-518.144159
5733.668813,74.020594,-8810.098227,-518.144159
5733.669137,0.000000,-9269.755526,-666.185348
5733.669462,444.123565,-8656.879127,-370.102971
5733.669786,74.020594,-8656.879127,-444.123565
5733.670110,518.144159,-8886.707777,-666.185348
5733.670434,592.164754,-8503.660028,-444.123565
5733.670759,1110.308913,-8656.879127,-370.102971
5733.671083,962.267725,-8503.660028,-518.144159
5733.671407,666.185348,-8733.488677,-296.082377
5733.671731,518.144159,-8963.317327,-370.102971
5733.672056,148.041188,-8197.221829,-148.041188
5733.672380,148.041188,-8886.707777,-444.123565
5733.672704,0.000000,-8733.488677,-518.144159
5733.673028,444.123565,-8810.098227,-444.123565
5733.673353,444.123565,-8580.269578,-666.185348
5733.673677,592.164754,-8810.098227,-296.082377
5733.674001,592.164754,-8580.269578,-518.144159
5733.674325,370.102971,-8733.488677,-370.102971
5733.674650,296.082377,-8197.221829,-518.144159
5733.674974,592.164754,-8350.440928,-148.041188
5733.675298,592.164754,-8503.660028,-296.082377
5733.675622,518.144159,-8503.660028,-444.123565
5733.675947,370.102971,-8503.660028,-740.205942
5733.676271,814.226536,-8197.221829,-148.041188
5733.676595,888.247130,-7967.393179,-666.185348
5733.676919,296.082377,-8656.879127,-370.102971
5733.677244,666.185348,-8427.050478,-370.102971
5733.677568,518.144159,-8733.488677,-222.061783
5733.677892,666.185348,-8273.831378,-296.082377
5733.678216,444.123565,-8273.831378,-222.061783
5733.678541,888.247130,-9039.926876,-444.123565
5733.678865,370.102971,-8503.660028,-518.144159
5733.679189,814.226536,-8963.317327,-370.102971
5733.679513,222.061783,-8656.879127,-518.144159
5733.679838,740.205942,-8427.050478,-370.102971
5733.680162,444.123565,-8886.707777,-296.082377
5733.680486,444.123565,-8427.050478,-370.102971
5733.680810,592.164754,-8656.879127,0.000000
5733.681135,444.123565,-8580.269578,-148.041188
5733.681459,814.226536,-8656.879127,-222.061783
5733.681783,518.144159,-8427.050478,-370.102971
5733.682107,592.164754,-8886.707777,-444.123565
5733.682432,222.061783,-8503.660028,-370.102971
5733.682756,296.082377,-8580.269578,-148.041188
5733.683080,296.082377,-8580.269578,-444.123565
5733.683404,1110.308913,-8963.317327,-444.123565
5733.683729,370.102971,-8580.269578,-814.226536
5733.684053,518.144159,-8733.488677,-518.144159
5733.684377,518.144159,-8350.440928,-740.205942
5733.684701,222.061783,-7584.345430,-444.123565
5733.685026,444.123565,-8427.050478,-814.226536
5733.685350,370.102971,-8733.488677,-592.164754
5733.685674,666.185348,-8656.879127,-518.144159
5733.685998,518.144159,-8273.831378,-370.102971
5733.686323,518.144159,-8963.317327,-592.164754
5733.686647,740.205942,-8427.050478,-666.185348
5733.686971,518.144159,-8503.660028,-666.185348
5733.687295,148.041188,-8427.050478,-370.102971
5733.687620,444.123565,-7584.345430,-444.123565
5733.687944,518.144159,-8427.050478,-740.205942
5733.688268,296.082377,-8273.831378,-518.144159
5733.688592,518.144159,-8656.879127,-740.205942
5733.688917,666.185348,-9039.926876,-814.226536
5733.689241,962.267725,-8427.050478,-296.082377
5733.689565,370.102971,-8580.269578,-370.102971
5733.689889,666.185348,-8733.488677,-740.205942
5733.690214,296.082377,-8503.660028,-814.226536
5733.690538,888.247130,-8963.317327,-888.247130
5733.690862,370.102971,-8656.879127,-814.226536
5733.691186,518.144159,-8733.488677,-814.226536
5733.691511,74.020594,-8503.660028,-370.102971
5733.691835,814.226536,-8733.488677,-296.082377
5733.692159,518.144159,-8656.879127,-592.164754
5733.692483,666.185348,-8503.660028,-518.144159
5733.692808,592.164754,-7890.783629,-296.082377
5733.693132,222.061783,-8656.879127,-370.102971
5733.693456,518.144159,-9039.926876,0.000000
5733.693780,370.102971,-8350.440928,-444.123565
5733.694105,666.185348,-9269.755526,0.000000
5733.694429,296.082377,-8427.050478,-444.123565
5733.694753,740.205942,-8580.269578,-222.061783
5733.695077,370.102971,-8273.831378,-148.041188
5733.695402,148.041188,-8503.660028,-222.061783
5733.695726,222.061783,-8197.221829,-592.164754
5733.696050,296.082377,-8197.221829,-296.082377
5733.696374,740.205942,-8350.440928,-444.123565
5733.696699,518.144159,-9039.926876,-370.102971
5733.697023,592.164754,-8503.660028,-444.123565
5733.697347,1036.288319,-8656.879127,-222.061783
5733.697671,518.144159,-8886.707777,-592.164754
5733.697996,296.082377,-8810.098227,-222.061783
5733.698320,444.123565,-8656.879127,-296.082377
5733.698644,222.061783,-8503.660028,-296.082377
5733.698968,148.041188,-9039.926876,-444.123565
5733.699293,666.185348,-8656.879127,-962.267725
5733.699617,592.164754,-8503.660028,-592.164754
5733.699941,666.185348,-8503.660028,-592.164754
5733.700265,74.020594,-8963.317327,-888.247130
5733.700590,148.041188,-8733.488677,-518.144159
5733.700914,222.061783,-8427.050478,-740.205942
5733.701238,370.102971,-8656.879127,-666.185348
5733.701562,740.205942,-8580.269578,-666.185348
5733.701887,296.082377,-8656.879127,-962.267725
5733.702211,518.144159,-8580.269578,-592.164754
5733.702535,370.102971,-8656.879127,-666.185348
5733.702859,222.061783,-8810.098227,-666.185348
5733.703184,222.061783,-8350.440928,-962.267725
5733.703508,370.102971,-8503.660028,-666.185348
5733.703832,0.000000,-8810.098227,-592.164754
5733.704156,222.061783,-8503.660028,-518.144159
5733.704481,444.123565,-8656.879127,-592.164754
5733.704805,518.144159,-8503.660028,-518.144159
5733.705129,518.144159,-8350.440928,-666.185348
5733.705453,518.144159,-8580.269578,-370.102971
5733.705778,370.102971,-8580.269578,-518.144159
5733.706102,962.267725,-9039.926876,-740.205942
5733.706426,666.185348,-8503.660028,-444.123565
5733.706750,740.205942,-8427.050478,-296.082377
5733.707075,518.144159,-8427.050478,-592.164754
5733.707399,148.041188,-8886.707777,0.000000
5733.707723,666.185348,-8580.269578,-666.185348
5733.708047,296.082377,-8427.050478,-370.102971
5733.708372,148.041188,-8963.317327,0.000000
5733.708696,370.102971,-8503.660028,-370.102971
5733.709020,444.123565,-8427.050478,-222.061783
5733.709344,592.164754,-8503.660028,-592.164754
5733.709669,444.123565,-8810.098227,-444.123565
5733.709993,666.185348,-8503.660028,-592.164754
5733.710317,444.123565,-8273.831378,0.000000
5733.710641,518.144159,-8503.660028,-518.144159
5733.710966,148.041188,-8656.879127,-592.164754
5733.711290,518.144159,-8427.050478,-444.123565
5733.711614,-222.061783,-8503.660028,-444.123565
5733.711938,74.020594,-8350.440928,-370.102971
5733.712263,518.144159,-8810.098227,-444.123565
5733.712587,444.123565,-8503.660028,-296.082377
5733.712911,592.164754,-8350.440928,-296.082377
5733.713235,814.226536,-8963.317327,-222.061783
5733.713560,444.123565,-8503.660028,-444.123565
5733.713884,222.061783,-8120.612279,-444.123565
5733.714208,518.144159,-8886.707777,-592.164754
5733.714532,1110.308913,-8427.050478,-592.164754
5733.714857,592.164754,-8733.488677,-518.144159
5733.715181,370.102971,-8503.660028,-444.123565
5733.715505,518.144159,-8810.098227,0.000000
5733.715830,518.144159,-8733.488677,-592.164754
5733.716154,222.061783,-8580.269578,0.000000
5733.716479,370.102971,-8580.269578,0.000000
5733.716803,518.144159,-8810.098227,0.000000
5733.717128,592.164754,-8273.831378,-592.164754
5733.717452,740.205942,-8886.707777,0.000000
5733.717777,592.164754,-8580.269578,-370.102971
5733.718101,962.267725,-8886.707777,-444.123565
5733.718426,814.226536,-8886.707777,-592.164754
5733.718750,222.061783,-8044.002729,444.123565
5733.719075,222.061783,-8810.098227,-296.082377
5733.719399,222.061783,-8810.098227,-296.082377
5733.719723,222.061783,-8656.879127,0.000000
5733.720048,518.144159,-9422.974625,0.000000
5733.720372,444.123565,-8963.317327,-222.061783
5733.720697,666.185348,-8197.221829,-148.041188
5733.721021,592.164754,-8810.098227,-148.041188
5733.721346,370.102971,-8427.050478,-296.082377
5733.721670,518.144159,-8733.488677,-296.082377
5733.721995,444.123565,-8273.831378,-444.123565
5733.722319,370.102971,-8427.050478,0.000000
5733.722644,592.164754,-8810.098227,-296.082377
5733.722968,370.102971,-7814.174080,0.000000
5733.723293,518.144159,-8503.660028,-296.082377
5733.723617,444.123565,-9116.536426,-222.061783
5733.723941,592.164754,-8427.050478,-296.082377
5733.724266,148.041188,-8427.050478,-518.144159
5733.724590,0.000000,-8427.050478,0.000000
5733.724915,370.102971,-8350.440928,-296.082377
5733.725239,296.082377,-8580.269578,-518.144159
5733.725564,740.205942,-8656.879127,-444.123565
5733.725888,518.144159,-7967.393179,-370.102971
5733.726213,296.082377,-8810.098227,-444.123565
5733.726537,370.102971,-8350.440928,-518.144159
5733.726862,518.144159,-8810.098227,-370.102971
5733.727186,444.123565,-8580.269578,0.000000
5733.727511,444.123565,-8733.488677,0.000000
5733.727835,370.102971,-8503.660028,-296.082377
5733.728159,444.123565,-8503.660028,-148.041188
5733.728484,592.164754,-8886.707777,-222.061783
5733.728808,814.226536,-8656.879127,-444.123565
5733.729133,444.123565,-8427.050478,-222.061783
5733.729457,148.041188,-8733.488677,-296.082377
5733.729782,148.041188,-8580.269578,0.000000
5733.730106,222.061783,-8350.440928,-444.123565
5733.730431,370.102971,-8886.707777,-222.061783
5733.730755,814.226536,-8886.707777,-296.082377
5733.731080,518.144159,-8273.831378,0.000000
5733.731404,592.164754,-8120.612279,222.061783
5733.731729,444.123565,-8810.098227,0.000000
5733.732053,296.082377,-8197.221829,-518.144159
5733.732377,592.164754,-8580.269578,-148.041188
5733.732702,222.061783,-8427.050478,-296.082377
5733.733026,740.205942,-8503.660028,-592.164754
5733.733351,444.123565,-8350.440928,-222.061783
5733.733675,814.226536,-8503.660028,0.000000
5733.734000,740.205942,-8503.660028,-666.185348
5733.734324,1110.308913,-8580.269578,-518.144159
5733.734649,296.082377,-8580.269578,-222.061783
5733.734973,222.061783,-8580.269578,-370.102971
5733.735298,370.102971,-8503.660028,-814.226536
5733.735622,740.205942,-8503.660028,-518.144159
5733.735947,444.123565,-8580.269578,-518.144159
5733.736271,148.041188,-8810.098227,-222.061783
5733.736595,222.061783,-8733.488677,-370.102971
5733.736920,74.020594,-8656.879127,-148.041188
5733.737244,666.185348,-9039.926876,-592.164754
5733.737569,74.020594,-8503.660028,-370.102971
5733.737893,666.185348,-8656.879127,-296.082377
5733.738218,74.020594,-8656.879127,-370.102971
5733.738542,814.226536,-8963.317327,74.020594
5733.738867,370.102971,-8656.879127,0.000000
5733.739191,518.144159,-8580.269578,-370.102971
5733.739516,888.247130,-8503.660028,-370.102971
5733.739840,148.041188,-8656.879127,0.000000
5733.740165,296.082377,-8810.098227,-444.123565
5733.740489,0.000000,-8350.440928,-296.082377
5733.740813,296.082377,-8503.660028,-148.041188
5733.741138,444.123565,-8427.050478,-370.102971
5733.741462,222.061783,-8733.488677,0.000000
5733.741787,222.061783,-8733.488677,0.000000
5733.742111,296.082377,-8580.269578,0.000000
5733.742436,222.061783,-8733.488677,-148.041188
5733.742760,444.123565,-9499.584175,-296.082377
5733.743085,0.000000,-8427.050478,148.041188
5733.743409,74.020594,-8503.660028,0.000000
5733.743734,222.061783,-8580.269578,0.000000
5733.744058,148.041188,-8656.879127,0.000000
5733.744383,444.123565,-8810.098227,0.000000
5733.744707,148.041188,-8350.440928,0.000000
5733.745031,222.061783,-8273.831378,222.061783
5733.745356,0.000000,-8580.269578,0.000000
5733.745680,0.000000,-8273.831378,74.020594
5733.746005,74.020594,-8350.440928,0.000000
5733.746329,370.102971,-8503.660028,0.000000
5733.746654,444.123565,-8503.660028,-444.123565
5733.746978,444.123565,-9422.974625,-148.041188
5733.747303,296.082377,-8427.050478,0.000000
5733.747627,222.061783,-8427.050478,-296.082377
5733.747952,370.102971,-8580.269578,-592.164754
5733.748276,222.061783,-8044.002729,74.020594
5733.748601,296.082377,-8350.440928,0.000000
5733.748925,370.102971,-8886.707777,-296.082377
5733.749249,814.226536,-8580.269578,0.000000
5733.749574,814.226536,-8886.707777,0.000000
5733.749898,222.061783,-8120.612279,-444.123565
5733.750223,518.144159,-8580.269578,222.061783
5733.750547,518.144159,-8733.488677,148.041188
5733.750872,222.061783,-8427.050478,-74.020594
5733.751196,444.123565,-8963.317327,-518.144159
5733.751521,296.082377,-8810.098227,-296.082377
5733.751845,518.144159,-8427.050478,0.000000
5733.752170,370.102971,-8427.050478,-74.020594
5733.752494,444.123565,-8503.660028,0.000000
5733.752819,518.144159,-8963.317327,0.000000
5733.753143,666.185348,-8427.050478,-592.164754
5733.753467,444.123565,-8810.098227,-222.061783
5733.753792,370.102971,-8580.269578,-148.041188
5733.754116,370.102971,-8810.098227,0.000000
5733.754441,814.226536,-8580.269578,-296.082377
5733.754765,518.144159,-8656.879127,-444.123565
5733.755090,518.144159,-8503.660028,-222.061783
5733.755414,666.185348,-7967.393179,-296.082377
5733.755739,148.041188,-8580.269578,-592.164754
5733.756063,444.123565,-8580.269578,-370.102971
5733.756388,518.144159,-8273.831378,-592.164754
5733.756712,592.164754,-8886.707777,-148.041188
5733.757037,666.185348,-8503.660028,-592.164754
5733.757361,592.164754,-8886.707777,-370.102971
5733.757685,666.185348,-8580.269578,-518.144159
5733.758010,148.041188,-8810.098227,-814.226536
5733.758334,444.123565,-9269.755526,-592.164754
5733.758659,222.061783,-8427.050478,-740.205942
5733.758983,444.123565,-8886.707777,-444.123565
5733.759308,0.000000,-8427.050478,-814.226536
5733.759632,592.164754,-8886.707777,-444.123565
5733.759957,592.164754,-8656.879127,-222.061783
5733.760281,518.144159,-8580.269578,-592.164754
5733.760606,444.123565,-8810.098227,-592.164754
5733.760930,148.041188,-8427.050478,-222.061783
5733.761255,0.000000,-8963.317327,74.020594
5733.761579,296.082377,-8503.660028,-592.164754
5733.761903,444.123565,-8503.660028,-222.061783
5733.762228,592.164754,-8273.831378,0.000000
5733.762552,814.226536,-8427.050478,0.000000
5733.762877,444.123565,-8733.488677,-148.041188
5733.763201,444.123565,-8120.612279,-296.082377
5733.763526,222.061783,-8656.879127,-296.082377
5733.763850,222.061783,-8503.660028,0.000000
5733.764175,222.061783,-8503.660028,148.041188
5733.764499,592.164754,-8810.098227,222.061783
5733.764824,444.123565,-8503.660028,-148.041188
5733.765148,666.185348,-8886.707777,0.000000
5733.765473,888.247130,-8656.879127,148.041188
5733.765797,444.123565,-8503.660028,0.000000
5733.766121,222.061783,-8580.269578,222.061783
5733.766446,148.041188,-8580.269578,-222.061783
5733.766770,370.102971,-8427.050478,0.000000
5733.767095,444.123565,-8427.050478,-148.041188
5733.767419,518.144159,-8656.879127,74.020594
5733.767744,518.144159,-8197.221829,0.000000
5733.768068,518.144159,-8273.831378,0.000000
5733.768393,444.123565,-8120.612279,148.041188
5733.768717,370.102971,-8656.879127,0.000000
5733.769042,666.185348,-8656.879127,0.000000
5733.769366,148.041188,-8427.050478,0.000000
5733.769691,370.102971,-8580.269578,0.000000
5733.770015,740.205942,-8350.440928,-370.102971
5733.770339,592.164754,-8733.488677,-592.164754
5733.770664,666.185348,-8963.317327,-370.102971
5733.770988,518.144159,-8656.879127,0.000000
5733.771313,518.144159,-9039.926876,-222.061783
5733.771637,370.102971,-8350.440928,-148.041188
5733.771962,444.123565,-8886.707777,-296.082377
5733.772286,518.144159,-8810.098227,-444.123565
5733.772611,814.226536,-8427.050478,-222.061783
5733.772935,222.061783,-9269.755526,-592.164754
5733.773260,370.102971,-8810.098227,-592.164754
5733.773584,370.102971,-8886.707777,-666.185348
5733.773909,666.185348,-9039.926876,-592.164754
5733.774233,148.041188,-8656.879127,-814.226536
5733.774557,222.061783,-8580.269578,-222.061783
5733.774882,296.082377,-8810.098227,-814.226536
5733.775206,222.061783,-8886.707777,-592.164754
5733.775531,814.226536,-9116.536426,-888.247130
5733.775855,148.041188,-8733.488677,-740.205942
5733.776180,592.164754,-8656.879127,-666.185348
5733.776504,74.020594,-8810.098227,-1036.288319
5733.776829,1036.288319,-9039.926876,-666.185348
5733.777153,592.164754,-8503.660028,-740.205942
5733.777478,888.247130,-8886.707777,-888.247130
5733.777802,592.164754,-8580.269578,-518.144159
5733.778127,1110.308913,-8427.050478,-148.041188
5733.778451,444.123565,-8580.269578,-444.123565
5733.778775,592.164754,-8120.612279,-666.185348
5733.779100,296.082377,-9116.536426,-518.144159
5733.779424,518.144159,-8350.440928,-518.144159
5733.779749,222.061783,-8197.221829,-592.164754
5733.780073,296.082377,-8503.660028,-444.123565
5733.780398,444.123565,-8273.831378,-666.185348
5733.780722,444.123565,-8733.488677,-666.185348
5733.781047,592.164754,-8197.221829,0.000000
5733.781371,444.123565,-8273.831378,-370.102971
5733.781696,592.164754,-8427.050478,-444.123565
5733.782020,0.000000,-8197.221829,-222.061783
5733.782345,370.102971,-7967.393179,-296.082377
5733.782669,296.082377,-8273.831378,-222.061783
5733.782993,148.041188,-8580.269578,0.000000
5733.783318,74.020594,-8197.221829,-222.061783
5733.783642,296.082377,-8350.440928,148.041188
5733.783967,592.164754,-8503.660028,0.000000
5733.784291,222.061783,-8120.612279,-148.041188
5733.784616,370.102971,-8350.440928,148.041188
5733.784940,148.041188,-8350.440928,0.000000
5733.785265,296.082377,-8810.098227,148.041188
5733.785589,74.020594,-8120.612279,-296.082377
5733.785914,444.123565,-8810.098227,-296.082377
5733.786238,444.123565,-8350.440928,-148.041188
5733.786563,592.164754,-8120.612279,-592.164754
5733.786887,370.102971,-8503.660028,-222.061783
5733.787211,222.061783,-8503.660028,-148.041188
5733.787536,444.123565,-8580.269578,-222.061783
5733.787860,148.041188,-8580.269578,-222.061783
5733.788185,296.082377,-8810.098227,-222.061783
5733.788509,592.164754,-8733.488677,-370.102971
5733.788834,814.226536,-8580.269578,-222.061783
5733.789158,444.123565,-8580.269578,-296.082377
5733.789483,296.082377,-8886.707777,-814.226536
5733.789807,222.061783,-8656.879127,-296.082377
5733.790132,148.041188,-8733.488677,-148.041188
5733.790456,148.041188,-8733.488677,-444.123565
5733.790781,518.144159,-9652.803275,-296.082377
5733.791105,518.144159,-8963.317327,-518.144159
5733.791429,444.123565,-8656.879127,-592.164754
5733.791754,296.082377,-8810.098227,-444.123565
5733.792078,148.041188,-8656.879127,0.000000
5733.792403,370.102971,-8886.707777,-518.144159
5733.792727,222.061783,-8886.707777,-740.205942
5733.793052,148.041188,-8886.707777,-592.164754
5733.793376,592.164754,-8427.050478,-518.144159
5733.793701,518.144159,-9806.022374,-888.247130
5733.794025,666.185348,-8810.098227,-592.164754
5733.794350,740.205942,-8427.050478,-666.185348
5733.794674,592.164754,-9039.926876,-666.185348
5733.794999,518.144159,-9422.974625,-666.185348
5733.795323,296.082377,-8427.050478,-370.102971
5733.795647,444.123565,-8503.660028,-370.102971
5733.795972,444.123565,-8733.488677,-740.205942
5733.796296,740.205942,-9039.926876,-444.123565
5733.796621,1036.288319,-8350.440928,-518.144159
5733.796945,740.205942,-8886.707777,-296.082377
5733.797270,444.123565,-8580.269578,-1036.288319
5733.797594,444.123565,-8886.707777,-592.164754
5733.797919,148.041188,-8120.612279,-888.247130
5733.798243,444.123565,-8810.098227,-814.226536
5733.798568,296.082377,-8580.269578,-814.226536
5733.798892,518.144159,-8656.879127,-444.123565
5733.799217,444.123565,-8656.879127,-592.164754
5733.799541,518.144159,-8580.269578,-814.226536
5733.799865,370.102971,-8656.879127,-814.226536
5733.800190,370.102971,-8350.440928,-444.123565
5733.800514,370.102971,-8656.879127,-740.205942
5733.800839,666.185348,-8656.879127,-740.205942
5733.801163,296.082377,-8733.488677,-296.082377
5733.801488,592.164754,-8273.831378,-518.144159
5733.801812,666.185348,-8580.269578,-666.185348
5733.802137,444.123565,-8503.660028,-296.082377
5733.802461,370.102971,-8580.269578,-370.102971
5733.802786,296.082377,-8273.831378,-222.061783
5733.803110,0.000000,-8580.269578,-148.041188
5733.803435,296.082377,-8273.831378,-296.082377
5733.803759,296.082377,-8273.831378,0.000000
5733.804083,296.082377,-8503.660028,-518.144159
5733.804408,592.164754,-8580.269578,-444.123565
5733.804732,592.164754,-8197.221829,-370.102971
5733.805057,296.082377,-7890.783629,0.000000
5733.805381,148.041188,-8120.612279,-222.061783
5733.805706,222.061783,-8503.660028,0.000000
5733.806030,296.082377,-8044.002729,0.000000
5733.806355,370.102971,-8656.879127,-296.082377
5733.806679,518.144159,-8503.660028,-444.123565
5733.807004,666.185348,-8427.050478,-148.041188
5733.807328,666.185348,-8120.612279,0.000000
5733.807653,370.102971,-8120.612279,-296.082377
5733.807977,592.164754,-8350.440928,-222.061783
5733.808301,296.082377,-8427.050478,-444.123565
5733.808626,444.123565,-8733.488677,-444.123565
5733.808950,370.102971,-8427.050478,0.000000
5733.809275,444.123565,-8427.050478,0.000000
5733.809599,888.247130,-8503.660028,-370.102971
5733.809924,444.123565,-8503.660028,-518.144159
5733.810248,666.185348,-8886.707777,-74.020594
5733.810573,518.144159,-8580.269578,0.000000
5733.810897,444.123565,-8427.050478,-370.102971
5733.811222,148.041188,-8733.488677,-370.102971
5733.811546,592.164754,-8810.098227,-444.123565
5733.811871,444.123565,-9039.926876,-740.205942
5733.812195,370.102971,-8733.488677,-222.061783
5733.812519,518.144159,-9039.926876,-444.123565
5733.812844,740.205942,-8733.488677,-666.185348
5733.813168,444.123565,-8886.707777,-740.205942
5733.813493,666.185348,-8044.002729,0.000000
5733.813817,296.082377,-8886.707777,-592.164754
5733.814142,592.164754,-9116.536426,-518.144159
5733.814466,296.082377,-8580.269578,-740.205942
5733.814791,370.102971,-9116.536426,-666.185348
5733.815115,518.144159,-8810.098227,-666.185348
5733.815440,296.082377,-8733.488677,-740.205942
5733.815764,444.123565,-9039.926876,-888.247130
5733.816088,148.041188,-8886.707777,-592.164754
5733.816413,740.205942,-9269.755526,-444.123565
5733.816737,296.082377,-8503.660028,-444.123565
5733.817062,814.226536,-8656.879127,-666.185348
5733.817386,444.123565,-8886.707777,-666.185348
5733.817710,1184.329507,-7967.393179,-518.144159
5733.818035,222.061783,-8503.660028,-444.123565
5733.818359,222.061783,-8503.660028,-518.144159
5733.818684,370.102971,-8350.440928,-592.164754
5733.819008,370.102971,-8427.050478,-444.123565
5733.819332,444.123565,-8656.879127,-444.123565
5733.819657,148.041188,-8580.269578,-444.123565
5733.819981,444.123565,-8810.098227,-740.205942
5733.820306,296.082377,-8273.831378,-370.102971
5733.820630,592.164754,-8350.440928,-518.144159
5733.820954,592.164754,-8503.660028,-296.082377
5733.821279,370.102971,-8656.879127,-148.041188
5733.821603,148.041188,-8427.050478,-370.102971
5733.821927,444.123565,-8503.660028,0.000000
5733.822252,518.144159,-8273.831378,-518.144159
5733.822576,444.123565,-8810.098227,0.000000
5733.822901,222.061783,-8273.831378,0.000000
5733.823225,296.082377,-8656.879127,74.020594
5733.823549,222.061783,-8197.221829,-222.061783
5733.823874,370.102971,-8044.002729,74.020594
5733.824198,518.144159,-8427.050478,-296.082377
5733.824523,148.041188,-7967.393179,0.000000
5733.824847,666.185348,-8963.317327,0.000000
5733.825171,666.185348,-8733.488677,-222.061783
5733.825496,370.102971,-8350.440928,-148.041188
5733.825820,444.123565,-8503.660028,-222.061783
5733.826145,518.144159,-8427.050478,-148.041188
5733.826469,74.020594,-8273.831378,-148.041188
5733.826793,74.020594,-8273.831378,-222.061783
5733.827118,444.123565,-8044.002729,-296.082377
5733.827442,444.123565,-8580.269578,-370.102971
5733.827767,148.041188,-8580.269578,-592.164754
5733.828091,444.123565,-8273.831378,-222.061783
5733.828415,296.082377,-8503.660028,-444.123565
5733.828740,444.123565,-9039.926876,-222.061783
5733.829064,518.144159,-7967.393179,-592.164754
5733.829389,370.102971,-8963.317327,-296.082377
5733.829713,592.164754,-8963.317327,-74.020594
5733.830037,444.123565,-8656.879127,-444.123565
5733.830362,518.144159,-8733.488677,-222.061783
5733.830686,666.185348,-8273.831378,-740.205942
5733.831011,740.205942,-8810.098227,-518.144159
5733.831335,148.041188,-8810.098227,-666.185348
5733.831659,0.000000,-8503.660028,-370.102971
5733.831984,222.061783,-9269.755526,-592.164754
5733.832308,148.041188,-8503.660028,-444.123565
5733.832633,444.123565,-8886.707777,-296.082377
5733.832957,518.144159,-8580.269578,-370.102971
5733.833281,814.226536,-9193.145976,-518.144159
5733.833606,740.205942,-8733.488677,-592.164754
5733.833930,592.164754,-8886.707777,-518.144159
5733.834255,592.164754,-8503.660028,-518.144159
5733.834579,444.123565,-9193.145976,-592.164754
5733.834903,296.082377,-8656.879127,-740.205942
5733.835228,74.020594,-8886.707777,-148.041188
5733.835552,148.041188,-8656.879127,-518.144159
5733.835876,518.144159,-9193.145976,-370.102971
5733.836201,592.164754,-8580.269578,0.000000
5733.836525,592.164754,-8886.707777,-148.041188
5733.836850,444.123565,-8580.269578,0.000000
5733.837174,444.123565,-8503.660028,-222.061783
5733.837498,370.102971,-8963.317327,-518.144159
5733.837823,222.061783,-8733.488677,-222.061783
5733.838147,222.061783,-8963.317327,-666.185348
5733.838472,222.061783,-8733.488677,-296.082377
5733.838796,74.020594,-8886.707777,-370.102971
5733.839120,0.000000,-9039.926876,-148.041188
5733.839445,296.082377,-8580.269578,-222.061783
5733.839769,296.082377,-8503.660028,0.000000
5733.840094,0.000000,-8733.488677,0.000000
5733.840418,592.164754,-8350.440928,-222.061783
5733.840742,444.123565,-8427.050478,0.000000
5733.841067,592.164754,-8350.440928,-222.061783
5733.841391,296.082377,-8963.317327,-222.061783
5733.841716,592.164754,-9116.536426,-296.082377
5733.842040,518.144159,-8350.440928,0.000000
5733.842364,148.041188,-8427.050478,0.000000
5733.842689,222.061783,-8810.098227,-370.102971
5733.843013,296.082377,-8350.440928,0.000000
5733.843338,592.164754,-8580.269578,148.041188
5733.843662,370.102971,-8810.098227,-148.041188
5733.843986,666.185348,-8350.440928,0.000000
5733.844311,370.102971,-8503.660028,148.041188
5733.844635,370.102971,-8656.879127,518.144159
5733.844960,0.000000,-8580.269578,-296.082377
5733.845284,370.102971,-8273.831378,0.000000
5733.845608,0.000000,-7890.783629,0.000000
5733.845933,296.082377,-9422.974625,0.000000
5733.846257,296.082377,-8656.879127,0.000000
5733.846582,740.205942,-8427.050478,-148.041188
5733.846906,518.144159,-8273.831378,-148.041188
5733.847230,518.144159,-8273.831378,-296.082377
5733.847555,444.123565,-8273.831378,-148.041188
5733.847879,296.082377,-8350.440928,-296.082377
5733.848204,74.020594,-8580.269578,-370.102971
5733.848528,296.082377,-8427.050478,-592.164754
5733.848852,444.123565,-8350.440928,-444.123565
5733.849177,296.082377,-8503.660028,-148.041188
5733.849501,518.144159,-8350.440928,-592.164754
5733.849826,592.164754,-8503.660028,-296.082377
5733.850150,740.205942,-8733.488677,-518.144159
5733.850474,370.102971,-8886.707777,-444.123565
5733.850799,296.082377,-8810.098227,-518.144159
5733.851123,518.144159,-8886.707777,-444.123565
5733.851447,222.061783,-8810.098227,-518.144159
5733.851772,740.205942,-8503.660028,-370.102971
5733.852096,592.164754,-8733.488677,-518.144159
5733.852421,592.164754,-8503.660028,-518.144159
5733.852745,0.000000,-8580.269578,-148.041188
5733.853069,518.144159,-7967.393179,-370.102971
5733.853394,222.061783,-8503.660028,-444.123565
5733.853718,592.164754,-8810.098227,-148.041188
5733.854043,444.123565,-8733.488677,-370.102971
5733.854367,444.123565,-9039.926876,-592.164754
5733.854691,888.247130,-8886.707777,0.000000
5733.855016,518.144159,-8350.440928,-222.061783
5733.855340,444.123565,-8886.707777,-370.102971
5733.855665,444.123565,-8810.098227,0.000000
5733.855989,666.185348,-8580.269578,0.000000
5733.856313,518.144159,-8886.707777,-370.102971
5733.856638,444.123565,-8733.488677,-148.041188
5733.856962,592.164754,-8733.488677,-370.102971
5733.857287,814.226536,-8733.488677,-370.102971
5733.857611,370.102971,-8733.488677,-592.164754
5733.857935,370.102971,-8580.269578,-370.102971
5733.858260,444.123565,-8580.269578,0.000000
5733.858584,370.102971,-8580.269578,-296.082377
5733.858909,444.123565,-8810.098227,-296.082377
5733.859233,740.205942,-8503.660028,0.000000
5733.859557,518.144159,-8580.269578,370.102971
5733.859882,370.102971,-8427.050478,-148.041188
5733.860206,592.164754,-8656.879127,0.000000
5733.860531,0.000000,-8733.488677,0.000000
5733.860855,222.061783,-8733.488677,74.020594
5733.861179,296.082377,-8120.612279,0.000000
5733.861504,444.123565,-7814.174080,296.082377
5733.861828,296.082377,-8733.488677,148.041188
5733.862153,592.164754,-8656.879127,-222.061783
5733.862477,740.205942,-8580.269578,74.020594
5733.862801,740.205942,-8273.831378,222.061783
5733.863126,0.000000,-8503.660028,148.041188
5733.863450,370.102971,-8427.050478,0.000000
5733.863775,592.164754,-8273.831378,74.020594
5733.864099,222.061783,-8580.269578,0.000000
5733.864423,814.226536,-9116.536426,-148.041188
5733.864748,222.061783,-8656.879127,0.000000
5733.865072,518.144159,-8350.440928,74.020594
5733.865396,370.102971,-8427.050478,-222.061783
5733.865721,296.082377,-8580.269578,0.000000
5733.866045,444.123565,-8580.269578,148.041188
5733.866370,370.102971,-8350.440928,-222.061783
5733.866694,148.041188,-8733.488677,0.000000
5733.867018,444.123565,-8503.660028,-296.082377
5733.867343,296.082377,-8350.440928,-444.123565
5733.867667,444.123565,-8427.050478,-370.102971
5733.867992,222.061783,-8656.879127,-370.102971
5733.868316,148.041188,-8580.269578,-518.144159
5733.868640,148.041188,-8733.488677,-592.164754
5733.868965,296.082377,-8273.831378,-518.144159
5733.869289,518.144159,-9039.926876,-518.144159
5733.869614,370.102971,-8120.612279,-592.164754
5733.869938,370.102971,-8733.488677,-592.164754
5733.870262,370.102971,-8503.660028,-962.267725
5733.870587,592.164754,-8273.831378,-666.185348
5733.870911,518.144159,-8580.269578,-666.185348
5733.871236,222.061783,-8886.707777,-740.205942
5733.871560,518.144159,-9422.974625,-814.226536
5733.871884,518.144159,-8656.879127,-518.144159
5733.872209,222.061783,-8886.707777,-296.082377
5733.872533,518.144159,-8656.879127,-740.205942
5733.872858,740.205942,-9193.145976,-592.164754
5733.873182,814.226536,-8503.660028,-666.185348
5733.873506,518.144159,-8733.488677,-666.185348
5733.873831,518.144159,-8656.879127,-592.164754
5733.874155,592.164754,-8503.660028,-444.123565
5733.874480,592.164754,-8733.488677,-592.164754
5733.874804,740.205942,-8733.488677,-444.123565
5733.875128,592.164754,-8733.488677,-444.123565
5733.875453,592.164754,-8580.269578,-518.144159
5733.875777,444.123565,-8503.660028,0.000000
5733.876102,592.164754,-8580.269578,-740.205942
5733.876426,592.164754,-8273.831378,-370.102971
5733.876750,148.041188,-8273.831378,-666.185348
5733.877075,222.061783,-8503.660028,-444.123565
5733.877399,592.164754,-8580.269578,-592.164754
5733.877724,1036.288319,-8503.660028,-444.123565
5733.878048,666.185348,-8273.831378,-518.144159
5733.878372,592.164754,-8427.050478,-296.082377
5733.878697,740.205942,-8656.879127,-444.123565
5733.879021,444.123565,-8580.269578,-444.123565
5733.879345,444.123565,-8197.221829,-592.164754
5733.879670,518.144159,-8733.488677,-518.144159
5733.879994,814.226536,-8810.098227,0.000000
5733.880319,296.082377,-8503.660028,-518.144159
5733.880643,370.102971,-8580.269578,-444.123565
5733.880967,444.123565,-8273.831378,-370.102971
5733.881292,370.102971,-9039.926876,-296.082377
5733.881616,222.061783,-8580.269578,-222.061783
5733.881941,444.123565,-8886.707777,74.020594
5733.882265,74.020594,-8503.660028,-222.061783
5733.882589,296.082377,-8810.098227,0.000000
5733.882914,74.020594,-8656.879127,0.000000
5733.883238,444.123565,-9039.926876,0.000000
5733.883563,370.102971,-8350.440928,0.000000
5733.883887,222.061783,-8580.269578,0.000000
5733.884211,0.000000,-8810.098227,-370.102971
5733.884536,296.082377,-8273.831378,-222.061783
5733.884860,370.102971,-8733.488677,0.000000
5733.885185,370.102971,-8503.660028,-222.061783
5733.885509,148.041188,-8580.269578,-148.041188
5733.885833,518.144159,-8733.488677,0.000000
5733.886158,444.123565,-8427.050478,0.000000
5733.886482,222.061783,-8580.269578,-370.102971
5733.886807,370.102971,-8503.660028,-148.041188
5733.887131,740.205942,-8503.660028,-148.041188
5733.887455,518.144159,-8810.098227,-370.102971
5733.887780,296.082377,-8580.269578,-592.164754
5733.888104,518.144159,-8810.098227,-370.102971
5733.888429,814.226536,-9193.145976,0.000000
5733.888753,370.102971,-8810.098227,0.000000
5733.889077,370.102971,-8580.269578,-444.123565
5733.889402,296.082377,-8810.098227,-370.102971
5733.889726,370.102971,-8733.488677,0.000000
5733.890051,296.082377,-8963.317327,-370.102971
5733.890375,666.185348,-8580.269578,-666.185348
5733.890699,444.123565,-8273.831378,-222.061783
5733.891024,518.144159,-8733.488677,-370.102971
5733.891348,518.144159,-8733.488677,0.000000
5733.891673,592.164754,-8350.440928,-666.185348
5733.891997,296.082377,-8656.879127,-444.123565
5733.892321,74.020594,-8580.269578,-296.082377
5733.892646,296.082377,-8886.707777,0.000000
5733.892970,148.041188,-8503.660028,-444.123565
5733.893294,666.185348,-8580.269578,-592.164754
5733.893619,518.144159,-8810.098227,-888.247130
5733.893943,370.102971,-8503.660028,-296.082377
5733.894268,444.123565,-8427.050478,-740.205942
5733.894592,518.144159,-8656.879127,-592.164754
5733.894916,666.185348,-8120.612279,-740.205942
5733.895241,592.164754,-8656.879127,-592.164754
5733.895565,592.164754,-8580.269578,-888.247130
5733.895890,666.185348,-8503.660028,-518.144159
5733.896214,592.164754,-8427.050478,-592.164754
5733.896538,444.123565,-8427.050478,-666.185348
5733.896863,518.144159,-8427.050478,-888.247130
5733.897187,370.102971,-8733.488677,-444.123565
5733.897512,296.082377,-8350.440928,-518.144159
5733.897836,370.102971,-8503.660028,-592.164754
5733.898160,444.123565,-8427.050478,-518.144159
5733.898485,222.061783,-8350.440928,-370.102971
5733.898809,814.226536,-8656.879127,-518.144159
5733.899134,592.164754,-8427.050478,-370.102971
5733.899458,444.123565,-8503.660028,-370.102971
5733.899782,370.102971,-8273.831378,-296.082377
5733.900107,222.061783,-8350.440928,-518.144159
5733.900431,296.082377,-8580.269578,-518.144159
5733.900756,592.164754,-8580.269578,-444.123565
5733.901080,444.123565,-8427.050478,-296.082377
5733.901404,740.205942,-8503.660028,-370.102971
5733.901729,592.164754,-8350.440928,-370.102971
5733.902053,592.164754,-8580.269578,-370.102971
5733.902378,444.123565,-8503.660028,-666.185348
5733.902702,148.041188,-8427.050478,-296.082377
5733.903026,444.123565,-8273.831378,-444.123565
5733.903351,296.082377,-8350.440928,-222.061783
5733.903675,666.185348,-8580.269578,-444.123565
5733.904000,814.226536,-9576.193725,-444.123565
5733.904324,666.185348,-8503.660028,-592.164754
5733.904648,296.082377,-8656.879127,-592.164754
5733.904973,74.020594,-8656.879127,-296.082377
5733.905297,296.082377,-8503.660028,-296.082377
5733.905622,518.144159,-8580.269578,-444.123565
5733.905946,222.061783,-8580.269578,-148.041188
5733.906270,296.082377,-8503.660028,-222.061783
5733.906595,444.123565,-8886.707777,-370.102971
5733.906919,888.247130,-8810.098227,0.000000
5733.907244,740.205942,-8733.488677,0.000000
5733.907568,370.102971,-8656.879127,0.000000
5733.907892,222.061783,-8350.440928,0.000000
5733.908217,518.144159,-8197.221829,-222.061783
5733.908541,370.102971,-8503.660028,-222.061783
5733.908865,370.102971,-8963.317327,-592.164754
5733.909190,814.226536,-8810.098227,-370.102971
5733.909514,814.226536,-8427.050478,-518.144159
5733.909839,444.123565,-8503.660028,-370.102971
5733.910163,370.102971,-8733.488677,-296.082377
5733.910487,148.041188,-8503.660028,-444.123565
5733.910812,444.123565,-8886.707777,-296.082377
5733.911136,444.123565,-9039.926876,0.000000
5733.911461,444.123565,-8886.707777,-740.205942
5733.911785,444.123565,-8580.269578,-592.164754
5733.912109,370.102971,-8733.488677,-296.082377
5733.912434,666.185348,-8503.660028,-518.144159
5733.912758,518.144159,-8580.269578,-444.123565
5733.913083,74.020594,-8656.879127,-296.082377
5733.913407,0.000000,-8656.879127,-148.041188
5733.913731,0.000000,-8427.050478,-444.123565
5733.914056,962.267725,-8963.317327,-148.041188
5733.914380,444.123565,-8656.879127,-444.123565
5733.914705,814.226536,-8580.269578,-444.123565
5733.915029,370.102971,-8810.098227,-296.082377
5733.915353,370.102971,-8886.707777,-444.123565
5733.915678,518.144159,-8580.269578,-666.185348
5733.916002,296.082377,-8810.098227,-518.144159
5733.916327,518.144159,-8503.660028,-592.164754
5733.916651,444.123565,-8580.269578,-148.041188
5733.916975,296.082377,-8886.707777,-370.102971
5733.917300,666.185348,-8580.269578,-740.205942
5733.917624,518.144159,-8733.488677,-370.102971
5733.917949,296.082377,-9039.926876,-444.123565
5733.918273,740.205942,-7737.564530,-666.185348
5733.918598,444.123565,-8503.660028,-370.102971
5733.918922,370.102971,-8350.440928,-592.164754
5733.919246,444.123565,-8427.050478,-296.082377
5733.919571,444.123565,-8810.098227,-962.267725
5733.919895,592.164754,-8733.488677,-592.164754
5733.920220,222.061783,-8350.440928,-370.102971
5733.920544,296.082377,-8427.050478,-444.123565
5733.920869,296.082377,-8273.831378,-444.123565
5733.921193,518.144159,-9116.536426,-592.164754
5733.921517,444.123565,-8733.488677,-296.082377
5733.921842,148.041188,-8503.660028,-296.082377
5733.922166,370.102971,-8886.707777,-370.102971
5733.922491,518.144159,-8580.269578,-148.041188
5733.922815,592.164754,-8733.488677,0.000000
5733.923139,222.061783,-8656.879127,-666.185348
5733.923464,0.000000,-8580.269578,-148.041188
5733.923788,-74.020594,-9193.145976,0.000000
5733.924113,222.061783,-8733.488677,-592.164754
5733.924437,296.082377,-8580.269578,-666.185348
5733.924762,296.082377,-8656.879127,-370.102971
5733.925086,666.185348,-8350.440928,-444.123565
5733.925410,592.164754,-8963.317327,-518.144159
5733.925735,370.102971,-8656.879127,-740.205942
5733.926059,296.082377,-8886.707777,-444.123565
5733.926384,296.082377,-8580.269578,-740.205942
5733.926708,370.102971,-8580.269578,0.000000
5733.927033,518.144159,-8656.879127,-592.164754
5733.927357,444.123565,-8810.098227,-518.144159
5733.927681,592.164754,-8886.707777,-518.144159
5733.928006,814.226536,-8656.879127,-518.144159
5733.928330,444.123565,-8733.488677,-222.061783
5733.928655,592.164754,-8656.879127,0.000000
5733.928979,444.123565,-8656.879127,-444.123565
5733.929304,518.144159,-8580.269578,0.000000
5733.929628,666.185348,-8350.440928,-296.082377
5733.929952,592.164754,-8810.098227,-444.123565
5733.930277,518.144159,-8733.488677,-296.082377
5733.930601,370.102971,-8733.488677,-148.041188
5733.930926,0.000000,-7967.393179,74.020594
5733.931250,222.061783,-8503.660028,-222.061783
5733.931575,444.123565,-8656.879127,-222.061783
5733.931899,444.123565,-8503.660028,-222.061783
5733.932223,592.164754,-8656.879127,296.082377
5733.932548,592.164754,-8580.269578,-592.164754
5733.932872,370.102971,-8810.098227,0.000000
5733.933197,444.123565,-8656.879127,-370.102971
5733.933521,74.020594,-8427.050478,-296.082377
5733.933845,370.102971,-8427.050478,0.000000
5733.934170,222.061783,-8350.440928,-296.082377
5733.934494,518.144159,-8580.269578,-222.061783
5733.934819,222.061783,-8427.050478,-148.041188
5733.935143,666.185348,-8197.221829,0.000000
5733.935468,518.144159,-8656.879127,-222.061783
5733.935792,666.185348,-8120.612279,-222.061783
5733.936116,222.061783,-8810.098227,-296.082377
5733.936441,0.000000,-8580.269578,-296.082377
5733.936765,296.082377,-8810.098227,-444.123565
5733.937090,0.000000,-8350.440928,-296.082377
5733.937414,0.000000,-8810.098227,0.000000
5733.937739,148.041188,-8427.050478,-148.041188
5733.938063,666.185348,-8886.707777,0.000000
5733.938387,444.123565,-8580.269578,0.000000
5733.938712,592.164754,-8656.879127,-148.041188
5733.939036,296.082377,-8656.879127,0.000000
5733.939361,370.102971,-8350.440928,296.082377
5733.939685,444.123565,-8580.269578,-444.123565
5733.940010,444.123565,-8197.221829,-148.041188
5733.940334,444.123565,-8580.269578,-74.020594
5733.940658,444.123565,-8580.269578,-148.041188
5733.940983,666.185348,-8580.269578,-74.020594
5733.941307,518.144159,-8656.879127,0.000000
5733.941632,666.185348,-8120.612279,-222.061783
5733.941956,370.102971,-8580.269578,-296.082377
5733.942280,888.247130,-8733.488677,0.000000
5733.942605,444.123565,-8427.050478,-296.082377
5733.942929,370.102971,-8350.440928,-592.164754
5733.943254,296.082377,-8963.317327,-370.102971
5733.943578,888.247130,-8120.612279,-296.082377
5733.943903,666.185348,-8580.269578,-518.144159
5733.944227,666.185348,-8810.098227,0.000000
5733.944551,222.061783,-8427.050478,0.000000
5733.944876,296.082377,-8580.269578,-222.061783
5733.945200,222.061783,-8350.440928,-222.061783
5733.945525,296.082377,-8963.317327,-148.041188
5733.945849,666.185348,-8350.440928,-222.061783
5733.946174,666.185348,-8580.269578,-296.082377
5733.946498,222.061783,-9116.536426,-444.123565
5733.946822,444.123565,-8350.440928,-444.123565
5733.947147,222.061783,-8350.440928,-370.102971
5733.947471,370.102971,-8197.221829,-296.082377
5733.947796,518.144159,-8733.488677,0.000000
5733.948120,592.164754,-8273.831378,-444.123565
5733.948445,518.144159,-8503.660028,-592.164754
5733.948769,666.185348,-8733.488677,-518.144159
5733.949093,666.185348,-8580.269578,-666.185348
5733.949418,740.205942,-8427.050478,-444.123565
5733.949742,0.000000,-8656.879127,-296.082377
5733.950067,370.102971,-8580.269578,-592.164754
5733.950391,296.082377,-8810.098227,-148.041188
5733.950715,0.000000,-9116.536426,0.000000
5733.951040,518.144159,-8963.317327,-148.041188
5733.951364,148.041188,-8503.660028,-444.123565
5733.951689,518.144159,-8886.707777,-222.061783
5733.952013,444.123565,-8350.440928,-370.102971
5733.952338,370.102971,-8656.879127,-370.102971
5733.952662,296.082377,-8503.660028,-370.102971
5733.952986,518.144159,-8580.269578,0.000000
5733.953311,222.061783,-8580.269578,-370.102971
5733.953635,296.082377,-8120.612279,-296.082377
5733.953960,444.123565,-8503.660028,-148.041188
5733.954284,444.123565,-8810.098227,-592.164754
5733.954609,370.102971,-8580.269578,-370.102971
5733.954933,222.061783,-8503.660028,-518.144159
5733.955257,222.061783,-8656.879127,-296.082377
5733.955582,148.041188,-8197.221829,-148.041188
5733.955906,592.164754,-8886.707777,-370.102971
5733.956231,518.144159,-8656.879127,-370.102971
5733.956555,444.123565,-8503.660028,-592.164754
5733.956880,592.164754,-8886.707777,0.000000
5733.957204,740.205942,-8350.440928,0.000000
5733.957528,444.123565,-8503.660028,-296.082377
5733.957853,666.185348,-8350.440928,0.000000
5733.958177,148.041188,-8427.050478,0.000000
5733.958502,444.123565,-8580.269578,0.000000
5733.958826,296.082377,-8656.879127,0.000000
5733.959150,814.226536,-8963.317327,0.000000
5733.959475,666.185348,-8580.269578,-74.020594
5733.959799,444.123565,-8197.221829,74.020594
5733.960124,74.020594,-8733.488677,74.020594
5733.960448,0.000000,-8810.098227,0.000000
5733.960773,370.102971,-8656.879127,-296.082377
5733.961097,370.102971,-8656.879127,-518.144159
5733.961421,518.144159,-8963.317327,-296.082377
5733.961746,74.020594,-8503.660028,-592.164754
5733.962070,0.000000,-8886.707777,74.020594
5733.962395,296.082377,-8350.440928,-222.061783
5733.962719,518.144159,-8580.269578,-592.164754
5733.963044,74.020594,-8733.488677,-444.123565
5733.963368,592.164754,-8427.050478,-222.061783
5733.963692,296.082377,-8656.879127,-518.144159
5733.964017,296.082377,-8886.707777,-370.102971
5733.964341,740.205942,-8427.050478,-296.082377
5733.964666,666.185348,-8810.098227,-296.082377
5733.964990,592.164754,-8427.050478,-370.102971
5733.965315,444.123565,-8886.707777,-296.082377
5733.965639,444.123565,-8656.879127,-370.102971
5733.965963,296.082377,-8580.269578,-444.123565
5733.966288,370.102971,-9116.536426,-222.061783
5733.966612,222.061783,-8580.269578,-444.123565
5733.966937,518.144159,-8580.269578,-296.082377
5733.967261,296.082377,-8810.098227,-518.144159
5733.967586,518.144159,-9039.926876,-370.102971
5733.967910,518.144159,-8503.660028,-370.102971
5733.968234,518.144159,-8350.440928,-592.164754
5733.968559,444.123565,-8810.098227,-444.123565
5733.968883,444.123565,-8427.050478,-518.144159
5733.969208,592.164754,-8503.660028,-592.164754
5733.969532,444.123565,-8810.098227,-370.102971
5733.969856,444.123565,-8886.707777,-592.164754
5733.970181,370.102971,-8197.221829,-222.061783
5733.970505,444.123565,-8044.002729,-444.123565
5733.970830,148.041188,-8810.098227,0.000000
5733.971154,592.164754,-8197.221829,0.000000
5733.971479,592.164754,-8503.660028,-444.123565
5733.971803,444.123565,-8656.879127,0.000000
5733.972127,296.082377,-8580.269578,0.000000
5733.972452,592.164754,-8886.707777,0.000000
5733.972776,592.164754,-7967.393179,-222.061783
5733.973101,148.041188,-8810.098227,-296.082377
5733.973425,74.020594,-8273.831378,-74.020594
5733.973750,444.123565,-7967.393179,0.000000
5733.974074,518.144159,-8427.050478,-148.041188
5733.974398,444.123565,-8273.831378,-296.082377
5733.974723,740.205942,-8656.879127,0.000000
5733.975047,518.144159,-8656.879127,-370.102971
5733.975372,296.082377,-8733.488677,-370.102971
5733.975696,0.000000,-8580.269578,0.000000
5733.976021,370.102971,-8273.831378,-222.061783
5733.976345,666.185348,-8886.707777,-444.123565
5733.976669,370.102971,-8580.269578,0.000000
5733.976994,370.102971,-8733.488677,0.000000
5733.977318,518.144159,-8656.879127,0.000000
5733.977643,740.205942,-8886.707777,-592.164754
5733.977967,444.123565,-8733.488677,0.000000
5733.978291,296.082377,-8503.660028,-296.082377
5733.978616,74.020594,-8733.488677,0.000000
5733.978940,222.061783,-8580.269578,-148.041188
5733.979265,444.123565,-8810.098227,0.000000
5733.979589,592.164754,-8427.050478,-370.102971
5733.979914,296.082377,-8350.440928,-518.144159
5733.980238,740.205942,-8733.488677,-148.041188
5733.980562,888.247130,-8120.612279,-296.082377
5733.980887,518.144159,-8273.831378,-518.144159
5733.981211,370.102971,-8503.660028,-518.144159
5733.981536,444.123565,-8427.050478,-296.082377
5733.981860,370.102971,-8503.660028,0.000000
5733.982185,370.102971,-8580.269578,-592.164754
5733.982509,518.144159,-9193.145976,-222.061783
5733.982833,296.082377,-8503.660028,-444.123565
5733.983158,518.144159,-8120.612279,0.000000
5733.983482,296.082377,-8886.707777,-444.123565
5733.983807,296.082377,-8503.660028,-222.061783
5733.984131,148.041188,-8733.488677,-148.041188
5733.984456,74.020594,-8427.050478,-222.061783
5733.984780,222.061783,-8427.050478,0.000000
5733.985104,518.144159,-8427.050478,-296.082377
5733.985429,518.144159,-8656.879127,-296.082377
5733.985753,592.164754,-8656.879127,0.000000
5733.986078,518.144159,-8963.317327,0.000000
5733.986402,370.102971,-8656.879127,0.000000
5733.986726,370.102971,-8273.831378,-370.102971
5733.987051,222.061783,-8580.269578,-370.102971
5733.987375,222.061783,-8503.660028,-444.123565
5733.987700,0.000000,-8197.221829,-444.123565
5733.988024,296.082377,-8810.098227,-444.123565
5733.988349,518.144159,-8503.660028,-444.123565
5733.988673,666.185348,-8580.269578,-370.102971
5733.988997,370.102971,-8580.269578,-962.267725
5733.989322,666.185348,-8733.488677,-222.061783
5733.989646,444.123565,-8503.660028,0.000000
5733.989971,592.164754,-8580.269578,0.000000
5733.990295,222.061783,-8580.269578,-962.267725
5733.990620,592.164754,-8656.879127,0.000000
5733.990944,444.123565,-8503.660028,-148.041188
5733.991268,222.061783,-8886.707777,-518.144159
5733.991593,148.041188,-8503.660028,-222.061783
5733.991917,296.082377,-8580.269578,-296.082377
5733.992242,296.082377,-8656.879127,-370.102971
5733.992566,222.061783,-8580.269578,0.000000
5733.992891,444.123565,-8810.098227,0.000000
5733.993215,296.082377,-9269.755526,-296.082377
5733.993539,592.164754,-8427.050478,-222.061783
5733.993864,592.164754,-8350.440928,-370.102971
5733.994188,518.144159,-8503.660028,-296.082377
5733.994513,370.102971,-9193.145976,-444.123565
5733.994837,148.041188,-8580.269578,-370.102971
5733.995161,444.123565,-8733.488677,-518.144159
5733.995486,444.123565,-8656.879127,-592.164754
5733.995810,370.102971,-8656.879127,-518.144159
5733.996135,740.205942,-8810.098227,-222.061783
5733.996459,444.123565,-8273.831378,-222.061783
5733.996784,444.123565,-8733.488677,-222.061783
5733.997108,592.164754,-8503.660028,-444.123565
5733.997432,666.185348,-8886.707777,0.000000
5733.997757,888.247130,-8580.269578,-888.247130
5733.998081,296.082377,-8503.660028,-592.164754
5733.998406,370.102971,-8656.879127,-444.123565
5733.998730,814.226536,-8273.831378,-444.123565
5733.999055,444.123565,-8656.879127,-962.267725
5733.999379,518.144159,-8580.269578,-592.164754
5733.999703,0.000000,-8656.879127,-370.102971
5734.000028,0.000000,-8197.221829,-592.164754
5734.000352,296.082377,-8427.050478,-666.185348
5734.000677,518.144159,-8350.440928,-814.226536
5734.001001,592.164754,-8810.098227,-666.185348
5734.001326,740.205942,-8580.269578,-592.164754
5734.001650,592.164754,-8886.707777,-518.144159
5734.001974,148.041188,-8580.269578,-148.041188
5734.002299,0.000000,-8810.098227,-444.123565
5734.002623,148.041188,-8886.707777,-518.144159
5734.002948,666.185348,-8580.269578,-296.082377
5734.003272,296.082377,-8810.098227,-518.144159
5734.003597,518.144159,-8733.488677,-666.185348
5734.003921,296.082377,-8656.879127,-666.185348
5734.004245,518.144159,-8580.269578,-444.123565
5734.004570,370.102971,-8580.269578,-444.123565
5734.004894,74.020594,-8273.831378,-592.164754
5734.005219,148.041188,-8580.269578,-444.123565
5734.005543,296.082377,-8733.488677,-296.082377
5734.005867,666.185348,-7967.393179,-296.082377
5734.006192,444.123565,-8886.707777,-518.144159
5734.006516,740.205942,-8656.879127,-444.123565
5734.006841,222.061783,-8503.660028,-444.123565
5734.007165,518.144159,-8656.879127,-370.102971
5734.007490,0.000000,-8273.831378,0.000000
5734.007814,222.061783,-8427.050478,-222.061783
5734.008138,0.000000,-8580.269578,-296.082377
5734.008463,148.041188,-8197.221829,74.020594
5734.008787,370.102971,-9039.926876,74.020594
5734.009112,296.082377,-8503.660028,-296.082377
5734.009436,370.102971,-8427.050478,148.041188
5734.009761,666.185348,-8350.440928,-370.102971
5734.010085,444.123565,-8273.831378,222.061783
5734.010409,592.164754,-8197.221829,-370.102971
5734.010734,518.144159,-8503.660028,444.123565
5734.011058,592.164754,-8197.221829,-370.102971
5734.011383,666.185348,-8810.098227,-592.164754
5734.011707,370.102971,-8197.221829,-370.102971
5734.012032,444.123565,-8273.831378,-296.082377
5734.012356,222.061783,-8503.660028,-444.123565
5734.012680,296.082377,-8427.050478,0.000000
5734.013005,296.082377,-8350.440928,-666.185348
5734.013329,444.123565,-8273.831378,-296.082377
5734.013654,296.082377,-8350.440928,-148.041188
5734.013978,592.164754,-8580.269578,-148.041188
5734.014302,1110.308913,-8810.098227,-148.041188
5734.014627,740.205942,-8503.660028,-592.164754
5734.014951,518.144159,-8733.488677,-518.144159
5734.015276,222.061783,-8197.221829,-296.082377
5734.015600,148.041188,-8580.269578,-74.020594
5734.015925,222.061783,-8656.879127,-296.082377
5734.016249,148.041188,-8733.488677,-222.061783
5734.016573,370.102971,-8963.317327,-370.102971
5734.016898,444.123565,-8733.488677,-296.082377
5734.017222,666.185348,-8580.269578,-296.082377
5734.017547,592.164754,-8580.269578,-222.061783
5734.017871,370.102971,-8350.440928,-518.144159
5734.018196,592.164754,-9039.926876,-814.226536
5734.018520,148.041188,-8120.612279,-666.185348
5734.018845,370.102971,-8503.660028,-296.082377
5734.019169,370.102971,-8886.707777,-592.164754
5734.019494,592.164754,-8656.879127,-666.185348
5734.019818,444.123565,-8580.269578,-518.144159
5734.020143,592.164754,-8427.050478,-518.144159
5734.020467,222.061783,-8810.098227,-296.082377
5734.020792,148.041188,-8733.488677,-592.164754
5734.021116,222.061783,-8810.098227,-148.041188
5734.021441,74.020594,-8273.831378,-222.061783
5734.021765,518.144159,-9116.536426,-518.144159
5734.022090,518.144159,-8503.660028,-444.123565
5734.022414,740.205942,-8503.660028,-296.082377
5734.022739,296.082377,-8886.707777,-592.164754
5734.023063,370.102971,-8427.050478,-666.185348
5734.023387,592.164754,-8656.879127,-444.123565
5734.023712,444.123565,-8503.660028,-370.102971
5734.024036,296.082377,-8733.488677,-592.164754
5734.024361,888.247130,-8886.707777,-444.123565
5734.024685,666.185348,-8580.269578,-370.102971
5734.025010,296.082377,-8656.879127,-296.082377
5734.025334,592.164754,-8656.879127,-740.205942
5734.025659,444.123565,-8886.707777,-518.144159
5734.025983,444.123565,-8427.050478,-148.041188
5734.026308,592.164754,-8503.660028,-370.102971
5734.026632,444.123565,-8503.660028,-444.123565
5734.026957,814.226536,-8350.440928,-592.164754
5734.027281,370.102971,-8580.269578,-444.123565
5734.027606,444.123565,-8427.050478,-296.082377
5734.027930,518.144159,-8503.660028,-148.041188
5734.028255,444.123565,-8120.612279,-370.102971
5734.028579,148.041188,-8656.879127,0.000000
5734.028904,518.144159,-8810.098227,0.000000
5734.029228,518.144159,-8197.221829,0.000000
5734.029553,370.102971,-8810.098227,0.000000
5734.029877,592.164754,-8886.707777,-222.061783
5734.030201,962.267725,-8503.660028,-148.041188
5734.030526,666.185348,-8810.098227,0.000000
5734.030850,444.123565,-8427.050478,-222.061783
5734.031175,0.000000,-8733.488677,-296.082377
5734.031499,74.020594,-8656.879127,148.041188
5734.031824,518.144159,-8427.050478,-148.041188
5734.032148,444.123565,-9193.145976,-296.082377
5734.032473,666.185348,-8427.050478,-370.102971
5734.032797,74.020594,-8656.879127,296.082377
5734.033122,592.164754,-8120.612279,-444.123565
5734.033446,666.185348,-8427.050478,-370.102971
5734.033771,518.144159,-8350.440928,-444.123565
5734.034095,296.082377,-8427.050478,-444.123565
5734.034420,222.061783,-8810.098227,-370.102971
5734.034744,222.061783,-8733.488677,-444.123565
5734.035069,370.102971,-8886.707777,-370.102971
5734.035393,444.123565,-8733.488677,-444.123565
5734.035718,296.082377,-9039.926876,-592.164754
5734.036042,592.164754,-8580.269578,-296.082377
5734.036367,74.020594,-8427.050478,-370.102971
5734.036691,74.020594,-8886.707777,-148.041188
5734.037016,740.205942,-8580.269578,-592.164754
5734.037340,518.144159,-8810.098227,-592.164754
5734.037664,666.185348,-8810.098227,-370.102971
5734.037989,592.164754,-8963.317327,-296.082377
5734.038313,814.226536,-9039.926876,74.020594
5734.038638,370.102971,-8427.050478,-518.144159
5734.038962,370.102971,-9116.536426,-148.041188
5734.039287,296.082377,-8350.440928,-370.102971
5734.039611,592.164754,-8197.221829,0.000000
5734.039936,592.164754,-8427.050478,-518.144159
5734.040260,666.185348,-8733.488677,-222.061783
5734.040585,518.144159,-8580.269578,-444.123565
5734.040909,592.164754,-8503.660028,-444.123565
5734.041234,962.267725,-8427.050478,-444.123565
5734.041558,370.102971,-8580.269578,-222.061783
5734.041883,222.061783,-8580.269578,-222.061783
5734.042207,222.061783,-8580.269578,-518.144159
5734.042532,518.144159,-8733.488677,-370.102971
5734.042856,444.123565,-9116.536426,-74.020594
5734.043181,444.123565,-8350.440928,-222.061783
5734.043505,296.082377,-8350.440928,-370.102971
5734.043830,370.102971,-8580.269578,-370.102971
5734.044154,518.144159,-8503.660028,-296.082377
5734.044478,222.061783,-8656.879127,-444.123565
5734.044803,148.041188,-8503.660028,-444.123565
5734.045127,444.123565,-8656.879127,-148.041188
5734.045452,888.247130,-8886.707777,-370.102971
5734.045776,444.123565,-8427.050478,-592.164754
5734.046101,444.123565,-8656.879127,-370.102971
5734.046425,296.082377,-8503.660028,-148.041188
5734.046750,148.041188,-8350.440928,-222.061783
5734.047074,0.000000,-8120.612279,-296.082377
5734.047399,74.020594,-8656.879127,-296.082377
5734.047723,518.144159,-8427.050478,-518.144159
5734.048048,0.000000,-8810.098227,-518.144159
5734.048372,0.000000,-8427.050478,-518.144159
5734.048697,444.123565,-8503.660028,-370.102971
5734.049021,296.082377,-8273.831378,-518.144159
5734.049346,222.061783,-8656.879127,0.000000
5734.049670,296.082377,-7967.393179,0.000000
5734.049995,444.123565,-8350.440928,-296.082377
5734.050319,296.082377,-8273.831378,-518.144159
5734.050644,444.123565,-8886.707777,-296.082377
5734.050968,814.226536,-8273.831378,-296.082377
5734.051293,592.164754,-8273.831378,-444.123565
5734.051617,592.164754,-8503.660028,-444.123565
5734.051941,148.041188,-8427.050478,-444.123565
5734.052266,222.061783,-8810.098227,-222.061783
5734.052590,222.061783,-8197.221829,-444.123565
5734.052915,740.205942,-8733.488677,-370.102971
5734.053239,666.185348,-8580.269578,-370.102971
5734.053564,74.020594,-7967.393179,-296.082377
5734.053888,518.144159,-8656.879127,-444.123565
5734.054213,444.123565,-8120.612279,-296.082377
5734.054537,592.164754,-8580.269578,-296.082377
5734.054862,592.164754,-8503.660028,-592.164754
5734.055186,666.185348,-8656.879127,-222.061783
5734.055511,740.205942,-8350.440928,-148.041188
5734.055835,592.164754,-8580.269578,-370.102971
5734.056160,444.123565,-8656.879127,-444.123565
5734.056484,666.185348,-8886.707777,-296.082377
5734.056809,962.267725,-8963.317327,-370.102971
5734.057133,518.144159,-8427.050478,-370.102971
5734.057458,222.061783,-8656.879127,-222.061783
5734.057782,740.205942,-8886.707777,0.000000
5734.058107,888.247130,-8810.098227,-518.144159
5734.058431,666.185348,-8886.707777,-370.102971
5734.058755,370.102971,-8503.660028,0.000000
5734.059080,296.082377,-8810.098227,-370.102971
5734.059404,222.061783,-8886.707777,-444.123565
5734.059729,74.020594,-8580.269578,-370.102971
5734.060053,296.082377,-8963.317327,-222.061783
5734.060378,148.041188,-8580.269578,-666.185348
5734.060702,74.020594,-8810.098227,-148.041188
5734.061027,370.102971,-8733.488677,-370.102971
5734.061351,518.144159,-8503.660028,-296.082377
5734.061676,518.144159,-8886.707777,-666.185348
5734.062000,518.144159,-8580.269578,0.000000
5734.062325,444.123565,-8733.488677,-296.082377
5734.062649,222.061783,-8733.488677,0.000000
5734.062974,148.041188,-8656.879127,0.000000
5734.063298,370.102971,-8656.879127,0.000000
5734.063623,296.082377,-8580.269578,-222.061783
5734.063947,518.144159,-8886.707777,-296.082377
5734.064272,444.123565,-8810.098227,-370.102971
5734.064596,444.123565,-8427.050478,-222.061783
5734.064921,518.144159,-8503.660028,-222.061783
5734.065245,0.000000,-8656.879127,-370.102971
5734.065570,296.082377,-8503.660028,0.000000
5734.065894,222.061783,-8580.269578,0.000000
5734.066218,444.123565,-8580.269578,-148.041188
5734.066543,370.102971,-8656.879127,0.000000
5734.066867,222.061783,-8427.050478,0.000000
5734.067192,296.082377,-8350.440928,0.000000
5734.067516,0.000000,-8273.831378,0.000000
5734.067841,148.041188,-8580.269578,74.020594
5734.068165,74.020594,-8656.879127,370.102971
5734.068490,370.102971,-8427.050478,-222.061783
5734.068814,444.123565,-8427.050478,-296.082377
5734.069139,444.123565,-8427.050478,0.000000
5734.069463,592.164754,-8197.221829,0.000000
5734.069788,592.164754,-8350.440928,0.000000
5734.070112,148.041188,-8350.440928,0.000000
5734.070437,444.123565,-8810.098227,-148.041188
5734.070761,444.123565,-8503.660028,-296.082377
5734.071086,296.082377,-8427.050478,-370.102971
5734.071410,444.123565,-8580.269578,0.000000
5734.071735,444.123565,-8427.050478,-518.144159
5734.072059,592.164754,-8810.098227,-370.102971
5734.072384,888.247130,-8656.879127,-222.061783
5734.072708,148.041188,-8580.269578,-222.061783
5734.073033,0.000000,-8580.269578,-666.185348
5734.073357,444.123565,-8580.269578,0.000000
5734.073681,592.164754,-8886.707777,0.000000
5734.074006,740.205942,-8886.707777,-370.102971
5734.074330,222.061783,-8656.879127,-518.144159
5734.074655,518.144159,-8580.269578,-444.123565
5734.074979,740.205942,-8886.707777,-518.144159
5734.075304,518.144159,-8810.098227,-444.123565
5734.075628,740.205942,-8810.098227,-666.185348
5734.075953,74.020594,-8656.879127,-444.123565
5734.076277,592.164754,-8886.707777,-888.247130
5734.076602,148.041188,-7737.564530,-518.144159
5734.076926,888.247130,-8886.707777,-222.061783
5734.077251,518.144159,-8886.707777,-888.247130
5734.077575,740.205942,-8656.879127,-518.144159
5734.077900,444.123565,-8810.098227,-740.205942
5734.078224,592.164754,-8503.660028,-222.061783
5734.078549,518.144159,-8733.488677,-592.164754
5734.078873,518.144159,-8733.488677,-370.102971
5734.079198,666.185348,-8656.879127,-592.164754
5734.079522,222.061783,-8273.831378,-370.102971
5734.079847,444.123565,-8886.707777,-296.082377
5734.080171,370.102971,-8810.098227,-74.020594
5734.080495,666.185348,-8656.879127,-370.102971
5734.080820,222.061783,-8733.488677,148.041188
5734.081144,518.144159,-8733.488677,0.000000
5734.081469,0.000000,-8580.269578,0.000000
5734.081793,444.123565,-8810.098227,0.000000
5734.082118,370.102971,-8427.050478,-296.082377
5734.082442,518.144159,-9116.536426,-222.061783
5734.082767,370.102971,-8503.660028,0.000000
5734.083091,518.144159,-8350.440928,-222.061783
5734.083416,74.020594,-8580.269578,-296.082377
5734.083740,222.061783,-8197.221829,-666.185348
5734.084065,222.061783,-8733.488677,-222.061783
5734.084389,444.123565,-8503.660028,-592.164754
5734.084714,444.123565,-8350.440928,-296.082377
5734.085038,740.205942,-8044.002729,0.000000
5734.085363,666.185348,-8580.269578,-222.061783
5734.085687,740.205942,-8503.660028,-592.164754
5734.086012,592.164754,-8427.050478,-444.123565
5734.086336,296.082377,-8427.050478,-222.061783
5734.086661,222.061783,-8503.660028,-296.082377
5734.086985,222.061783,-8733.488677,-444.123565
5734.087310,444.123565,-8427.050478,0.000000
5734.087634,148.041188,-8503.660028,-592.164754
5734.087958,592.164754,-8580.269578,0.000000
5734.088283,0.000000,-8350.440928,-74.020594
5734.088607,0.000000,-8656.879127,0.000000
5734.088932,296.082377,-8350.440928,-296.082377
5734.089256,444.123565,-8810.098227,0.000000
5734.089581,296.082377,-8580.269578,0.000000
5734.089905,370.102971,-8427.050478,-222.061783
5734.090230,444.123565,-8733.488677,-444.123565
5734.090554,444.123565,-8427.050478,-296.082377
5734.090879,518.144159,-8273.831378,-518.144159
5734.091203,518.144159,-8733.488677,-370.102971
5734.091528,444.123565,-8197.221829,-370.102971
5734.091852,592.164754,-8656.879127,-370.102971
5734.092177,370.102971,-8427.050478,-518.144159
5734.092501,370.102971,-8580.269578,-296.082377
5734.092826,814.226536,-9193.145976,-370.102971
5734.093150,740.205942,-8580.269578,-518.144159
5734.093475,592.164754,-8656.879127,-370.102971
5734.093799,592.164754,-8580.269578,-518.144159
5734.094124,370.102971,-8580.269578,-444.123565
5734.094448,444.123565,-9039.926876,-592.164754
5734.094772,518.144159,-8656.879127,-148.041188
5734.095097,370.102971,-8656.879127,0.000000
5734.095421,370.102971,-9039.926876,-518.144159
5734.095746,518.144159,-8733.488677,-296.082377
5734.096070,666.185348,-8963.317327,-370.102971
5734.096395,1036.288319,-8580.269578,-740.205942
5734.096719,592.164754,-8656.879127,-222.061783
5734.097044,592.164754,-8810.098227,-370.102971
5734.097368,370.102971,-8656.879127,-518.144159
5734.097693,518.144159,-8580.269578,-592.164754
5734.098017,444.123565,-8886.707777,-518.144159
5734.098342,592.164754,-8656.879127,-666.185348
5734.098666,370.102971,-8580.269578,-518.144159
5734.098991,222.061783,-8656.879127,-592.164754
5734.099315,0.000000,-8886.707777,0.000000
5734.099640,296.082377,-8963.317327,-814.226536
5734.099964,888.247130,-8733.488677,-370.102971
5734.100289,444.123565,-8427.050478,-148.041188
5734.100613,444.123565,-9576.193725,-148.041188
5734.100938,444.123565,-8197.221829,-296.082377
5734.101262,518.144159,-8810.098227,0.000000
5734.101587,370.102971,-8656.879127,-518.144159
5734.101911,222.061783,-8427.050478,-444.123565
5734.102235,0.000000,-8503.660028,0.000000
5734.102560,148.041188,-8656.879127,-148.041188
5734.102884,370.102971,-8656.879127,-370.102971
5734.103209,444.123565,-8350.440928,-148.041188
5734.103533,74.020594,-8427.050478,0.000000
5734.103858,444.123565,-8733.488677,0.000000
5734.104182,222.061783,-8350.440928,-148.041188
5734.104507,148.041188,-8503.660028,0.000000
5734.104831,518.144159,-8656.879127,-592.164754
5734.105156,444.123565,-8656.879127,-148.041188
5734.105480,518.144159,-8350.440928,0.000000
5734.105805,444.123565,-8580.269578,-222.061783
5734.106129,370.102971,-8503.660028,0.000000
5734.106454,592.164754,-8197.221829,74.020594
5734.106778,296.082377,-8656.879127,-370.102971
5734.107103,222.061783,-8120.612279,0.000000
5734.107427,0.000000,-8273.831378,-296.082377
5734.107752,444.123565,-8503.660028,-222.061783
5734.108076,444.123565,-8197.221829,-370.102971
5734.108401,592.164754,-8733.488677,-222.061783
5734.108725,444.123565,-8733.488677,-444.123565
5734.109049,740.205942,-8427.050478,-296.082377
5734.109374,740.205942,-8810.098227,-222.061783
5734.109698,296.082377,-8120.612279,-518.144159
5734.110023,296.082377,-8733.488677,-296.082377
5734.110347,370.102971,-8350.440928,-888.247130
5734.110672,888.247130,-8810.098227,-148.041188
5734.110996,296.082377,-8733.488677,-814.226536
5734.111321,592.164754,-8810.098227,-444.123565
5734.111645,666.185348,-8273.831378,-592.164754
5734.111970,518.144159,-9269.755526,222.061783
5734.112294,444.123565,-8580.269578,-444.123565
5734.112619,74.020594,-8886.707777,-370.102971
5734.112943,0.000000,-8733.488677,-370.102971
5734.113268,370.102971,-8886.707777,-518.144159
5734.113592,518.144159,-8656.879127,-444.123565
5734.113917,444.123565,-8886.707777,-222.061783
5734.114241,666.185348,-8656.879127,-518.144159
5734.114566,370.102971,-9039.926876,-222.061783
5734.114890,814.226536,-8350.440928,-814.226536
5734.115215,518.144159,-8733.488677,-444.123565
5734.115539,518.144159,-8963.317327,-592.164754
5734.115864,370.102971,-8427.050478,-666.185348
5734.116188,888.247130,-8656.879127,-444.123565
5734.116512,296.082377,-8810.098227,-814.226536
5734.116837,740.205942,-8733.488677,-888.247130
5734.117161,518.144159,-9116.536426,-592.164754
5734.117486,444.123565,-8580.269578,-592.164754
5734.117810,444.123565,-8733.488677,-296.082377
5734.118135,222.061783,-8503.660028,-740.205942
5734.118459,666.185348,-8810.098227,-370.102971
5734.118783,518.144159,-8810.098227,-592.164754
5734.119108,814.226536,-8580.269578,-666.185348
5734.119432,444.123565,-8120.612279,-592.164754
5734.119757,370.102971,-8656.879127,-148.041188
5734.120081,148.041188,-8733.488677,-296.082377
5734.120406,148.041188,-7814.174080,0.000000
5734.120730,222.061783,-8656.879127,-518.144159
5734.121054,148.041188,-8350.440928,-296.082377
5734.121379,370.102971,-8656.879127,-370.102971
5734.121703,370.102971,-8963.317327,-296.082377
5734.122028,1258.350101,-8427.050478,-666.185348
5734.122352,592.164754,-8656.879127,-444.123565
5734.122676,296.082377,-8350.440928,-148.041188
5734.123001,222.061783,-8427.050478,-296.082377
5734.123325,666.185348,-8580.269578,-148.041188
5734.123650,370.102971,-8350.440928,-518.144159
5734.123974,518.144159,-8810.098227,-592.164754
5734.124298,74.020594,-8427.050478,-518.144159
5734.124623,814.226536,-8656.879127,-592.164754
5734.124947,222.061783,-8120.612279,-148.041188
5734.125272,444.123565,-8350.440928,-592.164754
5734.125596,222.061783,-8273.831378,-444.123565
5734.125920,370.102971,-8733.488677,-740.205942
5734.126245,666.185348,-8427.050478,-222.061783
5734.126569,370.102971,-8273.831378,-444.123565
5734.126894,222.061783,-8580.269578,-296.082377
5734.127218,444.123565,-8350.440928,0.000000
5734.127543,222.061783,-8273.831378,-740.205942
5734.127867,222.061783,-8656.879127,-222.061783
5734.128191,0.000000,-8580.269578,0.000000
5734.128516,148.041188,-8580.269578,0.000000
5734.128840,296.082377,-7967.393179,-222.061783
5734.129165,444.123565,-8580.269578,-222.061783
5734.129489,518.144159,-8733.488677,0.000000
5734.129813,666.185348,-8503.660028,0.000000
5734.130138,592.164754,-8503.660028,0.000000
5734.130462,666.185348,-8120.612279,-518.144159
5734.130787,222.061783,-8273.831378,-592.164754
5734.131111,444.123565,-8656.879127,-148.041188
5734.131435,296.082377,-8656.879127,-296.082377
5734.131760,1036.288319,-8963.317327,-592.164754
5734.132084,296.082377,-8350.440928,-518.144159
5734.132409,592.164754,-8503.660028,-592.164754
5734.132733,814.226536,-8656.879127,-370.102971
5734.133057,666.185348,-8273.831378,-592.164754
5734.133382,666.185348,-8963.317327,-370.102971
5734.133706,296.082377,-8656.879127,-518.144159
5734.134031,444.123565,-8810.098227,-370.102971
5734.134355,222.061783,-8273.831378,-370.102971
5734.134680,962.267725,-9346.365076,-444.123565
5734.135004,370.102971,-8886.707777,-370.102971
5734.135328,518.144159,-8656.879127,-518.144159
5734.135653,370.102971,-8503.660028,-518.144159
5734.135977,296.082377,-9346.365076,-296.082377
5734.136302,444.123565,-8733.488677,-666.185348
5734.136626,666.185348,-8120.612279,-370.102971
5734.136950,518.144159,-8580.269578,-740.205942
5734.137275,296.082377,-8886.707777,-370.102971
5734.137599,518.144159,-8656.879127,-518.144159
5734.137924,592.164754,-8733.488677,-370.102971
5734.138248,296.082377,-8733.488677,-222.061783
5734.138572,518.144159,-8963.317327,-370.102971
5734.138897,666.185348,-9193.145976,-296.082377
5734.139221,0.000000,-8656.879127,-444.123565
5734.139546,148.041188,-9039.926876,-296.082377
5734.139870,444.123565,-8656.879127,-518.144159
5734.140194,592.164754,-9039.926876,148.041188
5734.140519,444.123565,-8656.879127,-370.102971
5734.140843,296.082377,-8656.879127,-222.061783
5734.141168,370.102971,-8580.269578,-296.082377
5734.141492,222.061783,-8886.707777,-296.082377
5734.141817,222.061783,-8810.098227,0.000000
5734.142141,0.000000,-8733.488677,-370.102971
5734.142465,444.123565,-8733.488677,-296.082377
5734.142790,592.164754,-8427.050478,-222.061783
5734.143114,296.082377,-9039.926876,0.000000
5734.143439,518.144159,-8273.831378,-296.082377
5734.143763,0.000000,-7967.393179,-222.061783
5734.144087,148.041188,-8503.660028,-148.041188
5734.144412,370.102971,-8273.831378,-370.102971
5734.144736,296.082377,-8580.269578,-370.102971
5734.145061,370.102971,-8503.660028,-222.061783
5734.145385,370.102971,-8580.269578,-74.020594
5734.145709,296.082377,-8503.660028,-222.061783
5734.146034,444.123565,-8273.831378,0.000000
5734.146358,370.102971,-8503.660028,-296.082377
5734.146683,296.082377,-8503.660028,0.000000
5734.147007,444.123565,-8120.612279,-222.061783
5734.147331,666.185348,-9116.536426,-222.061783
5734.147656,296.082377,-8427.050478,-296.082377
5734.147980,666.185348,-8503.660028,-296.082377
5734.148305,740.205942,-8273.831378,-222.061783
5734.148629,666.185348,-8427.050478,-296.082377
5734.148954,296.082377,-8350.440928,0.000000
5734.149278,444.123565,-8580.269578,-296.082377
5734.149602,370.102971,-8810.098227,0.000000
5734.149927,592.164754,-8503.660028,-518.144159
5734.150251,740.205942,-8580.269578,-666.185348
5734.150576,592.164754,-8503.660028,-370.102971
5734.150900,518.144159,-8580.269578,-592.164754
5734.151224,444.123565,-8427.050478,-444.123565
5734.151549,962.267725,-8733.488677,0.000000
5734.151873,518.144159,-8656.879127,-592.164754
5734.152198,296.082377,-8733.488677,-370.102971
5734.152522,296.082377,-8503.660028,-370.102971
5734.152846,666.185348,-9039.926876,-296.082377
5734.153171,518.144159,-8656.879127,-518.144159
5734.153495,592.164754,-8810.098227,-444.123565
5734.153820,296.082377,-8503.660028,-740.205942
5734.154144,222.061783,-8810.098227,-444.123565
5734.154468,592.164754,-9039.926876,-888.247130
5734.154793,222.061783,-8733.488677,-370.102971
5734.155117,370.102971,-8886.707777,-740.205942
5734.155442,296.082377,-8810.098227,-444.123565
5734.155766,518.144159,-8886.707777,-444.123565
5734.156091,592.164754,-8810.098227,-592.164754
5734.156415,592.164754,-8963.317327,-148.041188
5734.156739,370.102971,-8580.269578,-592.164754
5734.157064,444.123565,-8733.488677,-518.144159
5734.157388,222.061783,-8273.831378,-222.061783
5734.157713,296.082377,-8580.269578,-296.082377
5734.158037,296.082377,-8733.488677,-444.123565
5734.158361,518.144159,-8427.050478,-370.102971
5734.158686,666.185348,-8427.050478,-222.061783
5734.159010,666.185348,-8656.879127,-370.102971
5734.159335,296.082377,-8656.879127,-296.082377
5734.159659,222.061783,-8503.660028,-222.061783
5734.159983,370.102971,-8503.660028,74.020594
5734.160308,444.123565,-8656.879127,-444.123565
5734.160632,518.144159,-8656.879127,-444.123565
5734.160957,370.102971,-8273.831378,-370.102971
5734.161281,444.123565,-8580.269578,-444.123565
5734.161605,444.123565,-8580.269578,-444.123565
5734.161930,740.205942,-8580.269578,0.000000
5734.162254,518.144159,-8580.269578,-444.123565
5734.162579,0.000000,-8503.660028,-222.061783
5734.162903,592.164754,-8197.221829,-148.041188
5734.163228,444.123565,-8733.488677,0.000000
5734.163552,592.164754,-8656.879127,0.000000
5734.163876,518.144159,-8810.098227,-296.082377
5734.164201,888.247130,-7814.174080,0.000000
5734.164525,444.123565,-8273.831378,0.000000
5734.164850,370.102971,-8733.488677,-222.061783
5734.165174,370.102971,-8273.831378,-296.082377
5734.165498,518.144159,-8656.879127,74.020594
5734.165823,222.061783,-8273.831378,-222.061783
5734.166147,444.123565,-8810.098227,0.000000
5734.166472,296.082377,-8656.879127,0.000000
5734.166796,444.123565,-8503.660028,148.041188
5734.167120,444.123565,-8197.221829,148.041188
5734.167445,0.000000,-8427.050478,-222.061783
5734.167769,296.082377,-8733.488677,0.000000
5734.168094,148.041188,-8273.831378,0.000000
5734.168418,222.061783,-8656.879127,0.000000
5734.168742,222.061783,-8580.269578,-370.102971
5734.169067,370.102971,-8656.879127,-370.102971
5734.169391,518.144159,-8580.269578,-592.164754
5734.169716,296.082377,-8120.612279,0.000000
5734.170040,296.082377,-8810.098227,0.000000
5734.170365,148.041188,-8733.488677,-296.082377
5734.170689,296.082377,-8656.879127,-444.123565
5734.171013,222.061783,-8503.660028,-370.102971
5734.171338,518.144159,-8810.098227,0.000000
5734.171662,148.041188,-8580.269578,-444.123565
5734.171987,518.144159,-8580.269578,-592.164754
5734.172311,296.082377,-8350.440928,-666.185348
5734.172635,444.123565,-8656.879127,-592.164754
5734.172960,222.061783,-8733.488677,-518.144159
5734.173284,518.144159,-8886.707777,-370.102971
5734.173609,444.123565,-8656.879127,-296.082377
5734.173933,370.102971,-8427.050478,-592.164754
5734.174257,814.226536,-8810.098227,-444.123565
5734.174582,518.144159,-8810.098227,-592.164754
5734.174906,592.164754,-8044.002729,-370.102971
5734.175231,666.185348,-8656.879127,-444.123565
5734.175555,296.082377,-8580.269578,-518.144159
5734.175879,740.205942,-8656.879127,-592.164754
5734.176204,444.123565,-8886.707777,-370.102971
5734.176528,592.164754,-8503.660028,0.000000
5734.176853,740.205942,-8503.660028,-296.082377
5734.177177,740.205942,-8733.488677,-296.082377
5734.177502,592.164754,-8503.660028,-666.185348
5734.177826,518.144159,-8886.707777,-222.061783
5734.178150,370.102971,-8503.660028,-444.123565
5734.178475,296.082377,-8886.707777,370.102971
5734.178799,518.144159,-8656.879127,-592.164754
5734.179124,518.144159,-8503.660028,-518.144159
5734.179448,666.185348,-8503.660028,-666.185348
5734.179772,666.185348,-9193.145976,-370.102971
5734.180097,222.061783,-8656.879127,-370.102971
5734.180421,296.082377,-8580.269578,-222.061783
5734.180746,444.123565,-8427.050478,-296.082377
5734.181070,296.082377,-8580.269578,-296.082377
5734.181394,296.082377,-8427.050478,-444.123565
5734.181719,444.123565,-8273.831378,-296.082377
5734.182043,444.123565,-8886.707777,-148.041188
5734.182368,518.144159,-8656.879127,-296.082377
5734.182692,814.226536,-8503.660028,-148.041188
5734.183016,222.061783,-8120.612279,0.000000
5734.183341,222.061783,-8350.440928,-148.041188
5734.183665,74.020594,-8656.879127,0.000000
5734.183990,444.123565,-8810.098227,0.000000
5734.184314,222.061783,-8273.831378,74.020594
5734.184639,518.144159,-8656.879127,-222.061783
5734.184963,518.144159,-8273.831378,-148.041188
5734.185287,518.144159,-8503.660028,0.000000
5734.185612,296.082377,-8503.660028,-148.041188
5734.185936,222.061783,-8580.269578,0.000000
5734.186261,444.123565,-8197.221829,-370.102971
5734.186585,296.082377,-8427.050478,-148.041188
5734.186909,370.102971,-9116.536426,-444.123565
5734.187234,518.144159,-8886.707777,-296.082377
5734.187558,444.123565,-8503.660028,-222.061783
5734.187883,296.082377,-8503.660028,-370.102971
5734.188207,0.000000,-8810.098227,-518.144159
5734.188531,74.020594,-8273.831378,-222.061783
5734.188856,0.000000,-8350.440928,-296.082377
5734.189180,222.061783,-8580.269578,-518.144159
5734.189505,518.144159,-8503.660028,-444.123565
5734.189829,888.247130,-8886.707777,-518.144159
5734.190153,666.185348,-8886.707777,-444.123565
5734.190478,518.144159,-8810.098227,-370.102971
5734.190802,666.185348,-8733.488677,-592.164754
5734.191127,222.061783,-8733.488677,222.061783
5734.191451,444.123565,-8963.317327,-518.144159
5734.191776,592.164754,-8273.831378,-740.205942
5734.192100,666.185348,-8350.440928,-444.123565
5734.192424,444.123565,-8886.707777,-222.061783
5734.192749,592.164754,-8273.831378,-444.123565
5734.193073,888.247130,-8656.879127,-370.102971
5734.193398,740.205942,-8427.050478,-518.144159
5734.193722,296.082377,-8810.098227,-444.123565
5734.194046,592.164754,-8810.098227,-370.102971
5734.194371,592.164754,-8810.098227,-370.102971
5734.194695,370.102971,-8503.660028,-518.144159
5734.195020,592.164754,-8810.098227,-592.164754
5734.195344,666.185348,-8733.488677,-222.061783
5734.195668,296.082377,-8580.269578,-296.082377
5734.195993,222.061783,-8580.269578,-370.102971
5734.196317,148.041188,-8580.269578,-518.144159
5734.196642,814.226536,-8580.269578,-592.164754
5734.196966,518.144159,-8273.831378,-592.164754
5734.197290,666.185348,-8656.879127,-592.164754
5734.197615,518.144159,-8503.660028,-444.123565
5734.197939,888.247130,-8580.269578,-296.082377
5734.198264,814.226536,-8427.050478,-222.061783
5734.198588,518.144159,-8886.707777,-814.226536
5734.198913,296.082377,-8197.221829,-296.082377
5734.199237,74.020594,-8427.050478,0.000000
5734.199561,296.082377,-8810.098227,0.000000
5734.199886,592.164754,-8350.440928,-444.123565
5734.200210,370.102971,-8810.098227,0.000000
5734.200535,518.144159,-8580.269578,-296.082377
5734.200859,592.164754,-8733.488677,0.000000
5734.201183,148.041188,-8273.831378,0.000000
5734.201508,148.041188,-8656.879127,0.000000
5734.201832,74.020594,-8503.660028,0.000000
5734.202157,222.061783,-8656.879127,0.000000
5734.202481,740.205942,-8733.488677,-222.061783
5734.202805,74.020594,-8656.879127,74.020594
5734.203130,296.082377,-8580.269578,0.000000
5734.203454,296.082377,-8350.440928,-370.102971
5734.203779,444.123565,-8656.879127,-222.061783
5734.204103,296.082377,-8656.879127,-296.082377
5734.204427,296.082377,-8580.269578,0.000000
5734.204752,148.041188,-8427.050478,-148.041188
5734.205076,518.144159,-8044.002729,-370.102971
5734.205401,666.185348,-8350.440928,-962.267725
5734.205725,962.267725,-8580.269578,-888.247130
5734.206050,740.205942,-8273.831378,-444.123565
5734.206374,592.164754,-8733.488677,-592.164754
5734.206698,888.247130,-8656.879127,-740.205942
5734.207023,370.102971,-8427.050478,-518.144159
5734.207347,444.123565,-8580.269578,-518.144159
5734.207672,222.061783,-8656.879127,-296.082377
5734.207996,370.102971,-8656.879127,-444.123565
5734.208320,370.102971,-8733.488677,0.000000
5734.208645,444.123565,-8886.707777,-370.102971
5734.208969,370.102971,-8580.269578,-370.102971
5734.209294,222.061783,-8733.488677,-74.020594
5734.209618,592.164754,-8963.317327,-666.185348
5734.209942,370.102971,-9116.536426,-296.082377
5734.210267,148.041188,-8350.440928,-370.102971
5734.210591,592.164754,-8733.488677,-444.123565
5734.210916,444.123565,-8810.098227,-370.102971
5734.211240,666.185348,-8733.488677,-592.164754
5734.211564,296.082377,-8427.050478,-592.164754
5734.211889,370.102971,-8810.098227,-444.123565
5734.212213,222.061783,-8427.050478,-740.205942
5734.212538,0.000000,-8656.879127,-370.102971
5734.212862,444.123565,-8273.831378,-444.123565
5734.213187,0.000000,-8733.488677,-444.123565
5734.213511,592.164754,-9039.926876,-814.226536
5734.213835,962.267725,-9116.536426,-444.123565
5734.214160,666.185348,-8197.221829,-518.144159
5734.214484,518.144159,-8733.488677,-666.185348
5734.214809,518.144159,-8656.879127,-518.144159
5734.215133,444.123565,-8733.488677,-296.082377
5734.215457,444.123565,-8197.221829,0.000000
5734.215782,740.205942,-8580.269578,-370.102971
5734.216106,592.164754,-8810.098227,-444.123565
5734.216431,370.102971,-8350.440928,0.000000
5734.216755,296.082377,-8656.879127,0.000000
5734.217079,148.041188,-8886.707777,0.000000
5734.217404,74.020594,-8503.660028,-222.061783
5734.217728,592.164754,-8656.879127,-148.041188
5734.218053,0.000000,-8963.317327,0.000000
5734.218377,592.164754,-8733.488677,-222.061783
5734.218702,666.185348,-8810.098227,-222.061783
5734.219026,518.144159,-8273.831378,-370.102971
5734.219351,814.226536,-8580.269578,-222.061783
5734.219675,370.102971,-8427.050478,0.000000
5734.220000,296.082377,-8197.221829,-370.102971
5734.220324,148.041188,-8427.050478,-222.061783
5734.220649,370.102971,-8580.269578,-444.123565
5734.220973,666.185348,-9269.755526,-518.144159
5734.221297,444.123565,-8580.269578,-592.164754
5734.221622,518.144159,-8963.317327,0.000000
5734.221946,592.164754,-8503.660028,-370.102971
5734.222271,814.226536,-9346.365076,74.020594
5734.222595,296.082377,-8427.050478,0.000000
5734.222920,370.102971,-9039.926876,-222.061783
5734.223244,370.102971,-8503.660028,0.000000
5734.223569,518.144159,-8733.488677,0.000000
5734.223893,0.000000,-9116.536426,0.000000
5734.224218,370.102971,-8656.879127,0.000000
5734.224542,370.102971,-8656.879127,-296.082377
5734.224867,0.000000,-8810.098227,0.000000
5734.225191,0.000000,-8503.660028,0.000000
5734.225516,296.082377,-8733.488677,-296.082377
5734.225840,370.102971,-8580.269578,-444.123565
5734.226165,296.082377,-8656.879127,-666.185348
5734.226489,296.082377,-8580.269578,-518.144159
5734.226814,222.061783,-8120.612279,-518.144159
5734.227138,592.164754,-8580.269578,-518.144159
5734.227463,444.123565,-8733.488677,-666.185348
5734.227787,296.082377,-8273.831378,-592.164754
5734.228111,370.102971,-8886.707777,-296.082377
5734.228436,148.041188,-8427.050478,-444.123565
5734.228760,518.144159,-9039.926876,-370.102971
5734.229085,222.061783,-8580.269578,-666.185348
5734.229409,740.205942,-9346.365076,74.020594
5734.229734,444.123565,-8427.050478,-518.144159
5734.230058,518.144159,-8656.879127,-518.144159
5734.230383,296.082377,-8273.831378,-370.102971
5734.230707,370.102971,-9269.755526,-222.061783
5734.231032,370.102971,-8503.660028,-296.082377
5734.231356,518.144159,-8350.440928,-370.102971
5734.231681,296.082377,-9039.926876,-148.041188
5734.232005,740.205942,-8656.879127,-370.102971
5734.232330,666.185348,-8427.050478,-592.164754
5734.232654,74.020594,-8503.660028,-444.123565
5734.232979,370.102971,-8810.098227,-444.123565
5734.233303,222.061783,-8656.879127,-666.185348
5734.233628,518.144159,-8886.707777,0.000000
5734.233952,296.082377,-8273.831378,-518.144159
5734.234277,592.164754,-9039.926876,-370.102971
5734.234601,518.144159,-8197.221829,-740.205942
5734.234925,740.205942,-8580.269578,-296.082377
5734.235250,370.102971,-8427.050478,-148.041188
5734.235574,444.123565,-8427.050478,-148.041188
5734.235899,74.020594,-8427.050478,-296.082377
5734.236223,370.102971,-8580.269578,-370.102971
5734.236548,1110.308913,-8503.660028,-518.144159
5734.236872,444.123565,-8350.440928,-148.041188
5734.237197,444.123565,-8580.269578,-148.041188
5734.237521,444.123565,-8273.831378,0.000000
5734.237846,666.185348,-8963.317327,0.000000
5734.238170,296.082377,-8427.050478,-296.082377
5734.238495,370.102971,-8733.488677,0.000000
5734.238819,296.082377,-8656.879127,0.000000
5734.239144,444.123565,-8886.707777,0.000000
5734.239468,444.123565,-8733.488677,-296.082377
5734.239793,666.185348,-8427.050478,-296.082377
5734.240117,814.226536,-8580.269578,-592.164754
5734.240442,518.144159,-8580.269578,-296.082377
5734.240766,0.000000,-8120.612279,296.082377
5734.241091,148.041188,-8273.831378,-444.123565
5734.241415,444.123565,-8580.269578,-222.061783
5734.241739,222.061783,-8503.660028,-296.082377
5734.242064,518.144159,-9116.536426,0.000000
5734.242388,222.061783,-9039.926876,0.000000
5734.242713,518.144159,-8810.098227,-148.041188
5734.243037,370.102971,-8503.660028,-296.082377
5734.243362,592.164754,-8120.612279,-444.123565
5734.243686,296.082377,-8733.488677,-370.102971
5734.244011,518.144159,-8197.221829,-222.061783
5734.244335,370.102971,-8656.879127,-222.061783
5734.244660,444.123565,-8580.269578,-370.102971
5734.244984,888.247130,-8580.269578,-740.205942
5734.245309,592.164754,-8580.269578,-666.185348
5734.245633,518.144159,-8810.098227,-592.164754
5734.245958,296.082377,-8733.488677,-370.102971
5734.246282,518.144159,-8810.098227,0.000000
5734.246607,370.102971,-8427.050478,-296.082377
5734.246931,592.164754,-8810.098227,0.000000
5734.247256,222.061783,-8580.269578,-592.164754
5734.247580,740.205942,-8733.488677,0.000000
5734.247904,222.061783,-8427.050478,-370.102971
5734.248229,518.144159,-8733.488677,0.000000
5734.248553,74.020594,-8427.050478,-370.102971
5734.248878,296.082377,-8810.098227,-370.102971
5734.249202,296.082377,-8580.269578,-592.164754
5734.249527,222.061783,-8810.098227,0.000000
5734.249851,444.123565,-8733.488677,-222.061783
5734.250176,592.164754,-8350.440928,-296.082377
5734.250500,518.144159,-8044.002729,-444.123565
5734.250825,666.185348,-8273.831378,-444.123565
5734.251149,370.102971,-8197.221829,-222.061783
5734.251474,0.000000,-8197.221829,-518.144159
5734.251798,444.123565,-8427.050478,-666.185348
5734.252123,666.185348,-8350.440928,-814.226536
5734.252447,666.185348,-8656.879127,-814.226536
5734.252772,444.123565,-8810.098227,-444.123565
5734.253096,444.123565,-8503.660028,-444.123565
5734.253421,592.164754,-9269.755526,-370.102971
5734.253745,518.144159,-8503.660028,-222.061783
5734.254070,444.123565,-8427.050478,-518.144159
5734.254394,370.102971,-8350.440928,-222.061783
5734.254718,222.061783,-8503.660028,-296.082377
5734.255043,444.123565,-8580.269578,-444.123565
5734.255367,666.185348,-8580.269578,-444.123565
5734.255692,518.144159,-8580.269578,-296.082377
5734.256016,518.144159,-8656.879127,-296.082377
5734.256341,74.020594,-8350.440928,222.061783
5734.256665,296.082377,-8733.488677,0.000000
5734.256990,74.020594,-8273.831378,0.000000
5734.257314,814.226536,-8503.660028,0.000000
5734.257639,444.123565,-8580.269578,-740.205942
5734.257963,740.205942,-8273.831378,-296.082377
5734.258288,444.123565,-8580.269578,-518.144159
5734.258612,666.185348,-8197.221829,-296.082377
5734.258937,296.082377,-8120.612279,-370.102971
5734.259261,370.102971,-8580.269578,-444.123565
5734.259586,148.041188,-8656.879127,-592.164754
5734.259910,0.000000,-8273.831378,-222.061783
5734.260235,222.061783,-8733.488677,-518.144159
5734.260559,666.185348,-9039.926876,-666.185348
5734.260884,814.226536,-8810.098227,-518.144159
5734.261208,592.164754,-8733.488677,-518.144159
5734.261532,740.205942,-8503.660028,-296.082377
5734.261857,296.082377,-9116.536426,-222.061783
5734.262181,592.164754,-9269.755526,0.000000
5734.262506,296.082377,-8427.050478,-518.144159
5734.262830,592.164754,-9116.536426,-370.102971
5734.263155,148.041188,-8733.488677,-370.102971
5734.263479,518.144159,-9116.536426,-370.102971
5734.263804,296.082377,-8733.488677,-296.082377
5734.264128,296.082377,-8580.269578,-370.102971
5734.264453,148.041188,-8580.269578,-592.164754
5734.264777,444.123565,-8733.488677,222.061783
5734.265102,370.102971,-8503.660028,-518.144159
5734.265426,444.123565,-8810.098227,-444.123565
5734.265751,222.061783,-8580.269578,-666.185348
5734.266075,592.164754,-9346.365076,-518.144159
5734.266400,370.102971,-8656.879127,-592.164754
5734.266724,370.102971,-8580.269578,-296.082377
5734.267049,296.082377,-8810.098227,-296.082377
5734.267373,74.020594,-8733.488677,-444.123565
5734.267697,296.082377,-8503.660028,-370.102971
5734.268022,370.102971,-8580.269578,-592.164754
5734.268346,518.144159,-8350.440928,-296.082377
5734.268671,444.123565,-8350.440928,-296.082377
5734.268995,296.082377,-8503.660028,-222.061783
5734.269320,518.144159,-8656.879127,-370.102971
5734.269644,222.061783,-8580.269578,-370.102971
5734.269969,296.082377,-8963.317327,-148.041188
5734.270293,222.061783,-8503.660028,0.000000
5734.270618,518.144159,-8810.098227,-148.041188
5734.270942,592.164754,-8503.660028,-148.041188
5734.271267,740.205942,-8733.488677,-296.082377
5734.271591,666.185348,-8580.269578,-296.082377
5734.271916,444.123565,-8197.221829,0.000000
5734.272240,518.144159,-8503.660028,-222.061783
5734.272565,444.123565,-8427.050478,-296.082377
5734.272889,592.164754,-8503.660028,0.000000
5734.273214,222.061783,-8350.440928,148.041188
5734.273538,518.144159,-8503.660028,-74.020594
5734.273863,518.144159,-8656.879127,-222.061783
5734.274187,518.144159,-8733.488677,-222.061783
5734.274511,444.123565,-8350.440928,-370.102971
5734.274836,444.123565,-8273.831378,-444.123565
5734.275160,518.144159,-8350.440928,-518.144159
5734.275485,296.082377,-8197.221829,-296.082377
5734.275809,148.041188,-8503.660028,-148.041188
5734.276134,888.247130,-8656.879127,-740.205942
5734.276458,296.082377,-8810.098227,-370.102971
5734.276783,518.144159,-8503.660028,-444.123565
5734.277107,740.205942,-8733.488677,0.000000
5734.277432,592.164754,-8963.317327,0.000000
5734.277756,296.082377,-8733.488677,-222.061783
