#time,accel_x,accel_y,accel_z
4178.639983,-1036.288319,-9576.193725,-1258.350101
4178.640307,-1110.308913,-9652.803275,-740.205942
4178.640632,-740.205942,-9652.803275,-1110.308913
4178.640956,-962.267725,-9269.755526,-740.205942
4178.641281,-814.226536,-8810.098227,-740.205942
4178.641605,-666.185348,-8580.269578,-1110.308913
4178.641930,-1110.308913,-8350.440928,-1184.329507
4178.642254,-1110.308913,-9039.926876,-1036.288319
4178.642579,-888.247130,-8963.317327,-1110.308913
4178.642903,-1554.432478,-9499.584175,-1406.391290
4178.643228,-1850.514855,-9806.022374,-1702.473667
4178.643552,-962.267725,-9499.584175,-1036.288319
4178.643876,-2146.597232,-9422.974625,-592.164754
4178.644201,-1850.514855,-9652.803275,-962.267725
4178.644525,-2590.720797,-9269.755526,-666.185348
4178.644850,-3182.885551,-9346.365076,-296.082377
4178.645174,-2220.617826,-8427.050478,-518.144159
4178.645499,-2072.576638,-8733.488677,-592.164754
4178.645823,-1924.535449,-8273.831378,-296.082377
4178.646148,-1924.535449,-7660.954980,-444.123565
4178.646472,-2368.659014,-8963.317327,-148.041188
4178.646797,-2442.679609,-9039.926876,-222.061783
4178.647121,-3256.906145,-8810.098227,0.000000
4178.647446,-3923.091493,-9039.926876,-296.082377
4178.647770,-4367.215058,-8886.707777,444.123565
4178.648094,-4293.194464,-8733.488677,518.144159
4178.648419,-4441.235652,-8810.098227,518.144159
4178.648743,-3701.029710,-8427.050478,370.102971
4178.649068,-3108.864956,-7967.393179,296.082377
4178.649392,-2442.679609,-8350.440928,740.205942
4178.649717,-1924.535449,-7507.735880,592.164754
4178.650041,-2442.679609,-7890.783629,518.144159
4178.650366,-2812.782580,-7967.393179,296.082377
4178.650690,-3404.947333,-8197.221829,518.144159
4178.651015,-3552.988522,-8810.098227,444.123565
4178.651339,-4293.194464,-8350.440928,740.205942
4178.651664,-4071.132681,-8044.002729,666.185348
4178.651988,-3330.926739,-8656.879127,444.123565
4178.652312,-2146.597232,-8197.221829,0.000000
4178.652637,-1332.370696,-8503.660028,148.041188
4178.652961,-518.144159,-7814.174080,74.020594
4178.653286,-222.061783,-7890.783629,74.020594
4178.653610,0.000000,-8197.221829,0.000000
4178.653935,-222.061783,-8427.050478,296.082377
4178.654259,-740.205942,-7890.783629,-370.102971
4178.654584,-1554.432478,-8273.831378,0.000000
4178.654908,-1702.473667,-8580.269578,296.082377
4178.655233,-1998.556043,-9039.926876,-370.102971
4178.655557,-2072.576638,-9422.974625,-592.164754
4178.655882,-1184.329507,-8503.660028,-888.247130
4178.656204,-888.247130,-8810.098227,-1184.329507
4178.656529,-370.102971,-8503.660028,-1406.391290
4178.656853,-370.102971,-8733.488677,-740.205942
4178.657178,148.041188,-8656.879127,-1258.350101
4178.657502,518.144159,-8503.660028,-1332.370696
4178.657827,0.000000,-8427.050478,-962.267725
4178.658151,222.061783,-9193.145976,-1258.350101
4178.658476,0.000000,-9193.145976,-1036.288319
4178.658800,-370.102971,-9346.365076,-1110.308913
4178.659125,-148.041188,-9346.365076,-1036.288319
4178.659449,296.082377,-9882.631924,-1850.514855
4178.659774,222.061783,-9422.974625,-1628.453072
4178.660098,222.061783,-8580.269578,-1554.432478
4178.660423,222.061783,-9269.755526,-1702.473667
4178.660747,222.061783,-8963.317327,-1850.514855
4178.661072,-1776.494261,-8886.707777,-1924.535449
4178.661396,-370.102971,-9346.365076,-1628.453072
4178.661721,-1998.556043,-8350.440928,-1480.411884
4178.662045,-2072.576638,-9576.193725,-740.205942
4178.662370,-2368.659014,-8503.660028,-1258.350101
4178.662694,-2664.741391,-9116.536426,-1184.329507
4178.663019,-2368.659014,-8963.317327,-1776.494261
4178.663343,-1998.556043,-9116.536426,-1258.350101
4178.663668,-1776.494261,-9193.145976,-962.267725
4178.663992,-2146.597232,-9039.926876,-740.205942
4178.664317,-2072.576638,-8810.098227,-296.082377
4178.664641,-1924.535449,-8886.707777,-592.164754
4178.664966,-1628.453072,-8886.707777,0.000000
4178.665290,-962.267725,-8580.269578,296.082377
4178.665615,-1184.329507,-8427.050478,518.144159
4178.665939,-296.082377,-8810.098227,444.123565
4178.666264,0.000000,-8503.660028,296.082377
4178.666588,0.000000,-9499.584175,518.144159
4178.666913,-518.144159,-9346.365076,296.082377
4178.667237,-1924.535449,-9116.536426,592.164754
4178.667562,-2516.700203,-9346.365076,444.123565
4178.667886,-3256.906145,-9116.536426,-296.082377
4178.668211,-4663.297435,-9269.755526,370.102971
4178.668535,-5107.421000,-8273.831378,666.185348
4178.668860,-4737.318029,-8503.660028,888.247130
4178.669184,-4959.379811,-7354.516781,740.205942
4178.669509,-3552.988522,-7967.393179,740.205942
4178.669833,-2664.741391,-7201.297681,592.164754
4178.670158,-1480.411884,-8044.002729,740.205942
4178.670482,-1628.453072,-7048.078582,740.205942
4178.670807,-1258.350101,-8350.440928,666.185348
4178.671131,-2220.617826,-8120.612279,592.164754
4178.671456,-1776.494261,-8350.440928,1184.329507
4178.671780,-1998.556043,-8503.660028,518.144159
4178.672105,-1924.535449,-8810.098227,814.226536
4178.672429,-1776.494261,-8427.050478,222.061783
4178.672754,-1924.535449,-9039.926876,74.020594
4178.673078,-1406.391290,-8503.660028,0.000000
4178.673403,-1258.350101,-7890.783629,-592.164754
4178.673727,-962.267725,-9116.536426,-592.164754
4178.674052,-2072.576638,-7814.174080,-814.226536
4178.674376,-2442.679609,-8656.879127,-666.185348
4178.674701,-2368.659014,-8350.440928,-1036.288319
4178.675025,-1480.411884,-8886.707777,-222.061783
4178.675350,-1332.370696,-8197.221829,-444.123565
4178.675674,0.000000,-8197.221829,-370.102971
4178.675999,592.164754,-8197.221829,-444.123565
4178.676323,2590.720797,-8427.050478,-370.102971
4178.676648,2590.720797,-8197.221829,-1258.350101
4178.676972,2590.720797,-8427.050478,-1406.391290
4178.677297,1332.370696,-9652.803275,-1628.453072
4178.677621,-444.123565,-9346.365076,-740.205942
4178.677946,-370.102971,-10035.851024,-2442.679609
4178.678270,-5181.441594,-9576.193725,-2072.576638
4178.678595,-5847.626942,-9116.536426,-1702.473667
4178.678919,-5921.647536,-9652.803275,-2368.659014
4178.679244,-5107.421000,-10572.117872,-1480.411884
4178.679568,-3182.885551,-8503.660028,-1776.494261
4178.679893,-592.164754,-9346.365076,-1628.453072
4178.680217,1332.370696,-8733.488677,-2294.638420
4178.680542,4293.194464,-9039.926876,-1924.535449
4178.680866,4441.235652,-8733.488677,-1406.391290
4178.681191,4219.173869,-9499.584175,-814.226536
4178.681515,2664.741391,-9652.803275,-666.185348
4178.681840,740.205942,-8810.098227,-888.247130
4178.682164,-2072.576638,-9652.803275,-518.144159
4178.682489,-5551.544565,-9193.145976,-1184.329507
4178.682813,-7031.956449,-9346.365076,-1554.432478
4178.683138,-7328.038826,-8350.440928,-888.247130
4178.683462,-6069.688724,-7660.954980,-1924.535449
4178.683787,-4737.318029,-7660.954980,-1258.350101
4178.684112,444.123565,-7814.174080,-296.082377
4178.684436,3849.070898,-7201.297681,-962.267725
4178.684761,4959.379811,-8273.831378,0.000000
4178.685085,5625.565159,-7584.345430,0.000000
4178.685410,3701.029710,-9422.974625,222.061783
4178.685734,444.123565,-9882.631924,0.000000
4178.686059,-3775.050304,-10495.508323,444.123565
4178.686383,-7994.224174,-9882.631924,1184.329507
4178.686708,-11029.068536,-9499.584175,518.144159
4178.687032,-11473.192101,-8350.440928,0.000000
4178.687357,-9474.636058,-8044.002729,592.164754
4178.687681,-5329.482782,-6052.154434,148.041188
4178.688006,-592.164754,-5975.544884,962.267725
4178.688330,5181.441594,-5669.106685,148.041188
4178.688655,8512.368333,-7277.907231,2072.576638
4178.688979,9252.574275,-7967.393179,666.185348
4178.689304,6143.709319,-9116.536426,1628.453072
4178.689628,1258.350101,-9959.241474,814.226536
4178.689953,-4589.276840,-10725.336972,666.185348
4178.690277,-11325.150913,-11797.870669,1036.288319
4178.690602,-13323.706956,-10725.336972,1036.288319
4178.690926,-12953.603985,-8733.488677,814.226536
4178.691251,-10066.800811,-6052.154434,296.082377
4178.691575,-3775.050304,-6281.983084,0.000000
4178.691900,2442.679609,-6205.373534,-592.164754
4178.692224,7402.059420,-5669.106685,74.020594
4178.692549,10881.027347,-5592.497135,148.041188
4178.692873,10732.986159,-7354.516781,296.082377
4178.693198,8142.265362,-8963.317327,74.020594
4178.693522,2960.823768,-10112.460574,1850.514855
4178.693847,-3108.864956,-11108.384721,1184.329507
4178.694171,-6735.874072,-11644.651570,0.000000
4178.694496,-7772.162391,-11338.213370,666.185348
4178.694820,-7698.141797,-9806.022374,0.000000
4178.695145,-2664.741391,-8503.660028,-1036.288319
4178.695469,1776.494261,-6818.249932,-1554.432478
4178.695794,5699.585753,-6741.640382,-1850.514855
4178.696118,8216.285956,-6128.763984,-2368.659014
4178.696443,8660.409521,-6741.640382,-370.102971
4178.696767,6365.771101,-7354.516781,-444.123565
4178.697092,4737.318029,-9269.755526,444.123565
4178.697416,740.205942,-9806.022374,-518.144159
4178.697741,-3034.844362,-11491.432470,-370.102971
4178.698065,-4145.153275,-10572.117872,-1628.453072
4178.698390,-1776.494261,-11568.042020,-1258.350101
4178.698714,74.020594,-9269.755526,-2220.617826
4178.699039,2442.679609,-9652.803275,-1480.411884
4178.699363,5329.482782,-7277.907231,-2368.659014
4178.699688,5477.523971,-7354.516781,-1850.514855
4178.700012,5181.441594,-5975.544884,-1628.453072
4178.700337,4367.215058,-7124.688131,-444.123565
4178.700661,3256.906145,-7431.126331,518.144159
4178.700986,1924.535449,-9193.145976,-148.041188
4178.701310,1110.308913,-9116.536426,0.000000
4178.701635,888.247130,-10342.289223,-1332.370696
4178.701959,1998.556043,-9806.022374,-2442.679609
4178.702284,2146.597232,-11184.994271,-2516.700203
4178.702608,2960.823768,-10035.851024,-2590.720797
4178.702933,1110.308913,-9806.022374,-1406.391290
4178.703257,370.102971,-8963.317327,-1036.288319
4178.703582,-666.185348,-7967.393179,0.000000
4178.703906,-1480.411884,-7967.393179,1184.329507
4178.704231,-1850.514855,-7354.516781,1332.370696
4178.704555,-962.267725,-7277.907231,814.226536
4178.704880,888.247130,-7201.297681,1184.329507
4178.705204,1998.556043,-6588.421283,518.144159
4178.705529,3552.988522,-9116.536426,-296.082377
4178.705853,3775.050304,-9039.926876,-1924.535449
4178.706178,2294.638420,-10878.556072,-2368.659014
4178.706502,0.000000,-10495.508323,-1184.329507
4178.706827,-3627.009116,-9806.022374,-888.247130
4178.707151,-5329.482782,-10572.117872,962.267725
4178.707476,-6957.935855,-8427.050478,1850.514855
4178.707800,-5033.400406,-9039.926876,2294.638420
4178.708125,-4293.194464,-6588.421283,518.144159
4178.708449,-296.082377,-7737.564530,1850.514855
4178.708774,3478.967927,-6894.859482,370.102971
4178.709098,4737.318029,-7277.907231,-148.041188
4178.709423,4071.132681,-7354.516781,-888.247130
4178.709747,1776.494261,-7967.393179,-1480.411884
4178.710072,-1702.473667,-9422.974625,-1036.288319
4178.710396,-4737.318029,-10112.460574,-296.082377
4178.710721,-6513.812290,-10342.289223,1850.514855
4178.711045,-6809.894666,-9652.803275,1480.411884
4178.711370,-5255.462188,-8810.098227,1998.556043
4178.711694,-1776.494261,-7507.735880,1110.308913
4178.712019,2072.576638,-7354.516781,814.226536
4178.712343,5847.626942,-6818.249932,-814.226536
4178.712668,6661.853478,-7507.735880,-1110.308913
4178.712992,5255.462188,-7354.516781,-1850.514855
4178.713317,2368.659014,-7354.516781,-1184.329507
4178.713641,-1554.432478,-9576.193725,-1702.473667
4178.713966,-3478.967927,-11568.042020,740.205942
4178.714290,-5921.647536,-9499.584175,-666.185348
4178.714615,-5773.606348,-11644.651570,962.267725
4178.714939,-3404.947333,-9346.365076,666.185348
4178.715264,962.267725,-9499.584175,740.205942
4178.715588,4737.318029,-7660.954980,-370.102971
4178.715913,6809.894666,-7277.907231,-1110.308913
4178.716237,7254.018232,-7124.688131,-2294.638420
4178.716562,5847.626942,-6281.983084,-2812.782580
4178.716886,2368.659014,-8120.612279,-1628.453072
4178.717211,0.000000,-7507.735880,-222.061783
4178.717535,-2294.638420,-9422.974625,-296.082377
4178.717860,-3701.029710,-9806.022374,222.061783
4178.718184,-1480.411884,-9959.241474,0.000000
4178.718509,148.041188,-10035.851024,-962.267725
4178.718833,3108.864956,-10418.898773,-888.247130
4178.719158,4811.338623,-9193.145976,-1184.329507
4178.719482,6143.709319,-8580.269578,-1554.432478
4178.719807,5329.482782,-7890.783629,-2220.617826
4178.720131,4959.379811,-7737.564530,-2442.679609
4178.720456,2738.761985,-7584.345430,-2368.659014
4178.720780,962.267725,-8197.221829,-962.267725
4178.721105,-296.082377,-7584.345430,0.000000
4178.721429,222.061783,-8197.221829,592.164754
4178.721754,1628.453072,-8733.488677,666.185348
4178.722078,2442.679609,-8580.269578,-296.082377
4178.722403,3330.926739,-9806.022374,-296.082377
4178.722727,4219.173869,-8580.269578,-1258.350101
4178.723052,3404.947333,-8963.317327,-666.185348
4178.723376,1406.391290,-8427.050478,-1554.432478
4178.723701,-1110.308913,-9039.926876,-222.061783
4178.724025,-3182.885551,-7507.735880,-518.144159
4178.724350,-2516.700203,-7967.393179,1110.308913
4178.724674,-1702.473667,-7431.126331,518.144159
4178.724999,-1776.494261,-8120.612279,0.000000
4178.725323,1258.350101,-7814.174080,222.061783
4178.725648,2738.761985,-8427.050478,0.000000
4178.725972,2442.679609,-9116.536426,222.061783
4178.726297,1480.411884,-8350.440928,-962.267725
4178.726621,74.020594,-10265.679673,-222.061783
4178.726946,-1480.411884,-9422.974625,-148.041188
4178.727270,-2146.597232,-9499.584175,-370.102971
4178.727595,-3701.029710,-9346.365076,962.267725
4178.727919,-2960.823768,-8120.612279,962.267725
4178.728244,-1702.473667,-8427.050478,888.247130
4178.728568,740.205942,-7431.126331,222.061783
4178.728893,2812.782580,-7431.126331,0.000000
4178.729217,2886.803174,-7048.078582,-592.164754
4178.729542,1776.494261,-7354.516781,-370.102971
4178.729866,222.061783,-8503.660028,74.020594
4178.730191,-3256.906145,-8350.440928,0.000000
4178.730515,-5847.626942,-9193.145976,0.000000
4178.730840,-5847.626942,-9729.412825,296.082377
4178.731165,-5847.626942,-9729.412825,518.144159
4178.731489,-3997.112087,-9806.022374,444.123565
4178.731814,-962.267725,-8120.612279,74.020594
4178.732138,2812.782580,-8427.050478,0.000000
4178.732463,4071.132681,-7507.735880,-814.226536
4178.732787,4737.318029,-8273.831378,-592.164754
4178.733112,3997.112087,-7124.688131,-1036.288319
4178.733436,1184.329507,-8503.660028,-666.185348
4178.733761,-1554.432478,-9039.926876,-518.144159
4178.734085,-4071.132681,-9269.755526,0.000000
4178.734410,-4219.173869,-10495.508323,74.020594
4178.734734,-2812.782580,-9806.022374,518.144159
4178.735059,-444.123565,-8886.707777,0.000000
4178.735383,3034.844362,-8963.317327,296.082377
4178.735708,4737.318029,-7967.393179,-1036.288319
4178.736032,6069.688724,-8273.831378,-1110.308913
4178.736357,4959.379811,-7048.078582,-2590.720797
4178.736681,1924.535449,-8580.269578,-1554.432478
4178.737006,-444.123565,-8044.002729,-1258.350101
4178.737330,-3256.906145,-8427.050478,-296.082377
4178.737655,-3552.988522,-9116.536426,0.000000
4178.737979,-3923.091493,-8350.440928,-444.123565
4178.738304,888.247130,-9499.584175,0.000000
4178.738628,3108.864956,-8273.831378,-1036.288319
4178.738953,4885.359217,-9193.145976,-962.267725
4178.739277,5033.400406,-8273.831378,-1998.556043
4178.739602,5847.626942,-9269.755526,-1554.432478
4178.739926,4293.194464,-7354.516781,-2368.659014
4178.740251,3256.906145,-8810.098227,-1628.453072
4178.740575,-444.123565,-8963.317327,-740.205942
4178.740900,-1406.391290,-8886.707777,-592.164754
4178.741224,-888.247130,-8273.831378,1110.308913
4178.741549,-1258.350101,-8427.050478,-740.205942
4178.741873,518.144159,-8427.050478,74.020594
4178.742198,2442.679609,-8273.831378,-518.144159
4178.742522,4959.379811,-8810.098227,-1998.556043
4178.742847,4293.194464,-8273.831378,-1554.432478
4178.743171,2812.782580,-9729.412825,-1702.473667
4178.743496,-148.041188,-8503.660028,-666.185348
4178.743820,-2368.659014,-8503.660028,0.000000
4178.744145,-3330.926739,-9193.145976,666.185348
4178.744469,-2960.823768,-7660.954980,666.185348
4178.744794,-962.267725,-8197.221829,518.144159
4178.745118,1776.494261,-8350.440928,370.102971
4178.745443,3849.070898,-8120.612279,-666.185348
4178.745767,4737.318029,-9499.584175,-666.185348
4178.746092,4293.194464,-9193.145976,-1332.370696
4178.746416,2294.638420,-8197.221829,-1480.411884
4178.746741,-444.123565,-9499.584175,-888.247130
4178.747065,-3404.947333,-9039.926876,444.123565
4178.747390,-5181.441594,-9422.974625,74.020594
4178.747714,-5995.668130,-9499.584175,1110.308913
4178.748039,-3849.070898,-8427.050478,592.164754
4178.748363,-1184.329507,-8503.660028,740.205942
4178.748688,1628.453072,-8197.221829,666.185348
4178.749012,4811.338623,-8044.002729,0.000000
4178.749337,4589.276840,-7584.345430,74.020594
4178.749661,2738.761985,-7277.907231,-888.247130
4178.749986,1036.288319,-9499.584175,0.000000
4178.750310,-2294.638420,-8197.221829,-962.267725
4178.750635,-5847.626942,-9959.241474,962.267725
4178.750959,-6513.812290,-9193.145976,296.082377
4178.751284,-5477.523971,-9576.193725,1332.370696
4178.751608,-3182.885551,-8427.050478,592.164754
4178.751933,444.123565,-8350.440928,444.123565
4178.752257,2590.720797,-7814.174080,0.000000
4178.752582,4219.173869,-8044.002729,-1110.308913
4178.752906,4737.318029,-8044.002729,-666.185348
4178.753231,3478.967927,-7967.393179,-2072.576638
4178.753555,1258.350101,-8656.879127,-740.205942
4178.753879,-3108.864956,-8427.050478,0.000000
4178.754204,-4959.379811,-10189.070123,888.247130
4178.754528,-4515.256246,-9806.022374,222.061783
4178.754853,-2368.659014,-9652.803275,666.185348
4178.755177,-740.205942,-9193.145976,666.185348
4178.755501,2220.617826,-7890.783629,0.000000
4178.755826,4071.132681,-8120.612279,-592.164754
4178.756150,5181.441594,-7814.174080,-814.226536
4178.756474,4589.276840,-7584.345430,-1628.453072
4178.756799,2368.659014,-7660.954980,-1480.411884
4178.757123,0.000000,-7660.954980,0.000000
4178.757448,-1924.535449,-8810.098227,296.082377
4178.757772,-2960.823768,-8963.317327,148.041188
4178.758096,-1554.432478,-8963.317327,296.082377
4178.758421,-444.123565,-8350.440928,0.000000
4178.758745,2442.679609,-8733.488677,-666.185348
4178.759069,4663.297435,-8733.488677,-1036.288319
4178.759394,5699.585753,-9269.755526,-2146.597232
4178.759718,4737.318029,-8273.831378,-1776.494261
4178.760043,2442.679609,-8273.831378,-1998.556043
4178.760367,-222.061783,-8733.488677,-1258.350101
4178.760691,-1554.432478,-8273.831378,-148.041188
4178.761016,-1924.535449,-8580.269578,0.000000
4178.761340,-740.205942,-8580.269578,148.041188
4178.761664,1554.432478,-7814.174080,-296.082377
4178.761989,4589.276840,-10112.460574,-370.102971
4178.762313,4737.318029,-8044.002729,-1480.411884
4178.762638,4959.379811,-9882.631924,-666.185348
4178.762962,3775.050304,-7660.954980,-2590.720797
4178.763286,666.185348,-8963.317327,-1406.391290
4178.763611,-1702.473667,-8273.831378,-1554.432478
4178.763935,-3034.844362,-9116.536426,-592.164754
4178.764259,-4145.153275,-7431.126331,-888.247130
4178.764584,-2442.679609,-8580.269578,740.205942
4178.764908,444.123565,-8044.002729,-296.082377
4178.765233,2294.638420,-8120.612279,-740.205942
4178.765557,4145.153275,-8120.612279,-814.226536
4178.765881,4811.338623,-7737.564530,-740.205942
4178.766206,3997.112087,-8580.269578,-1702.473667
4178.766530,1258.350101,-9193.145976,-1702.473667
4178.766854,-2368.659014,-8963.317327,-814.226536
4178.767179,-4811.338623,-10035.851024,148.041188
4178.767503,-5033.400406,-9806.022374,0.000000
4178.767827,-4441.235652,-8733.488677,1036.288319
4178.768152,-3404.947333,-8886.707777,1258.350101
4178.768476,-592.164754,-7814.174080,888.247130
4178.768801,3182.885551,-7660.954980,444.123565
4178.769125,5255.462188,-7431.126331,-148.041188
4178.769449,5847.626942,-7814.174080,-148.041188
4178.769774,3775.050304,-8120.612279,-1110.308913
4178.770098,-666.185348,-8427.050478,-518.144159
4178.770422,-3552.988522,-9269.755526,-444.123565
4178.770747,-6069.688724,-9652.803275,0.000000
4178.771071,-6735.874072,-10112.460574,1998.556043
4178.771396,-4589.276840,-8350.440928,814.226536
4178.771720,-2146.597232,-9422.974625,814.226536
4178.772044,1036.288319,-7507.735880,-370.102971
4178.772369,3923.091493,-8580.269578,74.020594
4178.772693,5033.400406,-7201.297681,-888.247130
4178.773017,3849.070898,-8350.440928,-518.144159
4178.773342,2072.576638,-7431.126331,-1110.308913
4178.773666,-888.247130,-8810.098227,296.082377
4178.773991,-3404.947333,-8886.707777,0.000000
4178.774315,-4959.379811,-9806.022374,740.205942
4178.774639,-3182.885551,-9346.365076,1110.308913
4178.774964,-1702.473667,-9039.926876,0.000000
4178.775288,1776.494261,-9269.755526,296.082377
4178.775612,2368.659014,-7201.297681,-370.102971
4178.775937,3552.988522,-8886.707777,222.061783
4178.776261,3034.844362,-6971.469032,-1850.514855
4178.776586,1924.535449,-8197.221829,-1110.308913
4178.776910,-1628.453072,-7967.393179,-1110.308913
4178.777234,-2886.803174,-9193.145976,-222.061783
4178.777559,-4145.153275,-8886.707777,-444.123565
4178.777883,-2294.638420,-9116.536426,666.185348
4178.778207,-370.102971,-7507.735880,0.000000
4178.778532,3034.844362,-8886.707777,-222.061783
4178.778856,4885.359217,-8197.221829,-740.205942
4178.779181,7624.121203,-8273.831378,-888.247130
4178.779505,5921.647536,-8656.879127,-2220.617826
4178.779829,4737.318029,-8503.660028,-1406.391290
4178.780154,1480.411884,-8580.269578,-962.267725
4178.780478,-1110.308913,-9269.755526,-814.226536
4178.780802,-2368.659014,-9269.755526,-740.205942
4178.781127,-3997.112087,-9499.584175,666.185348
4178.781451,-1480.411884,-9499.584175,666.185348
4178.781776,148.041188,-7584.345430,-592.164754
4178.782100,3256.906145,-9422.974625,148.041188
4178.782424,5329.482782,-7967.393179,-1998.556043
4178.782749,4811.338623,-9422.974625,-1850.514855
4178.783073,4071.132681,-8963.317327,-1998.556043
4178.783397,0.000000,-8120.612279,-814.226536
4178.783722,-1998.556043,-8656.879127,-1184.329507
4178.784046,-3627.009116,-9422.974625,518.144159
4178.784370,-4071.132681,-9269.755526,740.205942
4178.784695,-2516.700203,-7431.126331,814.226536
4178.785019,222.061783,-8273.831378,0.000000
4178.785344,3256.906145,-9116.536426,0.000000
4178.785668,5477.523971,-7660.954980,-1110.308913
4178.785992,6217.729913,-8044.002729,-1332.370696
4178.786317,4737.318029,-8810.098227,-1628.453072
4178.786641,1036.288319,-8120.612279,-1480.411884
4178.786965,-148.041188,-9346.365076,-592.164754
4178.787290,-3849.070898,-9269.755526,-296.082377
4178.787614,-5033.400406,-9576.193725,370.102971
4178.787939,-5477.523971,-9269.755526,296.082377
4178.788263,-2368.659014,-8656.879127,1554.432478
4178.788587,148.041188,-7507.735880,74.020594
4178.788912,3108.864956,-8044.002729,0.000000
4178.789236,3923.091493,-7354.516781,-592.164754
4178.789560,3256.906145,-7660.954980,-370.102971
4178.789885,2072.576638,-7201.297681,-1184.329507
4178.790209,592.164754,-8580.269578,0.000000
4178.790534,-3108.864956,-8810.098227,148.041188
4178.790858,-5477.523971,-9346.365076,888.247130
4178.791182,-5033.400406,-9193.145976,888.247130
4178.791507,-4589.276840,-8810.098227,592.164754
4178.791831,-1184.329507,-8044.002729,962.267725
4178.792155,1554.432478,-7507.735880,-666.185348
4178.792480,4737.318029,-8810.098227,0.000000
4178.792804,3404.947333,-7584.345430,-1554.432478
4178.793129,3182.885551,-8580.269578,-592.164754
4178.793453,666.185348,-8197.221829,-1702.473667
4178.793777,-1480.411884,-9193.145976,518.144159
4178.794102,-3478.967927,-8810.098227,296.082377
4178.794426,-4737.318029,-9422.974625,666.185348
4178.794750,-3256.906145,-9269.755526,1036.288319
4178.795075,-1554.432478,-8273.831378,296.082377
4178.795399,1776.494261,-8963.317327,444.123565
4178.795724,4219.173869,-7584.345430,-814.226536
4178.796048,5033.400406,-8963.317327,-370.102971
4178.796372,3923.091493,-7048.078582,-1554.432478
4178.796697,2442.679609,-8427.050478,-962.267725
4178.797021,-296.082377,-8044.002729,-1258.350101
4178.797345,-1776.494261,-8733.488677,518.144159
4178.797670,-3182.885551,-8503.660028,666.185348
4178.797994,-2664.741391,-8963.317327,444.123565
4178.798318,-370.102971,-8810.098227,370.102971
4178.798643,1406.391290,-8350.440928,-518.144159
4178.798967,3997.112087,-9116.536426,-888.247130
4178.799292,4515.256246,-8427.050478,-1110.308913
4178.799616,4737.318029,-8503.660028,-2072.576638
4178.799940,2886.803174,-8350.440928,-1702.473667
4178.800265,1184.329507,-9269.755526,-1554.432478
4178.800589,-814.226536,-8963.317327,-666.185348
4178.800913,-2368.659014,-8197.221829,296.082377
4178.801238,-2368.659014,-9576.193725,1110.308913
4178.801562,-962.267725,-8120.612279,0.000000
4178.801887,1776.494261,-8580.269578,518.144159
4178.802211,3775.050304,-8580.269578,-740.205942
4178.802535,4959.379811,-8273.831378,-962.267725
4178.802860,4293.194464,-8580.269578,-1184.329507
4178.803184,3330.926739,-7967.393179,-2220.617826
4178.803508,1480.411884,-9346.365076,-1036.288319
4178.803833,-1184.329507,-8044.002729,-666.185348
4178.804157,-2960.823768,-9346.365076,518.144159
4178.804482,-3775.050304,-8503.660028,296.082377
4178.804806,-1850.514855,-8580.269578,888.247130
4178.805130,1480.411884,-7814.174080,296.082377
4178.805455,3478.967927,-8656.879127,-888.247130
4178.805779,5107.421000,-8427.050478,-1406.391290
4178.806103,4737.318029,-8503.660028,-1554.432478
4178.806428,3256.906145,-8810.098227,-1258.350101
4178.806752,962.267725,-8733.488677,-1480.411884
4178.807077,-1258.350101,-9346.365076,-740.205942
4178.807401,-3256.906145,-8963.317327,0.000000
4178.807725,-3997.112087,-9729.412825,370.102971
4178.808050,-3404.947333,-8580.269578,814.226536
4178.808374,-1110.308913,-9116.536426,1036.288319
4178.808698,1406.391290,-7890.783629,222.061783
4178.809023,3849.070898,-8580.269578,0.000000
4178.809347,4515.256246,-7507.735880,-444.123565
4178.809672,3478.967927,-8350.440928,-666.185348
4178.809996,518.144159,-8273.831378,-1332.370696
4178.810320,-1480.411884,-8886.707777,-1110.308913
4178.810645,-4663.297435,-9346.365076,0.000000
4178.810969,-5699.585753,-9039.926876,740.205942
4178.811293,-3997.112087,-9116.536426,1110.308913
4178.811618,-2368.659014,-8350.440928,962.267725
4178.811942,1332.370696,-8656.879127,74.020594
4178.812266,4515.256246,-8044.002729,-518.144159
4178.812591,4441.235652,-8197.221829,-1184.329507
4178.812915,3849.070898,-8350.440928,-962.267725
4178.813240,1776.494261,-8427.050478,-962.267725
4178.813564,-518.144159,-9039.926876,-888.247130
4178.813888,-2072.576638,-9576.193725,-370.102971
4178.814213,-5255.462188,-9346.365076,-370.102971
4178.814537,-5107.421000,-10035.851024,222.061783
4178.814861,-3034.844362,-8886.707777,1036.288319
4178.815186,-444.123565,-8580.269578,444.123565
4178.815510,2738.761985,-8273.831378,222.061783
4178.815835,3701.029710,-7660.954980,-444.123565
4178.816159,4219.173869,-8350.440928,0.000000
4178.816483,3775.050304,-6971.469032,-1258.350101
4178.816808,1036.288319,-8503.660028,-962.267725
4178.817132,-1628.453072,-8044.002729,-296.082377
4178.817456,-3182.885551,-8733.488677,592.164754
4178.817781,-4071.132681,-8656.879127,444.123565
4178.818105,-2516.700203,-9269.755526,592.164754
4178.818430,-740.205942,-8427.050478,74.020594
4178.818754,1184.329507,-8120.612279,-592.164754
4178.819078,2886.803174,-7967.393179,-1184.329507
4178.819403,4367.215058,-8427.050478,-888.247130
4178.819727,4367.215058,-8273.831378,-1110.308913
4178.820051,3182.885551,-8197.221829,-1406.391290
4178.820376,1036.288319,-8733.488677,-1184.329507
4178.820700,-1184.329507,-8886.707777,-518.144159
4178.821025,-2146.597232,-9422.974625,-370.102971
4178.821349,-1776.494261,-8810.098227,370.102971
4178.821673,1036.288319,-8427.050478,1110.308913
4178.821998,2516.700203,-8580.269578,0.000000
4178.822322,3849.070898,-8963.317327,-592.164754
4178.822646,5033.400406,-8503.660028,-1480.411884
4178.822971,3108.864956,-8120.612279,-2294.638420
4178.823295,1776.494261,-8427.050478,-1258.350101
4178.823620,-740.205942,-8810.098227,-814.226536
4178.823944,-2368.659014,-8886.707777,0.000000
4178.824268,-3034.844362,-8580.269578,222.061783
4178.824593,-1998.556043,-8656.879127,592.164754
4178.824917,888.247130,-8733.488677,0.000000
4178.825241,3034.844362,-8503.660028,0.000000
4178.825566,4071.132681,-8503.660028,-814.226536
4178.825890,5551.544565,-8810.098227,-296.082377
4178.826215,4293.194464,-8350.440928,-2294.638420
4178.826539,2664.741391,-9806.022374,-2146.597232
4178.826863,148.041188,-8886.707777,-1184.329507
4178.827188,-3775.050304,-9652.803275,0.000000
4178.827512,-3923.091493,-9193.145976,-148.041188
4178.827836,-3701.029710,-9806.022374,1480.411884
4178.828161,-2368.659014,-8427.050478,814.226536
4178.828485,888.247130,-8044.002729,444.123565
4178.828809,3775.050304,-7967.393179,-444.123565
4178.829134,6069.688724,-8273.831378,-962.267725
4178.829458,4367.215058,-7890.783629,-814.226536
4178.829783,2812.782580,-9193.145976,-1036.288319
4178.830107,-148.041188,-7967.393179,-1258.350101
4178.830431,-4441.235652,-9346.365076,74.020594
4178.830756,-6069.688724,-9806.022374,0.000000
4178.831080,-6439.791695,-9422.974625,148.041188
4178.831404,-4589.276840,-8580.269578,444.123565
4178.831729,-518.144159,-8120.612279,666.185348
4178.832053,2294.638420,-7660.954980,-148.041188
4178.832378,4589.276840,-8427.050478,-740.205942
4178.832702,4959.379811,-7660.954980,-1628.453072
4178.833026,3775.050304,-8580.269578,-1258.350101
4178.833351,2220.617826,-8580.269578,-1554.432478
4178.833675,0.000000,-9422.974625,-222.061783
4178.833999,-3552.988522,-9499.584175,222.061783
4178.834324,-4959.379811,-9729.412825,1258.350101
4178.834648,-4663.297435,-9422.974625,1110.308913
4178.834973,-2442.679609,-8656.879127,888.247130
4178.835297,-740.205942,-7967.393179,222.061783
4178.835621,2368.659014,-7660.954980,0.000000
4178.835946,4293.194464,-7584.345430,-148.041188
4178.836270,4441.235652,-6971.469032,-962.267725
4178.836594,3478.967927,-7737.564530,-1332.370696
4178.836919,148.041188,-7737.564530,-592.164754
4178.837243,-2072.576638,-8350.440928,-148.041188
4178.837568,-3627.009116,-8656.879127,1406.391290
4178.837892,-3997.112087,-9039.926876,666.185348
4178.838216,-2146.597232,-8197.221829,370.102971
4178.838541,0.000000,-8886.707777,518.144159
4178.838865,2738.761985,-8197.221829,-888.247130
4178.839189,5329.482782,-8656.879127,-222.061783
4178.839514,5477.523971,-7660.954980,-1184.329507
4178.839838,3627.009116,-8197.221829,-1480.411884
4178.840163,1998.556043,-8197.221829,-1480.411884
4178.840487,-740.205942,-8810.098227,370.102971
4178.840811,-2664.741391,-7890.783629,592.164754
4178.841136,-1406.391290,-9806.022374,962.267725
4178.841460,-962.267725,-8656.879127,518.144159
4178.841784,444.123565,-8350.440928,814.226536
4178.842109,3034.844362,-7124.688131,370.102971
4178.842433,3997.112087,-9422.974625,-592.164754
4178.842757,5477.523971,-9116.536426,-1554.432478
4178.843082,3478.967927,-9039.926876,-1258.350101
4178.843406,1036.288319,-6358.592633,-1702.473667
4178.843731,-1036.288319,-8044.002729,-814.226536
4178.844055,-2294.638420,-9422.974625,222.061783
4178.844379,-2664.741391,-8044.002729,-518.144159
4178.844704,-1554.432478,-8733.488677,592.164754
4178.845028,-1628.453072,-8503.660028,0.000000
4178.845352,2442.679609,-7814.174080,-518.144159
4178.845677,4737.318029,-7814.174080,-1480.411884
4178.846001,5403.503377,-9882.631924,-1924.535449
4178.846326,4737.318029,-8886.707777,-2442.679609
4178.846650,1776.494261,-9193.145976,-1776.494261
4178.846974,0.000000,-9346.365076,-814.226536
4178.847299,-2516.700203,-8580.269578,-888.247130
4178.847623,-3701.029710,-10189.070123,740.205942
4178.847947,-3330.926739,-8044.002729,740.205942
4178.848272,-444.123565,-8580.269578,222.061783
4178.848596,2220.617826,-8350.440928,-222.061783
4178.848921,4219.173869,-8427.050478,-296.082377
4178.849245,4589.276840,-7890.783629,-1406.391290
4178.849569,3182.885551,-8733.488677,-1258.350101
4178.849894,1998.556043,-8427.050478,-1480.411884
4178.850218,-148.041188,-9269.755526,-1184.329507
4178.850542,-4219.173869,-9193.145976,-370.102971
4178.850867,-5773.606348,-9346.365076,1184.329507
4178.851191,-5181.441594,-8886.707777,1184.329507
4178.851516,-2590.720797,-9193.145976,962.267725
4178.851840,0.000000,-8044.002729,-444.123565
4178.852164,2886.803174,-8197.221829,0.000000
4178.852489,4071.132681,-7814.174080,-1332.370696
4178.852813,4589.276840,-8656.879127,-1480.411884
4178.853137,4293.194464,-8197.221829,-1628.453072
4178.853462,1036.288319,-8656.879127,-296.082377
4178.853786,-1776.494261,-9116.536426,-296.082377
4178.854111,-4737.318029,-9806.022374,888.247130
4178.854435,-3627.009116,-9422.974625,1184.329507
4178.854759,-4145.153275,-8580.269578,592.164754
4178.855084,-962.267725,-8810.098227,296.082377
4178.855408,1554.432478,-7584.345430,518.144159
4178.855732,3478.967927,-7967.393179,0.000000
4178.856057,4885.359217,-7814.174080,-370.102971
4178.856381,3849.070898,-7967.393179,-814.226536
4178.856705,1702.473667,-8120.612279,-1332.370696
4178.857030,-592.164754,-7967.393179,-444.123565
4178.857354,-3404.947333,-8503.660028,666.185348
4178.857679,-3923.091493,-9729.412825,962.267725
4178.858003,-2738.761985,-9116.536426,1554.432478
4178.858327,-1332.370696,-8656.879127,740.205942
4178.858652,1184.329507,-8733.488677,222.061783
4178.858976,3849.070898,-8350.440928,-740.205942
4178.859300,5551.544565,-9346.365076,-814.226536
4178.859625,5033.400406,-7890.783629,-1406.391290
4178.859949,3034.844362,-7814.174080,-1258.350101
4178.860273,-296.082377,-9422.974625,-1110.308913
4178.860598,-888.247130,-8886.707777,0.000000
4178.860922,-2960.823768,-8656.879127,0.000000
4178.861247,-3627.009116,-9039.926876,1184.329507
4178.861571,-1110.308913,-8120.612279,148.041188
4178.861895,1776.494261,-9346.365076,444.123565
4178.862220,3182.885551,-8580.269578,-740.205942
4178.862544,4663.297435,-8580.269578,-1036.288319
4178.862868,3775.050304,-8810.098227,-1406.391290
4178.863193,2812.782580,-9039.926876,-1776.494261
4178.863517,666.185348,-9269.755526,-1332.370696
4178.863842,-1702.473667,-8733.488677,-888.247130
4178.864166,-2368.659014,-9346.365076,370.102971
4178.864490,-3330.926739,-8580.269578,0.000000
4178.864815,-1554.432478,-9039.926876,0.000000
4178.865139,518.144159,-8273.831378,-148.041188
4178.865463,2072.576638,-8273.831378,-1406.391290
4178.865788,4811.338623,-8503.660028,-814.226536
4178.866112,4145.153275,-8427.050478,-1406.391290
4178.866436,3923.091493,-10112.460574,-1406.391290
4178.866761,1332.370696,-9269.755526,-2294.638420
4178.867085,-444.123565,-9806.022374,-962.267725
4178.867410,-2368.659014,-10035.851024,74.020594
4178.867734,-2664.741391,-9652.803275,148.041188
4178.868058,-2590.720797,-8656.879127,666.185348
4178.868383,148.041188,-7354.516781,592.164754
4178.868707,2072.576638,-7814.174080,740.205942
4178.869031,3997.112087,-7814.174080,-962.267725
4178.869356,4885.359217,-8656.879127,-1184.329507
4178.869680,2886.803174,-8044.002729,-2368.659014
4178.870004,518.144159,-8580.269578,-1554.432478
4178.870329,-1480.411884,-8350.440928,-296.082377
4178.870653,-4293.194464,-9499.584175,148.041188
4178.870978,-5255.462188,-8886.707777,888.247130
4178.871302,-4811.338623,-8427.050478,666.185348
4178.871626,-1480.411884,-9346.365076,444.123565
4178.871951,962.267725,-8273.831378,74.020594
4178.872275,4071.132681,-8580.269578,-592.164754
4178.872599,5181.441594,-8044.002729,-1332.370696
4178.872924,3923.091493,-7584.345430,-1332.370696
4178.873248,1776.494261,-8044.002729,-518.144159
4178.873573,296.082377,-8120.612279,-888.247130
4178.873897,-2442.679609,-9116.536426,0.000000
4178.874221,-4071.132681,-9039.926876,1110.308913
4178.874546,-4293.194464,-8886.707777,1406.391290
4178.874870,-2146.597232,-9193.145976,1036.288319
4178.875194,296.082377,-8044.002729,1110.308913
4178.875519,2442.679609,-7737.564530,1036.288319
4178.875843,4219.173869,-8044.002729,222.061783
4178.876167,3849.070898,-7890.783629,-1036.288319
4178.876492,3627.009116,-8580.269578,-1480.411884
4178.876816,1110.308913,-8273.831378,-1554.432478
4178.877141,-1850.514855,-9116.536426,-370.102971
4178.877465,-4663.297435,-8580.269578,1110.308913
4178.877789,-5181.441594,-9193.145976,1554.432478
4178.878114,-4663.297435,-8503.660028,-222.061783
4178.878438,-1480.411884,-9422.974625,814.226536
4178.878762,1702.473667,-8503.660028,-666.185348
4178.879087,4219.173869,-8427.050478,-444.123565
4178.879411,4737.318029,-8197.221829,-1332.370696
4178.879735,4737.318029,-8044.002729,-962.267725
4178.880060,3182.885551,-8427.050478,-1332.370696
4178.880384,666.185348,-9652.803275,-666.185348
4178.880709,-1776.494261,-9652.803275,74.020594
4178.881033,-3552.988522,-8580.269578,74.020594
4178.881357,-3330.926739,-9422.974625,814.226536
4178.881682,-1554.432478,-7967.393179,-222.061783
4178.882006,518.144159,-9269.755526,518.144159
4178.882330,2368.659014,-8044.002729,-296.082377
4178.882655,4219.173869,-9039.926876,-888.247130
4178.882979,3552.988522,-7890.783629,-2146.597232
4178.883304,1480.411884,-8810.098227,-888.247130
4178.883628,0.000000,-7967.393179,-962.267725
4178.883952,-2146.597232,-9116.536426,-296.082377
4178.884277,-2516.700203,-9039.926876,666.185348
4178.884601,-1776.494261,-8503.660028,592.164754
4178.884925,-222.061783,-8810.098227,74.020594
4178.885250,1480.411884,-8503.660028,-592.164754
4178.885574,4145.153275,-8733.488677,-296.082377
4178.885898,4811.338623,-8120.612279,-1036.288319
4178.886223,4811.338623,-8963.317327,-1554.432478
4178.886547,3182.885551,-8044.002729,-1554.432478
4178.886872,1036.288319,-8963.317327,-1184.329507
4178.887196,-1184.329507,-8886.707777,0.000000
4178.887520,-2664.741391,-9269.755526,296.082377
4178.887845,-3034.844362,-9422.974625,444.123565
4178.888169,-2368.659014,-8350.440928,148.041188
4178.888493,0.000000,-8273.831378,296.082377
4178.888818,2072.576638,-8120.612279,-592.164754
4178.889142,4293.194464,-7967.393179,-814.226536
4178.889466,4589.276840,-8733.488677,-814.226536
4178.889791,2220.617826,-8656.879127,-1628.453072
4178.890115,888.247130,-7660.954980,-962.267725
4178.890440,-2294.638420,-8733.488677,-222.061783
4178.890764,-4219.173869,-8733.488677,1036.288319
4178.891088,-4145.153275,-8656.879127,814.226536
4178.891413,-2368.659014,-8580.269578,740.205942
4178.891737,-1184.329507,-7431.126331,518.144159
4178.892061,3108.864956,-7737.564530,-148.041188
4178.892386,4811.338623,-9039.926876,-1184.329507
4178.892710,5625.565159,-7584.345430,-814.226536
4178.893035,3923.091493,-8120.612279,-814.226536
4178.893359,1036.288319,-8503.660028,-1406.391290
4178.893683,-666.185348,-9422.974625,-296.082377
4178.894008,-2368.659014,-9193.145976,0.000000
4178.894332,-3997.112087,-9422.974625,592.164754
4178.894656,-3478.967927,-8580.269578,296.082377
4178.894981,-3701.029710,-9039.926876,1036.288319
4178.895305,-444.123565,-7507.735880,0.000000
4178.895629,2072.576638,-7967.393179,74.020594
4178.895954,4293.194464,-7814.174080,-370.102971
4178.896278,3256.906145,-6971.469032,-666.185348
4178.896603,3034.844362,-8044.002729,-814.226536
4178.896927,0.000000,-8427.050478,-1184.329507
4178.897251,-1702.473667,-9193.145976,0.000000
4178.897576,-3108.864956,-9269.755526,518.144159
4178.897900,-3330.926739,-8886.707777,1036.288319
4178.898224,-2368.659014,-8427.050478,444.123565
4178.898549,592.164754,-8733.488677,0.000000
4178.898873,2294.638420,-8580.269578,-518.144159
4178.899197,4145.153275,-8350.440928,-888.247130
4178.899522,4367.215058,-8656.879127,-1332.370696
4178.899846,3552.988522,-8427.050478,-1258.350101
4178.900171,962.267725,-8810.098227,-1332.370696
4178.900495,-1628.453072,-8273.831378,-592.164754
4178.900819,-3182.885551,-9269.755526,444.123565
4178.901144,-3330.926739,-9652.803275,592.164754
4178.901468,-2738.761985,-8580.269578,814.226536
4178.901792,-370.102971,-8656.879127,148.041188
4178.902117,2664.741391,-8427.050478,74.020594
4178.902441,4589.276840,-8810.098227,-814.226536
4178.902765,3997.112087,-8044.002729,-962.267725
4178.903090,2590.720797,-8886.707777,-1258.350101
4178.903414,1702.473667,-8350.440928,-888.247130
4178.903739,-518.144159,-8886.707777,-740.205942
4178.904063,-4071.132681,-7354.516781,1258.350101
4178.904387,-2368.659014,-8810.098227,444.123565
4178.904712,-2146.597232,-9346.365076,296.082377
4178.905036,296.082377,-8350.440928,-666.185348
4178.905360,3849.070898,-7737.564530,-518.144159
4178.905685,3478.967927,-8886.707777,-1480.411884
4178.906009,4959.379811,-9116.536426,-1258.350101
4178.906334,5033.400406,-8197.221829,-1332.370696
4178.906658,3775.050304,-8503.660028,-1110.308913
4178.906982,-148.041188,-9346.365076,-962.267725
4178.907307,-2220.617826,-8503.660028,0.000000
4178.907631,-2072.576638,-9576.193725,888.247130
4178.907955,-2220.617826,-8886.707777,222.061783
4178.908280,-888.247130,-8120.612279,740.205942
4178.908604,592.164754,-7660.954980,-222.061783
4178.908928,2516.700203,-8733.488677,148.041188
4178.909253,4589.276840,-7431.126331,-1258.350101
4178.909577,3701.029710,-7890.783629,-1554.432478
4178.909902,3034.844362,-9499.584175,-1036.288319
4178.910226,74.020594,-8120.612279,-740.205942
4178.910550,-2516.700203,-9116.536426,0.000000
4178.910875,-3923.091493,-8656.879127,1332.370696
4178.911199,-2812.782580,-9193.145976,666.185348
4178.911523,-1332.370696,-8810.098227,518.144159
4178.911848,1036.288319,-7967.393179,74.020594
4178.912172,3552.988522,-8120.612279,-666.185348
4178.912496,4515.256246,-8044.002729,-1258.350101
4178.912821,3775.050304,-7890.783629,-2220.617826
4178.913145,2294.638420,-9116.536426,-1036.288319
4178.913470,-962.267725,-8273.831378,-814.226536
4178.913794,-2368.659014,-9193.145976,-518.144159
4178.914118,-3923.091493,-9193.145976,814.226536
4178.914443,-4367.215058,-8197.221829,296.082377
4178.914767,-2960.823768,-9576.193725,1036.288319
4178.915091,-814.226536,-7431.126331,-222.061783
4178.915416,1628.453072,-8580.269578,444.123565
4178.915740,3775.050304,-7814.174080,-1184.329507
4178.916065,4811.338623,-7890.783629,-296.082377
4178.916389,3627.009116,-8580.269578,-1998.556043
4178.916713,1110.308913,-8503.660028,-1332.370696
4178.917038,-1702.473667,-7967.393179,-222.061783
4178.917362,-4071.132681,-9729.412825,666.185348
4178.917686,-5699.585753,-8886.707777,666.185348
4178.918011,-4071.132681,-8810.098227,1480.411884
4178.918335,-2072.576638,-8120.612279,0.000000
4178.918659,1554.432478,-8044.002729,-222.061783
4178.918984,3775.050304,-8120.612279,-666.185348
4178.919308,4367.215058,-8273.831378,-1628.453072
4178.919633,4071.132681,-8120.612279,-1480.411884
4178.919957,3923.091493,-8810.098227,-1332.370696
4178.920281,296.082377,-8656.879127,-962.267725
4178.920606,-2442.679609,-9039.926876,444.123565
4178.920930,-3552.988522,-9346.365076,74.020594
4178.921254,-3627.009116,-9499.584175,444.123565
4178.921579,-1776.494261,-9116.536426,222.061783
4178.921903,-296.082377,-8656.879127,-592.164754
4178.922227,1406.391290,-8350.440928,444.123565
4178.922552,3775.050304,-7890.783629,-518.144159
4178.922876,4367.215058,-8350.440928,-1406.391290
4178.923201,3182.885551,-7890.783629,-1554.432478
4178.923525,1924.535449,-8503.660028,-1628.453072
4178.923849,-962.267725,-9039.926876,-444.123565
4178.924174,-2516.700203,-8733.488677,370.102971
4178.924498,-3330.926739,-9422.974625,962.267725
4178.924822,-1480.411884,-8044.002729,666.185348
4178.925147,1110.308913,-8733.488677,296.082377
4178.925471,3108.864956,-8656.879127,-1332.370696
4178.925796,5033.400406,-8350.440928,-1480.411884
4178.926120,5255.462188,-9269.755526,-1776.494261
4178.926444,4071.132681,-8656.879127,-2146.597232
4178.926769,1036.288319,-8427.050478,-814.226536
4178.927093,-888.247130,-9499.584175,-518.144159
4178.927417,-2886.803174,-8350.440928,222.061783
4178.927742,-3552.988522,-8963.317327,444.123565
4178.928066,-3108.864956,-9116.536426,222.061783
4178.928390,-1036.288319,-8350.440928,-888.247130
4178.928715,1332.370696,-9806.022374,0.000000
4178.929039,3404.947333,-7354.516781,-888.247130
4178.929364,6217.729913,-8963.317327,-1036.288319
4178.929688,5181.441594,-8963.317327,-1184.329507
4178.930012,2220.617826,-7584.345430,-1554.432478
4178.930337,666.185348,-8886.707777,-888.247130
4178.930661,-2812.782580,-9116.536426,148.041188
4178.930985,-3478.967927,-8963.317327,592.164754
4178.931310,-3182.885551,-8656.879127,370.102971
4178.931634,-1110.308913,-8963.317327,0.000000
4178.931958,888.247130,-7890.783629,-1110.308913
4178.932283,3849.070898,-8580.269578,-1110.308913
4178.932607,4589.276840,-9269.755526,-1184.329507
4178.932932,3701.029710,-8733.488677,-1332.370696
4178.933256,2590.720797,-8963.317327,-1998.556043
4178.933580,-296.082377,-9652.803275,-962.267725
4178.933905,-2368.659014,-9346.365076,592.164754
4178.934229,-4293.194464,-8963.317327,296.082377
4178.934553,-3478.967927,-9499.584175,592.164754
4178.934878,-2294.638420,-8810.098227,444.123565
4178.935202,-518.144159,-8273.831378,222.061783
4178.935527,2294.638420,-8044.002729,-370.102971
4178.935851,3478.967927,-7967.393179,-296.082377
4178.936175,2886.803174,-7814.174080,-814.226536
4178.936500,3478.967927,-8580.269578,-962.267725
4178.936824,888.247130,-7890.783629,-1258.350101
4178.937148,-1480.411884,-8886.707777,-518.144159
4178.937473,-3701.029710,-8656.879127,222.061783
4178.937797,-3478.967927,-9269.755526,1184.329507
4178.938121,-2738.761985,-8503.660028,962.267725
4178.938446,-740.205942,-8120.612279,0.000000
4178.938770,2072.576638,-8427.050478,148.041188
4178.939095,3256.906145,-7814.174080,-1258.350101
4178.939419,4145.153275,-9193.145976,-1628.453072
4178.939743,3552.988522,-8963.317327,-1924.535449
4178.940068,370.102971,-8733.488677,-370.102971
4178.940392,-2516.700203,-7814.174080,-962.267725
4178.940716,-3108.864956,-9576.193725,740.205942
4178.941041,-3108.864956,-9039.926876,1110.308913
4178.941365,-3478.967927,-8427.050478,888.247130
4178.941689,-1628.453072,-8427.050478,444.123565
4178.942014,444.123565,-7660.954980,0.000000
4178.942338,3256.906145,-8656.879127,0.000000
4178.942663,4515.256246,-8733.488677,-1110.308913
4178.942987,4367.215058,-9039.926876,-962.267725
4178.943311,2146.597232,-7890.783629,-1480.411884
4178.943636,-296.082377,-8810.098227,-814.226536
4178.943960,-2516.700203,-8656.879127,148.041188
4178.944284,-4367.215058,-9499.584175,592.164754
4178.944609,-3034.844362,-8810.098227,888.247130
4178.944933,-1628.453072,-7507.735880,370.102971
4178.945258,1406.391290,-8273.831378,148.041188
4178.945582,2886.803174,-8044.002729,-1998.556043
4178.945906,4367.215058,-9576.193725,-1036.288319
4178.946231,3775.050304,-7737.564530,-1554.432478
4178.946555,4071.132681,-8886.707777,-592.164754
4178.946879,1776.494261,-8503.660028,-1332.370696
4178.947204,-444.123565,-9269.755526,-370.102971
4178.947528,-1998.556043,-8733.488677,-518.144159
4178.947852,-2368.659014,-9039.926876,222.061783
4178.948177,-2442.679609,-8120.612279,1036.288319
4178.948501,-296.082377,-8273.831378,296.082377
4178.948826,962.267725,-8886.707777,-370.102971
4178.949150,2886.803174,-8580.269578,-1332.370696
4178.949474,4145.153275,-8656.879127,-1258.350101
4178.949799,2886.803174,-8963.317327,-1776.494261
4178.950123,1110.308913,-8503.660028,-1184.329507
4178.950447,592.164754,-8044.002729,-444.123565
4178.950772,-2072.576638,-9422.974625,0.000000
4178.951096,-2220.617826,-9039.926876,518.144159
4178.951420,-1332.370696,-7967.393179,444.123565
4178.951745,296.082377,-8197.221829,296.082377
4178.952069,3404.947333,-8197.221829,-666.185348
4178.952394,5181.441594,-7967.393179,-1554.432478
4178.952718,4071.132681,-8733.488677,-1258.350101
4178.953042,4589.276840,-8810.098227,-1554.432478
4178.953367,1406.391290,-9652.803275,-814.226536
4178.953691,-1184.329507,-8427.050478,-592.164754
4178.954015,-2590.720797,-9039.926876,0.000000
4178.954340,-3627.009116,-8963.317327,222.061783
4178.954664,-3701.029710,-8733.488677,518.144159
4178.954988,-2368.659014,-8273.831378,296.082377
4178.955313,-444.123565,-8810.098227,222.061783
4178.955637,2072.576638,-8350.440928,-666.185348
4178.955961,3849.070898,-8886.707777,-814.226536
4178.956285,2960.823768,-8503.660028,-1406.391290
4178.956610,1924.535449,-7890.783629,-1036.288319
4178.956934,814.226536,-8273.831378,0.000000
4178.957258,-1628.453072,-8503.660028,74.020594
4178.957582,-2516.700203,-9499.584175,148.041188
4178.957907,-2886.803174,-8197.221829,1184.329507
4178.958231,-2294.638420,-8197.221829,518.144159
4178.958555,888.247130,-7890.783629,518.144159
4178.958879,2442.679609,-8120.612279,222.061783
4178.959204,3997.112087,-8503.660028,-518.144159
4178.959528,3404.947333,-8120.612279,-1258.350101
4178.959852,2812.782580,-8656.879127,-1406.391290
4178.960176,444.123565,-9116.536426,-1110.308913
4178.960501,-1332.370696,-8656.879127,0.000000
4178.960825,-2664.741391,-9193.145976,444.123565
4178.961149,-4293.194464,-8810.098227,0.000000
4178.961473,-3552.988522,-8656.879127,1258.350101
4178.961798,-1332.370696,-8120.612279,74.020594
4178.962122,1850.514855,-7967.393179,0.000000
4178.962446,2072.576638,-9039.926876,-740.205942
4178.962770,2590.720797,-9039.926876,-666.185348
4178.963095,1702.473667,-7814.174080,-1110.308913
4178.963419,370.102971,-8503.660028,-444.123565
4178.963743,-2516.700203,-8197.221829,-444.123565
4178.964067,-3775.050304,-8580.269578,148.041188
4178.964392,-2516.700203,-8656.879127,814.226536
4178.964716,-2072.576638,-8503.660028,1036.288319
4178.965040,1332.370696,-7354.516781,222.061783
4178.965364,3330.926739,-8120.612279,518.144159
4178.965689,4663.297435,-8273.831378,-962.267725
4178.966013,4811.338623,-8656.879127,-1480.411884
4178.966337,3997.112087,-8503.660028,-1480.411884
4178.966661,1184.329507,-9193.145976,-592.164754
4178.966986,-888.247130,-8886.707777,-1258.350101
4178.967310,-2220.617826,-9499.584175,-148.041188
4178.967634,-3701.029710,-8656.879127,592.164754
4178.967959,-3330.926739,-8427.050478,296.082377
4178.968283,-1850.514855,-8427.050478,74.020594
4178.968607,740.205942,-8810.098227,-370.102971
4178.968931,3923.091493,-8810.098227,-1332.370696
4178.969256,5255.462188,-9499.584175,-1036.288319
4178.969580,3330.926739,-6358.592633,-888.247130
4178.969904,4441.235652,-8503.660028,-1924.535449
4178.970228,0.000000,-9116.536426,-962.267725
4178.970553,-1110.308913,-8810.098227,0.000000
4178.970877,-2368.659014,-8350.440928,444.123565
4178.971201,-4811.338623,-8197.221829,370.102971
4178.971525,-1258.350101,-8733.488677,296.082377
4178.971850,1258.350101,-7354.516781,-370.102971
4178.972174,2960.823768,-8197.221829,-518.144159
4178.972498,5255.462188,-8580.269578,-1036.288319
4178.972822,4811.338623,-7814.174080,-2368.659014
4178.973147,5033.400406,-9806.022374,-1110.308913
4178.973471,2516.700203,-9422.974625,-1776.494261
4178.973795,0.000000,-9806.022374,-962.267725
4178.974119,-3701.029710,-9346.365076,444.123565
4178.974444,-4811.338623,-8656.879127,962.267725
4178.974768,-2886.803174,-9116.536426,518.144159
4178.975092,-1776.494261,-8427.050478,296.082377
4178.975416,1036.288319,-8656.879127,0.000000
4178.975741,2664.741391,-8350.440928,-1036.288319
4178.976065,2812.782580,-8120.612279,-518.144159
4178.976389,3775.050304,-8963.317327,-592.164754
4178.976713,1480.411884,-7737.564530,-1480.411884
4178.977038,444.123565,-8580.269578,0.000000
4178.977362,-1924.535449,-8810.098227,0.000000
4178.977686,-3404.947333,-9806.022374,1406.391290
4178.978010,-3256.906145,-8427.050478,592.164754
4178.978335,-740.205942,-8963.317327,444.123565
4178.978659,518.144159,-8503.660028,74.020594
4178.978983,2664.741391,-8273.831378,-1036.288319
4178.979307,4367.215058,-8810.098227,-1850.514855
4178.979632,2664.741391,-8656.879127,-666.185348
4178.979956,1184.329507,-8197.221829,-1406.391290
4178.980280,666.185348,-9039.926876,-888.247130
4178.980604,-1998.556043,-9422.974625,-444.123565
4178.980929,-2590.720797,-8886.707777,592.164754
4178.981253,-3330.926739,-8197.221829,740.205942
4178.981577,-2442.679609,-8733.488677,74.020594
4178.981902,296.082377,-8656.879127,222.061783
4178.982226,1702.473667,-8350.440928,-740.205942
4178.982550,2442.679609,-8197.221829,-296.082377
4178.982874,2294.638420,-9193.145976,-592.164754
4178.983199,1924.535449,-8197.221829,-1184.329507
4178.983523,74.020594,-8656.879127,-296.082377
4178.983847,-2072.576638,-8120.612279,-222.061783
4178.984171,-3849.070898,-8580.269578,962.267725
4178.984496,-3034.844362,-8044.002729,444.123565
4178.984820,-1258.350101,-9882.631924,2146.597232
4178.985144,666.185348,-7660.954980,-296.082377
4178.985468,3330.926739,-8503.660028,0.000000
4178.985793,4219.173869,-8197.221829,-1184.329507
4178.986117,4071.132681,-9039.926876,-1406.391290
4178.986441,3330.926739,-9116.536426,-888.247130
4178.986765,296.082377,-8963.317327,-518.144159
4178.987090,-592.164754,-8963.317327,-444.123565
4178.987414,-2590.720797,-8733.488677,0.000000
4178.987738,-2960.823768,-9652.803275,666.185348
4178.988062,-2442.679609,-8120.612279,296.082377
4178.988387,518.144159,-8350.440928,222.061783
4178.988711,1850.514855,-8503.660028,74.020594
4178.989035,3478.967927,-8503.660028,0.000000
4178.989359,3997.112087,-8580.269578,-814.226536
4178.989684,3552.988522,-7660.954980,-1924.535449
4178.990008,2072.576638,-8580.269578,-518.144159
4178.990332,0.000000,-7737.564530,-1036.288319
4178.990656,-1480.411884,-8580.269578,370.102971
4178.990981,-2516.700203,-8656.879127,370.102971
4178.991305,-3997.112087,-8886.707777,370.102971
4178.991629,-296.082377,-8350.440928,-444.123565
4178.991953,1924.535449,-8427.050478,222.061783
4178.992278,4367.215058,-7431.126331,-666.185348
4178.992602,6143.709319,-8733.488677,-1924.535449
4178.992926,3849.070898,-9193.145976,-2220.617826
4178.993250,1776.494261,-8350.440928,-888.247130
4178.993575,592.164754,-8580.269578,-518.144159
4178.993899,-3330.926739,-9729.412825,-592.164754
4178.994223,-3478.967927,-8733.488677,148.041188
4178.994547,-3404.947333,-8044.002729,74.020594
4178.994872,-1332.370696,-8656.879127,74.020594
4178.995196,888.247130,-8197.221829,740.205942
4178.995520,3108.864956,-7814.174080,-1480.411884
4178.995845,4589.276840,-9116.536426,-888.247130
4178.996169,4145.153275,-8120.612279,-1628.453072
4178.996493,2516.700203,-8733.488677,-1628.453072
4178.996817,888.247130,-8273.831378,-1036.288319
4178.997142,-2368.659014,-8733.488677,296.082377
4178.997466,-3552.988522,-9806.022374,592.164754
4178.997790,-3775.050304,-8427.050478,-370.102971
4178.998114,-2886.803174,-9346.365076,592.164754
4178.998439,370.102971,-7967.393179,-666.185348
4178.998763,2664.741391,-8656.879127,-296.082377
4178.999087,3182.885551,-8197.221829,-814.226536
4178.999411,4663.297435,-8656.879127,-1184.329507
4178.999736,2590.720797,-8656.879127,-1480.411884
4179.000060,2146.597232,-8656.879127,-1406.391290
4179.000384,-814.226536,-9652.803275,-592.164754
4179.000708,-2368.659014,-9039.926876,-148.041188
4179.001033,-3849.070898,-9576.193725,444.123565
4179.001357,-3923.091493,-8810.098227,592.164754
4179.001681,-2738.761985,-8044.002729,888.247130
4179.002005,148.041188,-7660.954980,-296.082377
4179.002330,2664.741391,-8963.317327,444.123565
4179.002654,3923.091493,-8273.831378,-370.102971
4179.002978,2590.720797,-8427.050478,-740.205942
4179.003302,1258.350101,-7967.393179,-1110.308913
4179.003627,-1184.329507,-8120.612279,0.000000
4179.003951,-2812.782580,-8197.221829,740.205942
4179.004275,-3701.029710,-8580.269578,888.247130
4179.004599,-2368.659014,-8656.879127,888.247130
4179.004924,-740.205942,-8427.050478,518.144159
4179.005248,1406.391290,-8350.440928,0.000000
4179.005572,3775.050304,-8044.002729,-370.102971
4179.005896,4071.132681,-8503.660028,-592.164754
4179.006221,4293.194464,-8580.269578,-1258.350101
4179.006545,2960.823768,-8886.707777,-740.205942
4179.006869,740.205942,-8886.707777,-296.082377
4179.007193,-1702.473667,-8810.098227,-444.123565
4179.007518,-2738.761985,-8733.488677,592.164754
4179.007842,-3775.050304,-8656.879127,-296.082377
4179.008166,-2368.659014,-8120.612279,444.123565
4179.008490,-148.041188,-7354.516781,592.164754
4179.008815,3478.967927,-8580.269578,-148.041188
4179.009139,3849.070898,-8503.660028,-1110.308913
4179.009463,4219.173869,-8963.317327,-444.123565
4179.009788,2812.782580,-8044.002729,-2072.576638
4179.010112,2072.576638,-8886.707777,-740.205942
4179.010436,-1332.370696,-8273.831378,296.082377
4179.010760,-1850.514855,-9193.145976,592.164754
4179.011085,-3108.864956,-8427.050478,148.041188
4179.011409,-1332.370696,-8886.707777,444.123565
4179.011733,814.226536,-7814.174080,-592.164754
4179.012057,3404.947333,-8427.050478,-962.267725
4179.012382,3849.070898,-8427.050478,-814.226536
4179.012706,5477.523971,-8733.488677,-1776.494261
4179.013030,3923.091493,-8886.707777,-1184.329507
4179.013354,2294.638420,-9193.145976,-1702.473667
4179.013679,-1036.288319,-9576.193725,-1110.308913
4179.014003,-2886.803174,-9652.803275,-962.267725
4179.014327,-4145.153275,-9806.022374,-148.041188
4179.014651,-3849.070898,-8580.269578,-296.082377
4179.014976,-2294.638420,-8427.050478,518.144159
4179.015300,666.185348,-8044.002729,-518.144159
4179.015624,3404.947333,-8120.612279,-1036.288319
4179.015948,5847.626942,-7584.345430,-1332.370696
4179.016273,4885.359217,-8656.879127,-1184.329507
4179.016597,2664.741391,-7890.783629,-1406.391290
4179.016921,222.061783,-8963.317327,-444.123565
4179.017245,-2220.617826,-8886.707777,0.000000
4179.017570,-3034.844362,-9422.974625,666.185348
4179.017894,-3182.885551,-8427.050478,0.000000
4179.018218,-2664.741391,-9039.926876,296.082377
4179.018542,-444.123565,-8197.221829,-370.102971
4179.018867,2368.659014,-8427.050478,0.000000
4179.019191,3404.947333,-8197.221829,-1332.370696
4179.019515,3775.050304,-8427.050478,-1332.370696
4179.019839,3552.988522,-8427.050478,-1702.473667
4179.020164,1924.535449,-8733.488677,-666.185348
4179.020488,-1332.370696,-9193.145976,-518.144159
4179.020812,-2664.741391,-9193.145976,296.082377
4179.021136,-3627.009116,-9346.365076,444.123565
4179.021461,-2738.761985,-8656.879127,296.082377
4179.021785,-1406.391290,-8503.660028,518.144159
4179.022109,1554.432478,-7737.564530,296.082377
4179.022433,2590.720797,-8197.221829,0.000000
4179.022758,3034.844362,-7890.783629,-370.102971
4179.023082,3108.864956,-8427.050478,-518.144159
4179.023406,1110.308913,-7660.954980,-666.185348
4179.023731,-1480.411884,-8273.831378,814.226536
4179.024055,-3034.844362,-8120.612279,666.185348
4179.024379,-2812.782580,-9422.974625,2072.576638
4179.024703,-2664.741391,-8120.612279,444.123565
4179.025028,-296.082377,-8733.488677,296.082377
4179.025352,1480.411884,-7814.174080,-592.164754
4179.025676,4145.153275,-8963.317327,-148.041188
4179.026000,3552.988522,-7967.393179,-740.205942
4179.026325,3478.967927,-8733.488677,0.000000
4179.026649,2368.659014,-7814.174080,-1110.308913
4179.026973,370.102971,-9269.755526,148.041188
4179.027297,-2442.679609,-8886.707777,518.144159
4179.027622,-4145.153275,-9269.755526,74.020594
4179.027946,-2738.761985,-8963.317327,518.144159
4179.028270,-2516.700203,-8503.660028,740.205942
4179.028594,518.144159,-7890.783629,74.020594
4179.028919,2146.597232,-7354.516781,-1184.329507
4179.029243,4737.318029,-9422.974625,296.082377
4179.029567,3997.112087,-7354.516781,-1850.514855
4179.029891,2442.679609,-9269.755526,-962.267725
4179.030216,518.144159,-7967.393179,-1332.370696
4179.030540,-1332.370696,-9039.926876,444.123565
4179.030864,-2294.638420,-8733.488677,0.000000
4179.031188,-2220.617826,-9039.926876,0.000000
4179.031513,-1850.514855,-7890.783629,592.164754
4179.031837,592.164754,-8580.269578,-592.164754
4179.032161,2664.741391,-8120.612279,-1036.288319
4179.032485,3701.029710,-8273.831378,-814.226536
4179.032810,4885.359217,-8197.221829,-1998.556043
4179.033134,4219.173869,-8733.488677,-740.205942
4179.033458,2220.617826,-8963.317327,-1554.432478
4179.033782,-148.041188,-9959.241474,-1110.308913
4179.034107,-2146.597232,-9576.193725,-888.247130
4179.034431,-3997.112087,-9806.022374,-74.020594
4179.034755,-2368.659014,-9269.755526,0.000000
4179.035079,0.000000,-7967.393179,444.123565
4179.035404,2072.576638,-8427.050478,-1036.288319
4179.035728,3849.070898,-8273.831378,-1036.288319
4179.036052,4145.153275,-7814.174080,-1406.391290
4179.036376,2812.782580,-8503.660028,-1406.391290
4179.036701,1628.453072,-8044.002729,-740.205942
4179.037025,-666.185348,-8580.269578,-222.061783
4179.037349,-2960.823768,-8733.488677,518.144159
4179.037674,-2664.741391,-9116.536426,0.000000
4179.037998,-2516.700203,-8963.317327,148.041188
4179.038322,74.020594,-8733.488677,-296.082377
4179.038646,1332.370696,-8044.002729,222.061783
4179.038971,2220.617826,-8427.050478,-592.164754
4179.039295,3849.070898,-7967.393179,-444.123565
4179.039619,3108.864956,-8197.221829,-888.247130
4179.039943,1406.391290,-8350.440928,-740.205942
4179.040268,296.082377,-8886.707777,-666.185348
4179.040592,-2368.659014,-8963.317327,-370.102971
4179.040916,-3478.967927,-9039.926876,444.123565
4179.041240,-3775.050304,-8580.269578,0.000000
4179.041565,-2664.741391,-9116.536426,888.247130
4179.041889,962.267725,-7814.174080,666.185348
4179.042213,2368.659014,-7814.174080,-296.082377
4179.042537,4145.153275,-8656.879127,-222.061783
4179.042862,3849.070898,-7354.516781,-888.247130
4179.043186,2220.617826,-8120.612279,-962.267725
4179.043510,592.164754,-8503.660028,0.000000
4179.043834,-2146.597232,-8656.879127,592.164754
4179.044159,-3923.091493,-10265.679673,1036.288319
4179.044483,-4145.153275,-8886.707777,518.144159
4179.044807,-3108.864956,-8427.050478,518.144159
4179.045131,-1554.432478,-8044.002729,0.000000
4179.045456,2368.659014,-7814.174080,222.061783
4179.045780,4071.132681,-7890.783629,-222.061783
4179.046104,3404.947333,-8503.660028,-1036.288319
4179.046428,3849.070898,-8120.612279,-1036.288319
4179.046753,1406.391290,-8656.879127,-740.205942
4179.047077,0.000000,-9039.926876,-370.102971
4179.047401,-888.247130,-9652.803275,0.000000
4179.047725,-3330.926739,-9269.755526,370.102971
4179.048050,-2960.823768,-8810.098227,592.164754
4179.048374,-2294.638420,-9193.145976,370.102971
4179.048698,592.164754,-8350.440928,148.041188
4179.049022,3256.906145,-7507.735880,-518.144159
4179.049347,3552.988522,-8427.050478,-1184.329507
4179.049671,3182.885551,-8427.050478,-1258.350101
4179.049995,666.185348,-8120.612279,-814.226536
4179.050319,-518.144159,-9269.755526,0.000000
4179.050644,-2368.659014,-8427.050478,0.000000
4179.050968,-2664.741391,-9806.022374,370.102971
4179.051292,-1480.411884,-9346.365076,-148.041188
4179.051617,296.082377,-9193.145976,666.185348
4179.051941,1702.473667,-7890.783629,-888.247130
4179.052265,3775.050304,-8733.488677,-592.164754
4179.052589,3034.844362,-8044.002729,-1702.473667
4179.052914,3997.112087,-8580.269578,-1184.329507
4179.053238,2294.638420,-7814.174080,-2146.597232
4179.053562,1554.432478,-9499.584175,-592.164754
4179.053886,-592.164754,-8963.317327,-1036.288319
4179.054211,-2738.761985,-9576.193725,-444.123565
4179.054535,-3256.906145,-9499.584175,0.000000
4179.054859,-1554.432478,-8273.831378,-592.164754
4179.055183,814.226536,-8503.660028,0.000000
4179.055508,2812.782580,-8273.831378,-666.185348
4179.055832,4293.194464,-8810.098227,-370.102971
4179.056156,3256.906145,-8044.002729,-1702.473667
4179.056480,2146.597232,-8810.098227,-1036.288319
4179.056805,518.144159,-8120.612279,-1110.308913
4179.057129,-1554.432478,-9116.536426,-222.061783
4179.057453,-3034.844362,-9269.755526,74.020594
4179.057777,-3330.926739,-8427.050478,0.000000
4179.058102,-1702.473667,-8963.317327,444.123565
4179.058426,296.082377,-7890.783629,-296.082377
4179.058750,2072.576638,-8273.831378,-222.061783
4179.059074,3775.050304,-7967.393179,-1036.288319
4179.059399,4663.297435,-8197.221829,-814.226536
4179.059723,3256.906145,-8733.488677,-1480.411884
4179.060047,2368.659014,-9039.926876,-962.267725
4179.060372,-962.267725,-8273.831378,-1184.329507
4179.060696,-1850.514855,-9806.022374,0.000000
4179.061020,-3256.906145,-9499.584175,-222.061783
4179.061344,-2442.679609,-9576.193725,222.061783
4179.061669,-2220.617826,-8503.660028,296.082377
4179.061993,-370.102971,-8427.050478,370.102971
4179.062317,1850.514855,-7890.783629,0.000000
4179.062642,4071.132681,-9116.536426,-592.164754
4179.062966,3330.926739,-8350.440928,-592.164754
4179.063290,1406.391290,-8120.612279,-592.164754
4179.063614,-888.247130,-8350.440928,-148.041188
4179.063939,-2664.741391,-9039.926876,0.000000
4179.064263,-4663.297435,-9193.145976,1110.308913
4179.064587,-3256.906145,-9193.145976,814.226536
4179.064912,-1036.288319,-8656.879127,296.082377
4179.065236,444.123565,-8197.221829,0.000000
4179.065560,3552.988522,-8810.098227,0.000000
4179.065884,3775.050304,-7814.174080,-444.123565
4179.066209,4071.132681,-7967.393179,74.020594
4179.066533,2294.638420,-7584.345430,-518.144159
4179.066857,1332.370696,-9576.193725,-222.061783
4179.067182,-592.164754,-8656.879127,-666.185348
4179.067506,-2812.782580,-8886.707777,0.000000
4179.067830,-2368.659014,-8963.317327,-296.082377
4179.068154,-3478.967927,-8886.707777,222.061783
4179.068479,-592.164754,-8580.269578,592.164754
4179.068803,1406.391290,-7737.564530,222.061783
4179.069127,2590.720797,-8503.660028,74.020594
4179.069452,3849.070898,-8350.440928,-370.102971
4179.069776,2886.803174,-7354.516781,-296.082377
4179.070100,2220.617826,-8427.050478,-1036.288319
4179.070424,-592.164754,-8350.440928,-148.041188
4179.070749,-2072.576638,-9346.365076,-148.041188
4179.071073,-2738.761985,-9193.145976,222.061783
4179.071397,-1776.494261,-8810.098227,444.123565
4179.071722,-222.061783,-8273.831378,0.000000
4179.072046,2664.741391,-8044.002729,0.000000
4179.072370,3997.112087,-7967.393179,-444.123565
4179.072694,4441.235652,-8733.488677,-1628.453072
4179.073019,4219.173869,-8197.221829,-740.205942
4179.073343,2590.720797,-8273.831378,-1110.308913
4179.073667,888.247130,-9422.974625,-740.205942
4179.073991,-592.164754,-8886.707777,-296.082377
4179.074316,-2368.659014,-9499.584175,-444.123565
4179.074640,-1332.370696,-8810.098227,-592.164754
4179.074964,-740.205942,-8886.707777,-666.185348
4179.075289,2072.576638,-9116.536426,-370.102971
4179.075613,2072.576638,-8273.831378,-444.123565
4179.075937,3552.988522,-8503.660028,-962.267725
4179.076261,2368.659014,-8350.440928,-888.247130
4179.076586,1332.370696,-8273.831378,-1110.308913
4179.076910,-888.247130,-9039.926876,-444.123565
4179.077234,-2812.782580,-8656.879127,-1332.370696
4179.077559,-3108.864956,-9576.193725,74.020594
4179.077883,-2664.741391,-8427.050478,0.000000
4179.078207,-592.164754,-9039.926876,-296.082377
4179.078531,962.267725,-7814.174080,0.000000
4179.078856,3034.844362,-7890.783629,370.102971
4179.079180,3701.029710,-8503.660028,-888.247130
4179.079504,3775.050304,-8350.440928,-1850.514855
4179.079829,2516.700203,-8656.879127,-740.205942
4179.080153,1110.308913,-8733.488677,-1110.308913
4179.080477,-1480.411884,-9039.926876,-1406.391290
4179.080801,-3552.988522,-9346.365076,-296.082377
4179.081126,-3775.050304,-8886.707777,-592.164754
4179.081450,-3552.988522,-8810.098227,222.061783
4179.081774,-814.226536,-8580.269578,-370.102971
4179.082099,1036.288319,-7967.393179,0.000000
4179.082423,2960.823768,-8120.612279,0.000000
4179.082747,4367.215058,-8273.831378,-444.123565
4179.083071,3182.885551,-7660.954980,-1480.411884
4179.083396,2072.576638,-8427.050478,-814.226536
4179.083720,-888.247130,-8580.269578,-296.082377
4179.084044,-3478.967927,-10035.851024,666.185348
4179.084369,-4071.132681,-8733.488677,0.000000
4179.084693,-3997.112087,-9499.584175,1110.308913
4179.085017,-1776.494261,-8273.831378,74.020594
4179.085341,1036.288319,-8120.612279,-222.061783
4179.085666,2664.741391,-8350.440928,0.000000
4179.085990,3701.029710,-8350.440928,-592.164754
4179.086314,2812.782580,-8273.831378,-740.205942
4179.086639,2516.700203,-8503.660028,-296.082377
4179.086963,814.226536,-8810.098227,-222.061783
4179.087287,-222.061783,-8963.317327,-370.102971
4179.087611,-2294.638420,-9116.536426,-222.061783
4179.087936,-2146.597232,-9269.755526,0.000000
4179.088260,-2664.741391,-8580.269578,74.020594
4179.088584,-962.267725,-8580.269578,592.164754
4179.088909,888.247130,-8580.269578,148.041188
4179.089233,2590.720797,-8197.221829,148.041188
4179.089557,2590.720797,-7507.735880,0.000000
4179.089881,2738.761985,-7660.954980,-888.247130
4179.090206,1628.453072,-8580.269578,-444.123565
4179.090530,-666.185348,-7967.393179,222.061783
4179.090854,-814.226536,-8427.050478,148.041188
4179.091179,-1628.453072,-8580.269578,0.000000
4179.091503,-740.205942,-8580.269578,444.123565
4179.091827,1184.329507,-8044.002729,0.000000
4179.092151,3108.864956,-8044.002729,0.000000
4179.092476,4663.297435,-8733.488677,-888.247130
4179.092800,4589.276840,-8120.612279,-1258.350101
4179.093124,3108.864956,-9039.926876,-1258.350101
4179.093448,888.247130,-8503.660028,-1850.514855
4179.093773,-370.102971,-9346.365076,0.000000
4179.094097,-2812.782580,-8503.660028,-370.102971
4179.094421,-2442.679609,-9652.803275,-592.164754
4179.094746,-1776.494261,-8810.098227,-888.247130
4179.095070,592.164754,-8733.488677,0.000000
4179.095394,3552.988522,-8273.831378,-1258.350101
4179.095718,3627.009116,-8886.707777,-444.123565
4179.096043,3997.112087,-8197.221829,-1110.308913
4179.096367,3108.864956,-8503.660028,-1036.288319
4179.096691,1036.288319,-8580.269578,-1332.370696
4179.097016,-1480.411884,-9422.974625,-888.247130
4179.097340,-2442.679609,-9193.145976,-444.123565
4179.097664,-3775.050304,-8963.317327,222.061783
4179.097988,-2368.659014,-7967.393179,444.123565
4179.098313,-370.102971,-8044.002729,-666.185348
4179.098637,2738.761985,-8273.831378,0.000000
4179.098961,3330.926739,-8350.440928,-592.164754
4179.099286,4071.132681,-8580.269578,-592.164754
4179.099610,3404.947333,-8503.660028,-1554.432478
4179.099934,2368.659014,-8427.050478,-1258.350101
4179.100258,814.226536,-9729.412825,-1406.391290
4179.100583,-2368.659014,-9346.365076,-888.247130
4179.100907,-2886.803174,-9039.926876,148.041188
4179.101231,-3404.947333,-8886.707777,148.041188
4179.101556,-2368.659014,-8580.269578,0.000000
4179.101880,888.247130,-8963.317327,444.123565
4179.102204,1628.453072,-8273.831378,-296.082377
4179.102528,4219.173869,-8810.098227,0.000000
4179.102853,3923.091493,-7507.735880,-962.267725
4179.103177,1998.556043,-8350.440928,-888.247130
4179.103501,888.247130,-9193.145976,-222.061783
4179.103826,-2072.576638,-8810.098227,0.000000
4179.104150,-3997.112087,-9346.365076,518.144159
4179.104474,-4293.194464,-7890.783629,148.041188
4179.104798,-3108.864956,-8810.098227,444.123565
4179.105123,-814.226536,-8120.612279,370.102971
4179.105447,814.226536,-7584.345430,0.000000
4179.105771,2368.659014,-8656.879127,222.061783
4179.106096,2664.741391,-7967.393179,-296.082377
4179.106420,3404.947333,-8580.269578,-592.164754
4179.106744,2442.679609,-8503.660028,-740.205942
4179.107068,0.000000,-8886.707777,-1184.329507
4179.107393,-2368.659014,-9193.145976,-1554.432478
4179.107717,-2664.741391,-10572.117872,740.205942
4179.108041,-5033.400406,-7814.174080,1258.350101
4179.108366,-1480.411884,-7660.954980,0.000000
4179.108690,0.000000,-8886.707777,666.185348
4179.109014,2146.597232,-7507.735880,-370.102971
4179.109338,3775.050304,-7967.393179,-814.226536
4179.109663,4293.194464,-9039.926876,-592.164754
4179.109987,1480.411884,-7124.688131,-370.102971
4179.110311,1036.288319,-8427.050478,0.000000
4179.110635,-1554.432478,-7967.393179,-222.061783
4179.110960,-2220.617826,-9422.974625,1184.329507
4179.111284,-2442.679609,-7431.126331,-444.123565
4179.111608,148.041188,-9499.584175,1110.308913
4179.111933,1332.370696,-7048.078582,-518.144159
4179.112257,4441.235652,-8963.317327,296.082377
4179.112581,2960.823768,-7814.174080,-888.247130
4179.112905,3108.864956,-9116.536426,-592.164754
4179.113230,1110.308913,-7967.393179,-1776.494261
4179.113554,296.082377,-9422.974625,-518.144159
4179.113878,-1554.432478,-8733.488677,-1184.329507
4179.114203,-2294.638420,-9499.584175,-518.144159
4179.114527,-1258.350101,-8886.707777,-296.082377
4179.114851,-370.102971,-8503.660028,370.102971
4179.115175,1332.370696,-8810.098227,-148.041188
4179.115500,3182.885551,-8120.612279,-444.123565
4179.115824,4959.379811,-8886.707777,-296.082377
4179.116148,3478.967927,-7967.393179,-1332.370696
4179.116473,2368.659014,-8656.879127,-1036.288319
4179.116797,0.000000,-8273.831378,-666.185348
4179.117121,-1702.473667,-9193.145976,-370.102971
4179.117445,-3330.926739,-8733.488677,-296.082377
4179.117770,-3034.844362,-9806.022374,148.041188
4179.118094,-1924.535449,-8120.612279,-148.041188
4179.118418,1332.370696,-8427.050478,0.000000
4179.118743,3627.009116,-7967.393179,-666.185348
4179.119067,4959.379811,-8733.488677,0.000000
4179.119391,4367.215058,-8197.221829,-1776.494261
4179.119715,3552.988522,-9193.145976,-1110.308913
4179.120040,1110.308913,-8810.098227,-1850.514855
4179.120364,-962.267725,-9882.631924,-740.205942
4179.120688,-2442.679609,-9193.145976,-666.185348
4179.121013,-3182.885551,-9346.365076,0.000000
4179.121337,-3404.947333,-8886.707777,0.000000
4179.121661,-2146.597232,-8427.050478,148.041188
4179.121985,592.164754,-8273.831378,370.102971
4179.122310,2368.659014,-7660.954980,-592.164754
4179.122634,3923.091493,-8044.002729,0.000000
4179.122958,3108.864956,-7967.393179,-740.205942
4179.123283,2368.659014,-8886.707777,-962.267725
4179.123607,0.000000,-7890.783629,-666.185348
4179.123931,-2294.638420,-9959.241474,370.102971
4179.124255,-4663.297435,-8580.269578,74.020594
4179.124580,-3478.967927,-10035.851024,666.185348
4179.124904,-1776.494261,-8120.612279,-296.082377
4179.125228,-148.041188,-8044.002729,1036.288319
4179.125553,1628.453072,-7354.516781,74.020594
4179.125877,3034.844362,-8733.488677,296.082377
4179.126201,3404.947333,-7201.297681,-666.185348
4179.126525,3182.885551,-8580.269578,-888.247130
4179.126850,814.226536,-8656.879127,-740.205942
4179.127174,-1776.494261,-9039.926876,666.185348
4179.127498,-2072.576638,-8656.879127,-666.185348
4179.127822,-2146.597232,-9422.974625,444.123565
4179.128147,-1628.453072,-9039.926876,370.102971
4179.128471,-222.061783,-7660.954980,74.020594
4179.128795,370.102971,-8120.612279,592.164754
4179.129120,1406.391290,-7277.907231,296.082377
4179.129444,2812.782580,-8427.050478,0.000000
4179.129768,2442.679609,-7431.126331,-1628.453072
4179.130092,1110.308913,-9422.974625,518.144159
4179.130417,-1554.432478,-8273.831378,-1036.288319
4179.130741,-2368.659014,-9346.365076,666.185348
4179.131065,-2368.659014,-8580.269578,-370.102971
4179.131390,-1332.370696,-9576.193725,666.185348
4179.131714,0.000000,-7507.735880,-518.144159
4179.132038,2442.679609,-8810.098227,296.082377
4179.132362,3404.947333,-8580.269578,-296.082377
4179.132687,3775.050304,-8044.002729,-888.247130
4179.133011,2368.659014,-8197.221829,-1110.308913
4179.133335,1036.288319,-8733.488677,-666.185348
4179.133660,0.000000,-8656.879127,-1258.350101
4179.133984,-1702.473667,-9346.365076,-962.267725
4179.134308,-2590.720797,-9116.536426,-518.144159
4179.134632,-1776.494261,-8273.831378,0.000000
4179.134957,-888.247130,-8580.269578,-370.102971
4179.135281,2368.659014,-8350.440928,-148.041188
4179.135605,4071.132681,-7737.564530,-666.185348
4179.135930,4071.132681,-8886.707777,-222.061783
4179.136254,3849.070898,-8580.269578,-1554.432478
4179.136578,3182.885551,-8810.098227,-1480.411884
4179.136902,0.000000,-8733.488677,-1258.350101
4179.137227,-1110.308913,-9652.803275,0.000000
4179.137551,-3034.844362,-8580.269578,-592.164754
4179.137875,-2812.782580,-9039.926876,740.205942
4179.138200,-1554.432478,-8120.612279,-370.102971
4179.138524,1554.432478,-8656.879127,-518.144159
4179.138848,2590.720797,-8350.440928,-740.205942
4179.139172,4515.256246,-8733.488677,-592.164754
4179.139497,3775.050304,-7967.393179,-2072.576638
4179.139821,2886.803174,-9499.584175,-1406.391290
4179.140145,2294.638420,-8656.879127,-1628.453072
4179.140470,-518.144159,-9422.974625,-888.247130
4179.140794,-2812.782580,-9193.145976,-666.185348
4179.141118,-3330.926739,-8963.317327,0.000000
4179.141442,-2220.617826,-8963.317327,222.061783
4179.141767,-1110.308913,-7890.783629,0.000000
4179.142091,2368.659014,-8120.612279,0.000000
4179.142415,2960.823768,-8197.221829,-370.102971
4179.142740,3478.967927,-8120.612279,-592.164754
4179.143064,3034.844362,-7967.393179,-1036.288319
4179.143388,1332.370696,-8656.879127,-370.102971
4179.143712,-2664.741391,-8580.269578,-148.041188
4179.144037,-2590.720797,-9882.631924,222.061783
4179.144361,-4885.359217,-8503.660028,0.000000
4179.144685,-3404.947333,-9193.145976,1332.370696
4179.145009,-1702.473667,-7584.345430,-888.247130
4179.145334,1110.308913,-8580.269578,962.267725
4179.145658,2294.638420,-7277.907231,0.000000
4179.145982,3552.988522,-8656.879127,592.164754
4179.146307,2960.823768,-7507.735880,-666.185348
4179.146631,2072.576638,-8273.831378,-666.185348
4179.146955,222.061783,-8963.317327,-962.267725
4179.147279,-1480.411884,-9193.145976,-296.082377
4179.147604,-3701.029710,-9193.145976,222.061783
4179.147928,-2886.803174,-9116.536426,518.144159
4179.148252,-2960.823768,-8733.488677,962.267725
4179.148577,222.061783,-8273.831378,518.144159
4179.148901,2886.803174,-7354.516781,814.226536
4179.149225,3330.926739,-8044.002729,-592.164754
4179.149549,3256.906145,-7660.954980,-148.041188
4179.149874,2146.597232,-8273.831378,-814.226536
4179.150198,0.000000,-8656.879127,-444.123565
4179.150522,-1332.370696,-8503.660028,-370.102971
4179.150847,-4145.153275,-8886.707777,444.123565
4179.151171,-2886.803174,-9039.926876,444.123565
4179.151495,-2146.597232,-8810.098227,-296.082377
4179.151819,148.041188,-8656.879127,370.102971
4179.152144,1850.514855,-8120.612279,-444.123565
4179.152468,3034.844362,-8273.831378,-518.144159
4179.152792,2960.823768,-8120.612279,-592.164754
4179.153117,4737.318029,-7354.516781,-888.247130
4179.153441,2072.576638,-9193.145976,-1406.391290
4179.153765,296.082377,-8963.317327,-814.226536
4179.154089,-1258.350101,-9039.926876,-592.164754
4179.154414,-1776.494261,-9269.755526,-814.226536
4179.154738,-666.185348,-9269.755526,370.102971
4179.155062,0.000000,-8273.831378,-296.082377
4179.155387,1998.556043,-8503.660028,74.020594
4179.155711,4145.153275,-8350.440928,-444.123565
4179.156035,3849.070898,-8120.612279,-1776.494261
4179.156359,3330.926739,-8044.002729,-1036.288319
4179.156684,1110.308913,-8427.050478,-1258.350101
4179.157008,-370.102971,-9193.145976,-666.185348
4179.157332,-2442.679609,-8273.831378,-888.247130
4179.157657,-2886.803174,-10112.460574,370.102971
4179.157981,-2886.803174,-8350.440928,-814.226536
4179.158305,0.000000,-9116.536426,-222.061783
4179.158629,2590.720797,-8733.488677,-518.144159
4179.158954,3627.009116,-8580.269578,-888.247130
4179.159278,4589.276840,-8120.612279,-1184.329507
4179.159603,4663.297435,-8886.707777,-1110.308913
4179.159927,2220.617826,-7890.783629,-1258.350101
4179.160251,1480.411884,-9806.022374,-1036.288319
4179.160576,-1554.432478,-9116.536426,-1258.350101
4179.160900,-1998.556043,-9422.974625,-370.102971
4179.161224,-2590.720797,-8656.879127,-666.185348
4179.161549,-1406.391290,-9039.926876,518.144159
4179.161873,-296.082377,-8350.440928,296.082377
4179.162198,1850.514855,-8656.879127,-296.082377
4179.162522,2812.782580,-8350.440928,-518.144159
4179.162846,3182.885551,-8580.269578,-962.267725
4179.163171,2812.782580,-8427.050478,-814.226536
4179.163495,888.247130,-8044.002729,-888.247130
4179.163820,-1406.391290,-9652.803275,-370.102971
4179.164144,-3256.906145,-8503.660028,74.020594
4179.164468,-3849.070898,-8580.269578,666.185348
4179.164793,-2664.741391,-8503.660028,0.000000
4179.165117,-740.205942,-8580.269578,222.061783
4179.165441,1332.370696,-7431.126331,222.061783
4179.165766,2590.720797,-7967.393179,0.000000
4179.166090,3775.050304,-7967.393179,-962.267725
4179.166415,3182.885551,-8120.612279,-888.247130
4179.166739,1258.350101,-8197.221829,-370.102971
4179.167063,-962.267725,-8733.488677,-370.102971
4179.167388,-3330.926739,-9806.022374,222.061783
4179.167712,-4145.153275,-9422.974625,-518.144159
4179.168037,-3330.926739,-9039.926876,296.082377
4179.168361,-2442.679609,-8886.707777,222.061783
4179.168685,-148.041188,-8810.098227,1036.288319
4179.169010,2146.597232,-7967.393179,666.185348
4179.169334,3108.864956,-8044.002729,222.061783
4179.169659,2812.782580,-7507.735880,-518.144159
4179.169983,444.123565,-7277.907231,-370.102971
4179.170307,1628.453072,-8580.269578,296.082377
4179.170632,-1184.329507,-8503.660028,-592.164754
4179.170956,-2664.741391,-9422.974625,1258.350101
4179.171280,-2368.659014,-8044.002729,296.082377
4179.171605,-666.185348,-8273.831378,1110.308913
4179.171929,1924.535449,-8810.098227,148.041188
4179.172254,3330.926739,-7967.393179,370.102971
4179.172578,2812.782580,-8120.612279,-296.082377
4179.172902,2664.741391,-8273.831378,-444.123565
4179.173227,2442.679609,-7584.345430,-1332.370696
4179.173551,0.000000,-9039.926876,-222.061783
4179.173876,-1332.370696,-8273.831378,-296.082377
4179.174200,-1850.514855,-8963.317327,-148.041188
4179.174524,-1776.494261,-9193.145976,-370.102971
4179.174849,-444.123565,-7967.393179,222.061783
4179.175173,1628.453072,-8810.098227,666.185348
4179.175497,2368.659014,-8197.221829,-1184.329507
4179.175822,4441.235652,-8580.269578,0.000000
4179.176146,3182.885551,-8120.612279,-2072.576638
4179.176471,1924.535449,-9116.536426,0.000000
4179.176795,370.102971,-7814.174080,-1184.329507
4179.177119,-1406.391290,-10189.070123,148.041188
4179.177444,-3478.967927,-8503.660028,-666.185348
4179.177768,-2442.679609,-9039.926876,370.102971
4179.178093,-740.205942,-8580.269578,-518.144159
4179.178417,1406.391290,-8197.221829,-962.267725
4179.178741,3923.091493,-8197.221829,-1110.308913
4179.179066,4589.276840,-8350.440928,-518.144159
4179.179390,4737.318029,-8810.098227,-1554.432478
4179.179714,2812.782580,-8197.221829,-1554.432478
4179.180039,1184.329507,-9882.631924,-370.102971
4179.180363,74.020594,-9193.145976,-1702.473667
4179.180688,-1702.473667,-9882.631924,-962.267725
4179.181012,-3108.864956,-8733.488677,-962.267725
4179.181336,-2664.741391,-10035.851024,0.000000
4179.181661,2664.741391,-7814.174080,0.000000
4179.181985,1554.432478,-8963.317327,-148.041188
4179.182310,4737.318029,-7584.345430,-888.247130
4179.182634,3478.967927,-9116.536426,1406.391290
4179.182958,2886.803174,-7354.516781,-2738.761985
4179.183283,2294.638420,-9269.755526,0.000000
4179.183607,-666.185348,-8580.269578,-1702.473667
4179.183932,-2442.679609,-9499.584175,370.102971
4179.184256,-4071.132681,-8733.488677,-740.205942
4179.184580,-3923.091493,-10035.851024,1184.329507
4179.184905,-1702.473667,-8427.050478,0.000000
4179.185229,370.102971,-8886.707777,0.000000
4179.185553,1776.494261,-7890.783629,148.041188
4179.185878,2886.803174,-6894.859482,0.000000
4179.186202,3182.885551,-8580.269578,-370.102971
4179.186527,2960.823768,-8810.098227,-1110.308913
4179.186851,1480.411884,-8656.879127,-666.185348
4179.187175,-1776.494261,-8886.707777,-1036.288319
4179.187500,-2886.803174,-9116.536426,148.041188
4179.187824,-3923.091493,-8273.831378,222.061783
4179.188149,-2220.617826,-9806.022374,740.205942
4179.188473,-444.123565,-7660.954980,518.144159
4179.188797,2220.617826,-8044.002729,1036.288319
4179.189122,2368.659014,-7277.907231,-370.102971
4179.189446,3108.864956,-8886.707777,74.020594
4179.189770,1702.473667,-6818.249932,-814.226536
4179.190095,222.061783,-8656.879127,222.061783
4179.190419,-2590.720797,-7660.954980,148.041188
4179.190744,-3404.947333,-9269.755526,370.102971
4179.191068,-2886.803174,-8733.488677,222.061783
4179.191392,-2590.720797,-9116.536426,1036.288319
4179.191717,-518.144159,-8427.050478,-296.082377
4179.192041,2812.782580,-8503.660028,592.164754
4179.192366,2738.761985,-7660.954980,0.000000
4179.192690,3552.988522,-8810.098227,296.082377
4179.193014,2368.659014,-7814.174080,-296.082377
4179.193339,74.020594,-8197.221829,-962.267725
4179.193663,0.000000,-8886.707777,-222.061783
4179.193987,-1036.288319,-8886.707777,-1332.370696
4179.194312,-1480.411884,-10495.508323,370.102971
4179.194636,-1702.473667,-7660.954980,-814.226536
4179.194961,-592.164754,-8503.660028,962.267725
4179.195285,1258.350101,-8120.612279,-222.061783
4179.195609,3849.070898,-7431.126331,518.144159
4179.195934,4515.256246,-8580.269578,-740.205942
4179.196258,3330.926739,-8427.050478,-1036.288319
4179.196583,2220.617826,-8503.660028,-1332.370696
4179.196907,0.000000,-9193.145976,-370.102971
4179.197231,-2294.638420,-9346.365076,-444.123565
4179.197556,-3478.967927,-8503.660028,0.000000
4179.197880,-2812.782580,-9193.145976,222.061783
4179.198205,-1110.308913,-8656.879127,-444.123565
4179.198529,962.267725,-8120.612279,-592.164754
4179.198853,3330.926739,-8044.002729,-592.164754
4179.199178,5255.462188,-8733.488677,-1110.308913
4179.199502,4737.318029,-8503.660028,-1332.370696
4179.199826,4145.153275,-9116.536426,-814.226536
4179.200151,2368.659014,-9193.145976,-1702.473667
4179.200475,222.061783,-9576.193725,-1258.350101
4179.200800,-2368.659014,-9193.145976,-370.102971
4179.201124,-2146.597232,-9422.974625,-296.082377
4179.201448,-2146.597232,-8580.269578,-444.123565
4179.201773,0.000000,-8044.002729,-222.061783
4179.202097,2368.659014,-8503.660028,-370.102971
4179.202422,3256.906145,-7967.393179,-1258.350101
4179.202746,4515.256246,-8886.707777,-296.082377
4179.203070,2442.679609,-7814.174080,-1702.473667
4179.203395,666.185348,-9729.412825,-592.164754
4179.203719,-1924.535449,-8427.050478,-740.205942
4179.204043,-3256.906145,-9499.584175,666.185348
4179.204368,-3552.988522,-8273.831378,-962.267725
4179.204692,-2812.782580,-9652.803275,370.102971
4179.205017,148.041188,-7814.174080,-740.205942
4179.205341,2220.617826,-8580.269578,-370.102971
4179.205665,3478.967927,-8273.831378,-296.082377
4179.205990,4071.132681,-8427.050478,-518.144159
4179.206314,2738.761985,-7737.564530,-814.226536
4179.206639,2146.597232,-9116.536426,-518.144159
4179.206963,-296.082377,-8120.612279,-814.226536
4179.207287,-2072.576638,-9652.803275,148.041188
4179.207612,-3849.070898,-8503.660028,-888.247130
4179.207936,-2442.679609,-9576.193725,370.102971
4179.208260,-2072.576638,-7584.345430,148.041188
4179.208585,1258.350101,-8120.612279,1258.350101
4179.208909,2516.700203,-6894.859482,0.000000
4179.209234,3552.988522,-8427.050478,592.164754
4179.209558,3182.885551,-8044.002729,0.000000
4179.209882,2146.597232,-8656.879127,-592.164754
4179.210207,-444.123565,-8733.488677,-814.226536
4179.210531,-2886.803174,-8580.269578,296.082377
4179.210856,-3997.112087,-9269.755526,370.102971
4179.211180,-4145.153275,-9346.365076,148.041188
4179.211504,-2738.761985,-8427.050478,518.144159
4179.211829,-222.061783,-7814.174080,296.082377
4179.212153,1406.391290,-7890.783629,0.000000
4179.212477,3108.864956,-8503.660028,-444.123565
4179.212802,4293.194464,-7814.174080,-370.102971
4179.213126,3330.926739,-8350.440928,-148.041188
4179.213451,1406.391290,-8810.098227,-1184.329507
4179.213775,296.082377,-9346.365076,-148.041188
4179.214099,-1924.535449,-8580.269578,-518.144159
4179.214424,-3034.844362,-9269.755526,74.020594
4179.214748,-3034.844362,-8886.707777,0.000000
4179.215073,-962.267725,-9116.536426,0.000000
4179.215397,2072.576638,-8044.002729,148.041188
4179.215721,2738.761985,-8197.221829,-148.041188
4179.216046,4293.194464,-8273.831378,-962.267725
4179.216370,3701.029710,-7737.564530,-888.247130
4179.216695,1776.494261,-9039.926876,-814.226536
4179.217019,-296.082377,-8503.660028,-444.123565
4179.217343,-1628.453072,-9576.193725,-296.082377
4179.217668,-2664.741391,-9116.536426,-666.185348
4179.217992,-2664.741391,-9576.193725,-592.164754
4179.218316,-1628.453072,-9039.926876,-814.226536
4179.218641,740.205942,-8656.879127,-148.041188
4179.218965,2960.823768,-7890.783629,-518.144159
4179.219290,3330.926739,-8580.269578,-296.082377
4179.219614,3997.112087,-8197.221829,-1628.453072
4179.219938,2368.659014,-8580.269578,-1628.453072
4179.220263,1480.411884,-9346.365076,-1702.473667
4179.220587,-666.185348,-9116.536426,-814.226536
4179.220912,-962.267725,-9346.365076,-740.205942
4179.221236,-2220.617826,-8733.488677,-296.082377
4179.221560,-444.123565,-8963.317327,0.000000
4179.221885,2220.617826,-9039.926876,74.020594
4179.222209,3034.844362,-8886.707777,0.000000
4179.222533,4145.153275,-7660.954980,-1036.288319
4179.222858,3404.947333,-8733.488677,-740.205942
4179.223182,1628.453072,-7967.393179,-1258.350101
4179.223507,888.247130,-8810.098227,-666.185348
4179.223831,-1776.494261,-8273.831378,-296.082377
4179.224155,-2516.700203,-9422.974625,148.041188
4179.224480,-1776.494261,-9193.145976,148.041188
4179.224804,-666.185348,-8810.098227,296.082377
4179.225129,1406.391290,-7431.126331,-666.185348
4179.225453,3034.844362,-8963.317327,222.061783
4179.225777,3775.050304,-7660.954980,-518.144159
4179.226102,4071.132681,-8733.488677,-370.102971
4179.226426,2146.597232,-8273.831378,-1184.329507
4179.226750,1776.494261,-9039.926876,296.082377
4179.227075,-1850.514855,-8273.831378,-962.267725
4179.227399,-2812.782580,-10648.727422,-370.102971
4179.227724,-4219.173869,-7584.345430,-888.247130
4179.228048,-2960.823768,-9806.022374,1554.432478
4179.228372,-1332.370696,-7354.516781,0.000000
4179.228697,1480.411884,-8350.440928,592.164754
4179.229021,2812.782580,-7814.174080,0.000000
4179.229346,2812.782580,-7967.393179,222.061783
4179.229670,3404.947333,-8580.269578,-1406.391290
4179.229994,1184.329507,-9193.145976,-518.144159
4179.230319,-888.247130,-7890.783629,-518.144159
4179.230643,-3256.906145,-9193.145976,0.000000
4179.230968,-4293.194464,-9116.536426,370.102971
4179.231292,-2738.761985,-8503.660028,1036.288319
4179.231616,-1036.288319,-9116.536426,0.000000
4179.231941,-222.061783,-7890.783629,0.000000
4179.232265,2812.782580,-7967.393179,814.226536
4179.232589,3404.947333,-6818.249932,-814.226536
4179.232914,4367.215058,-8656.879127,444.123565
4179.233238,2960.823768,-8120.612279,-1998.556043
4179.233563,1258.350101,-9806.022374,-518.144159
4179.233887,-1184.329507,-8810.098227,-1332.370696
4179.234211,-3330.926739,-10035.851024,-222.061783
4179.234536,-3108.864956,-9422.974625,-296.082377
4179.234860,-3330.926739,-8886.707777,148.041188
4179.235185,296.082377,-9193.145976,296.082377
4179.235509,1036.288319,-7660.954980,74.020594
4179.235833,3256.906145,-8273.831378,-296.082377
4179.236158,3627.009116,-7814.174080,-592.164754
4179.236482,3182.885551,-7890.783629,-1184.329507
4179.236806,1406.391290,-8656.879127,-666.185348
4179.237131,-1332.370696,-8273.831378,-444.123565
4179.237455,-2368.659014,-9652.803275,-296.082377
4179.237780,-1776.494261,-9576.193725,-444.123565
4179.238104,1036.288319,-9499.584175,592.164754
4179.238428,-4885.359217,-8273.831378,-1184.329507
4179.238753,2516.700203,-8963.317327,370.102971
4179.239077,1554.432478,-7277.907231,-1184.329507
4179.239402,4959.379811,-9959.241474,-222.061783
4179.239726,3108.864956,-7584.345430,-1850.514855
4179.240050,1036.288319,-8963.317327,-1850.514855
4179.240375,-370.102971,-8810.098227,-296.082377
4179.240699,-518.144159,-8656.879127,-2072.576638
4179.241023,-666.185348,-11261.603821,-370.102971
4179.241348,-1184.329507,-7584.345430,-814.226536
4179.241672,222.061783,-8656.879127,444.123565
4179.241997,2664.741391,-8427.050478,-296.082377
4179.242321,3775.050304,-8963.317327,148.041188
4179.242645,4367.215058,-8427.050478,-296.082377
4179.242970,1480.411884,-7431.126331,-1628.453072
4179.243294,2294.638420,-9346.365076,-592.164754
4179.243619,0.000000,-8197.221829,-888.247130
4179.243943,-2294.638420,-9882.631924,0.000000
4179.244267,-2738.761985,-8044.002729,-1110.308913
4179.244592,-1850.514855,-9039.926876,518.144159
4179.244916,-814.226536,-8810.098227,-1036.288319
4179.245241,1924.535449,-8656.879127,0.000000
4179.245565,2368.659014,-7967.393179,-592.164754
4179.245889,3478.967927,-9269.755526,0.000000
4179.246214,3923.091493,-8120.612279,-1628.453072
4179.246538,3034.844362,-8580.269578,-592.164754
4179.246862,1110.308913,-8273.831378,-962.267725
4179.247187,-1850.514855,-9193.145976,74.020594
4179.247511,-3256.906145,-9193.145976,-296.082377
4179.247836,-3627.009116,-9346.365076,-666.185348
4179.248160,-1776.494261,-9269.755526,0.000000
4179.248484,-370.102971,-7814.174080,148.041188
4179.248809,1332.370696,-8273.831378,592.164754
4179.249133,2886.803174,-7584.345430,-296.082377
4179.249458,3330.926739,-8963.317327,-148.041188
4179.249782,1998.556043,-8273.831378,-1036.288319
4179.250106,962.267725,-8810.098227,-148.041188
4179.250431,-1850.514855,-8350.440928,-370.102971
4179.250755,-3775.050304,-9806.022374,296.082377
4179.251079,-3701.029710,-8886.707777,0.000000
4179.251404,-2812.782580,-8656.879127,-74.020594
4179.251728,-1924.535449,-8350.440928,0.000000
4179.252053,0.000000,-8733.488677,0.000000
4179.252377,2516.700203,-8733.488677,740.205942
4179.252701,2368.659014,-7660.954980,-740.205942
4179.253026,2368.659014,-8580.269578,-222.061783
4179.253350,1554.432478,-8427.050478,-1702.473667
4179.253675,740.205942,-8503.660028,148.041188
4179.253999,-1184.329507,-8350.440928,-370.102971
4179.254323,-2442.679609,-9193.145976,-370.102971
4179.254648,-2146.597232,-8350.440928,-296.082377
4179.254972,-1258.350101,-8120.612279,0.000000
4179.255296,888.247130,-8733.488677,666.185348
4179.255621,1702.473667,-7431.126331,74.020594
4179.255945,3330.926739,-8197.221829,518.144159
4179.256270,2442.679609,-7737.564530,-296.082377
4179.256594,1628.453072,-8810.098227,-1110.308913
4179.256918,-962.267725,-8886.707777,-592.164754
4179.257243,-1998.556043,-8886.707777,-296.082377
4179.257567,-2516.700203,-9422.974625,-592.164754
4179.257892,-1702.473667,-8656.879127,666.185348
4179.258216,0.000000,-8427.050478,0.000000
4179.258540,2220.617826,-8656.879127,-148.041188
4179.258865,3552.988522,-8503.660028,-370.102971
4179.259189,3552.988522,-9193.145976,74.020594
4179.259513,4589.276840,-8580.269578,-1110.308913
4179.259838,2960.823768,-8503.660028,-1036.288319
4179.260162,740.205942,-8810.098227,-1332.370696
4179.260486,-1184.329507,-8350.440928,-296.082377
4179.260811,-2146.597232,-9269.755526,-1110.308913
4179.261135,-1702.473667,-9269.755526,-444.123565
4179.261459,-444.123565,-8350.440928,-740.205942
4179.261783,740.205942,-8427.050478,-518.144159
4179.262108,2738.761985,-8197.221829,370.102971
4179.262432,4663.297435,-7967.393179,0.000000
4179.262756,4885.359217,-8656.879127,-814.226536
4179.263081,2664.741391,-8350.440928,-1776.494261
4179.263405,1258.350101,-9576.193725,444.123565
4179.263729,-1628.453072,-8733.488677,-1110.308913
4179.264053,-3182.885551,-9422.974625,-740.205942
4179.264378,-3478.967927,-9116.536426,-148.041188
4179.264702,-2368.659014,-8197.221829,-370.102971
4179.265026,-518.144159,-8580.269578,222.061783
4179.265351,2442.679609,-8044.002729,-296.082377
4179.265675,4219.173869,-8580.269578,-148.041188
4179.265999,3997.112087,-7584.345430,-1110.308913
4179.266323,3552.988522,-8273.831378,-370.102971
4179.266648,2220.617826,-8273.831378,-1184.329507
4179.266972,0.000000,-9652.803275,-1554.432478
4179.267296,-1776.494261,-9422.974625,-740.205942
4179.267621,-2812.782580,-9039.926876,-296.082377
4179.267945,-2738.761985,-8963.317327,-592.164754
4179.268269,-1924.535449,-8580.269578,814.226536
4179.268593,2442.679609,-7354.516781,1036.288319
4179.268918,2886.803174,-7814.174080,296.082377
4179.269242,3775.050304,-7967.393179,-888.247130
4179.269566,3330.926739,-9039.926876,0.000000
4179.269891,592.164754,-8044.002729,-518.144159
4179.270215,148.041188,-8350.440928,-1628.453072
4179.270539,-1998.556043,-10112.460574,222.061783
4179.270863,-3701.029710,-9193.145976,370.102971
4179.271188,-4367.215058,-8580.269578,148.041188
4179.271512,-2590.720797,-9576.193725,518.144159
4179.271836,-296.082377,-8120.612279,370.102971
4179.272161,1702.473667,-7660.954980,0.000000
4179.272485,2442.679609,-8580.269578,0.000000
4179.272809,2738.761985,-7584.345430,-296.082377
4179.273133,2516.700203,-8580.269578,-962.267725
4179.273458,962.267725,-8580.269578,-962.267725
4179.273782,-518.144159,-8886.707777,0.000000
4179.274106,-2738.761985,-8044.002729,-518.144159
4179.274431,-2442.679609,-9882.631924,962.267725
4179.274755,-1850.514855,-7737.564530,-444.123565
4179.275079,0.000000,-9806.022374,888.247130
4179.275403,1184.329507,-7277.907231,-888.247130
4179.275728,3182.885551,-9346.365076,1258.350101
4179.276052,2590.720797,-6665.030833,-962.267725
4179.276376,2368.659014,-9346.365076,296.082377
4179.276701,962.267725,-7737.564530,-1036.288319
4179.277025,-1850.514855,-9193.145976,74.020594
4179.277349,-1924.535449,-9039.926876,-370.102971
4179.277673,-3108.864956,-9039.926876,-370.102971
4179.277998,-2072.576638,-8656.879127,444.123565
4179.278322,-1480.411884,-8044.002729,-518.144159
4179.278646,2738.761985,-8580.269578,444.123565
4179.278971,3701.029710,-8120.612279,-888.247130
4179.279295,4145.153275,-8503.660028,-814.226536
4179.279619,2960.823768,-8733.488677,-1258.350101
4179.279943,1406.391290,-8733.488677,-444.123565
4179.280268,0.000000,-8580.269578,-1776.494261
4179.280592,-962.267725,-9422.974625,-814.226536
4179.280916,-3108.864956,-9193.145976,-1258.350101
4179.281241,-2664.741391,-9193.145976,296.082377
4179.281565,-1480.411884,-8427.050478,-814.226536
4179.281889,1776.494261,-9116.536426,74.020594
4179.282213,3256.906145,-7737.564530,-148.041188
4179.282538,4663.297435,-7584.345430,-814.226536
4179.282862,5329.482782,-8350.440928,-370.102971
4179.283186,4145.153275,-8120.612279,-1628.453072
4179.283511,1406.391290,-9193.145976,-592.164754
4179.283835,-2220.617826,-8963.317327,-74.020594
4179.284159,-3330.926739,-9576.193725,-296.082377
4179.284483,-2886.803174,-9499.584175,0.000000
4179.284808,-1998.556043,-8350.440928,-592.164754
4179.285132,222.061783,-8733.488677,148.041188
4179.285456,1850.514855,-7354.516781,-962.267725
4179.285781,3849.070898,-8044.002729,-518.144159
4179.286105,4737.318029,-8120.612279,-962.267725
4179.286429,4885.359217,-8886.707777,-1110.308913
4179.286754,3108.864956,-8810.098227,-1702.473667
4179.287078,1036.288319,-9039.926876,-740.205942
4179.287402,-1332.370696,-9652.803275,-592.164754
4179.287726,-3108.864956,-9116.536426,-888.247130
4179.288051,-3404.947333,-9652.803275,0.000000
4179.288375,-2368.659014,-7967.393179,518.144159
4179.288699,-888.247130,-8886.707777,0.000000
4179.289024,1258.350101,-8427.050478,-1036.288319
4179.289348,2886.803174,-9269.755526,148.041188
4179.289672,1554.432478,-6435.202183,-1110.308913
4179.289996,3404.947333,-8350.440928,-962.267725
4179.290321,1036.288319,-9116.536426,-444.123565
4179.290645,-2664.741391,-8810.098227,-74.020594
4179.290969,-2220.617826,-8886.707777,0.000000
4179.291294,-3849.070898,-8503.660028,-296.082377
4179.291618,-666.185348,-10112.460574,1184.329507
4179.291942,518.144159,-7048.078582,-444.123565
4179.292266,1924.535449,-9806.022374,148.041188
4179.292591,1036.288319,-7354.516781,-444.123565
4179.292915,2738.761985,-8733.488677,0.000000
4179.293239,1184.329507,-8427.050478,-1850.514855
4179.293564,0.000000,-9346.365076,0.000000
4179.293888,-962.267725,-7890.783629,-1258.350101
4179.294212,-2516.700203,-9346.365076,-148.041188
4179.294536,-3182.885551,-8963.317327,-296.082377
4179.294861,0.000000,-9652.803275,444.123565
4179.295185,1258.350101,-7967.393179,222.061783
4179.295509,2146.597232,-8810.098227,740.205942
4179.295834,2960.823768,-7737.564530,-518.144159
4179.296158,3182.885551,-9269.755526,592.164754
4179.296482,666.185348,-7201.297681,-1480.411884
4179.296806,-518.144159,-9346.365076,74.020594
4179.297131,-2368.659014,-7431.126331,0.000000
4179.297455,-3552.988522,-10342.289223,592.164754
4179.297779,-3108.864956,-8120.612279,-518.144159
4179.298104,-2220.617826,-9499.584175,592.164754
4179.298428,444.123565,-7660.954980,-222.061783
4179.298752,3404.947333,-8273.831378,518.144159
4179.299076,4219.173869,-7967.393179,-518.144159
4179.299401,3997.112087,-9039.926876,74.020594
4179.299725,2886.803174,-7660.954980,-888.247130
4179.300049,1924.535449,-9499.584175,-1184.329507
4179.300374,-518.144159,-9422.974625,-1184.329507
4179.300698,-2368.659014,-9499.584175,-296.082377
4179.301022,-2516.700203,-8656.879127,-962.267725
4179.301346,-1554.432478,-8963.317327,222.061783
4179.301671,-1776.494261,-7737.564530,888.247130
4179.301995,1702.473667,-8503.660028,666.185348
4179.302319,3627.009116,-7737.564530,-814.226536
4179.302644,5403.503377,-9269.755526,-444.123565
4179.302968,4737.318029,-8350.440928,-1258.350101
4179.303292,3256.906145,-8656.879127,-592.164754
4179.303616,1110.308913,-9039.926876,-888.247130
4179.303941,-2294.638420,-9576.193725,-370.102971
4179.304265,-3923.091493,-8886.707777,-888.247130
4179.304589,-2960.823768,-9269.755526,592.164754
4179.304914,-1628.453072,-8120.612279,-518.144159
4179.305238,1110.308913,-9039.926876,-222.061783
4179.305562,2368.659014,-7354.516781,-740.205942
4179.305886,3701.029710,-7890.783629,0.000000
4179.306211,4515.256246,-8044.002729,-2072.576638
4179.306535,4145.153275,-9039.926876,-1332.370696
4179.306859,2590.720797,-8427.050478,-1110.308913
4179.307184,-370.102971,-9346.365076,-888.247130
4179.307508,-1776.494261,-9116.536426,-1258.350101
4179.307832,-1924.535449,-9806.022374,-518.144159
4179.308156,-1480.411884,-9039.926876,-74.020594
4179.308481,-1036.288319,-8733.488677,0.000000
4179.308805,1110.308913,-8197.221829,-666.185348
4179.309129,3034.844362,-8733.488677,148.041188
4179.309454,2664.741391,-7967.393179,-1332.370696
4179.309778,2664.741391,-9422.974625,-518.144159
4179.310102,444.123565,-8044.002729,-740.205942
4179.310426,-1110.308913,-9346.365076,-666.185348
4179.310751,-2294.638420,-9116.536426,-592.164754
4179.311075,-2664.741391,-9576.193725,444.123565
4179.311399,-1036.288319,-8810.098227,0.000000
4179.311724,-1258.350101,-8503.660028,296.082377
4179.312048,1036.288319,-8273.831378,0.000000
4179.312372,1998.556043,-8580.269578,444.123565
4179.312696,2516.700203,-7967.393179,-1184.329507
4179.313021,1924.535449,-8427.050478,0.000000
4179.313345,-222.061783,-7737.564530,-740.205942
4179.313669,-1258.350101,-9193.145976,0.000000
4179.313994,-2220.617826,-8810.098227,-740.205942
4179.314318,-3330.926739,-9806.022374,74.020594
4179.314642,-2368.659014,-8733.488677,-148.041188
4179.314966,-1110.308913,-8503.660028,370.102971
4179.315291,1184.329507,-7967.393179,444.123565
4179.315615,2442.679609,-7660.954980,592.164754
4179.315939,3182.885551,-7967.393179,222.061783
4179.316264,1776.494261,-7967.393179,-592.164754
4179.316588,1554.432478,-9193.145976,0.000000
4179.316912,-1258.350101,-8273.831378,-740.205942
4179.317236,-3034.844362,-8810.098227,518.144159
4179.317561,-4367.215058,-8120.612279,-444.123565
4179.317885,-3849.070898,-9039.926876,444.123565
4179.318209,-2368.659014,-7584.345430,0.000000
4179.318534,814.226536,-8350.440928,1036.288319
4179.318858,2812.782580,-7507.735880,-370.102971
4179.319182,4367.215058,-8503.660028,148.041188
4179.319506,4219.173869,-7354.516781,-1036.288319
4179.319831,3627.009116,-9039.926876,-370.102971
4179.320155,2368.659014,-8656.879127,-1924.535449
4179.320479,-1628.453072,-9193.145976,74.020594
4179.320804,-2072.576638,-8963.317327,-740.205942
4179.321128,-3330.926739,-9576.193725,0.000000
4179.321452,-1110.308913,-9576.193725,370.102971
4179.321777,222.061783,-8044.002729,222.061783
4179.322101,1702.473667,-7890.783629,148.041188
4179.322425,2960.823768,-7737.564530,-296.082377
4179.322749,4145.153275,-7890.783629,-592.164754
4179.323074,2886.803174,-8733.488677,-1110.308913
4179.323398,1554.432478,-8886.707777,74.020594
4179.323722,0.000000,-8427.050478,-592.164754
4179.324047,-1332.370696,-10189.070123,-444.123565
4179.324371,-1998.556043,-9193.145976,-666.185348
4179.324695,-1850.514855,-8733.488677,-148.041188
4179.325019,-592.164754,-8503.660028,148.041188
4179.325344,1924.535449,-8350.440928,74.020594
4179.325668,5033.400406,-8656.879127,222.061783
4179.325992,4293.194464,-7890.783629,-1110.308913
4179.326317,4441.235652,-9269.755526,-1258.350101
4179.326641,2220.617826,-7354.516781,-1850.514855
4179.326965,222.061783,-9806.022374,-1406.391290
4179.327289,-3182.885551,-8733.488677,-1406.391290
4179.327614,-2516.700203,-9882.631924,74.020594
4179.327938,-2960.823768,-8656.879127,-1184.329507
4179.328262,-296.082377,-9806.022374,0.000000
4179.328587,2072.576638,-7967.393179,-592.164754
4179.328911,2960.823768,-9193.145976,0.000000
4179.329235,3478.967927,-7431.126331,-1406.391290
4179.329559,2886.803174,-9116.536426,-740.205942
4179.329884,1406.391290,-7354.516781,-666.185348
4179.330208,-1036.288319,-8733.488677,-740.205942
4179.330532,-2812.782580,-8733.488677,-1110.308913
4179.330857,-3478.967927,-9729.412825,-1036.288319
4179.331181,-3552.988522,-8350.440928,-592.164754
4179.331505,-1406.391290,-9193.145976,444.123565
4179.331829,370.102971,-7814.174080,0.000000
4179.332154,2590.720797,-8273.831378,740.205942
4179.332478,3478.967927,-7507.735880,-518.144159
4179.332802,4515.256246,-9422.974625,-888.247130
4179.333127,2516.700203,-7890.783629,-1110.308913
4179.333451,370.102971,-8503.660028,-592.164754
4179.333775,-2442.679609,-8427.050478,-962.267725
4179.334099,-3701.029710,-9346.365076,148.041188
4179.334424,-3849.070898,-8427.050478,-74.020594
4179.334748,-2368.659014,-9346.365076,148.041188
4179.335072,-740.205942,-8120.612279,592.164754
4179.335397,1702.473667,-8350.440928,444.123565
4179.335721,2886.803174,-7507.735880,0.000000
4179.336045,3849.070898,-8503.660028,296.082377
4179.336369,2220.617826,-7660.954980,-962.267725
4179.336694,1184.329507,-9116.536426,0.000000
4179.337018,-1184.329507,-7660.954980,-148.041188
4179.337342,-3108.864956,-9806.022374,74.020594
4179.337667,-4293.194464,-8733.488677,-666.185348
4179.337991,-2146.597232,-9346.365076,1332.370696
4179.338315,-1924.535449,-7277.907231,296.082377
4179.338639,592.164754,-8350.440928,1110.308913
4179.338964,2368.659014,-7814.174080,592.164754
4179.339288,3627.009116,-7814.174080,0.000000
4179.339612,2146.597232,-7737.564530,-1554.432478
4179.339937,2442.679609,-8197.221829,-1258.350101
4179.340261,1850.514855,-8503.660028,-370.102971
4179.340585,-1332.370696,-8427.050478,-1036.288319
4179.340909,-2442.679609,-9652.803275,296.082377
4179.341234,-1554.432478,-9039.926876,666.185348
4179.341558,-148.041188,-8886.707777,222.061783
4179.341882,592.164754,-8886.707777,-222.061783
4179.342207,3627.009116,-7967.393179,222.061783
4179.342531,4589.276840,-7890.783629,-444.123565
4179.342855,3182.885551,-8580.269578,-888.247130
4179.343179,1850.514855,-8733.488677,-444.123565
4179.343504,-1184.329507,-8733.488677,-740.205942
4179.343828,-1998.556043,-9422.974625,-222.061783
4179.344152,-2886.803174,-7737.564530,-1110.308913
4179.344477,-1628.453072,-9882.631924,-296.082377
4179.344801,-1776.494261,-8197.221829,-666.185348
4179.345125,1628.453072,-9269.755526,444.123565
4179.345449,2738.761985,-7814.174080,-370.102971
4179.345774,4071.132681,-8197.221829,74.020594
4179.346098,4219.173869,-7890.783629,-1332.370696
4179.346422,3182.885551,-8656.879127,-1406.391290
4179.346747,2294.638420,-8733.488677,-2146.597232
4179.347071,444.123565,-9269.755526,-1258.350101
4179.347395,-2072.576638,-8733.488677,-888.247130
4179.347719,-2590.720797,-9652.803275,-296.082377
4179.348044,-1480.411884,-8810.098227,-592.164754
4179.348368,0.000000,-8350.440928,0.000000
4179.348692,3404.947333,-8273.831378,-444.123565
4179.349017,4071.132681,-8427.050478,-592.164754
4179.349341,4145.153275,-8273.831378,-1184.329507
4179.349665,3256.906145,-8733.488677,-740.205942
4179.349989,666.185348,-8656.879127,-888.247130
4179.350314,-1332.370696,-9269.755526,-740.205942
4179.350638,-1924.535449,-9193.145976,-518.144159
4179.350962,-2368.659014,-9576.193725,-1110.308913
4179.351287,-1924.535449,-9116.536426,-296.082377
4179.351611,-666.185348,-8733.488677,0.000000
4179.351935,666.185348,-7354.516781,-296.082377
4179.352259,2590.720797,-8580.269578,518.144159
4179.352584,3849.070898,-7967.393179,74.020594
4179.352908,2738.761985,-8427.050478,-1258.350101
4179.353232,1702.473667,-8273.831378,-1036.288319
4179.353557,518.144159,-9116.536426,-666.185348
4179.353881,-1924.535449,-9806.022374,-888.247130
4179.354205,-3108.864956,-9346.365076,0.000000
4179.354529,-3182.885551,-8350.440928,518.144159
4179.354854,-1998.556043,-8656.879127,370.102971
4179.355178,-444.123565,-8503.660028,148.041188
4179.355502,1406.391290,-7354.516781,666.185348
4179.355827,3552.988522,-7890.783629,592.164754
4179.356151,2368.659014,-8197.221829,-592.164754
4179.356475,962.267725,-9039.926876,-518.144159
4179.356800,-1258.350101,-8427.050478,-148.041188
4179.357124,-2812.782580,-8963.317327,-370.102971
4179.357448,-2960.823768,-9269.755526,148.041188
4179.357772,-2516.700203,-8273.831378,592.164754
4179.358097,-2442.679609,-8580.269578,296.082377
4179.358421,-222.061783,-8120.612279,444.123565
4179.358745,2812.782580,-7660.954980,0.000000
4179.359070,3182.885551,-7967.393179,592.164754
4179.359394,3923.091493,-7660.954980,-444.123565
4179.359718,2664.741391,-8350.440928,-814.226536
4179.360042,1406.391290,-8044.002729,-1184.329507
4179.360367,-962.267725,-9346.365076,74.020594
4179.360691,-3182.885551,-8810.098227,-296.082377
4179.361015,-3701.029710,-9499.584175,74.020594
4179.361340,-2516.700203,-8120.612279,74.020594
4179.361664,0.000000,-8733.488677,814.226536
4179.361988,2812.782580,-7967.393179,0.000000
4179.362312,3849.070898,-8350.440928,0.000000
4179.362637,4367.215058,-8120.612279,-296.082377
4179.362961,3256.906145,-8044.002729,-962.267725
4179.363285,1776.494261,-8656.879127,-444.123565
4179.363610,-666.185348,-8810.098227,0.000000
4179.363934,-1850.514855,-9346.365076,-740.205942
4179.364258,-3256.906145,-9729.412825,-666.185348
4179.364582,-2664.741391,-8810.098227,-444.123565
4179.364907,-666.185348,-8427.050478,-296.082377
4179.365231,1036.288319,-8886.707777,296.082377
4179.365555,3627.009116,-7507.735880,296.082377
4179.365880,4663.297435,-8427.050478,-518.144159
4179.366204,3775.050304,-7814.174080,-1628.453072
4179.366528,2886.803174,-9039.926876,-1332.370696
4179.366852,592.164754,-8273.831378,-2220.617826
4179.367177,-666.185348,-9882.631924,-666.185348
4179.367501,-2294.638420,-8656.879127,-1628.453072
4179.367825,-2368.659014,-10495.508323,-148.041188
4179.368150,-1702.473667,-7737.564530,-296.082377
4179.368474,592.164754,-9193.145976,0.000000
4179.368798,2664.741391,-7660.954980,-592.164754
4179.369122,4441.235652,-8886.707777,0.000000
4179.369447,3775.050304,-8120.612279,-1554.432478
4179.369771,2590.720797,-9499.584175,-740.205942
4179.370095,296.082377,-7967.393179,-1702.473667
4179.370420,-740.205942,-9346.365076,-296.082377
4179.370744,-2442.679609,-8273.831378,-1332.370696
4179.371068,-2442.679609,-9959.241474,444.123565
4179.371392,-1110.308913,-8580.269578,-518.144159
4179.371717,-296.082377,-8273.831378,296.082377
4179.372041,1850.514855,-8197.221829,-222.061783
4179.372365,1702.473667,-8273.831378,74.020594
4179.372690,3404.947333,-7890.783629,-592.164754
4179.373014,1776.494261,-8197.221829,-814.226536
4179.373338,1036.288319,-9039.926876,-1110.308913
4179.373662,-1184.329507,-8886.707777,-592.164754
4179.373987,-2812.782580,-8886.707777,0.000000
4179.374311,-2072.576638,-9576.193725,-370.102971
4179.374635,-2516.700203,-8810.098227,-666.185348
4179.374960,-888.247130,-8733.488677,370.102971
4179.375284,2294.638420,-7507.735880,74.020594
4179.375608,3108.864956,-8273.831378,296.082377
4179.375932,3997.112087,-7967.393179,962.267725
4179.376257,2220.617826,-7584.345430,-1110.308913
4179.376581,1776.494261,-9499.584175,-370.102971
4179.376905,-592.164754,-8273.831378,-814.226536
4179.377230,-2368.659014,-9269.755526,296.082377
4179.377554,-4145.153275,-8656.879127,-518.144159
4179.377878,-4293.194464,-8044.002729,444.123565
4179.378202,-3923.091493,-8044.002729,-296.082377
4179.378527,-814.226536,-7507.735880,592.164754
4179.378851,1702.473667,-7584.345430,666.185348
4179.379175,3552.988522,-8120.612279,74.020594
4179.379500,3404.947333,-8503.660028,-1184.329507
4179.379824,1406.391290,-8580.269578,-1480.411884
4179.380148,370.102971,-9269.755526,-814.226536
4179.380472,-1924.535449,-8656.879127,-814.226536
4179.380797,-1480.411884,-10418.898773,370.102971
4179.381121,-3997.112087,-8273.831378,-296.082377
4179.381445,-1702.473667,-9499.584175,740.205942
4179.381770,0.000000,-7967.393179,-666.185348
4179.382094,2368.659014,-8580.269578,814.226536
4179.382418,3256.906145,-7354.516781,370.102971
4179.382742,3182.885551,-8350.440928,-592.164754
4179.383067,2294.638420,-8733.488677,-444.123565
4179.383391,1406.391290,-8273.831378,-1036.288319
4179.383715,148.041188,-10035.851024,0.000000
4179.384040,-1628.453072,-9499.584175,-296.082377
4179.384364,-2146.597232,-9422.974625,-444.123565
4179.384688,-2072.576638,-8886.707777,-296.082377
4179.385012,-666.185348,-8197.221829,222.061783
4179.385337,1776.494261,-8503.660028,222.061783
4179.385661,3923.091493,-8580.269578,-148.041188
4179.385985,3997.112087,-7890.783629,-444.123565
4179.386310,3849.070898,-8733.488677,-1184.329507
4179.386634,1776.494261,-8427.050478,-1776.494261
4179.386958,740.205942,-9729.412825,-1332.370696
4179.387282,-1184.329507,-9576.193725,-740.205942
4179.387607,-1628.453072,-9193.145976,-888.247130
4179.387931,-1036.288319,-8810.098227,-222.061783
4179.388255,-296.082377,-8503.660028,-666.185348
4179.388580,1776.494261,-8427.050478,-296.082377
4179.388904,3108.864956,-7507.735880,-222.061783
4179.389228,3182.885551,-9039.926876,-592.164754
4179.389552,2738.761985,-8810.098227,-814.226536
4179.389877,1480.411884,-8963.317327,-1110.308913
4179.390201,-444.123565,-8810.098227,-1110.308913
4179.390525,-2146.597232,-9576.193725,-888.247130
4179.390850,-3256.906145,-8886.707777,-962.267725
4179.391174,-3627.009116,-9116.536426,222.061783
4179.391498,-1850.514855,-8044.002729,-370.102971
4179.391822,518.144159,-8503.660028,666.185348
4179.392147,3997.112087,-8733.488677,0.000000
4179.392471,4219.173869,-7814.174080,0.000000
4179.392795,4737.318029,-7967.393179,-666.185348
4179.393120,3997.112087,-7737.564530,-1702.473667
4179.393444,2442.679609,-9422.974625,-592.164754
4179.393768,0.000000,-8810.098227,-1184.329507
4179.394092,-2664.741391,-9576.193725,0.000000
4179.394417,-2368.659014,-8503.660028,222.061783
4179.394741,-2442.679609,-8503.660028,370.102971
4179.395065,-444.123565,-8197.221829,444.123565
4179.395390,962.267725,-7814.174080,-296.082377
4179.395714,2442.679609,-7660.954980,222.061783
4179.396038,2220.617826,-8350.440928,-740.205942
4179.396362,2664.741391,-8656.879127,-592.164754
4179.396687,296.082377,-8733.488677,0.000000
4179.397011,-2072.576638,-8733.488677,-370.102971
4179.397335,-3182.885551,-9346.365076,-296.082377
4179.397660,-4441.235652,-9039.926876,0.000000
4179.397984,-3997.112087,-8273.831378,666.185348
4179.398308,-1998.556043,-8273.831378,444.123565
4179.398633,74.020594,-7967.393179,296.082377
4179.398957,2442.679609,-8350.440928,148.041188
4179.399281,3478.967927,-7584.345430,-666.185348
4179.399605,3108.864956,-8427.050478,0.000000
4179.399930,2368.659014,-8197.221829,-1110.308913
4179.400254,-2368.659014,-8580.269578,-814.226536
4179.400578,1554.432478,-9729.412825,0.000000
4179.400903,-3478.967927,-7890.783629,-1332.370696
4179.401227,-2368.659014,-10878.556072,2294.638420
4179.401551,-1850.514855,-6511.811733,-1184.329507
4179.401875,0.000000,-9346.365076,888.247130
4179.402200,2516.700203,-7354.516781,-148.041188
4179.402524,4589.276840,-8427.050478,-518.144159
4179.402848,4219.173869,-7737.564530,-444.123565
4179.403173,2442.679609,-8120.612279,-1258.350101
4179.403497,1258.350101,-9882.631924,-296.082377
4179.403821,-1184.329507,-8733.488677,-370.102971
4179.404145,-2368.659014,-9422.974625,296.082377
4179.404470,-3034.844362,-8656.879127,-148.041188
4179.404794,-2664.741391,-7507.735880,148.041188
4179.405118,74.020594,-8580.269578,444.123565
4179.405443,2886.803174,-7354.516781,-148.041188
4179.405767,4145.153275,-8273.831378,-518.144159
4179.406091,3997.112087,-8044.002729,-1406.391290
4179.406415,4441.235652,-7890.783629,-1184.329507
4179.406740,2146.597232,-8503.660028,-1406.391290
4179.407064,0.000000,-9499.584175,-444.123565
4179.407388,-592.164754,-9269.755526,-962.267725
4179.407713,-1924.535449,-9499.584175,-666.185348
4179.408037,-1184.329507,-9422.974625,-148.041188
4179.408361,-814.226536,-8350.440928,-370.102971
4179.408685,1776.494261,-8427.050478,74.020594
4179.409010,3478.967927,-8044.002729,-148.041188
4179.409334,4663.297435,-8580.269578,-888.247130
4179.409658,3478.967927,-7890.783629,-1258.350101
4179.409983,1776.494261,-8350.440928,-1036.288319
4179.410307,370.102971,-8886.707777,-814.226536
4179.410631,-1406.391290,-8273.831378,-666.185348
4179.410955,-1850.514855,-9499.584175,0.000000
4179.411280,-1702.473667,-8886.707777,0.000000
4179.411604,-444.123565,-8273.831378,370.102971
4179.411928,1998.556043,-8120.612279,-888.247130
4179.412253,3404.947333,-8503.660028,-1184.329507
4179.412577,3404.947333,-8197.221829,-1258.350101
4179.412901,3330.926739,-8044.002729,-962.267725
4179.413225,1924.535449,-8044.002729,-1332.370696
4179.413550,222.061783,-9499.584175,-962.267725
4179.413874,-1998.556043,-9346.365076,-518.144159
4179.414198,-3034.844362,-9422.974625,-148.041188
4179.414523,-2886.803174,-9346.365076,-592.164754
4179.414847,-1258.350101,-8963.317327,0.000000
4179.415171,1628.453072,-8427.050478,74.020594
4179.415495,2516.700203,-8503.660028,0.000000
4179.415820,3849.070898,-7814.174080,0.000000
4179.416144,3478.967927,-9039.926876,-296.082377
4179.416468,888.247130,-8120.612279,-1480.411884
4179.416793,-666.185348,-9652.803275,0.000000
4179.417117,-3404.947333,-8427.050478,148.041188
4179.417441,-4737.318029,-9422.974625,222.061783
4179.417765,-4367.215058,-7890.783629,74.020594
4179.418090,-2516.700203,-8427.050478,370.102971
4179.418414,-1554.432478,-7584.345430,0.000000
4179.418738,1998.556043,-8044.002729,740.205942
4179.419063,3849.070898,-8044.002729,0.000000
4179.419387,4145.153275,-7890.783629,222.061783
4179.419711,2442.679609,-7737.564530,-1850.514855
4179.420035,2146.597232,-9882.631924,0.000000
4179.420360,-1036.288319,-8273.831378,-1110.308913
4179.420684,-3108.864956,-9959.241474,296.082377
4179.421008,-4589.276840,-8120.612279,-666.185348
4179.421333,-3701.029710,-9729.412825,1776.494261
4179.421657,-1850.514855,-7507.735880,0.000000
4179.421981,1258.350101,-8810.098227,1480.411884
4179.422305,1628.453072,-6971.469032,-74.020594
4179.422630,4145.153275,-8197.221829,148.041188
4179.422954,3849.070898,-7124.688131,-1480.411884
4179.423278,1628.453072,-8810.098227,-222.061783
4179.423603,296.082377,-8350.440928,0.000000
4179.423927,-1628.453072,-9116.536426,0.000000
4179.424251,-4663.297435,-9116.536426,-1332.370696
4179.424575,-2442.679609,-9652.803275,666.185348
4179.424900,-1554.432478,-9039.926876,222.061783
4179.425224,1036.288319,-8580.269578,74.020594
4179.425548,3923.091493,-7660.954980,518.144159
4179.425873,3997.112087,-7354.516781,-444.123565
4179.426197,4367.215058,-8427.050478,-1554.432478
4179.426521,2960.823768,-7890.783629,-1036.288319
4179.426845,1406.391290,-9652.803275,-592.164754
4179.427170,592.164754,-9269.755526,-1258.350101
4179.427494,-1998.556043,-9882.631924,-1332.370696
4179.427818,-2738.761985,-9499.584175,-444.123565
4179.428143,-888.247130,-9346.365076,-666.185348
4179.428467,666.185348,-8656.879127,0.000000
4179.428791,3701.029710,-9422.974625,148.041188
4179.429115,3478.967927,-7584.345430,-962.267725
4179.429440,3182.885551,-9346.365076,0.000000
4179.429764,2960.823768,-7660.954980,-1850.514855
4179.430088,1702.473667,-9116.536426,-1258.350101
4179.430413,0.000000,-9193.145976,-296.082377
4179.430737,-1998.556043,-8733.488677,-1110.308913
4179.431061,-1776.494261,-9039.926876,-444.123565
4179.431385,-1776.494261,-9039.926876,-962.267725
4179.431710,592.164754,-9346.365076,222.061783
4179.432034,2072.576638,-7124.688131,0.000000
4179.432358,3701.029710,-8810.098227,148.041188
4179.432683,4959.379811,-8197.221829,-2146.597232
4179.433007,3404.947333,-8580.269578,-962.267725
4179.433331,2886.803174,-8656.879127,-1776.494261
4179.433655,222.061783,-8580.269578,-1480.411884
4179.433980,-148.041188,-9652.803275,-888.247130
4179.434304,-2368.659014,-8810.098227,-444.123565
4179.434628,-1702.473667,-9116.536426,222.061783
4179.434953,-1258.350101,-9116.536426,-222.061783
4179.435277,888.247130,-8580.269578,444.123565
4179.435601,2960.823768,-7660.954980,-370.102971
