#time,accel_x,accel_y,accel_z
4356.492655,518.144159,-8503.660028,-592.164754
4356.492980,222.061783,-8580.269578,-592.164754
4356.493304,222.061783,-8656.879127,-222.061783
4356.493628,148.041188,-8503.660028,-444.123565
4356.493953,518.144159,-8580.269578,0.000000
4356.494277,666.185348,-8503.660028,222.061783
4356.494602,592.164754,-8733.488677,74.020594
4356.494926,814.226536,-8963.317327,148.041188
4356.495250,444.123565,-8580.269578,444.123565
4356.495575,444.123565,-8580.269578,148.041188
4356.495899,222.061783,-8963.317327,148.041188
4356.496223,814.226536,-8120.612279,370.102971
4356.496548,592.164754,-8273.831378,148.041188
4356.496872,592.164754,-8733.488677,370.102971
4356.497196,370.102971,-8197.221829,370.102971
4356.497521,444.123565,-8427.050478,518.144159
4356.497845,740.205942,-8580.269578,814.226536
4356.498170,518.144159,-8580.269578,518.144159
4356.498494,518.144159,-8656.879127,740.205942
4356.498818,296.082377,-8886.707777,666.185348
4356.499143,518.144159,-8273.831378,814.226536
4356.499467,444.123565,-8580.269578,296.082377
4356.499791,370.102971,-8503.660028,518.144159
4356.500116,74.020594,-8580.269578,740.205942
4356.500440,148.041188,-8886.707777,370.102971
4356.500764,444.123565,-8350.440928,444.123565
4356.501089,592.164754,-8503.660028,370.102971
4356.501413,296.082377,-8810.098227,444.123565
4356.501738,518.144159,-8886.707777,518.144159
4356.502062,518.144159,-8273.831378,592.164754
4356.502386,518.144159,-8656.879127,296.082377
4356.502711,296.082377,-8733.488677,222.061783
4356.503035,296.082377,-8503.660028,370.102971
4356.503359,592.164754,-8427.050478,814.226536
4356.503684,444.123565,-8503.660028,370.102971
4356.504008,296.082377,-8810.098227,370.102971
4356.504332,370.102971,-8120.612279,0.000000
4356.504657,148.041188,-8503.660028,148.041188
4356.504981,444.123565,-8350.440928,-222.061783
4356.505306,444.123565,-8733.488677,0.000000
4356.505630,592.164754,-8427.050478,0.000000
4356.505954,296.082377,-8503.660028,296.082377
4356.506279,592.164754,-8197.221829,0.000000
4356.506603,666.185348,-8503.660028,-296.082377
4356.506927,518.144159,-8273.831378,0.000000
4356.507251,296.082377,-8503.660028,-148.041188
4356.507576,444.123565,-8273.831378,-370.102971
4356.507900,444.123565,-8273.831378,-444.123565
4356.508224,518.144159,-8427.050478,-666.185348
4356.508548,296.082377,-8197.221829,-222.061783
4356.508872,370.102971,-8350.440928,-222.061783
4356.509196,740.205942,-8427.050478,-370.102971
4356.509521,74.020594,-8197.221829,-370.102971
4356.509845,-148.041188,-8733.488677,-814.226536
4356.510169,296.082377,-8656.879127,-666.185348
4356.510493,1110.308913,-8580.269578,-222.061783
4356.510817,888.247130,-8350.440928,-1110.308913
4356.511142,888.247130,-8886.707777,0.000000
4356.511466,666.185348,-8273.831378,-962.267725
4356.511790,666.185348,-9346.365076,-296.082377
4356.512114,592.164754,-8350.440928,-740.205942
4356.512438,296.082377,-8886.707777,0.000000
4356.512762,518.144159,-8197.221829,-888.247130
4356.513087,666.185348,-8656.879127,-444.123565
4356.513411,222.061783,-8427.050478,-666.185348
4356.513735,666.185348,-8580.269578,-370.102971
4356.514059,592.164754,-8120.612279,-592.164754
4356.514383,518.144159,-9652.803275,-296.082377
4356.514708,592.164754,-8886.707777,-444.123565
4356.515032,518.144159,-8886.707777,-592.164754
4356.515356,296.082377,-8733.488677,-444.123565
4356.515680,370.102971,-8963.317327,-296.082377
4356.516004,74.020594,-9039.926876,-666.185348
4356.516328,-74.020594,-8963.317327,-518.144159
4356.516653,-148.041188,-8810.098227,-518.144159
4356.516977,0.000000,-9193.145976,-666.185348
4356.517301,296.082377,-9116.536426,-666.185348
4356.517625,222.061783,-9116.536426,-148.041188
4356.517949,148.041188,-8886.707777,-666.185348
4356.518274,518.144159,-8810.098227,-814.226536
4356.518598,370.102971,-9116.536426,-666.185348
4356.518922,518.144159,-8427.050478,-222.061783
4356.519246,74.020594,-8810.098227,-444.123565
4356.519570,222.061783,-8963.317327,-370.102971
4356.519894,74.020594,-8733.488677,-592.164754
4356.520219,518.144159,-8810.098227,-814.226536
4356.520543,518.144159,-8656.879127,-740.205942
4356.520867,296.082377,-8810.098227,-296.082377
4356.521191,296.082377,-8580.269578,-444.123565
4356.521515,296.082377,-8733.488677,-518.144159
4356.521840,888.247130,-9039.926876,-370.102971
4356.522164,296.082377,-8810.098227,-444.123565
4356.522488,296.082377,-8656.879127,-518.144159
4356.522812,518.144159,-8733.488677,-370.102971
4356.523136,888.247130,-9039.926876,-296.082377
4356.523460,592.164754,-8580.269578,-370.102971
4356.523785,666.185348,-8580.269578,-370.102971
4356.524109,888.247130,-8427.050478,-222.061783
4356.524433,962.267725,-8427.050478,-222.061783
4356.524757,740.205942,-8810.098227,-296.082377
4356.525081,666.185348,-8733.488677,74.020594
4356.525405,814.226536,-8656.879127,0.000000
4356.525730,666.185348,-8733.488677,-148.041188
4356.526054,1036.288319,-8733.488677,0.000000
4356.526378,666.185348,-8503.660028,222.061783
4356.526702,666.185348,-8427.050478,0.000000
4356.527026,814.226536,-8350.440928,0.000000
4356.527351,1332.370696,-8503.660028,148.041188
4356.527675,814.226536,-8273.831378,296.082377
4356.527999,518.144159,-8656.879127,0.000000
4356.528323,444.123565,-8503.660028,0.000000
4356.528647,666.185348,-8350.440928,296.082377
4356.528971,888.247130,-8963.317327,0.000000
4356.529296,592.164754,-8810.098227,0.000000
4356.529620,444.123565,-8656.879127,370.102971
4356.529944,888.247130,-8656.879127,370.102971
4356.530268,1110.308913,-8350.440928,148.041188
4356.530592,740.205942,-8810.098227,222.061783
4356.530917,518.144159,-8350.440928,0.000000
4356.531241,666.185348,-8427.050478,296.082377
4356.531565,296.082377,-8427.050478,0.000000
4356.531889,370.102971,-8350.440928,148.041188
4356.532213,444.123565,-8427.050478,0.000000
4356.532537,74.020594,-8810.098227,222.061783
4356.532862,148.041188,-8427.050478,222.061783
4356.533186,222.061783,-8886.707777,0.000000
4356.533510,148.041188,-8273.831378,148.041188
4356.533834,148.041188,-8427.050478,74.020594
4356.534158,296.082377,-8580.269578,0.000000
4356.534483,814.226536,-8733.488677,-148.041188
4356.534807,518.144159,-8197.221829,-148.041188
4356.535131,148.041188,-8580.269578,74.020594
4356.535455,0.000000,-8197.221829,0.000000
4356.535779,222.061783,-8580.269578,222.061783
4356.536103,444.123565,-8580.269578,-148.041188
4356.536428,444.123565,-8580.269578,74.020594
4356.536752,444.123565,-8503.660028,0.000000
4356.537076,148.041188,-8810.098227,222.061783
4356.537400,370.102971,-8656.879127,-148.041188
4356.537724,222.061783,-8656.879127,148.041188
4356.538049,518.144159,-8197.221829,296.082377
4356.538373,74.020594,-8733.488677,148.041188
4356.538697,444.123565,-9039.926876,0.000000
4356.539021,222.061783,-8580.269578,0.000000
4356.539345,222.061783,-8810.098227,74.020594
4356.539669,370.102971,-8580.269578,0.000000
4356.539994,518.144159,-8810.098227,0.000000
4356.540318,444.123565,-9039.926876,0.000000
4356.540642,222.061783,-8503.660028,0.000000
4356.540966,222.061783,-8656.879127,0.000000
4356.541290,444.123565,-8810.098227,0.000000
4356.541615,518.144159,-8963.317327,-296.082377
4356.541939,444.123565,-8580.269578,0.000000
4356.542263,370.102971,-8503.660028,0.000000
4356.542587,444.123565,-8273.831378,0.000000
4356.542911,814.226536,-9116.536426,-296.082377
4356.543235,370.102971,-8427.050478,74.020594
4356.543560,444.123565,-8656.879127,-222.061783
4356.543884,148.041188,-8580.269578,0.000000
4356.544208,0.000000,-8503.660028,-222.061783
4356.544532,0.000000,-8656.879127,-444.123565
4356.544856,148.041188,-8580.269578,0.000000
4356.545180,296.082377,-8350.440928,-148.041188
4356.545505,296.082377,-8656.879127,-222.061783
4356.545829,370.102971,-8350.440928,-296.082377
4356.546153,740.205942,-8733.488677,-148.041188
4356.546477,518.144159,-8350.440928,-296.082377
4356.546801,296.082377,-8656.879127,0.000000
4356.547126,222.061783,-8580.269578,-148.041188
4356.547450,518.144159,-8350.440928,-148.041188
4356.547774,444.123565,-8197.221829,-370.102971
4356.548098,370.102971,-8656.879127,-222.061783
4356.548422,592.164754,-8427.050478,-222.061783
4356.548746,518.144159,-8503.660028,-222.061783
4356.549071,518.144159,-8580.269578,0.000000
4356.549395,296.082377,-8503.660028,0.000000
4356.549719,370.102971,-8580.269578,-148.041188
4356.550043,370.102971,-8427.050478,-370.102971
4356.550367,444.123565,-8656.879127,-222.061783
4356.550692,370.102971,-8733.488677,74.020594
4356.551016,296.082377,-8656.879127,0.000000
4356.551340,148.041188,-8656.879127,0.000000
4356.551664,148.041188,-8580.269578,-296.082377
4356.551988,370.102971,-8733.488677,0.000000
4356.552312,222.061783,-8810.098227,-370.102971
4356.552637,296.082377,-8656.879127,0.000000
4356.552961,444.123565,-8963.317327,0.000000
4356.553285,296.082377,-8886.707777,-148.041188
4356.553609,444.123565,-8810.098227,0.000000
4356.553933,592.164754,-8503.660028,-370.102971
4356.554258,444.123565,-9193.145976,-222.061783
4356.554582,296.082377,-8350.440928,-518.144159
4356.554906,444.123565,-8963.317327,-370.102971
4356.555230,222.061783,-8733.488677,-518.144159
4356.555554,296.082377,-8427.050478,0.000000
4356.555878,148.041188,-8503.660028,-592.164754
4356.556203,370.102971,-8733.488677,-740.205942
4356.556527,444.123565,-8044.002729,-740.205942
4356.556851,370.102971,-8580.269578,-592.164754
4356.557175,148.041188,-8656.879127,-222.061783
4356.557499,222.061783,-8350.440928,-740.205942
4356.557824,444.123565,-8503.660028,-814.226536
4356.558148,222.061783,-8273.831378,-888.247130
4356.558472,666.185348,-9193.145976,-296.082377
4356.558796,296.082377,-8503.660028,-1036.288319
4356.559120,518.144159,-8580.269578,-592.164754
4356.559444,222.061783,-8810.098227,-814.226536
4356.559769,222.061783,-8656.879127,-962.267725
4356.560093,518.144159,-8733.488677,-1036.288319
4356.560417,444.123565,-8427.050478,-888.247130
4356.560741,296.082377,-8580.269578,-1110.308913
4356.561065,74.020594,-8350.440928,-962.267725
4356.561390,222.061783,-8963.317327,-148.041188
4356.561714,222.061783,-8350.440928,-962.267725
4356.562038,444.123565,-8273.831378,-1184.329507
4356.562362,296.082377,-8427.050478,-666.185348
4356.562686,296.082377,-9116.536426,-740.205942
4356.563010,0.000000,-8886.707777,-888.247130
4356.563335,296.082377,-8733.488677,-888.247130
4356.563659,148.041188,-8273.831378,-1036.288319
4356.563983,370.102971,-8503.660028,-962.267725
4356.564307,370.102971,-8427.050478,-888.247130
4356.564631,296.082377,-8963.317327,-814.226536
4356.564956,148.041188,-8733.488677,-814.226536
4356.565280,222.061783,-8580.269578,-814.226536
4356.565604,0.000000,-8810.098227,-444.123565
4356.565928,296.082377,-8427.050478,-814.226536
4356.566252,222.061783,-8580.269578,-740.205942
4356.566576,370.102971,-8656.879127,-666.185348
4356.566901,444.123565,-8656.879127,-666.185348
4356.567225,222.061783,-8580.269578,-814.226536
4356.567549,296.082377,-8350.440928,-666.185348
4356.567873,222.061783,-8580.269578,-518.144159
4356.568197,222.061783,-8656.879127,-666.185348
4356.568521,0.000000,-8044.002729,-666.185348
4356.568846,296.082377,-8810.098227,-740.205942
4356.569170,370.102971,-8810.098227,-518.144159
4356.569494,444.123565,-8656.879127,-370.102971
4356.569818,592.164754,-8886.707777,-666.185348
4356.570142,592.164754,-8580.269578,-518.144159
4356.570467,666.185348,-8733.488677,-444.123565
4356.570791,518.144159,-8733.488677,-740.205942
4356.571115,370.102971,-8810.098227,-222.061783
4356.571439,740.205942,-8503.660028,-518.144159
4356.571763,592.164754,-8886.707777,-148.041188
4356.572087,518.144159,-8350.440928,-444.123565
4356.572412,518.144159,-8810.098227,-222.061783
4356.572736,888.247130,-8963.317327,-222.061783
4356.573060,592.164754,-8350.440928,-296.082377
4356.573384,370.102971,-8656.879127,-444.123565
4356.573708,148.041188,-8580.269578,-518.144159
4356.574033,444.123565,-8427.050478,-370.102971
4356.574357,518.144159,-8963.317327,-518.144159
4356.574681,444.123565,-8733.488677,-444.123565
4356.575005,592.164754,-8733.488677,-370.102971
4356.575329,148.041188,-8503.660028,-222.061783
4356.575653,592.164754,-9116.536426,-296.082377
4356.575978,666.185348,-8656.879127,-592.164754
4356.576302,814.226536,-8656.879127,0.000000
4356.576626,592.164754,-8427.050478,-444.123565
4356.576950,444.123565,-8580.269578,0.000000
4356.577274,814.226536,-8580.269578,-740.205942
4356.577599,814.226536,-8886.707777,-518.144159
4356.577923,888.247130,-8580.269578,-444.123565
4356.578247,666.185348,-9269.755526,-222.061783
4356.578571,592.164754,-8733.488677,-1036.288319
4356.578895,592.164754,-8656.879127,-592.164754
4356.579219,444.123565,-8580.269578,-518.144159
4356.579544,814.226536,-8886.707777,-814.226536
4356.579868,518.144159,-8273.831378,-444.123565
4356.580192,666.185348,-8810.098227,-888.247130
4356.580516,814.226536,-8963.317327,-888.247130
4356.580840,814.226536,-8656.879127,-888.247130
4356.581165,888.247130,-8886.707777,-666.185348
4356.581489,592.164754,-8810.098227,-740.205942
4356.581813,518.144159,-9193.145976,-1036.288319
4356.582137,518.144159,-8656.879127,-740.205942
4356.582461,592.164754,-8503.660028,-814.226536
4356.582785,592.164754,-9039.926876,-1036.288319
4356.583110,962.267725,-8733.488677,-1036.288319
4356.583434,666.185348,-8733.488677,-1036.288319
4356.583758,592.164754,-8886.707777,-962.267725
4356.584082,888.247130,-8503.660028,-1184.329507
4356.584406,740.205942,-8503.660028,-1036.288319
4356.584731,740.205942,-8810.098227,-888.247130
4356.585055,814.226536,-9039.926876,-888.247130
4356.585379,296.082377,-8733.488677,-1258.350101
4356.585703,444.123565,-8503.660028,-814.226536
4356.586027,518.144159,-8656.879127,-888.247130
4356.586351,222.061783,-8733.488677,-1184.329507
4356.586676,148.041188,-8733.488677,-666.185348
4356.587000,222.061783,-8810.098227,-888.247130
4356.587324,296.082377,-8580.269578,-740.205942
4356.587648,296.082377,-8580.269578,-888.247130
4356.587972,666.185348,-8810.098227,-962.267725
4356.588297,222.061783,-8197.221829,-518.144159
4356.588621,222.061783,-8656.879127,-814.226536
4356.588945,518.144159,-8427.050478,-740.205942
4356.589269,592.164754,-8503.660028,-888.247130
4356.589593,444.123565,-8580.269578,-814.226536
4356.589917,296.082377,-8810.098227,-518.144159
4356.590242,592.164754,-8427.050478,-592.164754
4356.590566,222.061783,-8427.050478,-666.185348
4356.590890,444.123565,-8580.269578,-592.164754
4356.591214,296.082377,-8197.221829,-444.123565
4356.591538,222.061783,-8503.660028,-592.164754
4356.591862,518.144159,-8350.440928,-518.144159
4356.592187,222.061783,-8503.660028,-518.144159
4356.592511,592.164754,-8273.831378,-148.041188
4356.592835,296.082377,-8273.831378,-370.102971
4356.593159,518.144159,-8733.488677,-370.102971
4356.593483,592.164754,-8427.050478,-518.144159
4356.593808,666.185348,-8350.440928,518.144159
4356.594132,296.082377,-8350.440928,0.000000
4356.594456,444.123565,-8503.660028,0.000000
4356.594780,518.144159,-8427.050478,-148.041188
4356.595104,518.144159,-8503.660028,0.000000
4356.595428,518.144159,-8120.612279,-148.041188
4356.595753,444.123565,-8503.660028,0.000000
4356.596077,592.164754,-8503.660028,0.000000
4356.596401,444.123565,-8503.660028,0.000000
4356.596725,222.061783,-8197.221829,0.000000
4356.597049,444.123565,-8350.440928,0.000000
4356.597374,222.061783,-8350.440928,222.061783
4356.597698,222.061783,-8886.707777,0.000000
4356.598022,222.061783,-8427.050478,222.061783
4356.598346,444.123565,-8350.440928,0.000000
4356.598670,444.123565,-8656.879127,-296.082377
4356.598994,222.061783,-8503.660028,296.082377
4356.599319,444.123565,-8350.440928,148.041188
4356.599643,518.144159,-8503.660028,0.000000
4356.599967,444.123565,-8503.660028,0.000000
4356.600291,370.102971,-8733.488677,0.000000
4356.600615,444.123565,-8350.440928,74.020594
4356.600940,666.185348,-8273.831378,74.020594
4356.601264,222.061783,-8503.660028,0.000000
4356.601588,370.102971,-8656.879127,0.000000
4356.601912,444.123565,-8197.221829,0.000000
4356.602236,444.123565,-8810.098227,0.000000
4356.602560,518.144159,-8656.879127,0.000000
4356.602885,370.102971,-8427.050478,0.000000
4356.603209,148.041188,-8503.660028,0.000000
4356.603533,370.102971,-8733.488677,-444.123565
4356.603857,666.185348,-8810.098227,0.000000
4356.604181,370.102971,-8427.050478,0.000000
4356.604506,444.123565,-8656.879127,-222.061783
4356.604830,222.061783,-8580.269578,-296.082377
4356.605154,888.247130,-7814.174080,0.000000
4356.605478,592.164754,-8580.269578,-222.061783
4356.605802,444.123565,-8350.440928,-222.061783
4356.606126,444.123565,-8656.879127,-222.061783
4356.606451,666.185348,-8580.269578,-370.102971
4356.606775,740.205942,-8427.050478,-296.082377
4356.607099,444.123565,-8427.050478,-296.082377
4356.607423,444.123565,-8503.660028,0.000000
4356.607748,296.082377,-8197.221829,-296.082377
4356.608072,814.226536,-8503.660028,-148.041188
4356.608396,222.061783,-8580.269578,-74.020594
4356.608720,592.164754,-8656.879127,-222.061783
4356.609045,370.102971,-8656.879127,-370.102971
4356.609369,74.020594,-8197.221829,0.000000
4356.609693,370.102971,-8656.879127,-222.061783
4356.610018,444.123565,-8733.488677,0.000000
4356.610342,222.061783,-8503.660028,-444.123565
4356.610666,518.144159,-8886.707777,-296.082377
4356.610991,518.144159,-8580.269578,-370.102971
4356.611315,296.082377,-8580.269578,0.000000
4356.611639,296.082377,-8810.098227,-370.102971
4356.611964,518.144159,-8580.269578,0.000000
4356.612288,370.102971,-8273.831378,-740.205942
4356.612612,296.082377,-8656.879127,-444.123565
4356.612936,518.144159,-8350.440928,-222.061783
4356.613261,444.123565,-8427.050478,0.000000
4356.613585,296.082377,-8197.221829,0.000000
4356.613909,444.123565,-8427.050478,-592.164754
4356.614234,296.082377,-8656.879127,-148.041188
4356.614558,296.082377,-8503.660028,-444.123565
4356.614882,148.041188,-8580.269578,-148.041188
4356.615207,296.082377,-8503.660028,-592.164754
4356.615531,222.061783,-8656.879127,-222.061783
4356.615855,222.061783,-8656.879127,-370.102971
4356.616180,148.041188,-8427.050478,-148.041188
4356.616504,592.164754,-8273.831378,0.000000
4356.616828,666.185348,-8580.269578,-148.041188
4356.617152,370.102971,-8656.879127,-370.102971
4356.617477,518.144159,-8503.660028,-370.102971
4356.617801,370.102971,-8733.488677,0.000000
4356.618125,444.123565,-8197.221829,-222.061783
4356.618450,518.144159,-8733.488677,0.000000
4356.618774,222.061783,-8503.660028,-222.061783
4356.619098,148.041188,-8427.050478,0.000000
4356.619423,592.164754,-8427.050478,-518.144159
4356.619747,370.102971,-8580.269578,0.000000
4356.620071,370.102971,-8427.050478,0.000000
4356.620395,444.123565,-8656.879127,-222.061783
4356.620720,666.185348,-8733.488677,-296.082377
4356.621044,444.123565,-8810.098227,0.000000
4356.621368,444.123565,-8503.660028,-148.041188
4356.621693,518.144159,-8197.221829,0.000000
4356.622017,444.123565,-8580.269578,-222.061783
4356.622341,518.144159,-8580.269578,-222.061783
4356.622666,222.061783,-8273.831378,0.000000
4356.622990,740.205942,-8810.098227,-148.041188
4356.623314,592.164754,-8273.831378,-222.061783
4356.623639,592.164754,-8656.879127,-592.164754
4356.623963,444.123565,-8503.660028,-296.082377
4356.624287,444.123565,-8427.050478,0.000000
4356.624611,296.082377,-8963.317327,-592.164754
4356.624936,740.205942,-8350.440928,0.000000
4356.625260,74.020594,-8503.660028,-222.061783
4356.625584,444.123565,-8886.707777,-148.041188
4356.625909,518.144159,-8427.050478,-296.082377
4356.626233,592.164754,-8656.879127,-222.061783
4356.626557,222.061783,-8503.660028,-666.185348
4356.626882,518.144159,-8733.488677,-444.123565
4356.627206,370.102971,-8580.269578,-592.164754
4356.627530,518.144159,-8656.879127,-296.082377
4356.627854,444.123565,-8503.660028,-518.144159
4356.628179,222.061783,-8733.488677,-666.185348
4356.628503,592.164754,-8656.879127,-370.102971
4356.628827,148.041188,-8580.269578,-370.102971
4356.629152,444.123565,-8810.098227,-296.082377
4356.629476,370.102971,-8273.831378,-740.205942
4356.629800,592.164754,-8810.098227,-444.123565
4356.630125,222.061783,-8503.660028,-666.185348
4356.630449,296.082377,-8656.879127,-74.020594
4356.630773,296.082377,-8886.707777,-296.082377
4356.631098,592.164754,-8503.660028,-370.102971
4356.631422,592.164754,-8580.269578,-666.185348
4356.631746,666.185348,-8733.488677,-444.123565
4356.632070,0.000000,-9422.974625,74.020594
4356.632395,222.061783,-8503.660028,-222.061783
4356.632719,518.144159,-8656.879127,-444.123565
4356.633043,370.102971,-8656.879127,-444.123565
4356.633368,666.185348,-9039.926876,-222.061783
4356.633692,296.082377,-8350.440928,-370.102971
4356.634016,296.082377,-8810.098227,-296.082377
4356.634341,296.082377,-8580.269578,-148.041188
4356.634665,222.061783,-8733.488677,-296.082377
4356.634989,296.082377,-8810.098227,-518.144159
4356.635314,666.185348,-8580.269578,0.000000
4356.635638,518.144159,-8733.488677,0.000000
4356.635962,666.185348,-8503.660028,-148.041188
4356.636286,666.185348,-8427.050478,0.000000
4356.636611,370.102971,-8656.879127,-222.061783
4356.636935,592.164754,-8810.098227,-222.061783
4356.637259,296.082377,-8656.879127,74.020594
4356.637584,666.185348,-8580.269578,-148.041188
4356.637908,296.082377,-8503.660028,0.000000
4356.638232,518.144159,-8733.488677,-74.020594
4356.638557,444.123565,-8733.488677,-296.082377
4356.638881,592.164754,-8427.050478,148.041188
4356.639205,74.020594,-8503.660028,0.000000
4356.639529,370.102971,-8810.098227,74.020594
4356.639854,296.082377,-8427.050478,0.000000
4356.640178,296.082377,-8580.269578,0.000000
4356.640502,296.082377,-8733.488677,-370.102971
4356.640827,370.102971,-8963.317327,0.000000
4356.641151,518.144159,-8580.269578,0.000000
4356.641475,148.041188,-8503.660028,74.020594
4356.641800,518.144159,-8656.879127,0.000000
4356.642124,518.144159,-8580.269578,0.000000
4356.642448,370.102971,-8580.269578,296.082377
4356.642773,370.102971,-8427.050478,0.000000
4356.643097,148.041188,-8656.879127,0.000000
4356.643421,666.185348,-9116.536426,370.102971
4356.643745,444.123565,-8810.098227,0.000000
4356.644070,222.061783,-8656.879127,-222.061783
4356.644394,74.020594,-8656.879127,0.000000
4356.644718,222.061783,-8580.269578,370.102971
4356.645043,148.041188,-8810.098227,0.000000
4356.645367,444.123565,-8810.098227,0.000000
4356.645691,444.123565,-8656.879127,0.000000
4356.646016,444.123565,-8273.831378,0.000000
4356.646340,222.061783,-8810.098227,0.000000
4356.646664,222.061783,-8580.269578,74.020594
4356.646988,370.102971,-8810.098227,-222.061783
4356.647313,370.102971,-8656.879127,-148.041188
4356.647637,0.000000,-8656.879127,148.041188
4356.647961,148.041188,-8503.660028,0.000000
4356.648286,296.082377,-8503.660028,-148.041188
4356.648610,74.020594,-8580.269578,0.000000
4356.648934,370.102971,-9193.145976,0.000000
4356.649259,222.061783,-8503.660028,0.000000
4356.649583,444.123565,-8580.269578,-222.061783
4356.649907,222.061783,-8427.050478,-370.102971
4356.650232,518.144159,-8503.660028,-296.082377
4356.650556,296.082377,-8580.269578,-148.041188
4356.650880,296.082377,-8580.269578,-296.082377
4356.651204,222.061783,-8656.879127,-296.082377
4356.651529,222.061783,-8656.879127,-296.082377
4356.651853,370.102971,-9039.926876,74.020594
4356.652177,444.123565,-8810.098227,-148.041188
4356.652502,444.123565,-8733.488677,-666.185348
4356.652826,74.020594,-8273.831378,-222.061783
4356.653150,74.020594,-8580.269578,-370.102971
4356.653475,0.000000,-8963.317327,-444.123565
4356.653799,444.123565,-8427.050478,-444.123565
4356.654123,296.082377,-8886.707777,-444.123565
4356.654448,0.000000,-8810.098227,-370.102971
4356.654772,148.041188,-8733.488677,0.000000
4356.655096,296.082377,-8656.879127,0.000000
4356.655420,222.061783,-8733.488677,-222.061783
4356.655745,296.082377,-8503.660028,-814.226536
4356.656069,74.020594,-8427.050478,-148.041188
4356.656393,370.102971,-8427.050478,-370.102971
4356.656718,222.061783,-8733.488677,-666.185348
4356.657042,148.041188,-8580.269578,-444.123565
4356.657366,296.082377,-8580.269578,-666.185348
4356.657691,222.061783,-8503.660028,-592.164754
4356.658015,444.123565,-8656.879127,-444.123565
4356.658339,74.020594,-8503.660028,-370.102971
4356.658663,444.123565,-8350.440928,-370.102971
4356.658988,0.000000,-8197.221829,-74.020594
4356.659312,370.102971,-8886.707777,-370.102971
4356.659636,518.144159,-8733.488677,-814.226536
4356.659961,296.082377,-8427.050478,-592.164754
4356.660285,148.041188,-8197.221829,-592.164754
4356.660609,444.123565,-8580.269578,-740.205942
4356.660934,296.082377,-8503.660028,-518.144159
4356.661258,222.061783,-8503.660028,-666.185348
4356.661582,370.102971,-8503.660028,-444.123565
4356.661907,222.061783,-8503.660028,-814.226536
4356.662231,370.102971,-8733.488677,-370.102971
4356.662555,74.020594,-8350.440928,-444.123565
4356.662879,370.102971,-8580.269578,-518.144159
4356.663204,592.164754,-8197.221829,-444.123565
4356.663528,222.061783,-8350.440928,-296.082377
4356.663852,444.123565,-8656.879127,-518.144159
4356.664177,444.123565,-8350.440928,-444.123565
4356.664501,444.123565,-8503.660028,-222.061783
4356.664825,370.102971,-8810.098227,-370.102971
4356.665150,444.123565,-8580.269578,-444.123565
4356.665474,370.102971,-8580.269578,-148.041188
4356.665798,296.082377,-8503.660028,-370.102971
4356.666122,296.082377,-8580.269578,-296.082377
4356.666447,518.144159,-8656.879127,-370.102971
4356.666771,296.082377,-8503.660028,0.000000
4356.667095,370.102971,-8350.440928,-296.082377
4356.667420,296.082377,-8503.660028,0.000000
4356.667744,518.144159,-8427.050478,-148.041188
4356.668068,518.144159,-8656.879127,-296.082377
4356.668393,518.144159,-8427.050478,-296.082377
4356.668717,370.102971,-8503.660028,-74.020594
4356.669041,370.102971,-8503.660028,0.000000
4356.669366,444.123565,-8580.269578,-296.082377
4356.669690,296.082377,-8733.488677,-370.102971
4356.670014,666.185348,-8503.660028,-148.041188
4356.670338,0.000000,-7660.954980,222.061783
4356.670663,666.185348,-8580.269578,-444.123565
4356.670987,592.164754,-8503.660028,-444.123565
4356.671311,666.185348,-8350.440928,-222.061783
4356.671636,444.123565,-8963.317327,0.000000
4356.671960,222.061783,-8580.269578,-148.041188
4356.672284,222.061783,-8656.879127,-222.061783
4356.672609,444.123565,-8733.488677,-370.102971
4356.672933,666.185348,-8350.440928,-370.102971
4356.673257,518.144159,-8503.660028,-296.082377
4356.673582,740.205942,-8656.879127,-444.123565
4356.673906,444.123565,-8197.221829,-370.102971
4356.674230,518.144159,-8886.707777,-296.082377
4356.674554,222.061783,-8120.612279,0.000000
4356.674879,962.267725,-8580.269578,-740.205942
4356.675203,518.144159,-8580.269578,-592.164754
4356.675527,518.144159,-8580.269578,-370.102971
4356.675852,666.185348,-8886.707777,-222.061783
4356.676176,518.144159,-8350.440928,-444.123565
4356.676500,296.082377,-8427.050478,-518.144159
4356.676825,592.164754,-8427.050478,-666.185348
4356.677149,814.226536,-8350.440928,-296.082377
4356.677473,814.226536,-8503.660028,-518.144159
4356.677797,740.205942,-8580.269578,-666.185348
4356.678122,888.247130,-8580.269578,-444.123565
4356.678446,592.164754,-8350.440928,-592.164754
4356.678770,962.267725,-8733.488677,-518.144159
4356.679095,592.164754,-8350.440928,-444.123565
4356.679419,666.185348,-8580.269578,-296.082377
4356.679743,444.123565,-8503.660028,-592.164754
4356.680068,592.164754,-8656.879127,0.000000
4356.680392,666.185348,-8810.098227,-814.226536
4356.680716,666.185348,-8427.050478,-370.102971
4356.681041,444.123565,-8810.098227,-222.061783
4356.681365,518.144159,-8810.098227,-444.123565
4356.681689,962.267725,-8656.879127,-370.102971
4356.682013,740.205942,-8656.879127,-666.185348
4356.682338,740.205942,-8580.269578,-518.144159
4356.682662,814.226536,-8810.098227,-444.123565
4356.682986,888.247130,-8350.440928,74.020594
4356.683311,444.123565,-8503.660028,-592.164754
4356.683635,518.144159,-8656.879127,-518.144159
4356.683959,740.205942,-8503.660028,-666.185348
4356.684284,444.123565,-8503.660028,-370.102971
4356.684608,444.123565,-8656.879127,-666.185348
4356.684932,518.144159,-8503.660028,-296.082377
4356.685256,666.185348,-8503.660028,-740.205942
4356.685581,740.205942,-8733.488677,-666.185348
4356.685905,222.061783,-8273.831378,-370.102971
4356.686229,370.102971,-8427.050478,-666.185348
4356.686554,518.144159,-8656.879127,-444.123565
4356.686878,518.144159,-8503.660028,-518.144159
4356.687202,666.185348,-8733.488677,-740.205942
4356.687527,592.164754,-8580.269578,-518.144159
4356.687851,296.082377,-8503.660028,-592.164754
4356.688175,444.123565,-8886.707777,-666.185348
4356.688500,740.205942,-8503.660028,-666.185348
4356.688824,740.205942,-8580.269578,-592.164754
4356.689148,666.185348,-8580.269578,-666.185348
4356.689472,370.102971,-8733.488677,-370.102971
4356.689797,666.185348,-8963.317327,-592.164754
4356.690121,888.247130,-8273.831378,-1184.329507
4356.690445,518.144159,-8810.098227,-740.205942
4356.690770,518.144159,-8810.098227,-740.205942
4356.691094,370.102971,-8656.879127,-592.164754
4356.691418,518.144159,-8197.221829,-518.144159
4356.691743,444.123565,-8656.879127,-518.144159
4356.692067,518.144159,-8656.879127,-518.144159
4356.692391,444.123565,-8733.488677,-370.102971
4356.692716,518.144159,-8963.317327,-296.082377
4356.693040,518.144159,-8580.269578,-666.185348
4356.693364,518.144159,-8733.488677,-518.144159
4356.693688,370.102971,-8580.269578,-444.123565
4356.694013,518.144159,-8656.879127,-592.164754
4356.694337,444.123565,-8503.660028,-370.102971
4356.694661,518.144159,-8273.831378,-444.123565
4356.694986,444.123565,-8580.269578,-518.144159
4356.695310,444.123565,-8503.660028,-222.061783
4356.695634,592.164754,-8656.879127,0.000000
4356.695959,592.164754,-8580.269578,-666.185348
4356.696283,370.102971,-8656.879127,-444.123565
4356.696607,222.061783,-8427.050478,-444.123565
4356.696931,148.041188,-8580.269578,-296.082377
4356.697256,370.102971,-8427.050478,-444.123565
4356.697580,370.102971,-8656.879127,-296.082377
4356.697904,666.185348,-8656.879127,-296.082377
4356.698229,222.061783,-8656.879127,-444.123565
4356.698553,592.164754,-9039.926876,-296.082377
4356.698877,518.144159,-8733.488677,-518.144159
4356.699202,592.164754,-8580.269578,-296.082377
4356.699526,518.144159,-8580.269578,-666.185348
4356.699850,148.041188,-8733.488677,-296.082377
4356.700175,444.123565,-8503.660028,-296.082377
4356.700499,518.144159,-8733.488677,-296.082377
4356.700823,518.144159,-8656.879127,-148.041188
4356.701147,296.082377,-8810.098227,-444.123565
4356.701472,888.247130,-8580.269578,0.000000
4356.701796,222.061783,-8580.269578,-148.041188
4356.702120,222.061783,-8656.879127,-222.061783
4356.702445,296.082377,-8503.660028,-518.144159
4356.702769,814.226536,-8886.707777,-666.185348
4356.703093,222.061783,-8503.660028,-444.123565
4356.703418,296.082377,-8503.660028,-148.041188
4356.703742,518.144159,-8273.831378,-296.082377
4356.704066,296.082377,-8656.879127,-222.061783
4356.704390,444.123565,-8350.440928,-518.144159
4356.704715,74.020594,-8580.269578,0.000000
4356.705039,518.144159,-8120.612279,74.020594
4356.705363,370.102971,-8656.879127,-370.102971
4356.705688,888.247130,-8503.660028,-814.226536
4356.706012,592.164754,-8503.660028,-296.082377
4356.706336,370.102971,-8580.269578,-740.205942
4356.706661,592.164754,-8427.050478,-296.082377
4356.706985,296.082377,-7890.783629,0.000000
4356.707309,222.061783,-8733.488677,-370.102971
4356.707634,444.123565,-8427.050478,-518.144159
4356.707958,370.102971,-8733.488677,-296.082377
4356.708282,222.061783,-8503.660028,-370.102971
4356.708606,740.205942,-8656.879127,-444.123565
4356.708931,148.041188,-8427.050478,-444.123565
4356.709255,444.123565,-8656.879127,-296.082377
4356.709579,296.082377,-8427.050478,-666.185348
4356.709904,222.061783,-8503.660028,-518.144159
4356.710228,222.061783,-8503.660028,-370.102971
4356.710552,222.061783,-8503.660028,-370.102971
4356.710877,296.082377,-8963.317327,-444.123565
4356.711201,148.041188,-7737.564530,-518.144159
4356.711525,518.144159,-8656.879127,-518.144159
4356.711850,518.144159,-8656.879127,-296.082377
4356.712174,592.164754,-8503.660028,-296.082377
4356.712498,222.061783,-8733.488677,-444.123565
4356.712823,592.164754,-8350.440928,-518.144159
4356.713147,370.102971,-8810.098227,-444.123565
4356.713471,296.082377,-8656.879127,-592.164754
4356.713795,296.082377,-8350.440928,-370.102971
4356.714120,296.082377,-8503.660028,-592.164754
4356.714444,222.061783,-8733.488677,-518.144159
4356.714768,296.082377,-8656.879127,-518.144159
4356.715093,148.041188,-8810.098227,-370.102971
4356.715417,148.041188,-7890.783629,-370.102971
4356.715741,296.082377,-8580.269578,-444.123565
4356.716066,370.102971,-8580.269578,-814.226536
4356.716390,444.123565,-8503.660028,-666.185348
4356.716714,296.082377,-8580.269578,-888.247130
4356.717039,148.041188,-8427.050478,-518.144159
4356.717363,296.082377,-8503.660028,-370.102971
4356.717687,518.144159,-8810.098227,-444.123565
4356.718012,370.102971,-8733.488677,-370.102971
4356.718336,592.164754,-9806.022374,-296.082377
4356.718660,296.082377,-8580.269578,-518.144159
4356.718984,370.102971,-8580.269578,-370.102971
4356.719309,296.082377,-8427.050478,-370.102971
4356.719633,518.144159,-8733.488677,-444.123565
4356.719957,370.102971,-8427.050478,-518.144159
4356.720282,148.041188,-8733.488677,-740.205942
4356.720606,444.123565,-8503.660028,-222.061783
4356.720930,296.082377,-8733.488677,-296.082377
4356.721255,148.041188,-8580.269578,-592.164754
4356.721579,296.082377,-8350.440928,-444.123565
4356.721903,518.144159,-8733.488677,-518.144159
4356.722228,296.082377,-8656.879127,-296.082377
4356.722552,296.082377,-8810.098227,-444.123565
4356.722876,444.123565,-8886.707777,-222.061783
4356.723201,666.185348,-8273.831378,-370.102971
4356.723525,666.185348,-8580.269578,-370.102971
4356.723849,518.144159,-8427.050478,-370.102971
4356.724173,592.164754,-8580.269578,-148.041188
4356.724498,518.144159,-8503.660028,-222.061783
4356.724822,296.082377,-8733.488677,-370.102971
4356.725146,296.082377,-8273.831378,-296.082377
4356.725471,148.041188,-8503.660028,-148.041188
4356.725795,370.102971,-8427.050478,-518.144159
4356.726119,444.123565,-8503.660028,-222.061783
4356.726444,592.164754,-8733.488677,-148.041188
4356.726768,740.205942,-8810.098227,-444.123565
4356.727092,296.082377,-8656.879127,-296.082377
4356.727417,370.102971,-8656.879127,-148.041188
4356.727741,296.082377,-8503.660028,-296.082377
4356.728065,666.185348,-9116.536426,-296.082377
4356.728390,222.061783,-8350.440928,0.000000
4356.728714,592.164754,-8580.269578,-444.123565
4356.729038,518.144159,-8273.831378,-370.102971
4356.729362,740.205942,-8503.660028,0.000000
4356.729687,444.123565,-7967.393179,-296.082377
4356.730011,370.102971,-8656.879127,0.000000
4356.730335,296.082377,-8350.440928,-444.123565
4356.730660,296.082377,-8733.488677,-148.041188
4356.730984,518.144159,-8503.660028,0.000000
4356.731308,740.205942,-8886.707777,-592.164754
4356.731633,296.082377,-8503.660028,-296.082377
4356.731957,444.123565,-8427.050478,-148.041188
4356.732281,74.020594,-8656.879127,-296.082377
4356.732606,296.082377,-8656.879127,0.000000
4356.732930,444.123565,-8197.221829,0.000000
4356.733254,518.144159,-8733.488677,0.000000
4356.733579,74.020594,-8580.269578,-370.102971
4356.733903,0.000000,-8810.098227,0.000000
4356.734227,296.082377,-8503.660028,-296.082377
4356.734551,444.123565,-8656.879127,0.000000
4356.734876,370.102971,-8503.660028,0.000000
4356.735200,444.123565,-8656.879127,0.000000
4356.735524,296.082377,-8273.831378,0.000000
4356.735849,148.041188,-8580.269578,-148.041188
4356.736173,222.061783,-8810.098227,0.000000
4356.736497,296.082377,-8120.612279,0.000000
4356.736822,0.000000,-8044.002729,-444.123565
4356.737146,370.102971,-8427.050478,0.000000
4356.737470,444.123565,-8120.612279,-296.082377
4356.737795,370.102971,-8656.879127,0.000000
4356.738119,370.102971,-8350.440928,-444.123565
4356.738443,148.041188,-8273.831378,222.061783
4356.738768,370.102971,-8733.488677,-148.041188
4356.739092,444.123565,-8273.831378,0.000000
4356.739416,222.061783,-8580.269578,0.000000
4356.739740,444.123565,-8197.221829,0.000000
4356.740065,0.000000,-8273.831378,-74.020594
4356.740389,296.082377,-8733.488677,-148.041188
4356.740713,444.123565,-8580.269578,-296.082377
4356.741038,592.164754,-8886.707777,-148.041188
4356.741362,222.061783,-8733.488677,0.000000
4356.741686,296.082377,-8580.269578,74.020594
4356.742011,370.102971,-8733.488677,0.000000
4356.742335,0.000000,-9039.926876,518.144159
4356.742659,666.185348,-8427.050478,-148.041188
4356.742984,444.123565,-8733.488677,-444.123565
4356.743308,370.102971,-8273.831378,74.020594
4356.743632,444.123565,-8503.660028,0.000000
4356.743957,222.061783,-8350.440928,-222.061783
4356.744281,148.041188,-8733.488677,0.000000
4356.744605,148.041188,-8427.050478,0.000000
4356.744929,370.102971,-8656.879127,0.000000
4356.745254,444.123565,-7890.783629,0.000000
4356.745578,518.144159,-8810.098227,0.000000
4356.745902,222.061783,-8580.269578,0.000000
4356.746227,592.164754,-9039.926876,-148.041188
4356.746551,444.123565,-9039.926876,0.000000
4356.746875,518.144159,-8580.269578,0.000000
4356.747200,148.041188,-8656.879127,0.000000
4356.747524,222.061783,-8580.269578,0.000000
4356.747848,148.041188,-8656.879127,-222.061783
4356.748173,740.205942,-8656.879127,-518.144159
4356.748497,74.020594,-8656.879127,0.000000
4356.748821,444.123565,-8886.707777,0.000000
4356.749146,444.123565,-8580.269578,-296.082377
4356.749470,814.226536,-8350.440928,0.000000
4356.749794,370.102971,-8580.269578,-444.123565
4356.750118,518.144159,-8350.440928,-148.041188
4356.750443,74.020594,-8503.660028,-148.041188
4356.750767,148.041188,-8580.269578,-148.041188
4356.751091,296.082377,-8580.269578,-74.020594
4356.751416,518.144159,-8810.098227,-370.102971
4356.751740,444.123565,-8197.221829,-370.102971
4356.752064,444.123565,-8733.488677,-148.041188
4356.752389,592.164754,-8503.660028,-370.102971
4356.752713,592.164754,-8810.098227,-148.041188
4356.753037,296.082377,-8273.831378,-296.082377
4356.753362,518.144159,-8963.317327,-518.144159
4356.753686,666.185348,-7507.735880,74.020594
4356.754010,444.123565,-8503.660028,-444.123565
4356.754335,222.061783,-8580.269578,-296.082377
4356.754659,518.144159,-8503.660028,-296.082377
4356.754983,444.123565,-8886.707777,-518.144159
4356.755307,518.144159,-8580.269578,-222.061783
4356.755632,222.061783,-8503.660028,-296.082377
4356.755956,370.102971,-8810.098227,0.000000
4356.756280,148.041188,-8350.440928,-370.102971
4356.756605,296.082377,-8503.660028,0.000000
4356.756929,370.102971,-8427.050478,-518.144159
4356.757253,222.061783,-8427.050478,-222.061783
4356.757578,370.102971,-8580.269578,-370.102971
4356.757902,518.144159,-9039.926876,74.020594
4356.758226,592.164754,-8580.269578,-370.102971
4356.758551,518.144159,-8810.098227,-296.082377
4356.758875,222.061783,-8503.660028,-222.061783
4356.759199,444.123565,-8350.440928,-370.102971
4356.759524,74.020594,-8733.488677,-148.041188
4356.759848,444.123565,-8733.488677,-444.123565
4356.760172,444.123565,-8580.269578,-370.102971
4356.760496,592.164754,-8580.269578,-148.041188
4356.760821,370.102971,-8273.831378,0.000000
4356.761145,222.061783,-8733.488677,-222.061783
4356.761469,444.123565,-8427.050478,-370.102971
4356.761794,296.082377,-8427.050478,-148.041188
4356.762118,296.082377,-8886.707777,0.000000
4356.762442,518.144159,-8580.269578,-592.164754
4356.762767,370.102971,-8580.269578,-222.061783
4356.763091,444.123565,-8503.660028,0.000000
4356.763415,370.102971,-8580.269578,-592.164754
4356.763740,740.205942,-9116.536426,-518.144159
4356.764064,444.123565,-8656.879127,-148.041188
4356.764388,370.102971,-8656.879127,-296.082377
4356.764713,222.061783,-8810.098227,0.000000
4356.765037,962.267725,-8427.050478,74.020594
4356.765361,296.082377,-8656.879127,0.000000
4356.765685,296.082377,-8580.269578,-296.082377
4356.766010,148.041188,-8810.098227,0.000000
4356.766334,444.123565,-7890.783629,-222.061783
4356.766658,518.144159,-8427.050478,-296.082377
4356.766983,518.144159,-8733.488677,-148.041188
4356.767307,296.082377,-8656.879127,0.000000
4356.767631,444.123565,-8427.050478,0.000000
4356.767956,370.102971,-8427.050478,-296.082377
4356.768280,370.102971,-8810.098227,-222.061783
4356.768604,518.144159,-8656.879127,-296.082377
4356.768929,296.082377,-8733.488677,-296.082377
4356.769253,592.164754,-8810.098227,0.000000
4356.769577,518.144159,-8580.269578,0.000000
4356.769902,592.164754,-8427.050478,0.000000
4356.770226,592.164754,-8733.488677,0.000000
4356.770550,740.205942,-8886.707777,-148.041188
4356.770874,888.247130,-8656.879127,-296.082377
4356.771199,444.123565,-8427.050478,0.000000
4356.771523,444.123565,-8886.707777,0.000000
4356.771847,592.164754,-8427.050478,-148.041188
4356.772172,1036.288319,-8580.269578,-370.102971
4356.772496,370.102971,-8350.440928,-222.061783
4356.772820,518.144159,-8733.488677,-222.061783
4356.773145,370.102971,-8580.269578,-148.041188
4356.773469,1036.288319,-8963.317327,-444.123565
4356.773793,370.102971,-8503.660028,-148.041188
4356.774118,592.164754,-8810.098227,-296.082377
4356.774442,814.226536,-8580.269578,-666.185348
4356.774766,518.144159,-8810.098227,-148.041188
4356.775090,814.226536,-8733.488677,-592.164754
4356.775415,296.082377,-8580.269578,-370.102971
4356.775739,296.082377,-8886.707777,-518.144159
4356.776063,666.185348,-8810.098227,-444.123565
4356.776388,814.226536,-8350.440928,-296.082377
4356.776712,592.164754,-8656.879127,-592.164754
4356.777036,370.102971,-8886.707777,-444.123565
4356.777361,444.123565,-8656.879127,-740.205942
4356.777685,444.123565,-8273.831378,-370.102971
4356.778009,518.144159,-8197.221829,-370.102971
4356.778334,296.082377,-8350.440928,-444.123565
4356.778658,296.082377,-8810.098227,-518.144159
4356.778982,814.226536,-8197.221829,-740.205942
4356.779307,666.185348,-8503.660028,-666.185348
4356.779631,592.164754,-8273.831378,-666.185348
4356.779955,444.123565,-8656.879127,-592.164754
4356.780279,444.123565,-8503.660028,-666.185348
4356.780604,666.185348,-8120.612279,-592.164754
4356.780928,444.123565,-8580.269578,-740.205942
4356.781252,666.185348,-8733.488677,-592.164754
4356.781577,666.185348,-8044.002729,-592.164754
4356.781901,666.185348,-8733.488677,-666.185348
4356.782225,518.144159,-8656.879127,-444.123565
4356.782550,962.267725,-8580.269578,-814.226536
4356.782874,518.144159,-8350.440928,-666.185348
4356.783198,518.144159,-8733.488677,-518.144159
4356.783523,740.205942,-8580.269578,-740.205942
4356.783847,666.185348,-8656.879127,-592.164754
4356.784171,444.123565,-8427.050478,-814.226536
4356.784496,370.102971,-8733.488677,-814.226536
4356.784820,592.164754,-8503.660028,-962.267725
4356.785144,592.164754,-8350.440928,-296.082377
4356.785468,592.164754,-8427.050478,-814.226536
4356.785793,518.144159,-8350.440928,-740.205942
4356.786117,814.226536,-8733.488677,-888.247130
4356.786441,370.102971,-8656.879127,-814.226536
4356.786766,518.144159,-8733.488677,-666.185348
4356.787090,592.164754,-8580.269578,-740.205942
4356.787414,518.144159,-8733.488677,-666.185348
4356.787739,296.082377,-8350.440928,-962.267725
4356.788063,370.102971,-8656.879127,-592.164754
4356.788387,666.185348,-8503.660028,-666.185348
4356.788712,370.102971,-8427.050478,-518.144159
4356.789036,518.144159,-8580.269578,-888.247130
4356.789360,370.102971,-8580.269578,-592.164754
4356.789685,444.123565,-8580.269578,-666.185348
4356.790009,370.102971,-8580.269578,-740.205942
4356.790333,518.144159,-8810.098227,-518.144159
4356.790657,740.205942,-8656.879127,-666.185348
4356.790982,444.123565,-8580.269578,-740.205942
4356.791306,296.082377,-8810.098227,-370.102971
4356.791630,222.061783,-8580.269578,-518.144159
4356.791955,888.247130,-8810.098227,-370.102971
4356.792279,444.123565,-8580.269578,-296.082377
4356.792603,444.123565,-8580.269578,-222.061783
4356.792928,666.185348,-8503.660028,-518.144159
4356.793252,666.185348,-9116.536426,-518.144159
4356.793576,296.082377,-8656.879127,-444.123565
4356.793901,370.102971,-8810.098227,-370.102971
4356.794225,592.164754,-8656.879127,-148.041188
4356.794549,296.082377,-8427.050478,-296.082377
4356.794874,592.164754,-9116.536426,-444.123565
4356.795198,222.061783,-8656.879127,-296.082377
4356.795522,370.102971,-8580.269578,-148.041188
4356.795846,222.061783,-8503.660028,-518.144159
4356.796171,444.123565,-8733.488677,222.061783
4356.796495,666.185348,-8120.612279,-666.185348
4356.796819,444.123565,-8810.098227,-222.061783
4356.797144,222.061783,-8350.440928,-444.123565
4356.797468,148.041188,-8656.879127,0.000000
4356.797792,444.123565,-8580.269578,-518.144159
4356.798117,222.061783,-8656.879127,0.000000
4356.798441,592.164754,-8580.269578,-518.144159
4356.798765,592.164754,-8580.269578,0.000000
4356.799090,518.144159,-8656.879127,-148.041188
4356.799414,222.061783,-8580.269578,-296.082377
4356.799738,444.123565,-8580.269578,-444.123565
4356.800063,444.123565,-8350.440928,-518.144159
4356.800387,296.082377,-8427.050478,-148.041188
4356.800711,444.123565,-8580.269578,-518.144159
4356.801035,444.123565,-8427.050478,-296.082377
4356.801360,296.082377,-8733.488677,-222.061783
4356.801684,518.144159,-8580.269578,-592.164754
4356.802008,370.102971,-8503.660028,-222.061783
4356.802333,444.123565,-8197.221829,0.000000
4356.802657,296.082377,-8273.831378,-444.123565
4356.802981,370.102971,-8810.098227,-370.102971
4356.803306,296.082377,-8197.221829,-222.061783
4356.803630,444.123565,-8273.831378,-740.205942
4356.803954,148.041188,-8427.050478,-296.082377
4356.804279,444.123565,-8733.488677,0.000000
4356.804603,740.205942,-8580.269578,-370.102971
4356.804927,444.123565,-8656.879127,-518.144159
4356.805252,666.185348,-8733.488677,-592.164754
4356.805576,518.144159,-8810.098227,-592.164754
4356.805900,296.082377,-8427.050478,-592.164754
4356.806224,370.102971,-8503.660028,0.000000
4356.806549,370.102971,-8427.050478,-592.164754
4356.806873,296.082377,-8427.050478,-592.164754
4356.807197,518.144159,-8427.050478,-592.164754
4356.807522,0.000000,-8197.221829,-222.061783
4356.807846,370.102971,-8503.660028,-296.082377
4356.808170,370.102971,-8503.660028,-518.144159
4356.808495,518.144159,-8197.221829,-666.185348
4356.808819,370.102971,-9193.145976,-148.041188
4356.809143,518.144159,-8733.488677,-592.164754
4356.809468,518.144159,-8580.269578,-370.102971
4356.809792,296.082377,-8656.879127,-518.144159
4356.810116,148.041188,-8733.488677,-444.123565
4356.810441,444.123565,-8656.879127,-592.164754
4356.810765,370.102971,-8733.488677,-592.164754
4356.811089,296.082377,-8656.879127,-518.144159
4356.811414,444.123565,-8810.098227,-370.102971
4356.811738,814.226536,-8350.440928,-370.102971
4356.812062,444.123565,-8427.050478,-444.123565
4356.812387,296.082377,-8810.098227,-370.102971
4356.812711,444.123565,-8503.660028,-444.123565
4356.813036,296.082377,-8044.002729,0.000000
4356.813360,148.041188,-9039.926876,-444.123565
4356.813684,370.102971,-8656.879127,-296.082377
4356.814009,222.061783,-8886.707777,-444.123565
4356.814333,222.061783,-8580.269578,-370.102971
4356.814657,74.020594,-8350.440928,0.000000
4356.814982,296.082377,-8810.098227,-444.123565
4356.815306,444.123565,-8273.831378,-444.123565
4356.815630,592.164754,-8886.707777,-444.123565
4356.815955,222.061783,-8580.269578,-222.061783
4356.816279,370.102971,-8427.050478,0.000000
4356.816603,296.082377,-8580.269578,-370.102971
4356.816928,296.082377,-8733.488677,-444.123565
4356.817252,370.102971,-7737.564530,-518.144159
4356.817576,666.185348,-8810.098227,-592.164754
4356.817901,444.123565,-8580.269578,-444.123565
4356.818225,296.082377,-8656.879127,-148.041188
4356.818549,444.123565,-8886.707777,-222.061783
4356.818874,444.123565,-8427.050478,-444.123565
4356.819198,592.164754,-8733.488677,-444.123565
4356.819522,296.082377,-8503.660028,-370.102971
4356.819847,518.144159,-8810.098227,-296.082377
4356.820171,592.164754,-9346.365076,-370.102971
4356.820495,518.144159,-8580.269578,-222.061783
4356.820820,296.082377,-8580.269578,-148.041188
4356.821144,592.164754,-8503.660028,-296.082377
4356.821469,444.123565,-8503.660028,-370.102971
4356.821793,296.082377,-8580.269578,0.000000
4356.822117,296.082377,-8580.269578,-370.102971
4356.822442,518.144159,-8503.660028,-296.082377
4356.822766,296.082377,-8886.707777,-518.144159
4356.823090,222.061783,-8427.050478,0.000000
4356.823415,296.082377,-8580.269578,-222.061783
4356.823739,222.061783,-8810.098227,0.000000
4356.824063,518.144159,-8503.660028,-444.123565
4356.824388,740.205942,-8733.488677,-518.144159
4356.824712,370.102971,-8503.660028,-296.082377
4356.825036,296.082377,-8503.660028,-148.041188
4356.825361,592.164754,-8580.269578,-444.123565
4356.825685,666.185348,-8503.660028,-444.123565
4356.826009,444.123565,-8733.488677,-814.226536
4356.826334,222.061783,-8503.660028,-592.164754
4356.826658,444.123565,-8503.660028,-148.041188
4356.826982,74.020594,-8656.879127,0.000000
4356.827307,518.144159,-8656.879127,-370.102971
4356.827631,370.102971,-8580.269578,-444.123565
4356.827955,814.226536,-8810.098227,-296.082377
4356.828280,592.164754,-8350.440928,-444.123565
4356.828604,518.144159,-8656.879127,-296.082377
4356.828928,444.123565,-8733.488677,-370.102971
4356.829253,296.082377,-8427.050478,-148.041188
4356.829577,518.144159,-8810.098227,-370.102971
4356.829901,296.082377,-8656.879127,-222.061783
4356.830226,740.205942,-8503.660028,-370.102971
4356.830550,370.102971,-8503.660028,-222.061783
4356.830875,592.164754,-8733.488677,-222.061783
4356.831199,592.164754,-8350.440928,-148.041188
4356.831523,222.061783,-8963.317327,0.000000
4356.831848,592.164754,-8580.269578,-370.102971
4356.832172,296.082377,-8733.488677,-148.041188
4356.832496,296.082377,-8503.660028,-296.082377
4356.832821,222.061783,-9193.145976,-222.061783
4356.833145,370.102971,-8733.488677,-148.041188
4356.833469,296.082377,-8810.098227,-370.102971
4356.833794,444.123565,-8503.660028,-222.061783
4356.834118,222.061783,-8656.879127,-296.082377
4356.834442,370.102971,-8503.660028,0.000000
4356.834767,888.247130,-8963.317327,-518.144159
4356.835091,518.144159,-8656.879127,0.000000
4356.835415,296.082377,-8810.098227,-296.082377
4356.835740,148.041188,-8580.269578,-592.164754
4356.836064,666.185348,-8656.879127,-148.041188
4356.836388,148.041188,-8580.269578,-296.082377
4356.836713,370.102971,-8810.098227,-148.041188
4356.837037,444.123565,-8503.660028,0.000000
4356.837361,444.123565,-8580.269578,-222.061783
4356.837686,296.082377,-8656.879127,-296.082377
4356.838010,518.144159,-8503.660028,0.000000
4356.838334,592.164754,-8733.488677,0.000000
4356.838659,518.144159,-8273.831378,-148.041188
4356.838983,148.041188,-8503.660028,0.000000
4356.839308,222.061783,-8810.098227,0.000000
4356.839632,222.061783,-8656.879127,-148.041188
4356.839956,518.144159,-9116.536426,-444.123565
4356.840281,444.123565,-8503.660028,-148.041188
4356.840605,518.144159,-8580.269578,0.000000
4356.840929,222.061783,-8580.269578,74.020594
4356.841254,444.123565,-8580.269578,-222.061783
4356.841578,444.123565,-8503.660028,0.000000
4356.841902,370.102971,-8810.098227,0.000000
4356.842227,296.082377,-8810.098227,0.000000
4356.842551,370.102971,-8427.050478,-148.041188
4356.842875,296.082377,-8580.269578,222.061783
4356.843200,222.061783,-8733.488677,0.000000
4356.843524,370.102971,-8810.098227,-296.082377
4356.843848,444.123565,-8733.488677,-148.041188
4356.844173,74.020594,-8197.221829,74.020594
4356.844497,444.123565,-8656.879127,0.000000
4356.844821,518.144159,-8580.269578,-370.102971
4356.845146,444.123565,-8197.221829,-296.082377
4356.845470,814.226536,-8656.879127,-444.123565
4356.845794,666.185348,-8733.488677,-296.082377
4356.846119,444.123565,-8580.269578,0.000000
4356.846443,518.144159,-8733.488677,0.000000
4356.846767,222.061783,-8503.660028,0.000000
4356.847092,814.226536,-9039.926876,-370.102971
4356.847416,666.185348,-8427.050478,-222.061783
4356.847740,370.102971,-8350.440928,-296.082377
4356.848065,148.041188,-8197.221829,-296.082377
4356.848389,444.123565,-9039.926876,370.102971
4356.848714,222.061783,-8503.660028,-222.061783
4356.849038,296.082377,-8733.488677,-518.144159
4356.849362,296.082377,-8580.269578,-444.123565
4356.849687,222.061783,-8427.050478,-296.082377
4356.850011,148.041188,-8733.488677,0.000000
4356.850335,592.164754,-8656.879127,-592.164754
4356.850660,518.144159,-8656.879127,-740.205942
4356.850984,592.164754,-8197.221829,-444.123565
4356.851308,296.082377,-7890.783629,0.000000
4356.851633,370.102971,-8656.879127,-592.164754
4356.851957,518.144159,-8580.269578,-444.123565
4356.852281,444.123565,-8656.879127,-518.144159
4356.852606,296.082377,-8580.269578,-222.061783
4356.852930,518.144159,-8580.269578,-444.123565
4356.853254,444.123565,-8656.879127,-444.123565
4356.853579,296.082377,-8503.660028,-444.123565
4356.853903,518.144159,-8656.879127,-592.164754
4356.854227,888.247130,-8427.050478,-518.144159
4356.854552,444.123565,-8503.660028,-296.082377
4356.854876,148.041188,-8273.831378,-592.164754
4356.855200,518.144159,-8656.879127,-444.123565
4356.855525,666.185348,-8733.488677,-518.144159
4356.855849,444.123565,-8656.879127,-666.185348
4356.856173,444.123565,-8580.269578,-518.144159
4356.856498,444.123565,-8656.879127,-370.102971
4356.856822,518.144159,-8733.488677,-518.144159
4356.857147,296.082377,-8810.098227,-370.102971
4356.857471,444.123565,-8733.488677,-370.102971
4356.857795,370.102971,-8503.660028,-222.061783
4356.858120,296.082377,-8427.050478,-222.061783
4356.858444,222.061783,-8273.831378,-370.102971
4356.858768,518.144159,-8503.660028,-296.082377
4356.859093,518.144159,-8810.098227,-222.061783
4356.859417,370.102971,-8656.879127,-518.144159
4356.859741,222.061783,-8427.050478,0.000000
4356.860066,296.082377,-8273.831378,-296.082377
4356.860390,370.102971,-8733.488677,0.000000
4356.860714,370.102971,-8580.269578,-296.082377
4356.861039,296.082377,-8656.879127,-222.061783
4356.861363,518.144159,-8273.831378,0.000000
4356.861687,444.123565,-8427.050478,0.000000
4356.862012,296.082377,-8656.879127,0.000000
4356.862336,518.144159,-8656.879127,0.000000
4356.862660,814.226536,-9116.536426,-518.144159
4356.862985,444.123565,-8733.488677,-222.061783
4356.863309,592.164754,-8656.879127,0.000000
4356.863633,444.123565,-8580.269578,0.000000
4356.863958,962.267725,-9039.926876,0.000000
4356.864282,296.082377,-8503.660028,-296.082377
4356.864606,740.205942,-8656.879127,-148.041188
4356.864931,444.123565,-8350.440928,0.000000
4356.865255,148.041188,-8733.488677,0.000000
4356.865579,370.102971,-8350.440928,0.000000
4356.865904,592.164754,-8503.660028,0.000000
4356.866228,444.123565,-8656.879127,-370.102971
4356.866553,518.144159,-8656.879127,-222.061783
4356.866877,370.102971,-8810.098227,-148.041188
4356.867201,444.123565,-8733.488677,148.041188
4356.867526,222.061783,-8427.050478,-148.041188
4356.867850,592.164754,-8733.488677,-222.061783
4356.868174,518.144159,-9039.926876,0.000000
4356.868499,592.164754,-8656.879127,0.000000
4356.868823,592.164754,-8733.488677,-148.041188
4356.869147,370.102971,-8503.660028,-148.041188
4356.869472,666.185348,-8580.269578,-222.061783
4356.869796,296.082377,-8656.879127,-296.082377
4356.870120,444.123565,-8656.879127,0.000000
4356.870445,444.123565,-8580.269578,0.000000
4356.870769,370.102971,-8733.488677,0.000000
4356.871093,518.144159,-8427.050478,0.000000
4356.871418,296.082377,-8580.269578,-296.082377
4356.871742,296.082377,-8427.050478,-296.082377
4356.872066,370.102971,-8580.269578,-148.041188
4356.872391,296.082377,-8656.879127,-222.061783
4356.872715,296.082377,-8503.660028,-148.041188
4356.873039,444.123565,-8273.831378,-370.102971
4356.873364,518.144159,-8886.707777,-444.123565
4356.873688,592.164754,-8503.660028,-296.082377
4356.874012,666.185348,-8350.440928,-296.082377
4356.874337,222.061783,-8427.050478,-296.082377
4356.874661,518.144159,-8733.488677,-592.164754
4356.874986,148.041188,-8733.488677,-666.185348
4356.875310,444.123565,-8810.098227,0.000000
4356.875634,296.082377,-8427.050478,-592.164754
4356.875959,518.144159,-8503.660028,-370.102971
4356.876283,592.164754,-8273.831378,-666.185348
4356.876607,518.144159,-8580.269578,-370.102971
4356.876932,74.020594,-8350.440928,-592.164754
4356.877256,592.164754,-8427.050478,-296.082377
4356.877580,296.082377,-8733.488677,-666.185348
4356.877905,370.102971,-8350.440928,-444.123565
4356.878229,444.123565,-8656.879127,-296.082377
4356.878553,518.144159,-8656.879127,-518.144159
4356.878878,444.123565,-8273.831378,-444.123565
4356.879202,148.041188,-8273.831378,-518.144159
4356.879526,222.061783,-8810.098227,-518.144159
4356.879851,444.123565,-8580.269578,-518.144159
4356.880175,666.185348,-8810.098227,-740.205942
4356.880499,370.102971,-8503.660028,-444.123565
4356.880824,444.123565,-8580.269578,-518.144159
4356.881148,592.164754,-8350.440928,-518.144159
4356.881472,296.082377,-8580.269578,-370.102971
4356.881797,518.144159,-8963.317327,-444.123565
4356.882121,592.164754,-8503.660028,-592.164754
4356.882445,444.123565,-8503.660028,-222.061783
4356.882770,666.185348,-8427.050478,-518.144159
4356.883094,518.144159,-8580.269578,-518.144159
4356.883418,370.102971,-8503.660028,-518.144159
4356.883743,518.144159,-8580.269578,-444.123565
4356.884067,296.082377,-8733.488677,-370.102971
4356.884392,296.082377,-8810.098227,-444.123565
4356.884716,296.082377,-8427.050478,-518.144159
4356.885040,518.144159,-8810.098227,-296.082377
4356.885365,518.144159,-8656.879127,-518.144159
4356.885689,222.061783,-8733.488677,-296.082377
4356.886013,296.082377,-8733.488677,-370.102971
4356.886338,296.082377,-8810.098227,-444.123565
4356.886662,370.102971,-7660.954980,-148.041188
4356.886986,518.144159,-8886.707777,-444.123565
4356.887311,444.123565,-8427.050478,-592.164754
4356.887635,370.102971,-8810.098227,-592.164754
4356.887959,740.205942,-9039.926876,-296.082377
4356.888284,518.144159,-8810.098227,0.000000
4356.888608,592.164754,-8733.488677,-518.144159
4356.888932,592.164754,-8580.269578,-518.144159
4356.889257,444.123565,-8273.831378,-148.041188
4356.889581,148.041188,-9039.926876,0.000000
4356.889905,296.082377,-8580.269578,-222.061783
4356.890230,370.102971,-8656.879127,-444.123565
4356.890554,666.185348,-8427.050478,-666.185348
4356.890878,148.041188,-7814.174080,-222.061783
4356.891203,444.123565,-8503.660028,-296.082377
4356.891527,518.144159,-8733.488677,-370.102971
4356.891851,444.123565,-8503.660028,-222.061783
4356.892176,444.123565,-8886.707777,-370.102971
4356.892500,370.102971,-8580.269578,-370.102971
4356.892825,444.123565,-8580.269578,0.000000
4356.893149,370.102971,-8580.269578,-296.082377
4356.893473,518.144159,-8810.098227,-222.061783
4356.893798,740.205942,-8273.831378,-518.144159
4356.894122,444.123565,-8810.098227,-222.061783
4356.894446,74.020594,-8273.831378,-74.020594
4356.894771,296.082377,-8503.660028,-296.082377
4356.895095,1036.288319,-8350.440928,-444.123565
4356.895419,370.102971,-8427.050478,-222.061783
4356.895744,222.061783,-8580.269578,-370.102971
4356.896068,518.144159,-8427.050478,-296.082377
4356.896392,296.082377,-8503.660028,-370.102971
4356.896717,74.020594,-8810.098227,0.000000
4356.897041,296.082377,-8350.440928,-296.082377
4356.897365,444.123565,-8580.269578,-296.082377
4356.897690,444.123565,-8580.269578,-592.164754
4356.898014,518.144159,-8656.879127,-814.226536
4356.898338,222.061783,-8580.269578,-518.144159
4356.898663,296.082377,-8580.269578,-370.102971
4356.898987,296.082377,-8503.660028,-592.164754
4356.899311,666.185348,-9193.145976,-740.205942
4356.899636,518.144159,-8427.050478,-296.082377
4356.899960,592.164754,-8503.660028,-370.102971
4356.900284,518.144159,-8733.488677,-666.185348
4356.900609,518.144159,-8503.660028,-444.123565
4356.900933,370.102971,-8810.098227,-444.123565
4356.901257,222.061783,-8580.269578,-518.144159
4356.901582,296.082377,-8810.098227,-370.102971
4356.901906,370.102971,-8503.660028,-222.061783
4356.902231,888.247130,-8733.488677,-296.082377
4356.902555,296.082377,-8656.879127,-666.185348
4356.902879,370.102971,-8350.440928,-296.082377
4356.903204,518.144159,-8427.050478,-74.020594
4356.903528,666.185348,-8044.002729,-370.102971
4356.903852,592.164754,-8810.098227,-222.061783
4356.904177,666.185348,-8350.440928,-592.164754
4356.904501,592.164754,-8656.879127,-666.185348
4356.904825,370.102971,-8656.879127,-370.102971
4356.905150,592.164754,-8580.269578,-518.144159
4356.905474,518.144159,-8656.879127,-444.123565
4356.905798,444.123565,-8427.050478,-444.123565
4356.906123,444.123565,-8810.098227,-444.123565
4356.906447,592.164754,-8656.879127,-814.226536
4356.906771,222.061783,-8580.269578,-296.082377
4356.907096,370.102971,-8656.879127,-592.164754
4356.907420,444.123565,-8273.831378,-296.082377
4356.907744,444.123565,-8810.098227,-444.123565
4356.908069,518.144159,-8810.098227,-296.082377
4356.908393,296.082377,-8733.488677,-444.123565
4356.908717,518.144159,-8656.879127,-222.061783
4356.909040,296.082377,-8580.269578,-370.102971
4356.909365,518.144159,-8503.660028,-296.082377
4356.909689,370.102971,-8656.879127,-740.205942
4356.910013,444.123565,-8656.879127,-148.041188
4356.910338,296.082377,-8580.269578,-444.123565
4356.910662,222.061783,-9039.926876,-148.041188
4356.910986,592.164754,-8503.660028,-444.123565
4356.911310,444.123565,-8656.879127,-444.123565
4356.911635,370.102971,-8427.050478,0.000000
4356.911959,444.123565,-8427.050478,-518.144159
4356.912283,370.102971,-8656.879127,-444.123565
4356.912608,296.082377,-8886.707777,-518.144159
4356.912932,444.123565,-8427.050478,-444.123565
4356.913256,222.061783,-8963.317327,-518.144159
4356.913581,370.102971,-8120.612279,-74.020594
4356.913905,296.082377,-8503.660028,-370.102971
4356.914229,444.123565,-8886.707777,-444.123565
4356.914554,518.144159,-8273.831378,-666.185348
4356.914878,666.185348,-8580.269578,-370.102971
4356.915202,592.164754,-8503.660028,-370.102971
4356.915527,296.082377,-8427.050478,-296.082377
4356.915851,148.041188,-8810.098227,-222.061783
4356.916175,370.102971,-8656.879127,-370.102971
4356.916499,592.164754,-8886.707777,-592.164754
4356.916824,518.144159,-8656.879127,-444.123565
4356.917148,296.082377,-8656.879127,-370.102971
4356.917472,296.082377,-8656.879127,-592.164754
4356.917797,370.102971,-8810.098227,-518.144159
4356.918121,740.205942,-8580.269578,-592.164754
4356.918445,444.123565,-8427.050478,-296.082377
4356.918770,592.164754,-8810.098227,-518.144159
4356.919094,444.123565,-8810.098227,0.000000
4356.919418,296.082377,-8503.660028,-444.123565
4356.919743,222.061783,-8427.050478,-296.082377
4356.920067,518.144159,-9039.926876,-370.102971
4356.920391,444.123565,-8427.050478,-222.061783
4356.920715,518.144159,-8733.488677,0.000000
4356.921040,296.082377,-8427.050478,-444.123565
4356.921364,296.082377,-8580.269578,-592.164754
4356.921688,592.164754,-8656.879127,-518.144159
4356.922013,666.185348,-8273.831378,-296.082377
4356.922337,296.082377,-8810.098227,-148.041188
4356.922661,444.123565,-8273.831378,-444.123565
4356.922986,444.123565,-8580.269578,-296.082377
4356.923310,518.144159,-8963.317327,-370.102971
4356.923634,370.102971,-8733.488677,-518.144159
4356.923959,666.185348,-8273.831378,-370.102971
4356.924283,592.164754,-8503.660028,-222.061783
4356.924607,370.102971,-8427.050478,-296.082377
4356.924932,222.061783,-8733.488677,0.000000
4356.925256,222.061783,-8656.879127,-296.082377
4356.925580,370.102971,-8580.269578,-296.082377
4356.925904,148.041188,-8656.879127,-518.144159
4356.926229,148.041188,-8733.488677,74.020594
4356.926553,296.082377,-8580.269578,-296.082377
4356.926877,444.123565,-8656.879127,-296.082377
4356.927202,518.144159,-8733.488677,-296.082377
4356.927526,666.185348,-8197.221829,-74.020594
4356.927850,370.102971,-8733.488677,-370.102971
4356.928175,296.082377,-8580.269578,-370.102971
4356.928499,666.185348,-8427.050478,-370.102971
4356.928823,592.164754,-8503.660028,-518.144159
4356.929148,888.247130,-8810.098227,0.000000
4356.929472,444.123565,-8503.660028,-518.144159
4356.929796,592.164754,-8656.879127,-222.061783
4356.930120,518.144159,-8427.050478,-370.102971
4356.930445,888.247130,-8503.660028,0.000000
4356.930769,962.267725,-8427.050478,-296.082377
4356.931093,518.144159,-8350.440928,0.000000
4356.931418,370.102971,-8810.098227,-222.061783
4356.931742,444.123565,-8350.440928,-296.082377
4356.932066,592.164754,-8580.269578,-444.123565
4356.932391,444.123565,-8656.879127,-370.102971
4356.932715,518.144159,-8733.488677,-370.102971
4356.933039,370.102971,-8427.050478,0.000000
4356.933364,740.205942,-8580.269578,-518.144159
4356.933688,444.123565,-8733.488677,-518.144159
4356.934012,518.144159,-8886.707777,-296.082377
4356.934337,814.226536,-8197.221829,-370.102971
4356.934661,962.267725,-8810.098227,-370.102971
4356.934985,370.102971,-8580.269578,-222.061783
4356.935309,444.123565,-8580.269578,-222.061783
4356.935634,518.144159,-8580.269578,-296.082377
4356.935958,296.082377,-8427.050478,-222.061783
4356.936282,592.164754,-8886.707777,-148.041188
4356.936607,222.061783,-8580.269578,0.000000
4356.936931,222.061783,-8656.879127,0.000000
4356.937255,370.102971,-8350.440928,-296.082377
4356.937580,740.205942,-8810.098227,74.020594
4356.937904,222.061783,-8273.831378,0.000000
4356.938228,222.061783,-8810.098227,-222.061783
4356.938553,370.102971,-8503.660028,-148.041188
4356.938877,962.267725,-8273.831378,-148.041188
4356.939201,518.144159,-8350.440928,-296.082377
4356.939525,222.061783,-8656.879127,-370.102971
4356.939850,296.082377,-8427.050478,-148.041188
4356.940174,444.123565,-8810.098227,0.000000
4356.940498,370.102971,-8273.831378,-296.082377
4356.940823,296.082377,-8656.879127,-370.102971
4356.941147,444.123565,-8810.098227,-222.061783
4356.941471,296.082377,-8197.221829,-444.123565
4356.941796,370.102971,-8733.488677,-444.123565
4356.942120,296.082377,-8427.050478,-222.061783
4356.942444,518.144159,-8503.660028,-222.061783
4356.942769,518.144159,-8580.269578,-592.164754
4356.943093,222.061783,-8886.707777,-296.082377
4356.943417,370.102971,-8350.440928,-222.061783
4356.943742,296.082377,-8656.879127,0.000000
4356.944066,444.123565,-8350.440928,-666.185348
4356.944390,296.082377,-8733.488677,-370.102971
4356.944714,666.185348,-8656.879127,-518.144159
4356.945039,370.102971,-8656.879127,-518.144159
4356.945363,518.144159,-8427.050478,-370.102971
4356.945687,444.123565,-8350.440928,-370.102971
4356.946012,814.226536,-9499.584175,-370.102971
4356.946336,814.226536,-8580.269578,-370.102971
4356.946660,370.102971,-8273.831378,-296.082377
4356.946985,444.123565,-8886.707777,-370.102971
4356.947309,370.102971,-8503.660028,-444.123565
4356.947633,444.123565,-8580.269578,-296.082377
4356.947958,444.123565,-8886.707777,-370.102971
4356.948282,592.164754,-8580.269578,-296.082377
4356.948606,370.102971,-8580.269578,-518.144159
4356.948930,148.041188,-8733.488677,-370.102971
4356.949255,370.102971,-8580.269578,-444.123565
4356.949579,518.144159,-8810.098227,-592.164754
4356.949903,518.144159,-8503.660028,-370.102971
4356.950228,296.082377,-9039.926876,-222.061783
4356.950552,518.144159,-8503.660028,-444.123565
4356.950876,296.082377,-8580.269578,-444.123565
4356.951201,592.164754,-8580.269578,-518.144159
4356.951525,518.144159,-8656.879127,-444.123565
4356.951849,518.144159,-8656.879127,-444.123565
4356.952174,370.102971,-8656.879127,-222.061783
4356.952498,296.082377,-8656.879127,-444.123565
4356.952822,592.164754,-8580.269578,-444.123565
4356.953147,444.123565,-8810.098227,0.000000
4356.953471,370.102971,-8656.879127,0.000000
4356.953795,296.082377,-8427.050478,0.000000
4356.954119,518.144159,-8810.098227,-148.041188
4356.954444,370.102971,-8963.317327,0.000000
4356.954768,518.144159,-8810.098227,-296.082377
4356.955092,222.061783,-8656.879127,0.000000
4356.955417,296.082377,-8427.050478,0.000000
4356.955741,370.102971,-8810.098227,-370.102971
4356.956065,518.144159,-8350.440928,-296.082377
4356.956390,518.144159,-8580.269578,0.000000
4356.956714,592.164754,-8656.879127,-370.102971
4356.957038,518.144159,-8503.660028,0.000000
4356.957363,370.102971,-8350.440928,-370.102971
4356.957687,518.144159,-8656.879127,222.061783
4356.958011,370.102971,-8427.050478,-148.041188
4356.958335,296.082377,-8810.098227,-296.082377
4356.958660,518.144159,-8580.269578,0.000000
4356.958984,592.164754,-8656.879127,0.000000
4356.959308,518.144159,-8733.488677,0.000000
4356.959633,444.123565,-8503.660028,0.000000
4356.959957,444.123565,-8580.269578,0.000000
4356.960281,370.102971,-8427.050478,-222.061783
4356.960606,222.061783,-8733.488677,0.000000
4356.960930,518.144159,-8656.879127,-222.061783
4356.961254,296.082377,-8580.269578,0.000000
4356.961579,666.185348,-9116.536426,0.000000
4356.961903,296.082377,-8503.660028,0.000000
4356.962227,444.123565,-8656.879127,-222.061783
4356.962552,296.082377,-8503.660028,-296.082377
4356.962876,444.123565,-8580.269578,-222.061783
4356.963200,592.164754,-8503.660028,-296.082377
4356.963524,518.144159,-8733.488677,-518.144159
4356.963849,370.102971,-8580.269578,-148.041188
4356.964173,444.123565,-8350.440928,0.000000
4356.964497,592.164754,-8656.879127,-370.102971
4356.964822,518.144159,-8503.660028,-296.082377
4356.965146,222.061783,-8580.269578,-74.020594
4356.965470,370.102971,-8503.660028,0.000000
4356.965795,666.185348,-8810.098227,0.000000
4356.966119,370.102971,-8656.879127,-370.102971
4356.966443,518.144159,-8503.660028,-296.082377
4356.966768,296.082377,-8580.269578,-370.102971
4356.967092,666.185348,-8580.269578,-592.164754
4356.967416,74.020594,-8886.707777,0.000000
4356.967740,222.061783,-8733.488677,-370.102971
4356.968065,296.082377,-8810.098227,-296.082377
4356.968389,444.123565,-8503.660028,-592.164754
4356.968713,592.164754,-8733.488677,-370.102971
4356.969038,370.102971,-8427.050478,-370.102971
4356.969362,296.082377,-8427.050478,-222.061783
4356.969686,444.123565,-8733.488677,-296.082377
4356.970011,740.205942,-8350.440928,-296.082377
4356.970335,370.102971,-8810.098227,-666.185348
4356.970659,592.164754,-8810.098227,-518.144159
4356.970984,444.123565,-8580.269578,-444.123565
4356.971308,444.123565,-8580.269578,-148.041188
4356.971632,222.061783,-8427.050478,-370.102971
4356.971957,518.144159,-8656.879127,-370.102971
4356.972281,370.102971,-8733.488677,-370.102971
4356.972605,518.144159,-8427.050478,-370.102971
4356.972929,444.123565,-8120.612279,-296.082377
4356.973254,370.102971,-8656.879127,-444.123565
4356.973578,518.144159,-8273.831378,-592.164754
4356.973902,518.144159,-8580.269578,-296.082377
4356.974227,518.144159,-8503.660028,0.000000
4356.974551,296.082377,-8810.098227,-370.102971
4356.974875,740.205942,-8503.660028,-592.164754
4356.975200,666.185348,-8427.050478,-444.123565
4356.975524,592.164754,-8427.050478,-666.185348
4356.975848,518.144159,-8503.660028,-740.205942
4356.976173,444.123565,-8350.440928,-222.061783
4356.976497,370.102971,-8656.879127,-444.123565
4356.976821,518.144159,-8427.050478,-592.164754
4356.977145,518.144159,-8656.879127,-814.226536
4356.977470,444.123565,-8427.050478,-518.144159
4356.977794,518.144159,-8810.098227,-370.102971
4356.978118,296.082377,-8733.488677,-444.123565
4356.978443,518.144159,-8273.831378,-296.082377
4356.978767,592.164754,-8427.050478,-444.123565
4356.979091,592.164754,-8656.879127,-666.185348
4356.979416,370.102971,-8427.050478,-592.164754
4356.979740,222.061783,-8656.879127,-518.144159
4356.980064,518.144159,-8886.707777,-666.185348
4356.980389,222.061783,-8350.440928,-592.164754
4356.980713,518.144159,-8580.269578,-370.102971
4356.981037,518.144159,-8656.879127,-592.164754
4356.981362,888.247130,-8733.488677,-296.082377
4356.981686,444.123565,-8656.879127,-444.123565
4356.982010,444.123565,-8580.269578,-296.082377
4356.982334,518.144159,-8580.269578,-444.123565
4356.982659,518.144159,-8733.488677,-444.123565
4356.982983,592.164754,-8733.488677,-296.082377
4356.983307,444.123565,-8427.050478,-518.144159
4356.983632,370.102971,-8886.707777,-370.102971
4356.983956,148.041188,-8273.831378,-518.144159
4356.984280,222.061783,-8273.831378,0.000000
4356.984605,74.020594,-8580.269578,-444.123565
4356.984929,518.144159,-8656.879127,-296.082377
4356.985253,222.061783,-8733.488677,-370.102971
4356.985578,370.102971,-8656.879127,-592.164754
4356.985902,444.123565,-8580.269578,-518.144159
4356.986226,222.061783,-8886.707777,-222.061783
4356.986550,444.123565,-8580.269578,-296.082377
4356.986875,518.144159,-8503.660028,-148.041188
4356.987199,148.041188,-8656.879127,-222.061783
4356.987523,666.185348,-8656.879127,-296.082377
4356.987848,370.102971,-8733.488677,-296.082377
4356.988172,444.123565,-8580.269578,0.000000
4356.988496,296.082377,-8733.488677,74.020594
4356.988821,222.061783,-8580.269578,0.000000
4356.989145,148.041188,-8656.879127,-518.144159
4356.989469,518.144159,-8580.269578,-222.061783
4356.989794,740.205942,-9116.536426,148.041188
4356.990118,296.082377,-8503.660028,-222.061783
4356.990442,592.164754,-8886.707777,-370.102971
4356.990767,222.061783,-8810.098227,-296.082377
4356.991091,592.164754,-8503.660028,0.000000
4356.991415,296.082377,-8427.050478,-296.082377
4356.991739,444.123565,-8503.660028,-222.061783
4356.992064,370.102971,-8810.098227,-296.082377
4356.992388,444.123565,-8656.879127,-296.082377
4356.992712,444.123565,-8503.660028,148.041188
4356.993037,592.164754,-8656.879127,-444.123565
4356.993361,666.185348,-8580.269578,-148.041188
4356.993685,222.061783,-8580.269578,-222.061783
4356.994010,370.102971,-8503.660028,-296.082377
4356.994334,518.144159,-8580.269578,-518.144159
4356.994658,592.164754,-8656.879127,-148.041188
4356.994983,518.144159,-8656.879127,-666.185348
4356.995307,444.123565,-8580.269578,-444.123565
4356.995631,518.144159,-8656.879127,-444.123565
4356.995955,518.144159,-8733.488677,0.000000
4356.996280,296.082377,-8350.440928,-370.102971
4356.996604,444.123565,-8886.707777,-370.102971
4356.996928,888.247130,-8733.488677,0.000000
4356.997253,74.020594,-8733.488677,-296.082377
4356.997577,444.123565,-8963.317327,-370.102971
4356.997901,518.144159,-8580.269578,-518.144159
4356.998226,592.164754,-9269.755526,-370.102971
4356.998550,370.102971,-8656.879127,-444.123565
4356.998874,444.123565,-8580.269578,-148.041188
4356.999199,518.144159,-8810.098227,-222.061783
4356.999523,296.082377,-8273.831378,-444.123565
4356.999847,444.123565,-8963.317327,-592.164754
4357.000171,444.123565,-8580.269578,-370.102971
4357.000496,148.041188,-8503.660028,-370.102971
4357.000820,222.061783,-8656.879127,-666.185348
4357.001144,222.061783,-8427.050478,0.000000
4357.001469,444.123565,-8580.269578,-518.144159
4357.001793,666.185348,-8503.660028,-592.164754
4357.002117,222.061783,-8810.098227,-222.061783
4357.002442,814.226536,-8503.660028,-666.185348
4357.002766,222.061783,-8427.050478,-592.164754
4357.003090,518.144159,-8656.879127,-518.144159
4357.003415,296.082377,-8733.488677,-444.123565
4357.003739,518.144159,-8503.660028,-444.123565
4357.004063,666.185348,-8427.050478,-444.123565
4357.004388,370.102971,-8503.660028,-444.123565
4357.004712,370.102971,-8810.098227,-518.144159
4357.005036,592.164754,-8503.660028,-666.185348
4357.005360,814.226536,-8656.879127,-592.164754
4357.005685,518.144159,-8656.879127,-666.185348
4357.006009,444.123565,-8580.269578,-370.102971
4357.006333,370.102971,-8733.488677,-444.123565
4357.006658,592.164754,-8810.098227,-370.102971
4357.006982,296.082377,-8810.098227,-370.102971
4357.007306,370.102971,-8427.050478,-296.082377
4357.007631,296.082377,-8503.660028,-444.123565
4357.007955,444.123565,-8656.879127,-518.144159
4357.008279,444.123565,-8273.831378,-148.041188
4357.008604,518.144159,-8427.050478,-370.102971
4357.008928,740.205942,-8503.660028,-518.144159
4357.009252,444.123565,-8733.488677,-518.144159
4357.009576,592.164754,-8810.098227,0.000000
4357.009901,444.123565,-8350.440928,-296.082377
4357.010225,740.205942,-8427.050478,-444.123565
4357.010549,666.185348,-8656.879127,-666.185348
4357.010873,592.164754,-8273.831378,-518.144159
4357.011198,296.082377,-8656.879127,-444.123565
4357.011522,444.123565,-8580.269578,-444.123565
4357.011846,518.144159,-8120.612279,-518.144159
4357.012170,370.102971,-8656.879127,-296.082377
4357.012494,592.164754,-9039.926876,-592.164754
4357.012819,148.041188,-8656.879127,-444.123565
4357.013143,370.102971,-8503.660028,-296.082377
4357.013467,444.123565,-8350.440928,-296.082377
4357.013791,444.123565,-9193.145976,-370.102971
4357.014116,370.102971,-8580.269578,-148.041188
4357.014440,296.082377,-8350.440928,-222.061783
4357.014764,296.082377,-8656.879127,-296.082377
4357.015088,518.144159,-8656.879127,-444.123565
4357.015413,370.102971,-8963.317327,0.000000
4357.015737,370.102971,-8656.879127,-296.082377
4357.016061,444.123565,-8580.269578,-296.082377
4357.016385,444.123565,-8656.879127,-296.082377
4357.016709,148.041188,-8886.707777,370.102971
4357.017034,370.102971,-8886.707777,-370.102971
4357.017358,370.102971,-8963.317327,-518.144159
4357.017682,444.123565,-8350.440928,-296.082377
4357.018006,370.102971,-8733.488677,-222.061783
4357.018331,148.041188,-8427.050478,-296.082377
4357.018655,370.102971,-8810.098227,-518.144159
4357.018979,296.082377,-8503.660028,-518.144159
4357.019303,370.102971,-8350.440928,0.000000
4357.019628,888.247130,-8733.488677,-666.185348
4357.019952,370.102971,-8656.879127,0.000000
4357.020276,222.061783,-8120.612279,-148.041188
4357.020600,444.123565,-8733.488677,-370.102971
4357.020924,296.082377,-8886.707777,296.082377
4357.021249,444.123565,-8427.050478,0.000000
4357.021573,296.082377,-8580.269578,-296.082377
4357.021897,518.144159,-8656.879127,-222.061783
4357.022221,592.164754,-8273.831378,-370.102971
4357.022546,740.205942,-8963.317327,-370.102971
4357.022870,518.144159,-8427.050478,-148.041188
4357.023194,296.082377,-8580.269578,-370.102971
4357.023518,444.123565,-8810.098227,-370.102971
4357.023842,666.185348,-8886.707777,-370.102971
4357.024167,296.082377,-8656.879127,-222.061783
4357.024491,444.123565,-8656.879127,-296.082377
4357.024815,592.164754,-8350.440928,-222.061783
4357.025139,370.102971,-8810.098227,-74.020594
4357.025464,370.102971,-8656.879127,0.000000
4357.025788,444.123565,-8503.660028,-444.123565
4357.026112,444.123565,-8503.660028,-222.061783
4357.026436,444.123565,-8810.098227,-370.102971
4357.026761,444.123565,-8273.831378,-370.102971
4357.027085,518.144159,-8350.440928,-222.061783
4357.027409,666.185348,-8503.660028,-296.082377
4357.027733,370.102971,-8656.879127,-740.205942
4357.028057,518.144159,-7967.393179,222.061783
4357.028382,296.082377,-8350.440928,-444.123565
4357.028706,444.123565,-8733.488677,-518.144159
4357.029030,666.185348,-8503.660028,-370.102971
4357.029354,592.164754,-8580.269578,0.000000
4357.029679,444.123565,-8580.269578,-222.061783
4357.030003,222.061783,-8427.050478,-370.102971
4357.030327,370.102971,-8580.269578,-222.061783
4357.030651,222.061783,-8503.660028,-370.102971
4357.030976,814.226536,-8963.317327,-296.082377
4357.031300,444.123565,-8810.098227,-518.144159
4357.031624,518.144159,-8427.050478,-222.061783
4357.031948,148.041188,-8733.488677,-222.061783
4357.032272,666.185348,-8427.050478,0.000000
4357.032597,444.123565,-8656.879127,-296.082377
4357.032921,296.082377,-8810.098227,-222.061783
4357.033245,444.123565,-8656.879127,-370.102971
4357.033569,222.061783,-8963.317327,-370.102971
4357.033894,518.144159,-8427.050478,-148.041188
4357.034218,370.102971,-8427.050478,-444.123565
4357.034542,666.185348,-9039.926876,-518.144159
4357.034866,444.123565,-8503.660028,-370.102971
4357.035191,518.144159,-8427.050478,-518.144159
4357.035515,148.041188,-8963.317327,-444.123565
4357.035839,518.144159,-8580.269578,-592.164754
4357.036163,370.102971,-8350.440928,-222.061783
4357.036487,592.164754,-8044.002729,-74.020594
4357.036812,592.164754,-8503.660028,-370.102971
4357.037136,444.123565,-8273.831378,-592.164754
4357.037460,370.102971,-8886.707777,-296.082377
4357.037784,296.082377,-8350.440928,-592.164754
4357.038109,518.144159,-8656.879127,-296.082377
4357.038433,370.102971,-8273.831378,-370.102971
4357.038757,740.205942,-8580.269578,-666.185348
4357.039081,222.061783,-8656.879127,-518.144159
4357.039405,888.247130,-8810.098227,-666.185348
4357.039730,296.082377,-8656.879127,-518.144159
4357.040054,518.144159,-8427.050478,-592.164754
4357.040378,444.123565,-8810.098227,-370.102971
4357.040702,592.164754,-8810.098227,-444.123565
4357.041027,148.041188,-8656.879127,-370.102971
4357.041351,148.041188,-8427.050478,-444.123565
4357.041675,740.205942,-8886.707777,-518.144159
4357.041999,296.082377,-8044.002729,-444.123565
4357.042324,444.123565,-8580.269578,-370.102971
4357.042648,222.061783,-8580.269578,-444.123565
4357.042972,740.205942,-8656.879127,-296.082377
4357.043296,444.123565,-8580.269578,-666.185348
4357.043620,592.164754,-8580.269578,-370.102971
4357.043945,148.041188,-8580.269578,0.000000
4357.044269,296.082377,-8427.050478,-148.041188
4357.044593,444.123565,-8656.879127,-444.123565
4357.044917,296.082377,-8886.707777,-444.123565
4357.045242,518.144159,-8656.879127,-296.082377
4357.045566,370.102971,-8273.831378,-370.102971
4357.045890,296.082377,-8580.269578,-370.102971
4357.046214,222.061783,-8503.660028,-444.123565
4357.046539,814.226536,-8503.660028,-666.185348
4357.046863,444.123565,-8656.879127,-444.123565
4357.047187,518.144159,-8580.269578,-222.061783
4357.047511,296.082377,-8273.831378,-222.061783
4357.047835,444.123565,-8733.488677,-370.102971
4357.048160,444.123565,-8427.050478,-370.102971
4357.048484,222.061783,-8886.707777,-370.102971
4357.048808,74.020594,-8656.879127,0.000000
4357.049132,296.082377,-8580.269578,-222.061783
4357.049457,148.041188,-8886.707777,-444.123565
4357.049781,0.000000,-8733.488677,-222.061783
4357.050105,518.144159,-8733.488677,-370.102971
4357.050429,0.000000,-8733.488677,-222.061783
4357.050753,666.185348,-8963.317327,148.041188
4357.051078,296.082377,-8580.269578,-370.102971
4357.051402,296.082377,-8733.488677,0.000000
4357.051726,444.123565,-8580.269578,0.000000
4357.052050,518.144159,-9422.974625,0.000000
4357.052375,370.102971,-8580.269578,-444.123565
4357.052699,444.123565,-8580.269578,0.000000
4357.053023,148.041188,-8810.098227,-296.082377
4357.053347,518.144159,-8503.660028,-148.041188
4357.053672,518.144159,-8656.879127,-370.102971
4357.053996,370.102971,-8503.660028,-370.102971
4357.054320,296.082377,-8580.269578,-222.061783
4357.054644,444.123565,-8810.098227,-296.082377
4357.054968,666.185348,-8733.488677,-296.082377
4357.055293,666.185348,-8427.050478,-222.061783
4357.055617,592.164754,-8656.879127,-148.041188
4357.055941,296.082377,-8350.440928,-222.061783
4357.056265,0.000000,-8733.488677,148.041188
4357.056590,518.144159,-8580.269578,-148.041188
4357.056914,518.144159,-8503.660028,-370.102971
4357.057238,592.164754,-8810.098227,-518.144159
4357.057562,592.164754,-8580.269578,0.000000
4357.057887,444.123565,-8733.488677,-296.082377
4357.058211,740.205942,-8656.879127,0.000000
4357.058535,666.185348,-8503.660028,-222.061783
4357.058859,666.185348,-8886.707777,-222.061783
4357.059183,222.061783,-8580.269578,-222.061783
4357.059508,296.082377,-8580.269578,0.000000
4357.059832,296.082377,-8427.050478,-222.061783
4357.060156,148.041188,-8580.269578,148.041188
4357.060480,222.061783,-8733.488677,0.000000
4357.060805,666.185348,-8350.440928,-370.102971
4357.061129,370.102971,-8810.098227,0.000000
4357.061453,296.082377,-8733.488677,0.000000
4357.061777,370.102971,-8733.488677,-222.061783
4357.062102,74.020594,-8350.440928,-148.041188
4357.062426,444.123565,-8886.707777,-444.123565
4357.062750,222.061783,-8427.050478,0.000000
4357.063074,296.082377,-8580.269578,0.000000
4357.063398,888.247130,-8810.098227,-370.102971
4357.063723,296.082377,-8580.269578,-296.082377
4357.064047,370.102971,-8733.488677,-370.102971
4357.064371,296.082377,-8427.050478,-296.082377
4357.064695,444.123565,-8273.831378,-148.041188
4357.065020,444.123565,-8656.879127,-296.082377
4357.065344,296.082377,-8580.269578,-148.041188
4357.065668,444.123565,-8886.707777,-518.144159
4357.065992,370.102971,-8656.879127,-444.123565
4357.066316,740.205942,-8580.269578,0.000000
4357.066641,148.041188,-8733.488677,-296.082377
4357.066965,370.102971,-8733.488677,-518.144159
4357.067289,518.144159,-8656.879127,-444.123565
4357.067613,814.226536,-9039.926876,-370.102971
4357.067938,370.102971,-8733.488677,-444.123565
4357.068262,370.102971,-8580.269578,-370.102971
4357.068586,444.123565,-8656.879127,-370.102971
4357.068910,518.144159,-8580.269578,-296.082377
4357.069235,592.164754,-8656.879127,-370.102971
4357.069559,444.123565,-8810.098227,-592.164754
4357.069883,444.123565,-8580.269578,-370.102971
4357.070207,222.061783,-8656.879127,-370.102971
4357.070531,1036.288319,-8427.050478,0.000000
4357.070856,740.205942,-8427.050478,-370.102971
4357.071180,444.123565,-8733.488677,-296.082377
4357.071504,518.144159,-8427.050478,-444.123565
4357.071828,370.102971,-8810.098227,-74.020594
4357.072153,148.041188,-8580.269578,-222.061783
4357.072477,444.123565,-8427.050478,-592.164754
4357.072801,444.123565,-8810.098227,-592.164754
4357.073125,518.144159,-8427.050478,-370.102971
4357.073450,444.123565,-8503.660028,0.000000
4357.073774,370.102971,-8656.879127,-592.164754
4357.074098,444.123565,-8503.660028,-370.102971
4357.074422,444.123565,-8503.660028,-740.205942
4357.074746,592.164754,-8733.488677,-666.185348
4357.075071,370.102971,-8427.050478,-518.144159
4357.075395,592.164754,-8656.879127,-370.102971
4357.075719,518.144159,-8580.269578,-370.102971
4357.076043,370.102971,-8350.440928,-444.123565
4357.076368,370.102971,-8656.879127,-592.164754
4357.076692,444.123565,-8503.660028,-222.061783
4357.077016,222.061783,-8810.098227,-444.123565
4357.077340,444.123565,-8810.098227,-518.144159
4357.077664,592.164754,-8503.660028,-740.205942
4357.077989,592.164754,-8580.269578,-518.144159
4357.078313,222.061783,-8733.488677,-518.144159
4357.078637,296.082377,-8810.098227,-444.123565
4357.078961,518.144159,-8427.050478,0.000000
4357.079286,370.102971,-8580.269578,-370.102971
4357.079610,518.144159,-8656.879127,-592.164754
4357.079934,222.061783,-8503.660028,-444.123565
4357.080258,370.102971,-8503.660028,0.000000
4357.080583,518.144159,-8580.269578,-370.102971
4357.080907,518.144159,-8580.269578,-370.102971
4357.081231,592.164754,-8656.879127,-222.061783
4357.081555,666.185348,-8810.098227,-370.102971
4357.081879,370.102971,-8580.269578,-370.102971
4357.082204,74.020594,-8503.660028,-296.082377
4357.082528,296.082377,-8350.440928,-296.082377
4357.082852,444.123565,-8350.440928,-592.164754
4357.083176,740.205942,-8963.317327,-444.123565
4357.083501,444.123565,-8580.269578,-296.082377
4357.083825,518.144159,-8350.440928,0.000000
4357.084149,296.082377,-8810.098227,0.000000
4357.084473,592.164754,-8656.879127,-370.102971
4357.084798,592.164754,-8733.488677,0.000000
4357.085122,222.061783,-8580.269578,-296.082377
4357.085446,518.144159,-8810.098227,0.000000
4357.085770,370.102971,-8656.879127,-222.061783
4357.086094,370.102971,-8580.269578,-370.102971
4357.086419,666.185348,-8733.488677,-296.082377
4357.086743,444.123565,-8656.879127,0.000000
4357.087067,518.144159,-8427.050478,0.000000
4357.087391,222.061783,-8273.831378,0.000000
4357.087716,296.082377,-8656.879127,0.000000
4357.088040,444.123565,-8273.831378,-148.041188
4357.088364,518.144159,-8427.050478,-296.082377
4357.088688,296.082377,-8427.050478,-148.041188
4357.089013,444.123565,-8427.050478,-148.041188
4357.089337,222.061783,-8656.879127,-74.020594
4357.089661,518.144159,-8580.269578,0.000000
4357.089985,370.102971,-8580.269578,-296.082377
4357.090309,518.144159,-8503.660028,-444.123565
4357.090634,444.123565,-8273.831378,0.000000
4357.090958,518.144159,-8427.050478,-222.061783
4357.091282,518.144159,-8580.269578,-444.123565
4357.091606,1036.288319,-8810.098227,-444.123565
4357.091931,592.164754,-8580.269578,-296.082377
4357.092255,444.123565,-8350.440928,0.000000
4357.092579,444.123565,-8656.879127,-222.061783
4357.092903,370.102971,-8656.879127,-444.123565
4357.093227,592.164754,-8580.269578,-148.041188
4357.093552,444.123565,-8733.488677,-370.102971
4357.093876,518.144159,-8427.050478,-296.082377
4357.094200,518.144159,-8120.612279,-222.061783
4357.094524,888.247130,-8810.098227,-296.082377
4357.094849,296.082377,-8656.879127,-370.102971
4357.095173,518.144159,-8580.269578,-370.102971
4357.095497,592.164754,-8580.269578,-592.164754
4357.095821,518.144159,-8733.488677,-370.102971
4357.096146,148.041188,-8580.269578,-296.082377
4357.096470,444.123565,-8656.879127,0.000000
4357.096794,444.123565,-8503.660028,-296.082377
4357.097118,444.123565,-8810.098227,-518.144159
4357.097442,740.205942,-8580.269578,-592.164754
4357.097767,370.102971,-8503.660028,-222.061783
4357.098091,296.082377,-8733.488677,-518.144159
4357.098415,296.082377,-8350.440928,-518.144159
4357.098739,592.164754,-8656.879127,-888.247130
4357.099064,444.123565,-8273.831378,-518.144159
4357.099388,296.082377,-8580.269578,-370.102971
4357.099712,370.102971,-8580.269578,-370.102971
4357.100036,666.185348,-8886.707777,-222.061783
4357.100361,370.102971,-8580.269578,-518.144159
4357.100685,444.123565,-8886.707777,-518.144159
4357.101009,222.061783,-8350.440928,-592.164754
4357.101333,370.102971,-8427.050478,-222.061783
4357.101657,0.000000,-8886.707777,-962.267725
4357.101982,222.061783,-8580.269578,-296.082377
4357.102306,518.144159,-8810.098227,-592.164754
4357.102630,222.061783,-8733.488677,-592.164754
4357.102954,444.123565,-8427.050478,-962.267725
4357.103279,518.144159,-8580.269578,-370.102971
4357.103603,518.144159,-8580.269578,-518.144159
4357.103927,518.144159,-8656.879127,-444.123565
4357.104251,518.144159,-8656.879127,-518.144159
4357.104575,592.164754,-8120.612279,-518.144159
4357.104900,518.144159,-8733.488677,-592.164754
4357.105224,222.061783,-8580.269578,-592.164754
4357.105548,518.144159,-8427.050478,-814.226536
4357.105872,666.185348,-8886.707777,-666.185348
4357.106197,296.082377,-8656.879127,-370.102971
4357.106521,444.123565,-8427.050478,-518.144159
4357.106845,444.123565,-8733.488677,-296.082377
4357.107169,666.185348,-9422.974625,-296.082377
4357.107494,592.164754,-8810.098227,-592.164754
4357.107818,518.144159,-8503.660028,-518.144159
4357.108142,444.123565,-8503.660028,-666.185348
4357.108466,370.102971,-9039.926876,-296.082377
4357.108790,222.061783,-8197.221829,-518.144159
4357.109115,666.185348,-8503.660028,-296.082377
4357.109439,592.164754,-8656.879127,-592.164754
4357.109763,592.164754,-8810.098227,-444.123565
4357.110087,666.185348,-8656.879127,-518.144159
4357.110412,518.144159,-8580.269578,0.000000
4357.110736,666.185348,-8350.440928,-444.123565
4357.111060,518.144159,-8886.707777,-666.185348
4357.111384,814.226536,-9193.145976,-740.205942
4357.111708,296.082377,-8503.660028,-444.123565
4357.112033,518.144159,-8810.098227,-296.082377
4357.112357,444.123565,-8810.098227,-148.041188
4357.112681,370.102971,-8810.098227,-370.102971
4357.113005,370.102971,-8656.879127,-592.164754
4357.113330,518.144159,-8886.707777,0.000000
4357.113654,222.061783,-8656.879127,0.000000
4357.113978,296.082377,-8656.879127,-148.041188
4357.114302,592.164754,-9116.536426,-666.185348
4357.114626,592.164754,-8963.317327,-296.082377
4357.114951,444.123565,-8273.831378,-296.082377
4357.115275,370.102971,-8733.488677,-222.061783
4357.115599,370.102971,-9499.584175,-370.102971
4357.115923,444.123565,-8503.660028,-296.082377
4357.116247,592.164754,-8656.879127,-444.123565
4357.116572,222.061783,-8656.879127,-222.061783
4357.116896,518.144159,-8503.660028,-222.061783
4357.117220,444.123565,-8503.660028,-296.082377
4357.117544,370.102971,-8656.879127,-296.082377
4357.117869,592.164754,-8733.488677,-444.123565
4357.118193,296.082377,-8503.660028,-222.061783
4357.118517,222.061783,-8427.050478,0.000000
4357.118841,370.102971,-8350.440928,-148.041188
4357.119165,518.144159,-8580.269578,-222.061783
4357.119490,74.020594,-8503.660028,-370.102971
4357.119814,666.185348,-8427.050478,0.000000
4357.120138,296.082377,-8503.660028,-222.061783
4357.120462,444.123565,-8886.707777,-148.041188
4357.120786,148.041188,-8427.050478,-370.102971
4357.121111,444.123565,-8427.050478,-222.061783
4357.121435,1110.308913,-8733.488677,-740.205942
4357.121759,666.185348,-8503.660028,0.000000
4357.122083,444.123565,-8503.660028,-592.164754
4357.122408,444.123565,-8503.660028,-148.041188
4357.122732,740.205942,-8580.269578,-222.061783
4357.123056,592.164754,-8503.660028,-296.082377
4357.123380,592.164754,-8273.831378,-370.102971
4357.123704,444.123565,-8503.660028,-296.082377
4357.124029,370.102971,-8886.707777,-444.123565
4357.124353,296.082377,-8733.488677,-370.102971
4357.124677,592.164754,-8733.488677,-222.061783
4357.125001,296.082377,-8503.660028,-518.144159
4357.125325,518.144159,-8350.440928,-444.123565
4357.125650,814.226536,-8580.269578,-296.082377
4357.125974,518.144159,-8656.879127,-296.082377
4357.126298,518.144159,-8427.050478,-370.102971
4357.126622,592.164754,-8656.879127,-444.123565
4357.126947,592.164754,-9039.926876,-370.102971
4357.127271,444.123565,-8656.879127,-444.123565
4357.127595,518.144159,-8580.269578,-148.041188
4357.127919,222.061783,-8427.050478,-296.082377
4357.128243,222.061783,-8273.831378,-444.123565
4357.128568,222.061783,-8963.317327,-148.041188
4357.128892,296.082377,-8350.440928,-296.082377
4357.129216,296.082377,-8503.660028,-222.061783
4357.129540,296.082377,-8503.660028,0.000000
4357.129864,518.144159,-8044.002729,0.000000
4357.130189,296.082377,-8580.269578,-370.102971
4357.130513,518.144159,-8810.098227,-370.102971
4357.130837,296.082377,-8656.879127,-222.061783
4357.131161,296.082377,-9116.536426,0.000000
4357.131486,148.041188,-8580.269578,-444.123565
4357.131810,592.164754,-8963.317327,-444.123565
4357.132134,444.123565,-8733.488677,-296.082377
4357.132458,666.185348,-8963.317327,-370.102971
4357.132782,148.041188,-8886.707777,-296.082377
4357.133107,592.164754,-8580.269578,-370.102971
4357.133431,518.144159,-8427.050478,-666.185348
4357.133755,370.102971,-8886.707777,-370.102971
4357.134079,148.041188,-7737.564530,0.000000
4357.134403,518.144159,-8733.488677,-296.082377
4357.134728,444.123565,-8810.098227,-444.123565
4357.135052,370.102971,-8656.879127,-444.123565
4357.135376,222.061783,-8963.317327,-518.144159
4357.135700,370.102971,-8427.050478,-222.061783
4357.136025,444.123565,-8503.660028,-592.164754
4357.136349,518.144159,-8733.488677,-222.061783
4357.136673,518.144159,-8656.879127,-592.164754
4357.136997,0.000000,-8273.831378,-370.102971
4357.137321,666.185348,-8503.660028,-444.123565
4357.137646,444.123565,-8427.050478,-296.082377
4357.137970,666.185348,-8810.098227,-518.144159
4357.138294,444.123565,-8503.660028,0.000000
4357.138618,666.185348,-9116.536426,-518.144159
4357.138942,296.082377,-8503.660028,-370.102971
4357.139267,370.102971,-8350.440928,0.000000
4357.139591,296.082377,-8503.660028,-370.102971
4357.139915,444.123565,-8503.660028,-296.082377
4357.140239,518.144159,-8503.660028,-296.082377
4357.140564,518.144159,-8733.488677,-444.123565
4357.140888,222.061783,-8580.269578,-370.102971
4357.141212,592.164754,-8733.488677,0.000000
4357.141536,444.123565,-8503.660028,-370.102971
4357.141860,444.123565,-8427.050478,-444.123565
4357.142185,370.102971,-8733.488677,0.000000
4357.142509,444.123565,-7967.393179,74.020594
4357.142833,74.020594,-8503.660028,-222.061783
4357.143157,296.082377,-8656.879127,-222.061783
4357.143481,148.041188,-8503.660028,-518.144159
4357.143806,518.144159,-8580.269578,-370.102971
4357.144130,444.123565,-8580.269578,-444.123565
4357.144454,370.102971,-8810.098227,-296.082377
4357.144778,222.061783,-8503.660028,-296.082377
4357.145103,444.123565,-8656.879127,-296.082377
4357.145427,518.144159,-8350.440928,-148.041188
4357.145751,296.082377,-8733.488677,-296.082377
4357.146075,222.061783,-8580.269578,0.000000
4357.146399,370.102971,-8427.050478,-222.061783
4357.146724,148.041188,-8886.707777,0.000000
4357.147048,518.144159,-8580.269578,-222.061783
4357.147372,222.061783,-8580.269578,-518.144159
4357.147696,222.061783,-8656.879127,-222.061783
4357.148020,592.164754,-8503.660028,-296.082377
4357.148345,518.144159,-8733.488677,-444.123565
4357.148669,370.102971,-8733.488677,-518.144159
4357.148993,444.123565,-8580.269578,-444.123565
4357.149317,518.144159,-8810.098227,0.000000
4357.149642,962.267725,-8886.707777,-518.144159
4357.149966,296.082377,-8580.269578,-444.123565
4357.150290,222.061783,-8656.879127,-296.082377
4357.150614,296.082377,-8656.879127,-444.123565
4357.150938,592.164754,-8810.098227,-370.102971
4357.151263,444.123565,-8273.831378,-740.205942
4357.151587,592.164754,-8810.098227,-370.102971
4357.151911,592.164754,-8350.440928,-444.123565
4357.152235,518.144159,-8503.660028,-148.041188
4357.152559,592.164754,-8503.660028,-592.164754
4357.152884,370.102971,-8503.660028,0.000000
4357.153208,370.102971,-8350.440928,-370.102971
4357.153532,370.102971,-8503.660028,-444.123565
4357.153856,444.123565,-8810.098227,-296.082377
4357.154181,444.123565,-8656.879127,-518.144159
4357.154505,592.164754,-8503.660028,-592.164754
4357.154829,222.061783,-8503.660028,-148.041188
4357.155153,296.082377,-8350.440928,-370.102971
4357.155477,370.102971,-8580.269578,-222.061783
4357.155802,444.123565,-8503.660028,-592.164754
4357.156126,518.144159,-8733.488677,-296.082377
4357.156450,518.144159,-8120.612279,-518.144159
4357.156774,370.102971,-8656.879127,-444.123565
4357.157098,444.123565,-8886.707777,-592.164754
4357.157423,518.144159,-8656.879127,-148.041188
4357.157747,370.102971,-8733.488677,-444.123565
4357.158071,74.020594,-8197.221829,0.000000
4357.158395,370.102971,-8580.269578,-296.082377
4357.158720,370.102971,-8810.098227,-148.041188
4357.159044,296.082377,-8197.221829,-370.102971
4357.159368,444.123565,-8656.879127,-222.061783
4357.159692,666.185348,-8503.660028,-370.102971
4357.160016,296.082377,-8350.440928,0.000000
4357.160341,444.123565,-8810.098227,-222.061783
4357.160665,74.020594,-8733.488677,-296.082377
4357.160989,370.102971,-8886.707777,-222.061783
4357.161313,444.123565,-8733.488677,-296.082377
4357.161637,74.020594,-8580.269578,-148.041188
4357.161962,444.123565,-8810.098227,0.000000
4357.162286,222.061783,-9039.926876,-148.041188
4357.162610,370.102971,-8427.050478,-370.102971
4357.162934,666.185348,-8656.879127,-222.061783
4357.163259,370.102971,-8810.098227,0.000000
4357.163583,296.082377,-8350.440928,0.000000
4357.163907,74.020594,-8810.098227,-148.041188
4357.164231,222.061783,-8273.831378,-296.082377
4357.164555,814.226536,-8580.269578,-222.061783
4357.164880,518.144159,-8503.660028,-370.102971
4357.165204,518.144159,-8810.098227,-222.061783
4357.165528,444.123565,-8656.879127,-370.102971
4357.165852,592.164754,-8733.488677,0.000000
4357.166176,370.102971,-8120.612279,-74.020594
4357.166501,296.082377,-9806.022374,0.000000
4357.166825,814.226536,-8273.831378,-518.144159
4357.167149,518.144159,-8656.879127,-370.102971
4357.167473,222.061783,-8733.488677,-518.144159
4357.167798,740.205942,-8656.879127,-370.102971
4357.168122,962.267725,-8963.317327,-666.185348
4357.168446,592.164754,-8810.098227,-518.144159
4357.168770,592.164754,-8733.488677,-296.082377
4357.169094,222.061783,-8656.879127,-296.082377
4357.169419,370.102971,-9116.536426,-370.102971
4357.169743,666.185348,-8580.269578,-666.185348
4357.170067,592.164754,-8656.879127,-444.123565
4357.170391,296.082377,-8503.660028,-148.041188
4357.170715,222.061783,-8580.269578,-444.123565
4357.171040,222.061783,-8733.488677,-444.123565
4357.171364,518.144159,-8427.050478,-444.123565
4357.171688,444.123565,-8580.269578,-296.082377
4357.172012,296.082377,-8733.488677,-444.123565
4357.172337,296.082377,-8886.707777,0.000000
4357.172661,370.102971,-9039.926876,-370.102971
4357.172985,222.061783,-8810.098227,-444.123565
4357.173309,518.144159,-8503.660028,-444.123565
4357.173633,222.061783,-8656.879127,-518.144159
4357.173958,296.082377,-8350.440928,-518.144159
4357.174282,296.082377,-8656.879127,-370.102971
4357.174606,444.123565,-8503.660028,-444.123565
4357.174930,444.123565,-8427.050478,-592.164754
4357.175254,518.144159,-8656.879127,-592.164754
4357.175579,592.164754,-8656.879127,-296.082377
4357.175903,296.082377,-8580.269578,-370.102971
4357.176227,518.144159,-8503.660028,-444.123565
4357.176551,1036.288319,-8273.831378,-518.144159
4357.176876,370.102971,-8810.098227,-518.144159
4357.177200,222.061783,-8810.098227,-444.123565
4357.177524,296.082377,-8427.050478,-296.082377
4357.177848,370.102971,-8810.098227,-592.164754
4357.178172,222.061783,-8427.050478,-370.102971
4357.178497,518.144159,-8580.269578,-444.123565
4357.178821,444.123565,-8503.660028,-518.144159
4357.179145,444.123565,-8427.050478,-296.082377
4357.179469,592.164754,-8886.707777,0.000000
4357.179793,518.144159,-8580.269578,-370.102971
4357.180118,518.144159,-8810.098227,-444.123565
4357.180442,518.144159,-8656.879127,-518.144159
4357.180766,518.144159,-7814.174080,0.000000
4357.181090,222.061783,-8503.660028,-296.082377
4357.181415,444.123565,-8810.098227,-296.082377
4357.181739,370.102971,-8580.269578,-296.082377
4357.182063,518.144159,-8963.317327,-222.061783
4357.182387,370.102971,-8656.879127,-370.102971
4357.182711,444.123565,-8580.269578,-222.061783
4357.183036,518.144159,-8656.879127,0.000000
4357.183360,592.164754,-8656.879127,0.000000
4357.183684,518.144159,-8733.488677,-148.041188
4357.184008,518.144159,-8733.488677,-148.041188
4357.184332,592.164754,-8503.660028,0.000000
4357.184657,148.041188,-8810.098227,0.000000
4357.184981,518.144159,-8656.879127,0.000000
4357.185305,518.144159,-8427.050478,-296.082377
4357.185629,444.123565,-8580.269578,-296.082377
4357.185954,296.082377,-8810.098227,0.000000
4357.186278,444.123565,-8350.440928,-296.082377
4357.186602,518.144159,-8503.660028,-370.102971
4357.186926,518.144159,-8350.440928,-370.102971
4357.187250,592.164754,-8886.707777,-148.041188
4357.187575,592.164754,-8580.269578,-296.082377
4357.187899,1036.288319,-8273.831378,-518.144159
4357.188223,370.102971,-8580.269578,-444.123565
4357.188547,444.123565,-8350.440928,-518.144159
4357.188871,148.041188,-8580.269578,-296.082377
4357.189196,666.185348,-9039.926876,-222.061783
4357.189520,370.102971,-8733.488677,-444.123565
4357.189844,518.144159,-8503.660028,-444.123565
4357.190168,370.102971,-8427.050478,-370.102971
4357.190493,296.082377,-8580.269578,-518.144159
4357.190817,592.164754,-8810.098227,-666.185348
4357.191141,666.185348,-8733.488677,-148.041188
4357.191465,592.164754,-8503.660028,-444.123565
4357.191789,296.082377,-8810.098227,-370.102971
4357.192114,518.144159,-8656.879127,-370.102971
4357.192438,518.144159,-8580.269578,-222.061783
4357.192762,222.061783,-8733.488677,-666.185348
4357.193086,296.082377,-8656.879127,0.000000
4357.193410,296.082377,-8427.050478,-592.164754
4357.193735,444.123565,-8656.879127,-222.061783
4357.194059,296.082377,-8580.269578,-666.185348
4357.194383,444.123565,-8733.488677,-296.082377
4357.194707,444.123565,-8120.612279,0.000000
4357.195032,222.061783,-8810.098227,0.000000
4357.195356,370.102971,-8580.269578,-370.102971
4357.195680,444.123565,-8503.660028,-148.041188
4357.196004,592.164754,-8733.488677,-444.123565
4357.196328,444.123565,-8197.221829,0.000000
4357.196653,444.123565,-8503.660028,-370.102971
4357.196977,296.082377,-8350.440928,-666.185348
4357.197301,296.082377,-8656.879127,-222.061783
4357.197625,962.267725,-8580.269578,-814.226536
4357.197949,666.185348,-8656.879127,-370.102971
4357.198274,370.102971,-8273.831378,-148.041188
4357.198598,296.082377,-8886.707777,-222.061783
4357.198922,518.144159,-8427.050478,-518.144159
4357.199246,666.185348,-8733.488677,-296.082377
4357.199571,444.123565,-8427.050478,-370.102971
4357.199895,370.102971,-8580.269578,-518.144159
4357.200219,296.082377,-8810.098227,0.000000
4357.200543,740.205942,-8886.707777,-370.102971
4357.200867,444.123565,-8503.660028,-518.144159
4357.201192,592.164754,-8810.098227,-814.226536
4357.201516,444.123565,-8503.660028,-444.123565
4357.201840,444.123565,-8120.612279,-518.144159
4357.202164,518.144159,-8580.269578,-296.082377
4357.202488,370.102971,-8350.440928,-370.102971
4357.202813,444.123565,-8656.879127,-592.164754
4357.203137,296.082377,-8580.269578,-444.123565
4357.203461,296.082377,-8733.488677,-148.041188
4357.203785,148.041188,-8503.660028,-666.185348
4357.204110,296.082377,-8656.879127,-370.102971
4357.204434,444.123565,-8580.269578,-592.164754
4357.204758,222.061783,-8503.660028,-148.041188
4357.205082,222.061783,-8197.221829,-666.185348
4357.205406,592.164754,-8503.660028,-370.102971
4357.205731,74.020594,-8503.660028,-518.144159
4357.206055,444.123565,-9039.926876,-592.164754
4357.206379,740.205942,-8733.488677,-814.226536
4357.206703,518.144159,-8810.098227,-444.123565
4357.207027,296.082377,-8733.488677,-444.123565
4357.207352,444.123565,-8810.098227,-370.102971
4357.207676,74.020594,-8580.269578,-370.102971
4357.208000,370.102971,-8886.707777,-370.102971
4357.208324,518.144159,-8733.488677,-370.102971
4357.208649,518.144159,-8427.050478,-370.102971
4357.208973,740.205942,-9039.926876,-518.144159
4357.209297,518.144159,-8580.269578,-296.082377
4357.209621,518.144159,-8656.879127,-518.144159
4357.209945,296.082377,-8963.317327,-296.082377
4357.210270,814.226536,-8580.269578,-444.123565
4357.210594,518.144159,-8580.269578,-222.061783
4357.210918,296.082377,-8810.098227,0.000000
4357.211243,592.164754,-8733.488677,-518.144159
4357.211567,518.144159,-8656.879127,-370.102971
4357.211891,0.000000,-8580.269578,74.020594
4357.212216,444.123565,-8580.269578,0.000000
4357.212540,370.102971,-8580.269578,-370.102971
4357.212864,444.123565,-8503.660028,-296.082377
4357.213189,814.226536,-8580.269578,-370.102971
4357.213513,296.082377,-8580.269578,0.000000
4357.213838,222.061783,-8733.488677,-148.041188
4357.214162,518.144159,-8580.269578,-296.082377
4357.214486,518.144159,-8427.050478,-148.041188
4357.214811,444.123565,-8273.831378,0.000000
4357.215135,444.123565,-8656.879127,-222.061783
4357.215459,444.123565,-8427.050478,-222.061783
4357.215784,518.144159,-8733.488677,-222.061783
4357.216108,296.082377,-8273.831378,-666.185348
4357.216432,296.082377,-8503.660028,-296.082377
4357.216757,444.123565,-8503.660028,-518.144159
4357.217081,296.082377,-8733.488677,0.000000
4357.217405,296.082377,-8273.831378,0.000000
4357.217730,518.144159,-8656.879127,-148.041188
4357.218054,296.082377,-8427.050478,-222.061783
4357.218379,518.144159,-8427.050478,0.000000
4357.218703,370.102971,-8580.269578,-296.082377
4357.219027,296.082377,-8580.269578,0.000000
4357.219352,296.082377,-8810.098227,-222.061783
4357.219676,518.144159,-8733.488677,-518.144159
4357.220000,296.082377,-8580.269578,-370.102971
4357.220325,148.041188,-8580.269578,-148.041188
4357.220649,444.123565,-8580.269578,-370.102971
4357.220973,370.102971,-8580.269578,-444.123565
4357.221298,518.144159,-8656.879127,0.000000
4357.221622,518.144159,-8273.831378,-296.082377
4357.221946,444.123565,-8656.879127,-296.082377
4357.222271,444.123565,-8427.050478,-370.102971
4357.222595,296.082377,-8656.879127,-296.082377
4357.222920,0.000000,-8427.050478,-518.144159
4357.223244,370.102971,-8427.050478,-444.123565
4357.223568,518.144159,-8503.660028,-518.144159
4357.223893,592.164754,-8733.488677,-740.205942
4357.224217,370.102971,-8580.269578,-518.144159
4357.224541,518.144159,-8810.098227,-518.144159
4357.224866,518.144159,-8733.488677,-592.164754
4357.225190,296.082377,-8733.488677,-74.020594
4357.225514,370.102971,-8963.317327,-444.123565
4357.225839,518.144159,-8427.050478,-222.061783
4357.226163,518.144159,-8427.050478,-370.102971
4357.226487,444.123565,-8963.317327,-370.102971
4357.226812,296.082377,-8273.831378,-296.082377
4357.227136,740.205942,-8886.707777,-666.185348
4357.227461,592.164754,-8963.317327,-592.164754
4357.227785,518.144159,-8963.317327,-370.102971
4357.228109,296.082377,-8503.660028,-444.123565
4357.228434,444.123565,-8503.660028,-592.164754
4357.228758,370.102971,-8886.707777,0.000000
4357.229082,222.061783,-8810.098227,-592.164754
4357.229407,296.082377,-8273.831378,-222.061783
4357.229731,444.123565,-8810.098227,-222.061783
4357.230055,296.082377,-8503.660028,-370.102971
4357.230380,444.123565,-8273.831378,-370.102971
4357.230704,296.082377,-8503.660028,-296.082377
4357.231028,444.123565,-8733.488677,-148.041188
4357.231353,296.082377,-8733.488677,-592.164754
4357.231677,444.123565,-8120.612279,0.000000
4357.232002,296.082377,-8503.660028,-518.144159
4357.232326,296.082377,-8656.879127,-296.082377
4357.232650,592.164754,-8503.660028,-444.123565
4357.232975,444.123565,-8427.050478,-222.061783
4357.233299,370.102971,-8886.707777,-592.164754
4357.233623,444.123565,-8733.488677,0.000000
4357.233948,370.102971,-8273.831378,-518.144159
4357.234272,296.082377,-8350.440928,-666.185348
4357.234596,592.164754,-8427.050478,-666.185348
4357.234921,444.123565,-8580.269578,-296.082377
4357.235245,518.144159,-8733.488677,-222.061783
4357.235569,296.082377,-8427.050478,-592.164754
4357.235894,740.205942,-8810.098227,-518.144159
4357.236218,592.164754,-8503.660028,-444.123565
4357.236543,222.061783,-8656.879127,-296.082377
4357.236867,222.061783,-8810.098227,-296.082377
4357.237191,666.185348,-8427.050478,-370.102971
4357.237516,148.041188,-8580.269578,-370.102971
4357.237840,518.144159,-8503.660028,-740.205942
4357.238164,370.102971,-8733.488677,-148.041188
4357.238489,370.102971,-8810.098227,-222.061783
4357.238813,666.185348,-8733.488677,-444.123565
4357.239137,296.082377,-8273.831378,-592.164754
4357.239462,370.102971,-9039.926876,-222.061783
4357.239786,0.000000,-8273.831378,-222.061783
4357.240110,592.164754,-8120.612279,0.000000
4357.240435,148.041188,-8733.488677,-370.102971
4357.240759,444.123565,-8580.269578,-592.164754
4357.241084,296.082377,-8656.879127,-592.164754
4357.241408,148.041188,-8886.707777,-222.061783
4357.241732,370.102971,-8580.269578,-222.061783
4357.242057,518.144159,-8810.098227,-222.061783
4357.242381,444.123565,-8503.660028,-518.144159
4357.242705,518.144159,-8733.488677,-444.123565
4357.243030,222.061783,-8350.440928,0.000000
4357.243354,370.102971,-8503.660028,-148.041188
4357.243678,296.082377,-8733.488677,-222.061783
4357.244003,370.102971,-8733.488677,-296.082377
4357.244327,444.123565,-8963.317327,74.020594
4357.244651,370.102971,-8580.269578,-592.164754
4357.244976,518.144159,-8580.269578,148.041188
4357.245300,370.102971,-8656.879127,-370.102971
4357.245625,370.102971,-8580.269578,-518.144159
4357.245949,296.082377,-8580.269578,0.000000
4357.246273,666.185348,-8733.488677,-370.102971
4357.246598,518.144159,-8503.660028,-148.041188
4357.246922,814.226536,-8580.269578,-296.082377
4357.247246,666.185348,-8886.707777,0.000000
4357.247571,222.061783,-8503.660028,-222.061783
4357.247895,296.082377,-8503.660028,0.000000
4357.248219,296.082377,-8197.221829,-222.061783
4357.248544,592.164754,-8810.098227,0.000000
4357.248868,370.102971,-8120.612279,-444.123565
4357.249192,296.082377,-8810.098227,-74.020594
4357.249517,296.082377,-8350.440928,-370.102971
4357.249841,444.123565,-8733.488677,-222.061783
4357.250166,740.205942,-8273.831378,-518.144159
4357.250490,370.102971,-8580.269578,0.000000
4357.250814,444.123565,-8656.879127,-148.041188
4357.251139,518.144159,-8427.050478,-222.061783
4357.251463,518.144159,-8810.098227,-370.102971
4357.251787,444.123565,-8503.660028,-148.041188
4357.252112,222.061783,-8503.660028,-444.123565
4357.252436,296.082377,-8580.269578,0.000000
4357.252760,444.123565,-8044.002729,-370.102971
4357.253085,222.061783,-8580.269578,-222.061783
4357.253409,518.144159,-8580.269578,-518.144159
4357.253733,296.082377,-8273.831378,0.000000
4357.254058,444.123565,-8503.660028,0.000000
4357.254382,370.102971,-8733.488677,0.000000
4357.254707,222.061783,-8580.269578,0.000000
4357.255031,518.144159,-8656.879127,-148.041188
4357.255355,518.144159,-8580.269578,-296.082377
4357.255680,740.205942,-8197.221829,0.000000
4357.256004,222.061783,-8733.488677,-370.102971
4357.256328,370.102971,-8733.488677,-296.082377
4357.256653,296.082377,-8733.488677,-296.082377
4357.256977,518.144159,-8733.488677,-296.082377
4357.257301,222.061783,-8120.612279,-222.061783
4357.257626,296.082377,-8427.050478,-296.082377
4357.257950,296.082377,-8503.660028,-444.123565
4357.258274,592.164754,-8503.660028,-444.123565
4357.258599,444.123565,-8503.660028,-666.185348
4357.258923,148.041188,-8656.879127,0.000000
4357.259248,518.144159,-8733.488677,-518.144159
4357.259572,518.144159,-8503.660028,-370.102971
4357.259896,296.082377,-8273.831378,0.000000
4357.260221,518.144159,-8580.269578,-592.164754
4357.260545,592.164754,-8503.660028,-370.102971
4357.260869,296.082377,-8580.269578,-444.123565
4357.261194,370.102971,-8656.879127,-518.144159
4357.261518,518.144159,-8503.660028,-444.123565
4357.261842,444.123565,-8656.879127,-444.123565
4357.262167,370.102971,-8733.488677,-518.144159
4357.262491,518.144159,-8656.879127,-592.164754
4357.262815,740.205942,-8580.269578,-888.247130
4357.263140,296.082377,-8656.879127,0.000000
4357.263464,444.123565,-8503.660028,-370.102971
4357.263789,370.102971,-8580.269578,-518.144159
4357.264113,666.185348,-8503.660028,-222.061783
4357.264437,518.144159,-8427.050478,-518.144159
4357.264762,444.123565,-8350.440928,-666.185348
4357.265086,592.164754,-8197.221829,-444.123565
4357.265410,666.185348,-8733.488677,-666.185348
4357.265735,666.185348,-8656.879127,-518.144159
4357.266059,296.082377,-8503.660028,-148.041188
4357.266383,444.123565,-8733.488677,-518.144159
4357.266708,666.185348,-8810.098227,-296.082377
4357.267032,962.267725,-9193.145976,-814.226536
4357.267356,518.144159,-8656.879127,-518.144159
4357.267681,518.144159,-8273.831378,-222.061783
4357.268005,296.082377,-8580.269578,-444.123565
4357.268330,296.082377,-8350.440928,-222.061783
4357.268654,518.144159,-8580.269578,-222.061783
4357.268978,370.102971,-8273.831378,-592.164754
4357.269303,740.205942,-8580.269578,-370.102971
4357.269627,222.061783,-8656.879127,-222.061783
4357.269951,222.061783,-8580.269578,0.000000
4357.270276,518.144159,-8580.269578,-518.144159
4357.270600,518.144159,-8963.317327,-296.082377
4357.270924,666.185348,-8427.050478,-592.164754
4357.271249,444.123565,-9499.584175,0.000000
4357.271573,296.082377,-8733.488677,0.000000
4357.271897,370.102971,-8503.660028,0.000000
4357.272222,148.041188,-8886.707777,-370.102971
4357.272546,444.123565,-8503.660028,-296.082377
4357.272871,222.061783,-8350.440928,-222.061783
4357.273195,296.082377,-8733.488677,0.000000
4357.273519,370.102971,-8427.050478,-222.061783
4357.273844,370.102971,-8656.879127,-296.082377
4357.274168,666.185348,-9269.755526,-370.102971
4357.274492,296.082377,-8733.488677,0.000000
4357.274817,148.041188,-8503.660028,0.000000
4357.275141,296.082377,-8656.879127,0.000000
4357.275465,222.061783,-9039.926876,0.000000
4357.275790,222.061783,-8503.660028,-222.061783
4357.276114,592.164754,-8503.660028,-296.082377
4357.276438,296.082377,-8503.660028,0.000000
4357.276763,222.061783,-8733.488677,0.000000
4357.277087,148.041188,-8810.098227,0.000000
4357.277412,296.082377,-8963.317327,0.000000
4357.277736,370.102971,-8503.660028,-370.102971
4357.278060,592.164754,-8427.050478,0.000000
4357.278385,74.020594,-8886.707777,0.000000
4357.278709,296.082377,-8733.488677,0.000000
4357.279033,592.164754,-8427.050478,-296.082377
4357.279358,592.164754,-9039.926876,-444.123565
4357.279682,592.164754,-8197.221829,-222.061783
4357.280006,518.144159,-8580.269578,-296.082377
4357.280331,518.144159,-8810.098227,-370.102971
4357.280655,444.123565,-8427.050478,-444.123565
4357.280979,444.123565,-8656.879127,-370.102971
4357.281304,296.082377,-8427.050478,0.000000
4357.281628,370.102971,-8350.440928,-296.082377
4357.281953,370.102971,-8656.879127,-222.061783
4357.282277,222.061783,-8656.879127,-148.041188
4357.282601,296.082377,-8120.612279,-444.123565
4357.282926,518.144159,-8350.440928,-296.082377
4357.283250,592.164754,-8427.050478,-296.082377
4357.283574,296.082377,-8733.488677,-592.164754
4357.283899,370.102971,-8580.269578,0.000000
4357.284223,370.102971,-8580.269578,-222.061783
4357.284547,444.123565,-8810.098227,-518.144159
4357.284872,518.144159,-8427.050478,-222.061783
4357.285196,148.041188,-8120.612279,-444.123565
4357.285520,370.102971,-9039.926876,-222.061783
4357.285845,370.102971,-8273.831378,-370.102971
4357.286169,666.185348,-8656.879127,-370.102971
4357.286494,518.144159,-8427.050478,-370.102971
4357.286818,666.185348,-9269.755526,74.020594
4357.287142,296.082377,-8503.660028,-592.164754
4357.287467,592.164754,-8427.050478,-222.061783
4357.287791,370.102971,-8656.879127,-518.144159
4357.288115,296.082377,-9499.584175,-296.082377
4357.288440,296.082377,-8580.269578,-296.082377
4357.288764,370.102971,-8656.879127,-370.102971
4357.289088,444.123565,-8350.440928,-444.123565
4357.289413,592.164754,-8427.050478,-296.082377
4357.289737,740.205942,-8733.488677,-148.041188
4357.290061,518.144159,-8580.269578,-518.144159
4357.290386,222.061783,-8733.488677,-296.082377
4357.290710,222.061783,-8733.488677,-296.082377
4357.291035,444.123565,-9193.145976,0.000000
4357.291359,444.123565,-8656.879127,-592.164754
4357.291683,666.185348,-8503.660028,-814.226536
4357.292008,592.164754,-8656.879127,-592.164754
4357.292332,370.102971,-8810.098227,-444.123565
4357.292656,518.144159,-8656.879127,-518.144159
4357.292981,444.123565,-8197.221829,-370.102971
4357.293305,222.061783,-8656.879127,-370.102971
4357.293629,222.061783,-8197.221829,-370.102971
4357.293954,222.061783,-8886.707777,0.000000
4357.294278,222.061783,-8273.831378,-296.082377
4357.294602,370.102971,-8733.488677,-444.123565
4357.294927,444.123565,-9039.926876,-518.144159
4357.295251,148.041188,-8733.488677,0.000000
4357.295576,444.123565,-8350.440928,-222.061783
4357.295900,370.102971,-8810.098227,-444.123565
4357.296224,296.082377,-8503.660028,-592.164754
4357.296549,444.123565,-8503.660028,-518.144159
4357.296873,296.082377,-8503.660028,-666.185348
4357.297197,518.144159,-8886.707777,-296.082377
4357.297522,370.102971,-8733.488677,-592.164754
4357.297846,370.102971,-8810.098227,-222.061783
4357.298170,666.185348,-8197.221829,-222.061783
4357.298495,370.102971,-8733.488677,-592.164754
4357.298819,296.082377,-8427.050478,-222.061783
4357.299143,222.061783,-8427.050478,-296.082377
4357.299468,814.226536,-9116.536426,0.000000
4357.299792,444.123565,-8733.488677,-370.102971
4357.300117,296.082377,-8810.098227,-370.102971
4357.300441,148.041188,-8580.269578,-518.144159
4357.300765,518.144159,-8580.269578,-518.144159
4357.301090,444.123565,-8656.879127,-296.082377
4357.301414,222.061783,-8350.440928,-296.082377
4357.301738,444.123565,-8733.488677,-518.144159
4357.302063,888.247130,-8733.488677,-592.164754
4357.302387,444.123565,-8656.879127,0.000000
4357.302711,592.164754,-8503.660028,-296.082377
4357.303036,296.082377,-8656.879127,-296.082377
4357.303360,518.144159,-8580.269578,-518.144159
4357.303684,592.164754,-8580.269578,-370.102971
4357.304009,370.102971,-8580.269578,-370.102971
4357.304333,222.061783,-8503.660028,-296.082377
4357.304657,222.061783,-8810.098227,-370.102971
4357.304982,296.082377,-8810.098227,-296.082377
4357.305306,296.082377,-8733.488677,-222.061783
4357.305631,296.082377,-8580.269578,-296.082377
4357.305955,148.041188,-8503.660028,-296.082377
4357.306279,74.020594,-8580.269578,-222.061783
4357.306604,888.247130,-8810.098227,-444.123565
4357.306928,592.164754,-8733.488677,-370.102971
4357.307252,370.102971,-8580.269578,-370.102971
4357.307577,444.123565,-8580.269578,-296.082377
4357.307901,370.102971,-8810.098227,-222.061783
4357.308225,296.082377,-8733.488677,0.000000
4357.308550,444.123565,-8427.050478,-296.082377
4357.308874,296.082377,-8810.098227,0.000000
4357.309198,592.164754,-8350.440928,-370.102971
4357.309523,444.123565,-8580.269578,-296.082377
4357.309847,444.123565,-8886.707777,-148.041188
4357.310172,518.144159,-8427.050478,-370.102971
4357.310496,444.123565,-8580.269578,-518.144159
4357.310820,1110.308913,-8503.660028,-296.082377
4357.311145,444.123565,-8503.660028,-222.061783
4357.311469,592.164754,-8350.440928,-222.061783
4357.311793,370.102971,-8350.440928,0.000000
4357.312117,592.164754,-8963.317327,-296.082377
4357.312442,370.102971,-8580.269578,-296.082377
