#time,accel_x,accel_y,accel_z
4667.621062,444.123565,-8503.660028,-518.144159
4667.621386,444.123565,-8810.098227,-370.102971
4667.621711,814.226536,-8656.879127,-296.082377
4667.622035,444.123565,-8733.488677,-222.061783
4667.622359,444.123565,-8886.707777,-370.102971
4667.622684,444.123565,-8580.269578,-296.082377
4667.623008,740.205942,-8503.660028,-222.061783
4667.623332,518.144159,-8733.488677,-222.061783
4667.623657,444.123565,-8427.050478,-370.102971
4667.623981,148.041188,-8580.269578,-370.102971
4667.624305,444.123565,-8580.269578,-296.082377
4667.624630,518.144159,-8197.221829,-296.082377
4667.624954,444.123565,-8733.488677,-148.041188
4667.625278,592.164754,-8197.221829,-296.082377
4667.625603,666.185348,-9116.536426,-222.061783
4667.625927,444.123565,-8503.660028,-666.185348
4667.626251,222.061783,-8656.879127,-148.041188
4667.626576,148.041188,-8350.440928,-518.144159
4667.626900,592.164754,-8580.269578,-370.102971
4667.627224,296.082377,-8120.612279,-222.061783
4667.627549,518.144159,-8580.269578,-222.061783
4667.627873,296.082377,-8503.660028,0.000000
4667.628197,296.082377,-8580.269578,-370.102971
4667.628522,296.082377,-8503.660028,-222.061783
4667.628846,592.164754,-8503.660028,-222.061783
4667.629170,518.144159,-8580.269578,-518.144159
4667.629495,518.144159,-8656.879127,-222.061783
4667.629819,296.082377,-8656.879127,-370.102971
4667.630143,296.082377,-9269.755526,222.061783
4667.630468,0.000000,-8350.440928,-518.144159
4667.630792,370.102971,-8886.707777,-518.144159
4667.631116,518.144159,-8427.050478,-296.082377
4667.631441,444.123565,-8733.488677,0.000000
4667.631765,222.061783,-8580.269578,-222.061783
4667.632089,296.082377,-8503.660028,-296.082377
4667.632414,518.144159,-8273.831378,-444.123565
4667.632738,518.144159,-8656.879127,-370.102971
4667.633062,0.000000,-8810.098227,-296.082377
4667.633387,444.123565,-8656.879127,-518.144159
4667.633711,444.123565,-8580.269578,-296.082377
4667.634035,370.102971,-8503.660028,-444.123565
4667.634360,518.144159,-8273.831378,-666.185348
4667.634684,444.123565,-8427.050478,-370.102971
4667.635008,592.164754,-8273.831378,-444.123565
4667.635333,444.123565,-8580.269578,-222.061783
4667.635657,296.082377,-8503.660028,-296.082377
4667.635981,518.144159,-8580.269578,-222.061783
4667.636306,296.082377,-8580.269578,-740.205942
4667.636630,518.144159,-8733.488677,-222.061783
4667.636954,296.082377,-8580.269578,-444.123565
4667.637279,814.226536,-9039.926876,-444.123565
4667.637603,222.061783,-8580.269578,-518.144159
4667.637927,518.144159,-8733.488677,-740.205942
4667.638252,444.123565,-8656.879127,-296.082377
4667.638576,444.123565,-9116.536426,0.000000
4667.638900,296.082377,-8733.488677,-222.061783
4667.639225,444.123565,-8503.660028,-444.123565
4667.639549,370.102971,-8963.317327,-370.102971
4667.639873,296.082377,-8427.050478,-370.102971
4667.640197,592.164754,-8656.879127,-444.123565
4667.640522,370.102971,-8580.269578,-296.082377
4667.640846,592.164754,-8810.098227,-592.164754
4667.641170,518.144159,-8503.660028,-518.144159
4667.641495,962.267725,-9039.926876,-222.061783
4667.641819,444.123565,-8580.269578,-592.164754
4667.642143,222.061783,-8503.660028,-444.123565
4667.642468,444.123565,-8580.269578,-444.123565
4667.642792,74.020594,-8656.879127,-370.102971
4667.643116,666.185348,-8733.488677,-592.164754
4667.643441,222.061783,-8656.879127,-592.164754
4667.643765,518.144159,-8427.050478,-740.205942
4667.644089,444.123565,-8503.660028,-740.205942
4667.644414,444.123565,-8580.269578,-444.123565
4667.644738,666.185348,-8810.098227,-666.185348
4667.645062,370.102971,-8350.440928,-592.164754
4667.645387,518.144159,-8503.660028,-962.267725
4667.645711,74.020594,-7814.174080,-814.226536
4667.646035,592.164754,-8656.879127,-962.267725
4667.646360,444.123565,-8656.879127,-962.267725
4667.646684,370.102971,-8656.879127,-962.267725
4667.647008,296.082377,-8886.707777,-888.247130
4667.647333,296.082377,-8810.098227,-666.185348
4667.647657,444.123565,-8580.269578,-814.226536
4667.647981,444.123565,-8656.879127,-666.185348
4667.648306,592.164754,-8503.660028,-1036.288319
4667.648630,1036.288319,-8503.660028,-888.247130
4667.648954,592.164754,-8503.660028,-962.267725
4667.649279,444.123565,-8733.488677,-962.267725
4667.649603,296.082377,-8656.879127,-1110.308913
4667.649927,1184.329507,-8273.831378,-666.185348
4667.650252,222.061783,-8656.879127,-1036.288319
4667.650576,370.102971,-8656.879127,-962.267725
4667.650900,222.061783,-8810.098227,-888.247130
4667.651225,444.123565,-8656.879127,-222.061783
4667.651549,370.102971,-8427.050478,-888.247130
4667.651873,666.185348,-8810.098227,-666.185348
4667.652198,592.164754,-8427.050478,-592.164754
4667.652522,666.185348,-8656.879127,-962.267725
4667.652846,444.123565,-8273.831378,-592.164754
4667.653171,666.185348,-8273.831378,-666.185348
4667.653495,518.144159,-8656.879127,-740.205942
4667.653819,666.185348,-8427.050478,-592.164754
4667.654144,296.082377,-8120.612279,-148.041188
4667.654468,74.020594,-8503.660028,-148.041188
4667.654792,592.164754,-8427.050478,-444.123565
4667.655117,444.123565,-8733.488677,-296.082377
4667.655441,666.185348,-8886.707777,-296.082377
4667.655765,888.247130,-8044.002729,-222.061783
4667.656090,444.123565,-8503.660028,-518.144159
4667.656414,444.123565,-8656.879127,0.000000
4667.656738,370.102971,-8503.660028,-222.061783
4667.657063,740.205942,-9039.926876,0.000000
4667.657387,296.082377,-8503.660028,0.000000
4667.657711,296.082377,-8580.269578,0.000000
4667.658036,148.041188,-8733.488677,-222.061783
4667.658360,888.247130,-8810.098227,0.000000
4667.658684,370.102971,-8886.707777,-222.061783
4667.659009,518.144159,-8580.269578,0.000000
4667.659333,518.144159,-8273.831378,0.000000
4667.659657,370.102971,-8886.707777,0.000000
4667.659982,592.164754,-8580.269578,74.020594
4667.660306,666.185348,-8580.269578,0.000000
4667.660630,222.061783,-8656.879127,0.000000
4667.660955,222.061783,-8427.050478,0.000000
4667.661279,148.041188,-8733.488677,-444.123565
4667.661603,148.041188,-8733.488677,0.000000
4667.661928,518.144159,-8427.050478,0.000000
4667.662252,370.102971,-8656.879127,74.020594
4667.662576,592.164754,-8350.440928,444.123565
4667.662901,296.082377,-8427.050478,222.061783
4667.663225,518.144159,-8810.098227,296.082377
4667.663549,296.082377,-8427.050478,296.082377
4667.663873,222.061783,-8963.317327,370.102971
4667.664198,222.061783,-8273.831378,222.061783
4667.664522,222.061783,-8580.269578,296.082377
4667.664846,222.061783,-8810.098227,222.061783
4667.665171,296.082377,-8656.879127,0.000000
4667.665495,814.226536,-8656.879127,-592.164754
4667.665819,518.144159,-8580.269578,0.000000
4667.666144,592.164754,-8197.221829,0.000000
4667.666468,592.164754,-8810.098227,-148.041188
4667.666792,740.205942,-7890.783629,74.020594
4667.667117,814.226536,-8350.440928,0.000000
4667.667441,740.205942,-8427.050478,0.000000
4667.667765,444.123565,-8963.317327,222.061783
4667.668090,518.144159,-8810.098227,0.000000
4667.668414,592.164754,-8963.317327,0.000000
4667.668738,222.061783,-8044.002729,-74.020594
4667.669063,518.144159,-8503.660028,0.000000
4667.669387,148.041188,-8427.050478,0.000000
4667.669711,814.226536,-9193.145976,0.000000
4667.670036,296.082377,-8503.660028,-296.082377
4667.670360,370.102971,-8503.660028,0.000000
4667.670684,592.164754,-8580.269578,-148.041188
4667.671009,296.082377,-8427.050478,-74.020594
4667.671333,592.164754,-8350.440928,74.020594
4667.671657,444.123565,-8580.269578,148.041188
4667.671982,444.123565,-8810.098227,222.061783
4667.672306,370.102971,-8580.269578,0.000000
4667.672630,814.226536,-8886.707777,0.000000
4667.672955,518.144159,-8503.660028,0.000000
4667.673279,74.020594,-8580.269578,0.000000
4667.673603,148.041188,-8656.879127,-222.061783
4667.673928,370.102971,-9269.755526,-296.082377
4667.674252,222.061783,-8656.879127,-296.082377
4667.674576,222.061783,-8886.707777,-296.082377
4667.674901,222.061783,-8886.707777,-296.082377
4667.675225,370.102971,-8963.317327,-518.144159
4667.675549,518.144159,-8503.660028,-444.123565
4667.675874,370.102971,-8733.488677,-592.164754
4667.676198,666.185348,-9116.536426,-592.164754
4667.676522,592.164754,-8273.831378,-888.247130
4667.676847,296.082377,-8886.707777,-444.123565
4667.677171,296.082377,-8503.660028,-592.164754
4667.677495,296.082377,-8503.660028,-518.144159
4667.677820,0.000000,-8733.488677,-814.226536
4667.678144,74.020594,-8580.269578,-444.123565
4667.678469,222.061783,-8503.660028,-444.123565
4667.678793,296.082377,-9039.926876,-444.123565
4667.679118,592.164754,-8503.660028,-592.164754
4667.679442,1036.288319,-8963.317327,-888.247130
4667.679766,1110.308913,-8656.879127,-962.267725
4667.680091,962.267725,-8427.050478,-592.164754
4667.680415,518.144159,-8886.707777,-666.185348
4667.680740,592.164754,-8427.050478,-1036.288319
4667.681064,814.226536,-9576.193725,-740.205942
4667.681388,296.082377,-8733.488677,-888.247130
4667.681713,0.000000,-8810.098227,-888.247130
4667.682037,0.000000,-8503.660028,-888.247130
4667.682362,222.061783,-8810.098227,-962.267725
4667.682686,296.082377,-8503.660028,-740.205942
4667.683010,592.164754,-8963.317327,-1036.288319
4667.683335,740.205942,-8963.317327,-740.205942
4667.683659,1036.288319,-9039.926876,-814.226536
4667.683984,888.247130,-9116.536426,-740.205942
4667.684308,814.226536,-8580.269578,-370.102971
4667.684632,370.102971,-8503.660028,-666.185348
4667.684957,0.000000,-8733.488677,-592.164754
4667.685281,0.000000,-8273.831378,-740.205942
4667.685606,74.020594,-8580.269578,-888.247130
4667.685930,0.000000,-8273.831378,-740.205942
4667.686255,74.020594,-8656.879127,-888.247130
4667.686579,370.102971,-8886.707777,-814.226536
4667.686903,592.164754,-8350.440928,0.000000
4667.687228,592.164754,-8273.831378,-370.102971
4667.687552,1036.288319,-8810.098227,-296.082377
4667.687877,888.247130,-8197.221829,0.000000
4667.688201,740.205942,-9039.926876,0.000000
4667.688525,444.123565,-8733.488677,-444.123565
4667.688850,148.041188,-8044.002729,-296.082377
4667.689174,0.000000,-8810.098227,-592.164754
4667.689499,-222.061783,-8733.488677,-444.123565
4667.689823,222.061783,-8733.488677,-148.041188
4667.690147,148.041188,-8580.269578,0.000000
4667.690472,222.061783,-8273.831378,296.082377
4667.690796,296.082377,-8656.879127,0.000000
4667.691121,814.226536,-8580.269578,296.082377
4667.691445,1332.370696,-8273.831378,222.061783
4667.691769,1258.350101,-8580.269578,148.041188
4667.692094,1036.288319,-8503.660028,74.020594
4667.692418,370.102971,-8886.707777,370.102971
4667.692743,592.164754,-8197.221829,0.000000
4667.693067,0.000000,-8044.002729,74.020594
4667.693392,0.000000,-8656.879127,0.000000
4667.693716,0.000000,-8273.831378,296.082377
4667.694040,0.000000,-8350.440928,296.082377
4667.694365,148.041188,-8427.050478,148.041188
4667.694689,592.164754,-8580.269578,518.144159
4667.695014,740.205942,-8886.707777,444.123565
4667.695338,814.226536,-8886.707777,666.185348
4667.695662,666.185348,-8963.317327,222.061783
4667.695987,666.185348,-8580.269578,370.102971
4667.696311,296.082377,-8350.440928,296.082377
4667.696636,0.000000,-7814.174080,592.164754
4667.696960,370.102971,-8350.440928,0.000000
4667.697284,148.041188,-8733.488677,370.102971
4667.697609,370.102971,-8810.098227,0.000000
4667.697933,296.082377,-9269.755526,74.020594
4667.698258,444.123565,-8580.269578,814.226536
4667.698582,666.185348,-8810.098227,370.102971
4667.698906,518.144159,-8810.098227,296.082377
4667.699231,518.144159,-8503.660028,518.144159
4667.699555,74.020594,-8733.488677,740.205942
4667.699880,444.123565,-8656.879127,370.102971
4667.700204,666.185348,-8810.098227,-814.226536
4667.700529,592.164754,-8810.098227,0.000000
4667.700853,-444.123565,-8580.269578,0.000000
4667.701177,0.000000,-8580.269578,-444.123565
4667.701502,-222.061783,-8197.221829,-444.123565
4667.701826,370.102971,-8733.488677,0.000000
4667.702151,222.061783,-8580.269578,-296.082377
4667.702475,222.061783,-8810.098227,148.041188
4667.702799,518.144159,-8350.440928,222.061783
4667.703124,888.247130,-8733.488677,-296.082377
4667.703448,888.247130,-8120.612279,-518.144159
4667.703773,888.247130,-8350.440928,-370.102971
4667.704097,296.082377,-8733.488677,-296.082377
4667.704421,222.061783,-8273.831378,-518.144159
4667.704746,296.082377,-8733.488677,-888.247130
4667.705070,444.123565,-8120.612279,-370.102971
4667.705395,296.082377,-8503.660028,-666.185348
4667.705719,222.061783,-8733.488677,-370.102971
4667.706043,740.205942,-8427.050478,-370.102971
4667.706368,666.185348,-8350.440928,-148.041188
4667.706692,814.226536,-8886.707777,0.000000
4667.707017,592.164754,-8197.221829,-370.102971
4667.707341,666.185348,-8810.098227,-370.102971
4667.707666,518.144159,-7967.393179,-444.123565
4667.707990,296.082377,-8810.098227,-296.082377
4667.708314,148.041188,-8350.440928,-962.267725
4667.708639,148.041188,-8273.831378,-666.185348
4667.708963,370.102971,-8350.440928,-444.123565
4667.709288,296.082377,-8503.660028,-592.164754
4667.709612,222.061783,-8963.317327,-444.123565
4667.709936,296.082377,-8044.002729,-296.082377
4667.710261,666.185348,-8810.098227,-222.061783
4667.710585,370.102971,-8120.612279,-592.164754
4667.710910,592.164754,-8810.098227,0.000000
4667.711234,666.185348,-8273.831378,-296.082377
4667.711558,296.082377,-8197.221829,-814.226536
4667.711883,222.061783,-8963.317327,-370.102971
4667.712207,814.226536,-8733.488677,-740.205942
4667.712532,296.082377,-8503.660028,-444.123565
4667.712856,370.102971,-8427.050478,-296.082377
4667.713181,222.061783,-8503.660028,0.000000
4667.713505,370.102971,-8580.269578,666.185348
4667.713829,222.061783,-8427.050478,0.000000
4667.714154,444.123565,-8810.098227,0.000000
4667.714478,814.226536,-8656.879127,0.000000
4667.714803,592.164754,-8197.221829,0.000000
4667.715127,370.102971,-8580.269578,222.061783
4667.715451,592.164754,-8656.879127,0.000000
4667.715776,296.082377,-8656.879127,-296.082377
4667.716100,444.123565,-8733.488677,-370.102971
4667.716425,74.020594,-8350.440928,148.041188
4667.716749,518.144159,-8580.269578,-222.061783
4667.717073,296.082377,-8044.002729,0.000000
4667.717398,370.102971,-8580.269578,148.041188
4667.717722,518.144159,-9039.926876,296.082377
4667.718047,370.102971,-8656.879127,0.000000
4667.718371,370.102971,-8963.317327,-222.061783
4667.718695,0.000000,-9039.926876,-444.123565
4667.719020,296.082377,-8810.098227,-592.164754
4667.719344,222.061783,-8427.050478,-222.061783
4667.719669,0.000000,-8656.879127,-296.082377
4667.719993,296.082377,-8656.879127,-222.061783
4667.720318,222.061783,-8810.098227,0.000000
4667.720642,148.041188,-8503.660028,0.000000
4667.720966,444.123565,-8886.707777,-592.164754
4667.721291,444.123565,-8503.660028,-222.061783
4667.721615,444.123565,-8886.707777,74.020594
4667.721940,296.082377,-8656.879127,74.020594
4667.722264,74.020594,-8733.488677,296.082377
4667.722588,222.061783,-8656.879127,222.061783
4667.722913,222.061783,-8503.660028,-296.082377
4667.723237,222.061783,-8810.098227,0.000000
4667.723562,740.205942,-8427.050478,-444.123565
4667.723886,814.226536,-8733.488677,222.061783
4667.724210,592.164754,-8427.050478,-222.061783
4667.724535,592.164754,-8656.879127,0.000000
4667.724859,1036.288319,-8427.050478,296.082377
4667.725184,592.164754,-8503.660028,0.000000
4667.725508,148.041188,-8427.050478,0.000000
4667.725832,148.041188,-8580.269578,444.123565
4667.726157,370.102971,-8427.050478,0.000000
4667.726481,740.205942,-8580.269578,-296.082377
4667.726806,370.102971,-8273.831378,0.000000
4667.727130,222.061783,-8273.831378,-296.082377
4667.727455,222.061783,-8427.050478,-1036.288319
4667.727779,740.205942,-8044.002729,-666.185348
4667.728103,740.205942,-8350.440928,-444.123565
4667.728428,222.061783,-8044.002729,-592.164754
4667.728752,0.000000,-8273.831378,-444.123565
4667.729077,0.000000,-8044.002729,-222.061783
4667.729401,444.123565,-8503.660028,-962.267725
4667.729725,148.041188,-8503.660028,-962.267725
4667.730050,592.164754,-8733.488677,-666.185348
4667.730374,370.102971,-8810.098227,-444.123565
4667.730699,666.185348,-8503.660028,-1036.288319
4667.731023,666.185348,-8580.269578,-1110.308913
4667.731347,740.205942,-8427.050478,-814.226536
4667.731672,444.123565,-8580.269578,-962.267725
4667.731996,592.164754,-8044.002729,-1554.432478
4667.732321,814.226536,-8503.660028,-962.267725
4667.732645,666.185348,-8503.660028,-1110.308913
4667.732969,592.164754,-8810.098227,-888.247130
4667.733294,444.123565,-8044.002729,-814.226536
4667.733618,518.144159,-8733.488677,-1110.308913
4667.733943,370.102971,-8503.660028,-1258.350101
4667.734267,0.000000,-8580.269578,-1332.370696
4667.734592,148.041188,-8733.488677,-962.267725
4667.734916,296.082377,-8580.269578,-1258.350101
4667.735240,222.061783,-8733.488677,-1110.308913
4667.735565,148.041188,-8810.098227,-888.247130
4667.735889,296.082377,-8656.879127,-1406.391290
4667.736214,518.144159,-9652.803275,-1258.350101
4667.736538,444.123565,-8580.269578,-1036.288319
4667.736862,370.102971,-8580.269578,-1036.288319
4667.737187,74.020594,-9193.145976,-666.185348
4667.737511,222.061783,-8963.317327,-814.226536
4667.737836,296.082377,-8886.707777,-666.185348
4667.738160,444.123565,-8733.488677,-962.267725
4667.738484,370.102971,-8580.269578,-888.247130
4667.738809,1036.288319,-8503.660028,-740.205942
4667.739133,444.123565,-7967.393179,-1036.288319
4667.739458,888.247130,-8886.707777,-518.144159
4667.739782,740.205942,-8350.440928,-814.226536
4667.740106,814.226536,-8733.488677,-962.267725
4667.740431,740.205942,-9193.145976,-592.164754
4667.740755,518.144159,-8580.269578,-888.247130
4667.741080,444.123565,-9039.926876,-296.082377
4667.741404,74.020594,-8733.488677,-518.144159
4667.741729,444.123565,-9116.536426,-444.123565
4667.742053,370.102971,-9116.536426,-666.185348
4667.742377,518.144159,-8886.707777,-296.082377
4667.742702,370.102971,-8656.879127,-370.102971
4667.743026,592.164754,-8810.098227,-518.144159
4667.743351,222.061783,-8810.098227,0.000000
4667.743675,814.226536,-8350.440928,-148.041188
4667.743999,370.102971,-8427.050478,-222.061783
4667.744324,148.041188,-8503.660028,-222.061783
4667.744648,592.164754,-8733.488677,-444.123565
4667.744973,444.123565,-8273.831378,-296.082377
4667.745297,666.185348,-8503.660028,-518.144159
4667.745621,814.226536,-8810.098227,-148.041188
4667.745946,962.267725,-8503.660028,0.000000
4667.746270,296.082377,-8197.221829,0.000000
4667.746595,518.144159,-8427.050478,-444.123565
4667.746919,740.205942,-8580.269578,-370.102971
4667.747243,592.164754,-8427.050478,-296.082377
4667.747568,370.102971,-8427.050478,-740.205942
4667.747892,222.061783,-8580.269578,-222.061783
4667.748217,370.102971,-8580.269578,-148.041188
4667.748541,148.041188,-9116.536426,-74.020594
4667.748866,0.000000,-9576.193725,-148.041188
4667.749190,296.082377,-9116.536426,0.000000
4667.749514,296.082377,-8273.831378,0.000000
4667.749839,0.000000,-8886.707777,-370.102971
4667.750163,666.185348,-8733.488677,-148.041188
4667.750488,148.041188,-8197.221829,0.000000
4667.750812,370.102971,-8886.707777,-740.205942
4667.751136,370.102971,-9039.926876,-592.164754
4667.751461,222.061783,-8427.050478,-444.123565
4667.751785,0.000000,-8886.707777,-592.164754
4667.752110,0.000000,-8427.050478,-518.144159
4667.752434,222.061783,-9039.926876,-370.102971
4667.752758,148.041188,-8427.050478,-518.144159
4667.753083,222.061783,-8886.707777,-592.164754
4667.753407,296.082377,-8810.098227,-888.247130
4667.753732,666.185348,-8350.440928,-962.267725
4667.754056,518.144159,-8656.879127,-888.247130
4667.754381,444.123565,-8810.098227,-740.205942
4667.754705,370.102971,-8273.831378,-666.185348
4667.755029,518.144159,-8810.098227,-518.144159
4667.755354,148.041188,-8044.002729,-666.185348
4667.755678,740.205942,-8580.269578,-592.164754
4667.756003,740.205942,-8503.660028,-1110.308913
4667.756327,518.144159,-8427.050478,-592.164754
4667.756651,666.185348,-8656.879127,-296.082377
4667.756976,148.041188,-8197.221829,-444.123565
4667.757300,666.185348,-8963.317327,-148.041188
4667.757625,592.164754,-8197.221829,-888.247130
4667.757949,444.123565,-8503.660028,-740.205942
4667.758273,888.247130,-8197.221829,-296.082377
4667.758598,148.041188,-8273.831378,-666.185348
4667.758922,888.247130,-8733.488677,-518.144159
4667.759247,296.082377,-7967.393179,-592.164754
4667.759571,370.102971,-8656.879127,-518.144159
4667.759895,370.102971,-8197.221829,-888.247130
4667.760220,222.061783,-8580.269578,-518.144159
4667.760544,370.102971,-8580.269578,-444.123565
4667.760869,296.082377,-8350.440928,-592.164754
4667.761193,666.185348,-8656.879127,-296.082377
4667.761518,296.082377,-8197.221829,-74.020594
4667.761842,666.185348,-8503.660028,-370.102971
4667.762166,444.123565,-8503.660028,-592.164754
4667.762491,592.164754,-8197.221829,-370.102971
4667.762815,444.123565,-8656.879127,-444.123565
4667.763140,592.164754,-7814.174080,0.000000
4667.763464,296.082377,-8427.050478,-148.041188
4667.763788,148.041188,-8503.660028,-518.144159
4667.764113,518.144159,-8427.050478,-444.123565
4667.764437,370.102971,-8963.317327,-592.164754
4667.764762,888.247130,-8810.098227,-148.041188
4667.765086,592.164754,-8350.440928,0.000000
4667.765410,740.205942,-9269.755526,0.000000
4667.765735,518.144159,-8503.660028,-518.144159
4667.766059,296.082377,-8656.879127,0.000000
4667.766384,296.082377,-8733.488677,-444.123565
4667.766708,296.082377,-8427.050478,-666.185348
4667.767032,222.061783,-8580.269578,0.000000
4667.767357,0.000000,-8963.317327,0.000000
4667.767681,74.020594,-8810.098227,-222.061783
4667.768006,0.000000,-9039.926876,-296.082377
4667.768330,148.041188,-8733.488677,0.000000
4667.768655,222.061783,-8963.317327,0.000000
4667.768979,444.123565,-8656.879127,-370.102971
4667.769303,222.061783,-8503.660028,0.000000
4667.769628,814.226536,-8733.488677,-444.123565
4667.769952,592.164754,-9039.926876,-296.082377
4667.770277,518.144159,-8427.050478,-740.205942
4667.770601,518.144159,-8503.660028,-296.082377
4667.770925,222.061783,-8197.221829,-666.185348
4667.771250,444.123565,-8733.488677,-518.144159
4667.771574,740.205942,-8427.050478,-592.164754
4667.771899,592.164754,-8656.879127,0.000000
4667.772223,444.123565,-8656.879127,-740.205942
4667.772547,666.185348,-8733.488677,-444.123565
4667.772872,444.123565,-8350.440928,-444.123565
4667.773196,666.185348,-8963.317327,-888.247130
4667.773521,370.102971,-8427.050478,-592.164754
4667.773845,592.164754,-8580.269578,-296.082377
4667.774169,222.061783,-8733.488677,-444.123565
4667.774494,740.205942,-8427.050478,-666.185348
4667.774818,296.082377,-8656.879127,-888.247130
4667.775143,666.185348,-8427.050478,-814.226536
4667.775467,666.185348,-8580.269578,-370.102971
4667.775792,592.164754,-9116.536426,-592.164754
4667.776116,666.185348,-8503.660028,-222.061783
4667.776440,592.164754,-8350.440928,-296.082377
4667.776765,814.226536,-8733.488677,-518.144159
4667.777089,592.164754,-8044.002729,-370.102971
4667.777414,592.164754,-8810.098227,-296.082377
4667.777738,740.205942,-8580.269578,-444.123565
4667.778062,740.205942,-8350.440928,-592.164754
4667.778387,592.164754,-8427.050478,-296.082377
4667.778711,592.164754,-8656.879127,-222.061783
4667.779036,518.144159,-8350.440928,-592.164754
4667.779360,518.144159,-8503.660028,-666.185348
4667.779685,740.205942,-8120.612279,-518.144159
4667.780009,740.205942,-9269.755526,-444.123565
4667.780334,592.164754,-8580.269578,-148.041188
4667.780658,518.144159,-8733.488677,0.000000
4667.780983,444.123565,-8886.707777,74.020594
4667.781307,0.000000,-8656.879127,-592.164754
4667.781631,0.000000,-8350.440928,-370.102971
4667.781956,666.185348,-8197.221829,0.000000
4667.782280,296.082377,-8810.098227,0.000000
4667.782605,370.102971,-8580.269578,-296.082377
4667.782929,592.164754,-8656.879127,0.000000
4667.783254,296.082377,-8733.488677,0.000000
4667.783578,222.061783,-8656.879127,-814.226536
4667.783903,296.082377,-8580.269578,-222.061783
4667.784227,296.082377,-8273.831378,74.020594
4667.784552,222.061783,-8886.707777,-148.041188
4667.784876,74.020594,-8656.879127,-444.123565
4667.785200,296.082377,-8656.879127,-666.185348
4667.785525,296.082377,-8503.660028,-444.123565
4667.785849,814.226536,-8503.660028,-444.123565
4667.786174,296.082377,-8656.879127,-962.267725
4667.786498,296.082377,-8427.050478,-296.082377
4667.786823,74.020594,-8273.831378,-444.123565
4667.787147,444.123565,-9422.974625,148.041188
4667.787472,296.082377,-8350.440928,-222.061783
4667.787796,444.123565,-8580.269578,0.000000
4667.788121,444.123565,-8810.098227,-296.082377
4667.788445,518.144159,-9039.926876,-444.123565
4667.788769,814.226536,-8580.269578,-370.102971
4667.789094,666.185348,-8886.707777,0.000000
4667.789418,444.123565,-8656.879127,-148.041188
4667.789743,370.102971,-8963.317327,0.000000
4667.790067,296.082377,-8427.050478,222.061783
4667.790392,666.185348,-8810.098227,-148.041188
4667.790716,962.267725,-8810.098227,-222.061783
4667.791041,814.226536,-8503.660028,-296.082377
4667.791365,814.226536,-9193.145976,592.164754
4667.791689,740.205942,-9039.926876,74.020594
4667.792014,962.267725,-8580.269578,-148.041188
4667.792338,592.164754,-8580.269578,0.000000
4667.792663,666.185348,-8503.660028,0.000000
4667.792987,370.102971,-8580.269578,0.000000
4667.793312,222.061783,-8580.269578,-148.041188
4667.793636,444.123565,-8427.050478,0.000000
4667.793961,518.144159,-8733.488677,-148.041188
4667.794285,666.185348,-8580.269578,-518.144159
4667.794610,814.226536,-8427.050478,-222.061783
4667.794934,370.102971,-8503.660028,-148.041188
4667.795258,592.164754,-8350.440928,74.020594
4667.795583,592.164754,-8733.488677,222.061783
4667.795907,518.144159,-8427.050478,0.000000
4667.796232,296.082377,-8503.660028,74.020594
4667.796556,444.123565,-8273.831378,-222.061783
4667.796881,370.102971,-8503.660028,0.000000
4667.797205,666.185348,-8503.660028,0.000000
4667.797530,518.144159,-8733.488677,-296.082377
4667.797854,666.185348,-8580.269578,148.041188
4667.798179,222.061783,-8197.221829,0.000000
4667.798503,296.082377,-8120.612279,148.041188
4667.798827,222.061783,-8273.831378,-222.061783
4667.799152,296.082377,-8427.050478,-222.061783
4667.799476,370.102971,-8656.879127,0.000000
4667.799801,0.000000,-8963.317327,296.082377
4667.800125,0.000000,-8427.050478,74.020594
4667.800450,148.041188,-8886.707777,0.000000
4667.800774,-296.082377,-8733.488677,-148.041188
4667.801099,0.000000,-9039.926876,-222.061783
4667.801423,444.123565,-7737.564530,-296.082377
4667.801748,0.000000,-8503.660028,0.000000
4667.802072,296.082377,-8656.879127,0.000000
4667.802396,148.041188,-8273.831378,0.000000
4667.802721,666.185348,-9193.145976,0.000000
4667.803045,518.144159,-8503.660028,-222.061783
4667.803370,444.123565,-8580.269578,0.000000
4667.803694,592.164754,-8427.050478,0.000000
4667.804019,518.144159,-8273.831378,0.000000
4667.804343,740.205942,-9039.926876,222.061783
4667.804668,370.102971,-8273.831378,0.000000
4667.804992,370.102971,-8273.831378,148.041188
4667.805317,222.061783,-8273.831378,-222.061783
4667.805641,444.123565,-8197.221829,-518.144159
4667.805965,666.185348,-8580.269578,-222.061783
4667.806290,296.082377,-8427.050478,222.061783
4667.806614,0.000000,-8580.269578,74.020594
4667.806939,444.123565,-8120.612279,0.000000
4667.807263,296.082377,-8427.050478,0.000000
4667.807588,222.061783,-8503.660028,0.000000
4667.807912,74.020594,-8656.879127,-370.102971
4667.808237,592.164754,-8350.440928,-222.061783
4667.808561,740.205942,-8197.221829,-370.102971
4667.808885,74.020594,-8656.879127,-370.102971
4667.809210,296.082377,-8503.660028,-74.020594
4667.809534,666.185348,-8197.221829,-592.164754
4667.809859,1110.308913,-8197.221829,0.000000
4667.810183,962.267725,-8273.831378,0.000000
4667.810508,740.205942,-8810.098227,0.000000
4667.810832,814.226536,-8656.879127,0.000000
4667.811157,1036.288319,-8810.098227,-222.061783
4667.811481,592.164754,-8886.707777,-666.185348
4667.811806,148.041188,-8197.221829,-222.061783
4667.812130,222.061783,-8503.660028,-444.123565
4667.812454,0.000000,-9039.926876,-296.082377
4667.812779,444.123565,-8656.879127,-296.082377
4667.813103,148.041188,-8733.488677,74.020594
4667.813428,0.000000,-8733.488677,74.020594
4667.813752,148.041188,-8810.098227,-148.041188
4667.814077,666.185348,-8886.707777,0.000000
4667.814401,0.000000,-8656.879127,0.000000
4667.814726,222.061783,-8733.488677,0.000000
4667.815050,148.041188,-8733.488677,0.000000
4667.815375,0.000000,-8503.660028,0.000000
4667.815699,148.041188,-8503.660028,-148.041188
4667.816023,0.000000,-8810.098227,-296.082377
4667.816348,222.061783,-8503.660028,0.000000
4667.816672,74.020594,-8350.440928,0.000000
4667.816997,814.226536,-8656.879127,-222.061783
4667.817321,148.041188,-8197.221829,-370.102971
4667.817646,296.082377,-9039.926876,74.020594
4667.817970,222.061783,-8197.221829,-296.082377
4667.818295,518.144159,-9422.974625,-888.247130
4667.818619,518.144159,-8273.831378,-814.226536
4667.818944,444.123565,-8273.831378,-222.061783
4667.819268,148.041188,-8886.707777,-444.123565
4667.819592,0.000000,-8503.660028,-592.164754
4667.819917,74.020594,-8963.317327,-222.061783
4667.820241,74.020594,-8810.098227,-518.144159
4667.820566,370.102971,-8503.660028,-518.144159
4667.820890,444.123565,-8503.660028,0.000000
4667.821215,222.061783,-8580.269578,0.000000
4667.821539,740.205942,-8963.317327,74.020594
4667.821864,370.102971,-8350.440928,0.000000
4667.822188,370.102971,-8503.660028,0.000000
4667.822513,444.123565,-9499.584175,0.000000
4667.822837,0.000000,-8273.831378,-222.061783
4667.823161,666.185348,-8656.879127,0.000000
4667.823486,74.020594,-8273.831378,-518.144159
4667.823810,444.123565,-8580.269578,-74.020594
4667.824135,148.041188,-7890.783629,-222.061783
4667.824459,222.061783,-8656.879127,-518.144159
4667.824784,444.123565,-8273.831378,-444.123565
4667.825108,518.144159,-8120.612279,-592.164754
4667.825433,518.144159,-8656.879127,0.000000
4667.825757,222.061783,-7967.393179,-444.123565
4667.826081,444.123565,-8886.707777,74.020594
4667.826406,296.082377,-8427.050478,-444.123565
4667.826730,666.185348,-8656.879127,-1110.308913
4667.827055,814.226536,-8350.440928,-1184.329507
4667.827379,740.205942,-8503.660028,-370.102971
4667.827704,666.185348,-8733.488677,-740.205942
4667.828028,888.247130,-8503.660028,-444.123565
4667.828353,370.102971,-8503.660028,-222.061783
4667.828677,592.164754,-8503.660028,-444.123565
4667.829002,740.205942,-8503.660028,-888.247130
4667.829326,592.164754,-8273.831378,-518.144159
4667.829650,666.185348,-8733.488677,148.041188
4667.829975,592.164754,-8503.660028,-666.185348
4667.830299,370.102971,-8580.269578,-592.164754
4667.830624,370.102971,-8733.488677,-444.123565
4667.830948,74.020594,-8733.488677,-444.123565
4667.831273,0.000000,-8273.831378,-1184.329507
4667.831597,296.082377,-8503.660028,-296.082377
4667.831922,74.020594,-8503.660028,-296.082377
4667.832246,222.061783,-9039.926876,-518.144159
4667.832571,296.082377,-8197.221829,-222.061783
4667.832895,592.164754,-8733.488677,74.020594
4667.833219,370.102971,-8656.879127,-518.144159
4667.833544,444.123565,-8580.269578,-518.144159
4667.833868,814.226536,-8656.879127,-296.082377
4667.834193,444.123565,-8580.269578,-148.041188
4667.834517,592.164754,-8656.879127,-370.102971
4667.834842,222.061783,-8197.221829,-296.082377
4667.835166,74.020594,-8656.879127,-296.082377
4667.835491,444.123565,-8580.269578,-740.205942
4667.835815,666.185348,-8580.269578,-444.123565
4667.836140,814.226536,-8580.269578,0.000000
4667.836464,518.144159,-8580.269578,-518.144159
4667.836788,0.000000,-8810.098227,296.082377
4667.837113,296.082377,-8427.050478,-296.082377
4667.837437,74.020594,-8810.098227,-370.102971
4667.837762,148.041188,-8656.879127,-592.164754
4667.838086,222.061783,-8503.660028,-222.061783
4667.838411,296.082377,-8810.098227,-296.082377
4667.838735,518.144159,-8656.879127,-592.164754
4667.839060,296.082377,-8733.488677,0.000000
4667.839384,518.144159,-8503.660028,0.000000
4667.839709,518.144159,-8656.879127,-148.041188
4667.840033,444.123565,-8656.879127,-370.102971
4667.840357,592.164754,-8273.831378,-296.082377
4667.840682,518.144159,-8580.269578,0.000000
4667.841006,740.205942,-9116.536426,0.000000
4667.841331,592.164754,-8427.050478,74.020594
4667.841655,444.123565,-8656.879127,-296.082377
4667.841980,296.082377,-8810.098227,-592.164754
4667.842304,370.102971,-8503.660028,-370.102971
4667.842629,740.205942,-8733.488677,-518.144159
4667.842953,740.205942,-8350.440928,-296.082377
4667.843277,444.123565,-8427.050478,-370.102971
4667.843602,444.123565,-8656.879127,-444.123565
4667.843926,444.123565,-8580.269578,-740.205942
4667.844251,814.226536,-8656.879127,-592.164754
4667.844575,666.185348,-8427.050478,-740.205942
4667.844900,444.123565,-8656.879127,-444.123565
4667.845224,370.102971,-8044.002729,0.000000
4667.845549,222.061783,-8503.660028,-666.185348
4667.845873,666.185348,-8733.488677,-518.144159
4667.846198,74.020594,-8580.269578,-1110.308913
4667.846522,666.185348,-8044.002729,-222.061783
4667.846846,370.102971,-8044.002729,-888.247130
4667.847171,740.205942,-8963.317327,-518.144159
4667.847495,518.144159,-8273.831378,-962.267725
4667.847820,740.205942,-8886.707777,-518.144159
4667.848144,592.164754,-8656.879127,-592.164754
4667.848469,592.164754,-8886.707777,-666.185348
4667.848793,666.185348,-8963.317327,-518.144159
4667.849118,222.061783,-8656.879127,-444.123565
4667.849442,888.247130,-9346.365076,-962.267725
4667.849767,666.185348,-8733.488677,-592.164754
4667.850091,592.164754,-8580.269578,-518.144159
4667.850415,444.123565,-9116.536426,-666.185348
4667.850740,444.123565,-8810.098227,-962.267725
4667.851064,518.144159,-8580.269578,-666.185348
4667.851389,370.102971,-8656.879127,-444.123565
4667.851713,74.020594,-8427.050478,-296.082377
4667.852038,296.082377,-8733.488677,-222.061783
4667.852362,370.102971,-8733.488677,-296.082377
4667.852687,74.020594,-8810.098227,-666.185348
4667.853011,148.041188,-8580.269578,-1036.288319
4667.853336,0.000000,-8427.050478,-666.185348
4667.853660,592.164754,-8120.612279,-74.020594
4667.853984,148.041188,-8886.707777,-740.205942
4667.854309,74.020594,-8580.269578,-740.205942
4667.854633,444.123565,-8503.660028,-888.247130
4667.854958,444.123565,-8733.488677,-814.226536
4667.855282,444.123565,-8503.660028,-370.102971
4667.855607,814.226536,-8810.098227,-592.164754
4667.855931,814.226536,-8656.879127,-296.082377
4667.856256,518.144159,-8733.488677,-296.082377
4667.856580,0.000000,-8656.879127,296.082377
4667.856905,518.144159,-8273.831378,-592.164754
4667.857229,370.102971,-8503.660028,-370.102971
4667.857553,0.000000,-8427.050478,-370.102971
4667.857878,592.164754,-7967.393179,-296.082377
4667.858202,518.144159,-8580.269578,-296.082377
4667.858527,518.144159,-8656.879127,-148.041188
4667.858851,518.144159,-8427.050478,-222.061783
4667.859176,444.123565,-8503.660028,-370.102971
4667.859500,592.164754,-8427.050478,-222.061783
4667.859825,740.205942,-8733.488677,-370.102971
4667.860149,518.144159,-8580.269578,-222.061783
4667.860473,666.185348,-8273.831378,0.000000
4667.860798,0.000000,-9269.755526,296.082377
4667.861122,444.123565,-8580.269578,-370.102971
4667.861447,666.185348,-8427.050478,-370.102971
4667.861771,518.144159,-8273.831378,-666.185348
4667.862096,740.205942,-8886.707777,-148.041188
4667.862420,666.185348,-8120.612279,-666.185348
4667.862745,814.226536,-8656.879127,-296.082377
4667.863069,444.123565,-8427.050478,-222.061783
4667.863394,444.123565,-8656.879127,-444.123565
4667.863718,814.226536,-8350.440928,-370.102971
4667.864042,814.226536,-8656.879127,-370.102971
4667.864367,444.123565,-8810.098227,-666.185348
4667.864691,296.082377,-8503.660028,-370.102971
4667.865016,518.144159,-8350.440928,-518.144159
4667.865340,222.061783,-8810.098227,-370.102971
4667.865665,148.041188,-8656.879127,-1110.308913
4667.865989,296.082377,-9039.926876,-666.185348
4667.866314,444.123565,-8427.050478,-444.123565
4667.866638,148.041188,-8580.269578,-592.164754
4667.866963,370.102971,-8656.879127,-666.185348
4667.867287,518.144159,-8580.269578,0.000000
4667.867611,222.061783,-8810.098227,-592.164754
4667.867936,-222.061783,-8503.660028,-1110.308913
4667.868260,74.020594,-8733.488677,-962.267725
4667.868585,0.000000,-8810.098227,-666.185348
4667.868909,444.123565,-8427.050478,-814.226536
4667.869234,222.061783,-8350.440928,-888.247130
4667.869558,222.061783,-8427.050478,-370.102971
4667.869883,0.000000,-8580.269578,-296.082377
4667.870207,148.041188,-8810.098227,-740.205942
4667.870532,592.164754,-9116.536426,-592.164754
4667.870856,518.144159,-8350.440928,-148.041188
4667.871180,222.061783,-8656.879127,-592.164754
4667.871505,74.020594,-8580.269578,-592.164754
4667.871829,296.082377,-8810.098227,0.000000
4667.872154,0.000000,-8273.831378,-666.185348
4667.872478,370.102971,-8810.098227,-518.144159
4667.872803,444.123565,-8503.660028,-592.164754
4667.873127,592.164754,-8733.488677,-444.123565
4667.873452,592.164754,-9269.755526,-666.185348
4667.873776,888.247130,-8503.660028,-370.102971
4667.874101,888.247130,-8503.660028,0.000000
4667.874425,740.205942,-8120.612279,0.000000
4667.874749,444.123565,-8580.269578,-370.102971
4667.875074,962.267725,-8580.269578,-222.061783
4667.875398,444.123565,-8733.488677,-370.102971
4667.875723,296.082377,-8886.707777,0.000000
4667.876047,444.123565,-8350.440928,-148.041188
4667.876372,1036.288319,-8197.221829,-740.205942
4667.876696,592.164754,-8503.660028,-296.082377
4667.877021,518.144159,-8044.002729,-666.185348
4667.877345,814.226536,-8656.879127,-148.041188
4667.877669,592.164754,-7967.393179,0.000000
4667.877994,518.144159,-8580.269578,0.000000
4667.878318,222.061783,-8580.269578,0.000000
4667.878642,222.061783,-8656.879127,-296.082377
4667.878967,592.164754,-8427.050478,-296.082377
4667.879291,518.144159,-8810.098227,-222.061783
4667.879615,370.102971,-8886.707777,-296.082377
4667.879940,518.144159,-8503.660028,-296.082377
4667.880264,222.061783,-8580.269578,-296.082377
4667.880588,666.185348,-8580.269578,-814.226536
4667.880912,888.247130,-8503.660028,-666.185348
4667.881237,518.144159,-7890.783629,-222.061783
4667.881561,740.205942,-8810.098227,0.000000
4667.881885,296.082377,-9116.536426,-444.123565
4667.882210,222.061783,-8656.879127,0.000000
4667.882534,222.061783,-8733.488677,-518.144159
4667.882858,296.082377,-9039.926876,-296.082377
4667.883182,222.061783,-8656.879127,-370.102971
4667.883507,814.226536,-8733.488677,-740.205942
4667.883831,518.144159,-8656.879127,-592.164754
4667.884155,444.123565,-8810.098227,-518.144159
4667.884479,666.185348,-8733.488677,-592.164754
4667.884804,1036.288319,-8810.098227,-148.041188
4667.885128,518.144159,-8733.488677,-666.185348
4667.885452,296.082377,-8656.879127,-666.185348
4667.885777,666.185348,-8580.269578,-444.123565
4667.886101,222.061783,-8656.879127,296.082377
4667.886425,518.144159,-8886.707777,-444.123565
4667.886749,296.082377,-8886.707777,-222.061783
4667.887074,296.082377,-8503.660028,-296.082377
4667.887398,370.102971,-8580.269578,-666.185348
4667.887722,518.144159,-8427.050478,-740.205942
4667.888047,814.226536,-8503.660028,-370.102971
4667.888371,592.164754,-8427.050478,-370.102971
4667.888695,666.185348,-8810.098227,-518.144159
4667.889019,888.247130,-7967.393179,-296.082377
4667.889344,444.123565,-8656.879127,-370.102971
4667.889668,222.061783,-8580.269578,-814.226536
4667.889992,74.020594,-8733.488677,-296.082377
4667.890316,74.020594,-8733.488677,-444.123565
4667.890641,444.123565,-8810.098227,-370.102971
4667.890965,296.082377,-8656.879127,0.000000
4667.891289,518.144159,-8810.098227,-592.164754
4667.891614,814.226536,-8350.440928,-444.123565
4667.891938,814.226536,-8350.440928,-370.102971
4667.892262,1036.288319,-8503.660028,-370.102971
4667.892586,1184.329507,-8197.221829,-222.061783
4667.892911,888.247130,-8503.660028,-296.082377
4667.893235,888.247130,-8963.317327,-370.102971
4667.893559,370.102971,-8427.050478,-148.041188
4667.893884,222.061783,-8656.879127,-74.020594
4667.894208,296.082377,-8197.221829,-518.144159
4667.894532,444.123565,-8580.269578,-296.082377
4667.894856,296.082377,-8427.050478,0.000000
4667.895181,518.144159,-8044.002729,0.000000
4667.895505,370.102971,-8580.269578,0.000000
4667.895829,148.041188,-8273.831378,-370.102971
4667.896153,740.205942,-8197.221829,-296.082377
4667.896478,592.164754,-8197.221829,-222.061783
4667.896802,296.082377,-8503.660028,0.000000
4667.897126,370.102971,-8503.660028,0.000000
4667.897451,592.164754,-8044.002729,0.000000
4667.897775,296.082377,-8350.440928,0.000000
4667.898099,222.061783,-8886.707777,-222.061783
4667.898423,444.123565,-8580.269578,-444.123565
4667.898748,814.226536,-8503.660028,0.000000
4667.899072,444.123565,-8503.660028,-518.144159
4667.899396,666.185348,-8656.879127,0.000000
4667.899720,518.144159,-8503.660028,-222.061783
4667.900045,370.102971,-9193.145976,0.000000
4667.900369,74.020594,-8503.660028,-740.205942
4667.900693,222.061783,-8886.707777,-74.020594
4667.901018,370.102971,-8733.488677,-222.061783
4667.901342,148.041188,-8810.098227,-296.082377
4667.901666,0.000000,-8503.660028,74.020594
4667.901990,-148.041188,-8273.831378,0.000000
4667.902315,0.000000,-9116.536426,0.000000
4667.902639,74.020594,-8963.317327,-296.082377
4667.902963,74.020594,-8810.098227,-518.144159
4667.903288,592.164754,-9116.536426,-592.164754
4667.903612,222.061783,-8810.098227,-148.041188
4667.903936,370.102971,-8963.317327,222.061783
4667.904260,74.020594,-8580.269578,0.000000
4667.904585,518.144159,-9576.193725,-74.020594
4667.904909,222.061783,-8656.879127,-296.082377
4667.905233,444.123565,-8580.269578,-222.061783
4667.905557,370.102971,-8427.050478,74.020594
4667.905882,222.061783,-8273.831378,-222.061783
4667.906206,74.020594,-8503.660028,0.000000
4667.906530,444.123565,-8503.660028,-222.061783
4667.906855,222.061783,-8580.269578,-296.082377
4667.907179,444.123565,-8580.269578,0.000000
4667.907503,296.082377,-8197.221829,148.041188
4667.907827,666.185348,-9039.926876,74.020594
4667.908152,444.123565,-8120.612279,0.000000
4667.908476,592.164754,-8733.488677,0.000000
4667.908800,370.102971,-8503.660028,-296.082377
4667.909125,370.102971,-8197.221829,0.000000
4667.909449,296.082377,-8350.440928,-518.144159
4667.909773,296.082377,-8427.050478,148.041188
4667.910097,592.164754,-8733.488677,0.000000
4667.910422,74.020594,-8350.440928,0.000000
4667.910746,370.102971,-8580.269578,148.041188
4667.911070,370.102971,-8427.050478,148.041188
4667.911394,740.205942,-8273.831378,-148.041188
4667.911719,592.164754,-8044.002729,148.041188
4667.912043,888.247130,-8197.221829,0.000000
4667.912367,592.164754,-8963.317327,148.041188
4667.912692,296.082377,-8197.221829,0.000000
4667.913016,148.041188,-8810.098227,-740.205942
4667.913340,222.061783,-8273.831378,-444.123565
4667.913664,222.061783,-8580.269578,-518.144159
4667.913989,814.226536,-8733.488677,0.000000
4667.914313,518.144159,-8580.269578,0.000000
4667.914637,296.082377,-8810.098227,296.082377
4667.914962,740.205942,-8580.269578,0.000000
4667.915286,444.123565,-8656.879127,-296.082377
4667.915610,888.247130,-8886.707777,0.000000
4667.915934,148.041188,-8427.050478,296.082377
4667.916259,370.102971,-9039.926876,0.000000
4667.916583,444.123565,-8656.879127,-592.164754
4667.916907,222.061783,-8503.660028,74.020594
4667.917231,0.000000,-8656.879127,-148.041188
4667.917556,-74.020594,-8427.050478,-518.144159
4667.917880,0.000000,-8733.488677,-370.102971
4667.918204,148.041188,-8273.831378,-666.185348
4667.918529,0.000000,-8503.660028,-592.164754
4667.918853,0.000000,-8427.050478,-444.123565
4667.919177,222.061783,-8427.050478,-148.041188
4667.919501,296.082377,-8503.660028,-148.041188
4667.919826,148.041188,-8810.098227,-888.247130
4667.920150,-296.082377,-8503.660028,-740.205942
4667.920474,296.082377,-8503.660028,-592.164754
4667.920799,370.102971,-8810.098227,-592.164754
4667.921123,222.061783,-9039.926876,-222.061783
4667.921447,370.102971,-8580.269578,0.000000
4667.921771,370.102971,-8810.098227,-296.082377
4667.922096,296.082377,-8580.269578,-370.102971
4667.922420,666.185348,-8350.440928,-592.164754
4667.922744,962.267725,-8656.879127,-148.041188
4667.923068,666.185348,-8427.050478,-518.144159
4667.923393,518.144159,-8886.707777,-444.123565
4667.923717,444.123565,-8656.879127,-370.102971
4667.924041,370.102971,-8963.317327,-444.123565
4667.924366,148.041188,-9193.145976,-444.123565
4667.924690,74.020594,-8733.488677,0.000000
4667.925014,296.082377,-8656.879127,-592.164754
4667.925338,740.205942,-8963.317327,-148.041188
4667.925663,370.102971,-8503.660028,-518.144159
4667.925987,740.205942,-9116.536426,74.020594
4667.926311,888.247130,-8273.831378,-444.123565
4667.926635,740.205942,-8503.660028,-370.102971
4667.926960,888.247130,-8427.050478,-370.102971
4667.927284,592.164754,-8886.707777,222.061783
4667.927608,962.267725,-8733.488677,0.000000
4667.927933,518.144159,-8273.831378,0.000000
4667.928257,666.185348,-8580.269578,-222.061783
4667.928581,370.102971,-8733.488677,370.102971
4667.928905,444.123565,-8427.050478,-370.102971
4667.929230,814.226536,-8503.660028,-148.041188
4667.929554,740.205942,-8503.660028,222.061783
4667.929878,444.123565,-8427.050478,74.020594
4667.930203,370.102971,-8580.269578,0.000000
4667.930527,518.144159,-8427.050478,0.000000
4667.930851,814.226536,-8810.098227,-370.102971
4667.931175,518.144159,-8503.660028,-518.144159
4667.931500,74.020594,-8350.440928,296.082377
4667.931824,74.020594,-8427.050478,0.000000
4667.932148,222.061783,-8580.269578,0.000000
4667.932472,74.020594,-8503.660028,-296.082377
4667.932797,222.061783,-9039.926876,-222.061783
4667.933121,592.164754,-8120.612279,-222.061783
4667.933445,444.123565,-8580.269578,-296.082377
4667.933770,222.061783,-8427.050478,-592.164754
4667.934094,592.164754,-8810.098227,0.000000
4667.934418,370.102971,-8810.098227,-444.123565
4667.934742,0.000000,-8733.488677,-296.082377
4667.935067,-370.102971,-8810.098227,-222.061783
4667.935391,-296.082377,-8656.879127,-666.185348
4667.935715,814.226536,-8503.660028,-74.020594
4667.936040,0.000000,-8503.660028,-222.061783
4667.936364,592.164754,-8503.660028,-444.123565
4667.936688,370.102971,-8427.050478,222.061783
4667.937012,370.102971,-9039.926876,-370.102971
4667.937337,370.102971,-8733.488677,-444.123565
4667.937661,592.164754,-8580.269578,-222.061783
4667.937985,444.123565,-8886.707777,-296.082377
4667.938309,666.185348,-8810.098227,-148.041188
4667.938634,74.020594,-8273.831378,0.000000
4667.938958,296.082377,-8886.707777,-148.041188
4667.939282,296.082377,-8427.050478,-296.082377
4667.939607,518.144159,-8886.707777,-296.082377
4667.939931,1258.350101,-8044.002729,-222.061783
4667.940255,962.267725,-8197.221829,-148.041188
4667.940579,814.226536,-8963.317327,-592.164754
4667.940904,370.102971,-8503.660028,-148.041188
4667.941228,740.205942,-8810.098227,-444.123565
4667.941552,296.082377,-8733.488677,-740.205942
4667.941877,370.102971,-8427.050478,-444.123565
4667.942201,370.102971,-8580.269578,-222.061783
4667.942525,148.041188,-8503.660028,-296.082377
4667.942849,888.247130,-8503.660028,-370.102971
4667.943174,370.102971,-8810.098227,-518.144159
4667.943498,740.205942,-8427.050478,-518.144159
4667.943822,666.185348,-8044.002729,-444.123565
4667.944146,962.267725,-8656.879127,-296.082377
4667.944471,962.267725,-8273.831378,-592.164754
4667.944795,814.226536,-8656.879127,-592.164754
4667.945119,518.144159,-8580.269578,-592.164754
4667.945444,444.123565,-8503.660028,-370.102971
4667.945768,592.164754,-8656.879127,-592.164754
4667.946092,962.267725,-8427.050478,-962.267725
4667.946416,888.247130,-8273.831378,-444.123565
4667.946741,740.205942,-8656.879127,-666.185348
4667.947065,1332.370696,-8120.612279,-592.164754
4667.947389,666.185348,-8580.269578,-444.123565
4667.947713,518.144159,-8580.269578,-1036.288319
4667.948038,592.164754,-8197.221829,-888.247130
4667.948362,222.061783,-8350.440928,-962.267725
4667.948686,444.123565,-8886.707777,-592.164754
4667.949011,74.020594,-8580.269578,-814.226536
4667.949335,222.061783,-9039.926876,-518.144159
4667.949659,0.000000,-8427.050478,-666.185348
4667.949983,740.205942,-9116.536426,-666.185348
4667.950308,518.144159,-8656.879127,-814.226536
4667.950632,592.164754,-8197.221829,-444.123565
4667.950956,444.123565,-8733.488677,-666.185348
4667.951281,370.102971,-9652.803275,-1110.308913
4667.951605,592.164754,-8733.488677,-740.205942
4667.951929,222.061783,-8580.269578,-666.185348
4667.952253,74.020594,-8886.707777,-370.102971
4667.952578,148.041188,-9269.755526,-518.144159
4667.952902,370.102971,-8886.707777,-444.123565
4667.953226,222.061783,-8350.440928,-666.185348
4667.953550,296.082377,-9116.536426,-222.061783
4667.953875,740.205942,-8503.660028,-296.082377
4667.954199,444.123565,-8886.707777,-666.185348
4667.954523,370.102971,-8733.488677,-444.123565
4667.954848,370.102971,-8273.831378,-518.144159
4667.955172,222.061783,-8656.879127,-592.164754
4667.955496,296.082377,-9499.584175,0.000000
4667.955820,222.061783,-8886.707777,0.000000
4667.956145,74.020594,-8886.707777,-370.102971
4667.956469,222.061783,-8503.660028,-370.102971
4667.956793,592.164754,-8886.707777,-518.144159
4667.957118,814.226536,-8810.098227,-592.164754
4667.957442,518.144159,-8120.612279,-148.041188
4667.957766,444.123565,-8503.660028,-148.041188
4667.958090,296.082377,-8350.440928,-222.061783
4667.958415,222.061783,-8350.440928,0.000000
4667.958739,444.123565,-8273.831378,-592.164754
4667.959063,592.164754,-8273.831378,-444.123565
4667.959387,666.185348,-8427.050478,-296.082377
4667.959712,370.102971,-8273.831378,-740.205942
4667.960036,814.226536,-8427.050478,0.000000
4667.960360,592.164754,-8350.440928,-518.144159
4667.960685,592.164754,-8733.488677,-148.041188
4667.961009,444.123565,-8273.831378,-148.041188
4667.961333,296.082377,-8503.660028,-666.185348
4667.961657,592.164754,-8733.488677,0.000000
4667.961982,814.226536,-8350.440928,-444.123565
4667.962306,518.144159,-8886.707777,0.000000
4667.962630,444.123565,-8886.707777,148.041188
4667.962955,296.082377,-8503.660028,74.020594
4667.963279,296.082377,-8656.879127,-222.061783
4667.963603,296.082377,-8427.050478,-370.102971
4667.963927,296.082377,-8580.269578,0.000000
4667.964252,444.123565,-8503.660028,148.041188
4667.964576,222.061783,-8427.050478,-222.061783
4667.964900,222.061783,-8886.707777,-296.082377
4667.965224,222.061783,-8350.440928,-592.164754
4667.965549,518.144159,-8427.050478,-666.185348
4667.965873,370.102971,-8656.879127,-296.082377
4667.966197,296.082377,-8350.440928,-444.123565
4667.966522,296.082377,-9039.926876,-222.061783
4667.966846,-296.082377,-8120.612279,-370.102971
4667.967170,148.041188,-8580.269578,-592.164754
4667.967494,222.061783,-8580.269578,-666.185348
4667.967819,370.102971,-8656.879127,-814.226536
4667.968143,370.102971,-8427.050478,-518.144159
4667.968467,296.082377,-8273.831378,-518.144159
4667.968791,518.144159,-8656.879127,-444.123565
4667.969116,370.102971,-8733.488677,-518.144159
4667.969440,370.102971,-8580.269578,-444.123565
4667.969764,666.185348,-8886.707777,-740.205942
4667.970089,370.102971,-8810.098227,-592.164754
4667.970413,444.123565,-8580.269578,-666.185348
4667.970737,740.205942,-8580.269578,-592.164754
4667.971061,592.164754,-9193.145976,-222.061783
4667.971386,370.102971,-8656.879127,-296.082377
4667.971710,148.041188,-8963.317327,-740.205942
4667.972034,370.102971,-9039.926876,-518.144159
4667.972359,296.082377,-9116.536426,-740.205942
4667.972683,296.082377,-8580.269578,-666.185348
4667.973007,666.185348,-8656.879127,-370.102971
4667.973331,518.144159,-8580.269578,-370.102971
4667.973656,222.061783,-8503.660028,-518.144159
4667.973980,74.020594,-7967.393179,-444.123565
4667.974304,518.144159,-8580.269578,-814.226536
4667.974628,814.226536,-8503.660028,-444.123565
4667.974953,518.144159,-8427.050478,-370.102971
4667.975277,296.082377,-8733.488677,74.020594
4667.975601,592.164754,-8427.050478,-518.144159
4667.975926,666.185348,-8427.050478,-962.267725
4667.976250,592.164754,-8733.488677,-592.164754
4667.976574,444.123565,-8120.612279,-296.082377
4667.976898,222.061783,-8656.879127,-296.082377
4667.977223,444.123565,-8503.660028,-518.144159
4667.977547,444.123565,-8503.660028,-666.185348
4667.977871,444.123565,-8580.269578,-518.144159
4667.978196,666.185348,-8197.221829,-296.082377
4667.978520,370.102971,-8503.660028,-666.185348
4667.978844,148.041188,-8503.660028,-518.144159
4667.979168,518.144159,-8503.660028,-518.144159
4667.979493,74.020594,-8810.098227,-370.102971
4667.979817,222.061783,-8427.050478,-444.123565
4667.980141,222.061783,-9039.926876,-296.082377
4667.980465,296.082377,-8733.488677,-666.185348
4667.980790,444.123565,-8503.660028,-592.164754
4667.981114,296.082377,-8656.879127,-296.082377
4667.981438,592.164754,-8733.488677,-296.082377
4667.981762,222.061783,-8656.879127,-370.102971
4667.982087,148.041188,-8733.488677,-296.082377
4667.982411,222.061783,-8580.269578,74.020594
4667.982735,370.102971,-8656.879127,-518.144159
4667.983059,666.185348,-8886.707777,-740.205942
4667.983384,666.185348,-8733.488677,-518.144159
4667.983708,370.102971,-9039.926876,0.000000
4667.984032,148.041188,-8886.707777,-222.061783
4667.984356,148.041188,-8503.660028,-370.102971
4667.984681,444.123565,-8810.098227,-518.144159
4667.985005,592.164754,-8963.317327,-370.102971
4667.985329,296.082377,-8580.269578,-444.123565
4667.985653,518.144159,-8733.488677,-444.123565
4667.985978,518.144159,-8580.269578,-296.082377
4667.986302,444.123565,-9039.926876,-592.164754
4667.986626,444.123565,-8733.488677,-518.144159
4667.986950,296.082377,-8580.269578,-222.061783
4667.987275,740.205942,-8580.269578,-518.144159
4667.987599,444.123565,-8503.660028,-148.041188
4667.987923,592.164754,-8580.269578,-296.082377
4667.988247,666.185348,-8656.879127,-444.123565
4667.988572,592.164754,-8427.050478,-296.082377
4667.988896,518.144159,-8273.831378,-518.144159
4667.989220,0.000000,-8810.098227,-518.144159
4667.989545,666.185348,-8503.660028,-296.082377
4667.989869,222.061783,-8733.488677,-296.082377
4667.990193,592.164754,-8580.269578,-148.041188
4667.990517,518.144159,-8503.660028,0.000000
4667.990842,370.102971,-9039.926876,0.000000
4667.991166,666.185348,-8273.831378,-222.061783
4667.991490,962.267725,-8427.050478,-518.144159
4667.991814,1258.350101,-8427.050478,-370.102971
4667.992139,666.185348,-8197.221829,-148.041188
4667.992463,592.164754,-8963.317327,-148.041188
4667.992787,518.144159,-8350.440928,-370.102971
4667.993111,518.144159,-8656.879127,-296.082377
4667.993436,444.123565,-8733.488677,-592.164754
4667.993760,148.041188,-8197.221829,0.000000
4667.994084,370.102971,-8580.269578,-518.144159
4667.994408,444.123565,-8580.269578,-222.061783
4667.994733,370.102971,-8656.879127,-296.082377
4667.995057,444.123565,-8656.879127,74.020594
4667.995381,444.123565,-8886.707777,-518.144159
4667.995705,370.102971,-8503.660028,-444.123565
4667.996030,296.082377,-8656.879127,-370.102971
4667.996354,222.061783,-8656.879127,-370.102971
4667.996678,0.000000,-8427.050478,-148.041188
4667.997002,-222.061783,-8810.098227,-148.041188
4667.997327,0.000000,-8427.050478,-518.144159
4667.997651,0.000000,-8656.879127,-592.164754
4667.997975,296.082377,-8656.879127,-444.123565
4667.998299,296.082377,-8273.831378,-148.041188
4667.998624,222.061783,-8733.488677,-888.247130
4667.998948,370.102971,-8273.831378,-222.061783
4667.999272,222.061783,-8503.660028,-296.082377
4667.999596,148.041188,-9039.926876,-518.144159
4667.999921,518.144159,-8427.050478,-666.185348
4668.000245,740.205942,-8656.879127,-296.082377
4668.000569,444.123565,-8273.831378,-222.061783
4668.000893,888.247130,-8656.879127,-296.082377
4668.001218,0.000000,-8656.879127,-370.102971
4668.001542,444.123565,-8580.269578,0.000000
4668.001866,222.061783,-8350.440928,-518.144159
4668.002190,888.247130,-9193.145976,-444.123565
4668.002515,666.185348,-7967.393179,-148.041188
4668.002839,518.144159,-8656.879127,0.000000
4668.003163,518.144159,-8273.831378,-148.041188
4668.003488,444.123565,-8580.269578,0.000000
4668.003812,518.144159,-8810.098227,-222.061783
4668.004136,296.082377,-8580.269578,-296.082377
4668.004460,222.061783,-8656.879127,-148.041188
4668.004785,222.061783,-8427.050478,-148.041188
4668.005109,370.102971,-8656.879127,-222.061783
4668.005433,370.102971,-8656.879127,-222.061783
4668.005757,222.061783,-8886.707777,-148.041188
4668.006082,444.123565,-8273.831378,0.000000
4668.006406,666.185348,-8503.660028,0.000000
4668.006730,1110.308913,-8427.050478,-370.102971
4668.007054,1110.308913,-8733.488677,0.000000
4668.007379,1036.288319,-8656.879127,-148.041188
4668.007703,518.144159,-8810.098227,74.020594
4668.008027,740.205942,-8963.317327,0.000000
4668.008351,296.082377,-8503.660028,-370.102971
4668.008676,444.123565,-8963.317327,-148.041188
4668.009000,222.061783,-8656.879127,-518.144159
4668.009324,962.267725,-8963.317327,-222.061783
4668.009648,592.164754,-8580.269578,0.000000
4668.009973,518.144159,-8580.269578,-296.082377
4668.010297,518.144159,-8656.879127,-370.102971
4668.010621,1036.288319,-8733.488677,-444.123565
4668.010945,518.144159,-9039.926876,-296.082377
4668.011270,296.082377,-8810.098227,-370.102971
4668.011594,0.000000,-8886.707777,-370.102971
4668.011918,222.061783,-9193.145976,0.000000
4668.012242,-370.102971,-8886.707777,-592.164754
4668.012567,0.000000,-9039.926876,-518.144159
4668.012891,444.123565,-8580.269578,-296.082377
4668.013215,296.082377,-8656.879127,-666.185348
4668.013539,740.205942,-8503.660028,0.000000
4668.013864,518.144159,-8503.660028,-222.061783
4668.014188,296.082377,-8886.707777,0.000000
4668.014512,222.061783,-8656.879127,-370.102971
4668.014836,0.000000,-8044.002729,-148.041188
4668.015161,666.185348,-8427.050478,-296.082377
4668.015485,222.061783,-8427.050478,-592.164754
4668.015809,296.082377,-8580.269578,-296.082377
4668.016133,518.144159,-8350.440928,74.020594
4668.016458,296.082377,-8427.050478,0.000000
4668.016782,222.061783,-8427.050478,-296.082377
4668.017106,222.061783,-8427.050478,-518.144159
4668.017431,666.185348,-8580.269578,-74.020594
4668.017755,666.185348,-8656.879127,0.000000
4668.018079,296.082377,-8886.707777,0.000000
4668.018403,444.123565,-8503.660028,74.020594
4668.018728,296.082377,-8810.098227,0.000000
4668.019052,74.020594,-8810.098227,-296.082377
4668.019376,370.102971,-8656.879127,-370.102971
4668.019700,518.144159,-8197.221829,74.020594
4668.020025,666.185348,-8580.269578,-296.082377
4668.020349,296.082377,-8350.440928,-148.041188
4668.020673,74.020594,-8197.221829,-444.123565
4668.020997,592.164754,-8427.050478,-148.041188
4668.021322,222.061783,-8427.050478,-296.082377
4668.021646,444.123565,-8656.879127,-222.061783
4668.021970,444.123565,-8044.002729,-444.123565
4668.022294,296.082377,-8580.269578,-148.041188
4668.022619,222.061783,-8120.612279,0.000000
4668.022943,444.123565,-8810.098227,74.020594
4668.023267,592.164754,-8197.221829,-148.041188
4668.023591,592.164754,-8350.440928,-518.144159
4668.023916,370.102971,-8656.879127,-592.164754
4668.024240,444.123565,-8503.660028,-444.123565
4668.024564,666.185348,-8963.317327,-296.082377
4668.024888,592.164754,-8656.879127,-296.082377
4668.025213,222.061783,-8733.488677,-148.041188
4668.025537,370.102971,-8580.269578,-222.061783
4668.025861,148.041188,-8733.488677,-592.164754
4668.026185,518.144159,-9116.536426,-740.205942
4668.026510,592.164754,-8733.488677,-222.061783
4668.026834,444.123565,-8580.269578,-222.061783
4668.027158,592.164754,-8810.098227,-592.164754
4668.027482,296.082377,-8656.879127,-222.061783
4668.027807,444.123565,-8503.660028,-962.267725
4668.028131,814.226536,-8733.488677,-962.267725
4668.028455,148.041188,-8733.488677,-296.082377
4668.028779,592.164754,-8656.879127,-296.082377
4668.029104,222.061783,-8656.879127,296.082377
4668.029428,74.020594,-8580.269578,-444.123565
4668.029752,222.061783,-8810.098227,-296.082377
4668.030076,222.061783,-8656.879127,-666.185348
4668.030401,444.123565,-9116.536426,0.000000
4668.030725,296.082377,-8656.879127,0.000000
4668.031049,222.061783,-8733.488677,-296.082377
4668.031374,518.144159,-8810.098227,-370.102971
4668.031698,444.123565,-8580.269578,0.000000
4668.032022,222.061783,-8656.879127,74.020594
4668.032346,444.123565,-8733.488677,-222.061783
4668.032671,296.082377,-8197.221829,0.000000
4668.032995,370.102971,-8580.269578,0.000000
4668.033319,148.041188,-8427.050478,-370.102971
4668.033643,296.082377,-8733.488677,0.000000
4668.033968,222.061783,-8503.660028,0.000000
4668.034292,222.061783,-8580.269578,-518.144159
4668.034616,592.164754,-8503.660028,-370.102971
4668.034940,814.226536,-7967.393179,-666.185348
4668.035265,592.164754,-8733.488677,0.000000
4668.035589,518.144159,-8580.269578,-222.061783
4668.035913,370.102971,-8733.488677,-148.041188
4668.036237,370.102971,-8886.707777,-148.041188
4668.036562,370.102971,-8580.269578,-666.185348
4668.036886,814.226536,-8580.269578,-296.082377
4668.037210,518.144159,-8197.221829,0.000000
4668.037534,666.185348,-9269.755526,222.061783
4668.037859,74.020594,-8273.831378,0.000000
4668.038183,222.061783,-8273.831378,0.000000
4668.038507,370.102971,-8656.879127,0.000000
4668.038831,296.082377,-8810.098227,0.000000
4668.039156,518.144159,-8733.488677,-370.102971
4668.039480,518.144159,-8350.440928,-222.061783
4668.039804,666.185348,-8273.831378,0.000000
4668.040128,296.082377,-8963.317327,-296.082377
4668.040453,370.102971,-8733.488677,0.000000
4668.040777,370.102971,-8733.488677,-370.102971
4668.041101,370.102971,-8580.269578,-370.102971
4668.041425,592.164754,-8580.269578,-592.164754
4668.041750,148.041188,-8963.317327,0.000000
4668.042074,518.144159,-8656.879127,-296.082377
4668.042398,444.123565,-8580.269578,0.000000
4668.042722,444.123565,-8733.488677,-148.041188
4668.043047,222.061783,-8810.098227,-592.164754
4668.043371,592.164754,-8427.050478,-518.144159
4668.043695,370.102971,-8427.050478,-666.185348
4668.044019,592.164754,-8350.440928,-444.123565
4668.044344,222.061783,-8427.050478,-370.102971
4668.044668,148.041188,-8427.050478,-518.144159
4668.044992,518.144159,-8580.269578,-740.205942
4668.045317,592.164754,-8350.440928,-592.164754
4668.045641,518.144159,-8503.660028,-740.205942
4668.045965,518.144159,-8656.879127,0.000000
4668.046289,296.082377,-8810.098227,-444.123565
4668.046614,296.082377,-8733.488677,-370.102971
4668.046938,222.061783,-8580.269578,-518.144159
4668.047262,518.144159,-8886.707777,-592.164754
4668.047586,592.164754,-8350.440928,-592.164754
4668.047911,370.102971,-8886.707777,-518.144159
4668.048235,518.144159,-8733.488677,-444.123565
4668.048559,444.123565,-8580.269578,-592.164754
4668.048883,444.123565,-8427.050478,-296.082377
4668.049208,444.123565,-8810.098227,-296.082377
4668.049532,296.082377,-8427.050478,-740.205942
4668.049856,666.185348,-8810.098227,-222.061783
4668.050180,518.144159,-8427.050478,0.000000
4668.050505,444.123565,-9039.926876,-592.164754
4668.050829,370.102971,-8810.098227,-444.123565
4668.051153,518.144159,-8503.660028,0.000000
4668.051477,592.164754,-8580.269578,-666.185348
4668.051802,370.102971,-8580.269578,-444.123565
4668.052126,592.164754,-8656.879127,-444.123565
4668.052450,592.164754,-8963.317327,-296.082377
4668.052774,444.123565,-8580.269578,-370.102971
4668.053099,444.123565,-7967.393179,0.000000
4668.053423,222.061783,-8427.050478,-148.041188
4668.053747,222.061783,-8733.488677,-592.164754
4668.054071,370.102971,-8273.831378,-962.267725
4668.054396,740.205942,-8427.050478,148.041188
4668.054720,296.082377,-8350.440928,-222.061783
4668.055044,222.061783,-8580.269578,-148.041188
4668.055368,296.082377,-8503.660028,-148.041188
4668.055693,370.102971,-8427.050478,0.000000
4668.056017,296.082377,-8273.831378,-518.144159
4668.056341,222.061783,-8120.612279,0.000000
4668.056665,592.164754,-8580.269578,0.000000
4668.056990,518.144159,-8580.269578,-518.144159
4668.057314,666.185348,-8580.269578,-740.205942
4668.057638,296.082377,-8350.440928,-148.041188
4668.057962,518.144159,-8503.660028,-222.061783
4668.058287,296.082377,-8580.269578,-740.205942
4668.058611,296.082377,-8503.660028,-444.123565
4668.058935,148.041188,-7967.393179,0.000000
4668.059260,518.144159,-8963.317327,-518.144159
4668.059584,74.020594,-8580.269578,-518.144159
4668.059908,444.123565,-8503.660028,0.000000
4668.060232,444.123565,-8503.660028,-740.205942
4668.060557,444.123565,-8427.050478,-740.205942
4668.060881,962.267725,-8197.221829,-296.082377
4668.061205,444.123565,-8656.879127,-518.144159
4668.061529,814.226536,-8503.660028,0.000000
4668.061854,148.041188,-8656.879127,-296.082377
4668.062178,296.082377,-8580.269578,-444.123565
4668.062502,222.061783,-8733.488677,-518.144159
4668.062826,444.123565,-8656.879127,-592.164754
4668.063151,0.000000,-8810.098227,0.000000
4668.063475,148.041188,-8810.098227,-296.082377
4668.063799,0.000000,-8886.707777,0.000000
4668.064123,148.041188,-8580.269578,-222.061783
4668.064448,444.123565,-8733.488677,-666.185348
4668.064772,666.185348,-8810.098227,-148.041188
4668.065096,444.123565,-8580.269578,-518.144159
4668.065420,592.164754,-8810.098227,-370.102971
4668.065745,296.082377,-8044.002729,-444.123565
4668.066069,370.102971,-8656.879127,-518.144159
4668.066393,222.061783,-8733.488677,-296.082377
4668.066717,0.000000,-8656.879127,-740.205942
4668.067042,444.123565,-8733.488677,-518.144159
4668.067366,592.164754,-8427.050478,-962.267725
4668.067690,370.102971,-9116.536426,-592.164754
4668.068014,370.102971,-8350.440928,-740.205942
4668.068339,444.123565,-8427.050478,-296.082377
4668.068663,814.226536,-9269.755526,-666.185348
4668.068987,592.164754,-8733.488677,-888.247130
4668.069311,740.205942,-8427.050478,-888.247130
4668.069636,444.123565,-8427.050478,-518.144159
4668.069960,518.144159,-9039.926876,-518.144159
4668.070284,444.123565,-8273.831378,-370.102971
4668.070608,222.061783,-8197.221829,0.000000
4668.070933,592.164754,-8580.269578,-444.123565
4668.071257,222.061783,-8273.831378,-814.226536
4668.071581,888.247130,-8503.660028,-666.185348
4668.071906,592.164754,-8350.440928,0.000000
4668.072230,222.061783,-8503.660028,0.000000
4668.072554,148.041188,-8427.050478,0.000000
4668.072878,370.102971,-8733.488677,-148.041188
4668.073203,370.102971,-8580.269578,-518.144159
4668.073527,518.144159,-8273.831378,-370.102971
4668.073851,592.164754,-8350.440928,-148.041188
4668.074175,666.185348,-8503.660028,148.041188
4668.074500,444.123565,-7967.393179,-518.144159
4668.074824,518.144159,-8886.707777,74.020594
4668.075148,296.082377,-8273.831378,-518.144159
4668.075472,592.164754,-8580.269578,-222.061783
4668.075797,0.000000,-8886.707777,-518.144159
4668.076121,814.226536,-8810.098227,0.000000
4668.076445,740.205942,-8427.050478,-592.164754
4668.076769,666.185348,-8656.879127,-296.082377
4668.077094,666.185348,-8963.317327,0.000000
4668.077418,296.082377,-8580.269578,-518.144159
4668.077742,444.123565,-8503.660028,-592.164754
4668.078066,296.082377,-8427.050478,-740.205942
4668.078391,296.082377,-8810.098227,-518.144159
4668.078715,444.123565,-8656.879127,-296.082377
4668.079039,222.061783,-8733.488677,-592.164754
4668.079363,222.061783,-9193.145976,0.000000
4668.079688,0.000000,-8427.050478,-296.082377
4668.080012,222.061783,-8503.660028,-666.185348
4668.080336,444.123565,-8503.660028,-444.123565
4668.080661,370.102971,-8503.660028,-518.144159
4668.080985,444.123565,-8427.050478,-740.205942
4668.081309,444.123565,-8503.660028,-592.164754
4668.081633,296.082377,-8963.317327,-740.205942
4668.081958,370.102971,-8580.269578,-592.164754
4668.082282,444.123565,-8197.221829,-592.164754
4668.082606,444.123565,-8580.269578,-296.082377
4668.082931,296.082377,-8273.831378,-592.164754
4668.083255,296.082377,-8503.660028,-370.102971
4668.083579,222.061783,-8503.660028,-592.164754
4668.083904,148.041188,-8656.879127,-666.185348
4668.084228,740.205942,-7967.393179,-222.061783
4668.084552,518.144159,-8503.660028,-814.226536
4668.084876,666.185348,-8503.660028,-666.185348
4668.085201,666.185348,-8580.269578,-592.164754
4668.085525,592.164754,-9116.536426,-222.061783
4668.085849,296.082377,-8656.879127,-370.102971
4668.086174,518.144159,-8733.488677,-740.205942
4668.086498,518.144159,-8656.879127,-444.123565
4668.086822,740.205942,-8503.660028,-444.123565
4668.087146,888.247130,-8656.879127,0.000000
4668.087471,666.185348,-8733.488677,-370.102971
4668.087795,518.144159,-8580.269578,0.000000
4668.088119,222.061783,-8810.098227,-444.123565
4668.088444,148.041188,-8580.269578,-148.041188
4668.088768,444.123565,-8886.707777,-370.102971
4668.089092,592.164754,-8656.879127,0.000000
4668.089416,74.020594,-8656.879127,-148.041188
4668.089741,444.123565,-8810.098227,0.000000
4668.090065,296.082377,-8503.660028,-148.041188
4668.090389,370.102971,-8886.707777,-370.102971
4668.090714,444.123565,-8580.269578,-740.205942
4668.091038,296.082377,-8427.050478,0.000000
4668.091362,888.247130,-8656.879127,-296.082377
4668.091687,370.102971,-8427.050478,-222.061783
4668.092011,296.082377,-8580.269578,-296.082377
4668.092335,740.205942,-8733.488677,-222.061783
4668.092659,666.185348,-8044.002729,-222.061783
4668.092984,518.144159,-8656.879127,-592.164754
4668.093308,666.185348,-8273.831378,-518.144159
4668.093632,222.061783,-8810.098227,148.041188
4668.093957,74.020594,-8656.879127,-666.185348
4668.094281,518.144159,-8810.098227,0.000000
4668.094605,222.061783,-8197.221829,-222.061783
4668.094929,74.020594,-8656.879127,-592.164754
4668.095254,592.164754,-8197.221829,-518.144159
4668.095578,444.123565,-8427.050478,-296.082377
4668.095902,592.164754,-8580.269578,-740.205942
4668.096227,222.061783,-8503.660028,-592.164754
4668.096551,222.061783,-8733.488677,-148.041188
4668.096875,148.041188,-8733.488677,0.000000
4668.097199,444.123565,-8427.050478,-814.226536
4668.097524,444.123565,-8427.050478,-370.102971
4668.097848,444.123565,-8810.098227,0.000000
4668.098172,296.082377,-8810.098227,-370.102971
4668.098497,222.061783,-8350.440928,-222.061783
4668.098821,74.020594,-8733.488677,-148.041188
4668.099145,296.082377,-9039.926876,-740.205942
4668.099469,518.144159,-8273.831378,-444.123565
4668.099794,740.205942,-8810.098227,0.000000
4668.100118,222.061783,-8656.879127,-148.041188
4668.100442,74.020594,-8580.269578,-444.123565
4668.100767,444.123565,-8810.098227,-222.061783
4668.101091,592.164754,-8963.317327,148.041188
4668.101415,444.123565,-8886.707777,-222.061783
4668.101740,740.205942,-8810.098227,-592.164754
4668.102064,518.144159,-8580.269578,-148.041188
4668.102388,592.164754,-8656.879127,-444.123565
4668.102712,518.144159,-8580.269578,-444.123565
4668.103037,518.144159,-8273.831378,0.000000
4668.103361,222.061783,-8503.660028,-222.061783
4668.103685,444.123565,-8963.317327,-444.123565
4668.104010,666.185348,-8197.221829,-888.247130
4668.104334,518.144159,-8580.269578,-296.082377
4668.104658,518.144159,-8810.098227,-148.041188
4668.104982,370.102971,-8427.050478,-296.082377
4668.105307,222.061783,-8197.221829,-370.102971
4668.105631,666.185348,-8810.098227,-444.123565
4668.105955,444.123565,-8580.269578,-814.226536
4668.106280,666.185348,-8656.879127,-518.144159
4668.106604,444.123565,-8120.612279,-296.082377
4668.106928,666.185348,-9039.926876,-296.082377
4668.107252,0.000000,-8580.269578,0.000000
4668.107577,370.102971,-8503.660028,0.000000
4668.107901,370.102971,-8810.098227,-592.164754
4668.108225,888.247130,-9652.803275,0.000000
4668.108550,592.164754,-8503.660028,-222.061783
4668.108874,592.164754,-8580.269578,-370.102971
4668.109198,444.123565,-8810.098227,-148.041188
4668.109523,518.144159,-8580.269578,-444.123565
4668.109847,666.185348,-8580.269578,-370.102971
4668.110171,518.144159,-8273.831378,-592.164754
4668.110495,592.164754,-8427.050478,-370.102971
4668.110820,370.102971,-8503.660028,-296.082377
4668.111144,370.102971,-8580.269578,0.000000
4668.111468,370.102971,-8580.269578,-148.041188
4668.111793,296.082377,-8656.879127,-296.082377
4668.112117,370.102971,-8810.098227,-222.061783
4668.112441,444.123565,-8197.221829,-370.102971
4668.112765,370.102971,-8427.050478,-222.061783
4668.113090,148.041188,-8733.488677,-370.102971
4668.113414,222.061783,-8350.440928,0.000000
4668.113738,222.061783,-8350.440928,-148.041188
4668.114063,222.061783,-8810.098227,-370.102971
4668.114387,444.123565,-8350.440928,-518.144159
4668.114711,222.061783,-8810.098227,-296.082377
4668.115035,74.020594,-8427.050478,148.041188
4668.115360,222.061783,-8656.879127,0.000000
4668.115684,296.082377,-8733.488677,148.041188
4668.116008,518.144159,-8656.879127,0.000000
4668.116333,444.123565,-8656.879127,-148.041188
4668.116657,740.205942,-8886.707777,-296.082377
4668.116981,518.144159,-7967.393179,-222.061783
4668.117306,592.164754,-8503.660028,0.000000
4668.117630,222.061783,-8580.269578,-370.102971
4668.117954,148.041188,-8350.440928,0.000000
4668.118278,296.082377,-8886.707777,0.000000
4668.118603,0.000000,-8580.269578,-296.082377
4668.118927,222.061783,-8963.317327,-370.102971
4668.119251,444.123565,-8427.050478,0.000000
4668.119576,518.144159,-9193.145976,222.061783
4668.119900,592.164754,-8580.269578,-444.123565
4668.120224,740.205942,-8580.269578,0.000000
4668.120548,444.123565,-8580.269578,0.000000
4668.120873,740.205942,-9806.022374,-518.144159
4668.121197,444.123565,-8044.002729,-296.082377
4668.121521,888.247130,-8656.879127,-148.041188
4668.121846,370.102971,-8580.269578,-592.164754
4668.122170,518.144159,-8810.098227,0.000000
4668.122494,370.102971,-8656.879127,-296.082377
4668.122818,222.061783,-8656.879127,-148.041188
4668.123143,518.144159,-8503.660028,-444.123565
4668.123467,444.123565,-8733.488677,-296.082377
4668.123791,148.041188,-8427.050478,222.061783
4668.124116,370.102971,-8656.879127,-592.164754
4668.124440,148.041188,-8733.488677,-222.061783
4668.124764,296.082377,-8810.098227,0.000000
4668.125089,296.082377,-8656.879127,-444.123565
4668.125413,444.123565,-8580.269578,-518.144159
4668.125737,666.185348,-8580.269578,-370.102971
4668.126061,444.123565,-8580.269578,-222.061783
4668.126386,296.082377,-8503.660028,-518.144159
4668.126710,296.082377,-8580.269578,-222.061783
4668.127034,740.205942,-8580.269578,-444.123565
4668.127359,518.144159,-8427.050478,-518.144159
4668.127683,518.144159,-8580.269578,-592.164754
4668.128007,370.102971,-8273.831378,444.123565
4668.128331,592.164754,-8656.879127,-222.061783
4668.128656,666.185348,-8656.879127,-592.164754
4668.128980,518.144159,-8656.879127,-74.020594
4668.129304,148.041188,-8810.098227,-296.082377
4668.129629,222.061783,-8503.660028,-962.267725
4668.129953,370.102971,-8656.879127,-518.144159
4668.130277,296.082377,-8427.050478,-370.102971
4668.130601,370.102971,-8886.707777,-222.061783
4668.130926,592.164754,-8273.831378,-666.185348
4668.131250,296.082377,-9039.926876,0.000000
4668.131574,296.082377,-8580.269578,-740.205942
4668.131899,444.123565,-8733.488677,-518.144159
4668.132223,518.144159,-8656.879127,-222.061783
4668.132547,370.102971,-8733.488677,-148.041188
4668.132872,0.000000,-8656.879127,-74.020594
4668.133196,222.061783,-8580.269578,-296.082377
4668.133520,296.082377,-8427.050478,-148.041188
4668.133844,518.144159,-8810.098227,-296.082377
4668.134169,296.082377,-8273.831378,-370.102971
4668.134493,296.082377,-8350.440928,148.041188
4668.134817,370.102971,-8810.098227,0.000000
4668.135142,592.164754,-8733.488677,0.000000
4668.135466,296.082377,-8886.707777,0.000000
4668.135790,0.000000,-8656.879127,0.000000
4668.136114,74.020594,-8656.879127,-296.082377
4668.136439,444.123565,-8273.831378,74.020594
4668.136763,740.205942,-8427.050478,-296.082377
4668.137087,1036.288319,-8197.221829,-148.041188
4668.137412,962.267725,-8427.050478,-518.144159
4668.137736,666.185348,-8273.831378,0.000000
4668.138060,888.247130,-8197.221829,-444.123565
4668.138384,592.164754,-8273.831378,-444.123565
4668.138709,814.226536,-7967.393179,-444.123565
4668.139033,444.123565,-8273.831378,-296.082377
4668.139357,666.185348,-9269.755526,-148.041188
4668.139682,296.082377,-8350.440928,0.000000
4668.140006,592.164754,-8963.317327,0.000000
4668.140330,296.082377,-8273.831378,-592.164754
4668.140655,592.164754,-8733.488677,-222.061783
4668.140979,740.205942,-9039.926876,-74.020594
4668.141303,740.205942,-8503.660028,-296.082377
4668.141627,370.102971,-8503.660028,0.000000
4668.141952,370.102971,-8886.707777,222.061783
4668.142276,592.164754,-8963.317327,-222.061783
4668.142600,666.185348,-8733.488677,-444.123565
4668.142925,444.123565,-8427.050478,0.000000
4668.143249,666.185348,-8886.707777,0.000000
4668.143573,888.247130,-8580.269578,-222.061783
4668.143897,222.061783,-8733.488677,74.020594
4668.144222,518.144159,-8810.098227,0.000000
4668.144546,296.082377,-8733.488677,-666.185348
4668.144870,296.082377,-8810.098227,-444.123565
4668.145195,222.061783,-8503.660028,-592.164754
4668.145519,592.164754,-8810.098227,-518.144159
4668.145843,296.082377,-8580.269578,-740.205942
4668.146167,444.123565,-8810.098227,-370.102971
4668.146492,74.020594,-8580.269578,-518.144159
4668.146816,222.061783,-8810.098227,-740.205942
4668.147140,666.185348,-8580.269578,-592.164754
4668.147465,296.082377,-8810.098227,-592.164754
4668.147789,222.061783,-8503.660028,-296.082377
4668.148113,296.082377,-8503.660028,-444.123565
4668.148438,222.061783,-8886.707777,-518.144159
4668.148762,148.041188,-8580.269578,-592.164754
4668.149086,148.041188,-8503.660028,-740.205942
4668.149410,370.102971,-8886.707777,-444.123565
4668.149735,444.123565,-8656.879127,-222.061783
4668.150059,370.102971,-8733.488677,-222.061783
4668.150383,370.102971,-8273.831378,-370.102971
4668.150708,370.102971,-8350.440928,0.000000
4668.151032,0.000000,-8350.440928,-518.144159
4668.151356,370.102971,-8580.269578,-666.185348
4668.151680,370.102971,-8197.221829,-592.164754
4668.152005,148.041188,-8273.831378,0.000000
4668.152329,444.123565,-8273.831378,-296.082377
4668.152653,444.123565,-8503.660028,-296.082377
4668.152978,296.082377,-8350.440928,-370.102971
4668.153302,518.144159,-8503.660028,-296.082377
4668.153626,518.144159,-8656.879127,-370.102971
4668.153950,666.185348,-8350.440928,0.000000
4668.154275,592.164754,-8350.440928,-148.041188
4668.154599,888.247130,-8656.879127,-222.061783
4668.154923,592.164754,-8733.488677,-296.082377
4668.155248,814.226536,-8197.221829,-296.082377
4668.155572,592.164754,-8733.488677,-296.082377
4668.155896,888.247130,-8273.831378,-518.144159
4668.156221,814.226536,-8733.488677,0.000000
4668.156545,740.205942,-8656.879127,0.000000
4668.156869,296.082377,-8503.660028,0.000000
4668.157193,518.144159,-8810.098227,-148.041188
4668.157518,222.061783,-8427.050478,-444.123565
4668.157842,444.123565,-8580.269578,-888.247130
4668.158166,370.102971,-8656.879127,-444.123565
4668.158491,592.164754,-8427.050478,-148.041188
4668.158815,296.082377,-8810.098227,-370.102971
4668.159139,74.020594,-9193.145976,-148.041188
4668.159463,370.102971,-8733.488677,-222.061783
4668.159788,222.061783,-8656.879127,-518.144159
4668.160112,518.144159,-8580.269578,-888.247130
4668.160436,444.123565,-8580.269578,-370.102971
4668.160761,444.123565,-8963.317327,-592.164754
4668.161085,0.000000,-8580.269578,-666.185348
4668.161409,296.082377,-8810.098227,-444.123565
4668.161733,296.082377,-8810.098227,-518.144159
4668.162058,518.144159,-8350.440928,-814.226536
4668.162382,518.144159,-8656.879127,-888.247130
4668.162706,592.164754,-8733.488677,-370.102971
4668.163031,518.144159,-8656.879127,-518.144159
4668.163355,296.082377,-8733.488677,-1110.308913
4668.163679,74.020594,-8656.879127,-444.123565
4668.164004,0.000000,-8886.707777,-518.144159
4668.164328,0.000000,-8503.660028,-814.226536
4668.164652,74.020594,-8810.098227,-666.185348
4668.164976,74.020594,-8656.879127,-518.144159
4668.165301,0.000000,-8656.879127,-370.102971
4668.165625,0.000000,-8503.660028,-222.061783
4668.165949,74.020594,-8733.488677,-444.123565
4668.166274,592.164754,-8580.269578,-370.102971
4668.166598,444.123565,-8656.879127,-444.123565
4668.166922,740.205942,-8427.050478,-222.061783
4668.167246,592.164754,-8656.879127,0.000000
4668.167571,370.102971,-8963.317327,0.000000
4668.167895,222.061783,-8427.050478,-296.082377
4668.168219,444.123565,-8656.879127,-222.061783
4668.168544,666.185348,-8733.488677,-296.082377
4668.168868,888.247130,-8044.002729,-518.144159
4668.169192,592.164754,-8810.098227,0.000000
4668.169516,444.123565,-8810.098227,-296.082377
4668.169841,666.185348,-8656.879127,0.000000
4668.170165,888.247130,-8580.269578,-444.123565
4668.170489,740.205942,-8733.488677,0.000000
4668.170814,888.247130,-8580.269578,-222.061783
4668.171138,740.205942,-8427.050478,0.000000
4668.171462,518.144159,-8580.269578,-222.061783
4668.171787,518.144159,-8733.488677,0.000000
4668.172111,518.144159,-8503.660028,-222.061783
4668.172435,518.144159,-8350.440928,0.000000
4668.172759,148.041188,-8427.050478,-370.102971
4668.173084,444.123565,-8350.440928,-296.082377
4668.173408,518.144159,-8273.831378,-370.102971
4668.173732,444.123565,-8733.488677,-148.041188
4668.174057,222.061783,-8580.269578,-296.082377
4668.174381,370.102971,-8656.879127,148.041188
4668.174705,222.061783,-8503.660028,-518.144159
4668.175029,222.061783,-8503.660028,-592.164754
4668.175354,444.123565,-8350.440928,-666.185348
4668.175678,592.164754,-8810.098227,-370.102971
4668.176002,444.123565,-8503.660028,-444.123565
4668.176327,222.061783,-8503.660028,-222.061783
4668.176651,518.144159,-8656.879127,-444.123565
4668.176975,444.123565,-8580.269578,-666.185348
4668.177299,444.123565,-8656.879127,-740.205942
4668.177624,592.164754,-8197.221829,-518.144159
4668.177948,296.082377,-8656.879127,-222.061783
4668.178272,222.061783,-8810.098227,-592.164754
4668.178597,148.041188,-8503.660028,-740.205942
4668.178921,0.000000,-8656.879127,-148.041188
4668.179245,518.144159,-8503.660028,-740.205942
4668.179570,444.123565,-8580.269578,-518.144159
4668.179894,444.123565,-8886.707777,-740.205942
4668.180218,222.061783,-8427.050478,-518.144159
4668.180543,296.082377,-9193.145976,-518.144159
4668.180867,74.020594,-9039.926876,-962.267725
4668.181191,222.061783,-9193.145976,-666.185348
4668.181516,222.061783,-8733.488677,-592.164754
4668.181840,-222.061783,-8503.660028,-222.061783
4668.182164,518.144159,-8886.707777,-444.123565
4668.182489,370.102971,-8503.660028,-296.082377
4668.182813,444.123565,-8886.707777,0.000000
4668.183138,592.164754,-9116.536426,0.000000
4668.183462,296.082377,-8503.660028,-518.144159
4668.183786,296.082377,-8580.269578,-296.082377
4668.184111,296.082377,-8733.488677,-370.102971
4668.184435,518.144159,-8580.269578,-370.102971
4668.184759,148.041188,-8427.050478,0.000000
4668.185084,222.061783,-8886.707777,0.000000
4668.185408,296.082377,-8503.660028,-296.082377
4668.185732,814.226536,-8350.440928,-592.164754
4668.186057,814.226536,-7967.393179,0.000000
4668.186381,666.185348,-8197.221829,-296.082377
4668.186706,518.144159,-8580.269578,-222.061783
4668.187030,592.164754,-8350.440928,-222.061783
4668.187354,666.185348,-8350.440928,-296.082377
4668.187679,592.164754,-8273.831378,-518.144159
4668.188003,666.185348,-8427.050478,-592.164754
4668.188327,814.226536,-8273.831378,-296.082377
4668.188652,814.226536,-8427.050478,-370.102971
4668.188976,740.205942,-8580.269578,0.000000
4668.189301,148.041188,-8656.879127,-148.041188
4668.189625,592.164754,-8656.879127,0.000000
4668.189949,444.123565,-8273.831378,-444.123565
4668.190274,740.205942,-8427.050478,-444.123565
4668.190598,444.123565,-8044.002729,-518.144159
4668.190922,518.144159,-8273.831378,-148.041188
4668.191247,518.144159,-9039.926876,-296.082377
4668.191571,296.082377,-7967.393179,0.000000
4668.191895,370.102971,-9039.926876,-222.061783
4668.192220,518.144159,-8656.879127,-444.123565
4668.192544,518.144159,-8273.831378,-518.144159
4668.192869,518.144159,-8810.098227,-296.082377
4668.193193,888.247130,-8350.440928,-296.082377
4668.193517,370.102971,-8886.707777,0.000000
4668.193842,444.123565,-8580.269578,-444.123565
4668.194166,444.123565,-8656.879127,-444.123565
4668.194490,814.226536,-9959.241474,-518.144159
4668.194815,222.061783,-8810.098227,-370.102971
4668.195139,296.082377,-8810.098227,-518.144159
4668.195464,444.123565,-9116.536426,-222.061783
4668.195788,222.061783,-8963.317327,-592.164754
4668.196112,370.102971,-8810.098227,-592.164754
4668.196437,518.144159,-8886.707777,-962.267725
4668.196761,592.164754,-8580.269578,-666.185348
4668.197085,370.102971,-8810.098227,-592.164754
4668.197410,444.123565,-9116.536426,-444.123565
4668.197734,666.185348,-8733.488677,-666.185348
4668.198058,0.000000,-8503.660028,-592.164754
4668.198383,296.082377,-8733.488677,-370.102971
4668.198707,518.144159,-8810.098227,-370.102971
4668.199032,296.082377,-8733.488677,-666.185348
4668.199356,222.061783,-8273.831378,-444.123565
4668.199680,518.144159,-8733.488677,-370.102971
4668.200005,592.164754,-8656.879127,-592.164754
4668.200329,370.102971,-8273.831378,-296.082377
4668.200653,518.144159,-8503.660028,-444.123565
4668.200978,740.205942,-8427.050478,-592.164754
4668.201302,666.185348,-8580.269578,-518.144159
4668.201627,370.102971,-8427.050478,-444.123565
4668.201951,222.061783,-8656.879127,0.000000
4668.202275,444.123565,-8580.269578,-296.082377
4668.202600,518.144159,-8810.098227,-296.082377
4668.202924,296.082377,-8197.221829,-518.144159
4668.203248,666.185348,-8733.488677,-740.205942
4668.203573,666.185348,-8197.221829,-370.102971
4668.203897,592.164754,-8503.660028,-222.061783
4668.204221,370.102971,-8273.831378,0.000000
4668.204546,296.082377,-8503.660028,-296.082377
4668.204870,740.205942,-8580.269578,-296.082377
4668.205195,444.123565,-8503.660028,-518.144159
4668.205519,666.185348,-8810.098227,-518.144159
4668.205843,296.082377,-7660.954980,0.000000
4668.206168,222.061783,-8503.660028,0.000000
4668.206492,296.082377,-8580.269578,-444.123565
4668.206816,592.164754,-8810.098227,0.000000
4668.207141,814.226536,-8044.002729,-888.247130
4668.207465,518.144159,-8503.660028,-222.061783
4668.207790,444.123565,-8273.831378,-296.082377
4668.208114,1110.308913,-8810.098227,0.000000
4668.208438,666.185348,-8197.221829,-296.082377
4668.208763,0.000000,-8810.098227,0.000000
4668.209087,148.041188,-8733.488677,-222.061783
4668.209411,148.041188,-8733.488677,0.000000
4668.209736,296.082377,-8503.660028,-592.164754
4668.210060,148.041188,-8580.269578,-370.102971
4668.210384,518.144159,-8580.269578,-296.082377
4668.210709,370.102971,-8580.269578,-296.082377
4668.211033,518.144159,-8427.050478,-444.123565
4668.211358,222.061783,-8656.879127,-370.102971
4668.211682,666.185348,-8810.098227,-740.205942
4668.212006,296.082377,-8580.269578,-296.082377
4668.212331,222.061783,-8733.488677,-222.061783
4668.212655,74.020594,-8580.269578,74.020594
4668.212979,74.020594,-8886.707777,-222.061783
4668.213304,74.020594,-8810.098227,-370.102971
4668.213628,0.000000,-8810.098227,-666.185348
4668.213953,370.102971,-8810.098227,-296.082377
4668.214277,222.061783,-8580.269578,0.000000
4668.214601,296.082377,-8810.098227,-370.102971
4668.214926,518.144159,-8427.050478,-444.123565
4668.215250,74.020594,-8733.488677,-296.082377
4668.215574,222.061783,-8580.269578,-370.102971
4668.215899,0.000000,-8656.879127,-296.082377
4668.216223,444.123565,-9116.536426,-370.102971
4668.216547,222.061783,-8350.440928,-222.061783
4668.216872,444.123565,-8733.488677,-518.144159
4668.217196,666.185348,-8733.488677,-222.061783
4668.217521,518.144159,-8427.050478,-148.041188
4668.217845,444.123565,-8503.660028,-222.061783
4668.218169,296.082377,-8810.098227,-592.164754
4668.218494,296.082377,-8273.831378,0.000000
4668.218818,740.205942,-8656.879127,-518.144159
4668.219142,592.164754,-8656.879127,0.000000
4668.219467,370.102971,-8503.660028,-148.041188
4668.219791,222.061783,-8733.488677,0.000000
4668.220116,518.144159,-8580.269578,-148.041188
4668.220440,814.226536,-8427.050478,-444.123565
4668.220764,962.267725,-8503.660028,-296.082377
4668.221089,740.205942,-8427.050478,296.082377
4668.221413,962.267725,-8733.488677,0.000000
4668.221737,518.144159,-8503.660028,0.000000
4668.222062,296.082377,-8503.660028,-222.061783
4668.222386,444.123565,-8810.098227,-296.082377
4668.222710,296.082377,-8810.098227,296.082377
4668.223035,518.144159,-8963.317327,-148.041188
4668.223359,518.144159,-8350.440928,-296.082377
4668.223684,296.082377,-8120.612279,-222.061783
4668.224008,518.144159,-8963.317327,-222.061783
4668.224332,74.020594,-8503.660028,0.000000
4668.224657,296.082377,-8503.660028,-518.144159
4668.224981,0.000000,-8350.440928,-592.164754
4668.225305,296.082377,-8580.269578,-666.185348
4668.225630,444.123565,-7890.783629,-370.102971
4668.225954,370.102971,-8427.050478,-518.144159
4668.226279,222.061783,-8273.831378,-222.061783
4668.226603,0.000000,-8503.660028,-444.123565
4668.226927,222.061783,-8197.221829,-370.102971
4668.227252,296.082377,-8350.440928,-370.102971
4668.227576,222.061783,-8580.269578,-296.082377
4668.227900,592.164754,-8427.050478,0.000000
4668.228225,222.061783,-8197.221829,-222.061783
4668.228549,444.123565,-8886.707777,-444.123565
4668.228873,444.123565,-8656.879127,-740.205942
4668.229198,444.123565,-8580.269578,-518.144159
4668.229522,666.185348,-8580.269578,-518.144159
4668.229847,518.144159,-8120.612279,0.000000
4668.230171,148.041188,-8810.098227,-222.061783
4668.230495,74.020594,-8503.660028,0.000000
4668.230820,148.041188,-8810.098227,-370.102971
4668.231144,518.144159,-9116.536426,-444.123565
4668.231468,444.123565,-8427.050478,-444.123565
4668.231793,444.123565,-9116.536426,-370.102971
4668.232117,296.082377,-8427.050478,-370.102971
4668.232441,444.123565,-8886.707777,-222.061783
4668.232766,444.123565,-8886.707777,-370.102971
4668.233090,592.164754,-8886.707777,-222.061783
4668.233415,148.041188,-8733.488677,-222.061783
4668.233739,296.082377,-8427.050478,-370.102971
4668.234063,814.226536,-8810.098227,-222.061783
4668.234388,666.185348,-8733.488677,-296.082377
4668.234712,962.267725,-8733.488677,-296.082377
4668.235036,666.185348,-8427.050478,-222.061783
4668.235361,444.123565,-8810.098227,-370.102971
4668.235685,518.144159,-8656.879127,-518.144159
4668.236010,666.185348,-8580.269578,-518.144159
4668.236334,740.205942,-8580.269578,-222.061783
4668.236658,666.185348,-8580.269578,-296.082377
4668.236983,518.144159,-8197.221829,-666.185348
4668.237307,444.123565,-8810.098227,-296.082377
4668.237631,222.061783,-8273.831378,-518.144159
4668.237956,222.061783,-8733.488677,-296.082377
4668.238280,1110.308913,-8656.879127,-592.164754
4668.238604,296.082377,-8656.879127,-370.102971
4668.238929,296.082377,-8656.879127,-370.102971
4668.239253,222.061783,-8427.050478,-370.102971
4668.239578,222.061783,-8656.879127,-518.144159
4668.239902,370.102971,-8733.488677,-370.102971
4668.240226,74.020594,-8350.440928,0.000000
4668.240551,0.000000,-8656.879127,-222.061783
4668.240875,148.041188,-8503.660028,0.000000
4668.241199,518.144159,-8733.488677,-148.041188
4668.241524,444.123565,-8733.488677,-148.041188
4668.241848,444.123565,-8350.440928,-222.061783
4668.242173,444.123565,-8580.269578,-370.102971
4668.242497,1184.329507,-8503.660028,-518.144159
4668.242821,518.144159,-8273.831378,-222.061783
4668.243146,592.164754,-9039.926876,-148.041188
4668.243470,222.061783,-8503.660028,-222.061783
4668.243794,370.102971,-8963.317327,-148.041188
4668.244119,0.000000,-8427.050478,-222.061783
4668.244443,296.082377,-8580.269578,0.000000
4668.244767,296.082377,-8810.098227,-592.164754
4668.245092,592.164754,-8580.269578,-296.082377
4668.245416,222.061783,-8350.440928,-666.185348
4668.245741,370.102971,-8656.879127,-296.082377
4668.246065,592.164754,-8197.221829,-296.082377
4668.246389,518.144159,-8350.440928,-444.123565
4668.246714,666.185348,-8656.879127,-592.164754
4668.247038,296.082377,-8656.879127,0.000000
4668.247362,370.102971,-8503.660028,-444.123565
4668.247687,74.020594,-8656.879127,-296.082377
4668.248011,518.144159,-8656.879127,-222.061783
4668.248336,222.061783,-8733.488677,-370.102971
4668.248660,444.123565,-8580.269578,-74.020594
4668.248984,296.082377,-8503.660028,-296.082377
4668.249309,592.164754,-8503.660028,-518.144159
4668.249633,814.226536,-8427.050478,-592.164754
4668.249957,444.123565,-8273.831378,-666.185348
4668.250282,370.102971,-8886.707777,-74.020594
4668.250606,74.020594,-8427.050478,-444.123565
4668.250930,592.164754,-8733.488677,-370.102971
4668.251255,370.102971,-8197.221829,-222.061783
4668.251579,518.144159,-8886.707777,-444.123565
4668.251904,444.123565,-8656.879127,-518.144159
4668.252228,518.144159,-8656.879127,0.000000
4668.252552,222.061783,-8810.098227,0.000000
4668.252877,444.123565,-8963.317327,-222.061783
4668.253201,444.123565,-8350.440928,-518.144159
4668.253525,592.164754,-8886.707777,-296.082377
4668.253850,740.205942,-9193.145976,0.000000
4668.254174,0.000000,-8656.879127,148.041188
4668.254499,444.123565,-8886.707777,-148.041188
4668.254823,74.020594,-8427.050478,-666.185348
4668.255147,592.164754,-8810.098227,-148.041188
4668.255472,370.102971,-7967.393179,-296.082377
4668.255796,592.164754,-8273.831378,-148.041188
4668.256120,518.144159,-8503.660028,-296.082377
4668.256445,518.144159,-8733.488677,-370.102971
4668.256769,296.082377,-8273.831378,-740.205942
4668.257093,518.144159,-8656.879127,-740.205942
4668.257418,444.123565,-8733.488677,-444.123565
4668.257742,370.102971,-8656.879127,-296.082377
4668.258067,296.082377,-8656.879127,-1184.329507
4668.258391,296.082377,-8886.707777,-444.123565
4668.258715,74.020594,-8656.879127,-296.082377
4668.259040,296.082377,-8350.440928,-222.061783
4668.259364,296.082377,-8350.440928,-296.082377
4668.259688,444.123565,-8810.098227,-370.102971
4668.260013,518.144159,-8733.488677,-296.082377
4668.260337,296.082377,-8503.660028,0.000000
4668.260662,592.164754,-9116.536426,-222.061783
4668.260986,222.061783,-8273.831378,592.164754
4668.261310,222.061783,-8810.098227,0.000000
4668.261635,518.144159,-8350.440928,-296.082377
4668.261959,222.061783,-8810.098227,-296.082377
4668.262283,296.082377,-8656.879127,-148.041188
4668.262608,74.020594,-8044.002729,0.000000
4668.262932,222.061783,-8503.660028,0.000000
4668.263256,0.000000,-8733.488677,-370.102971
4668.263581,592.164754,-8656.879127,-222.061783
4668.263905,444.123565,-8503.660028,-666.185348
4668.264230,518.144159,-8350.440928,-222.061783
4668.264554,740.205942,-8580.269578,-148.041188
4668.264878,444.123565,-8580.269578,0.000000
4668.265203,1036.288319,-8503.660028,-296.082377
4668.265527,222.061783,-8427.050478,-222.061783
4668.265851,666.185348,-8963.317327,-592.164754
4668.266176,222.061783,-8044.002729,0.000000
4668.266500,296.082377,-8656.879127,-148.041188
4668.266825,296.082377,-8810.098227,-296.082377
4668.267149,444.123565,-8350.440928,-148.041188
4668.267473,370.102971,-9116.536426,-222.061783
4668.267798,666.185348,-8656.879127,0.000000
4668.268122,592.164754,-8427.050478,0.000000
4668.268446,592.164754,-8810.098227,-296.082377
4668.268771,592.164754,-8427.050478,-370.102971
4668.269095,370.102971,-8886.707777,-296.082377
4668.269419,370.102971,-8886.707777,0.000000
4668.269744,148.041188,-8810.098227,0.000000
4668.270068,222.061783,-9039.926876,-888.247130
4668.270393,518.144159,-8656.879127,-592.164754
4668.270717,444.123565,-8503.660028,-666.185348
4668.271041,888.247130,-8963.317327,-444.123565
4668.271366,222.061783,-8350.440928,-518.144159
4668.271690,518.144159,-8810.098227,-222.061783
4668.272014,518.144159,-8350.440928,-592.164754
4668.272339,814.226536,-7814.174080,-888.247130
4668.272663,592.164754,-8350.440928,-1036.288319
4668.272988,740.205942,-8273.831378,-296.082377
4668.273312,74.020594,-8427.050478,-518.144159
4668.273636,296.082377,-8503.660028,-888.247130
4668.273961,296.082377,-8963.317327,-592.164754
4668.274285,444.123565,-8810.098227,-592.164754
4668.274609,666.185348,-8733.488677,-666.185348
4668.274934,518.144159,-8503.660028,-592.164754
4668.275258,888.247130,-8733.488677,-370.102971
4668.275582,518.144159,-8580.269578,-444.123565
4668.275907,666.185348,-8503.660028,-740.205942
4668.276231,444.123565,-8886.707777,-888.247130
4668.276556,1184.329507,-8503.660028,-296.082377
4668.276880,370.102971,-8656.879127,-740.205942
4668.277204,518.144159,-8963.317327,-518.144159
4668.277529,592.164754,-8273.831378,-518.144159
4668.277853,296.082377,-8656.879127,0.000000
4668.278177,444.123565,-8886.707777,-444.123565
4668.278502,222.061783,-8120.612279,-740.205942
4668.278826,444.123565,-8810.098227,-296.082377
4668.279150,222.061783,-8044.002729,-592.164754
4668.279475,296.082377,-8656.879127,-222.061783
4668.279799,666.185348,-8580.269578,-222.061783
4668.280124,222.061783,-8273.831378,-370.102971
4668.280448,0.000000,-9039.926876,-148.041188
4668.280772,148.041188,-8197.221829,0.000000
4668.281096,592.164754,-8810.098227,-370.102971
4668.281421,370.102971,-8656.879127,-444.123565
4668.281745,296.082377,-8427.050478,-222.061783
4668.282069,814.226536,-8503.660028,222.061783
4668.282394,592.164754,-8427.050478,0.000000
4668.282718,444.123565,-8580.269578,-370.102971
4668.283042,222.061783,-8733.488677,-666.185348
4668.283367,444.123565,-8273.831378,-222.061783
4668.283691,296.082377,-8503.660028,0.000000
4668.284015,370.102971,-8120.612279,-592.164754
4668.284339,296.082377,-8810.098227,0.000000
4668.284664,370.102971,-8427.050478,-518.144159
4668.284988,370.102971,-8350.440928,-148.041188
4668.285312,370.102971,-8427.050478,-296.082377
4668.285637,518.144159,-8273.831378,-444.123565
4668.285961,370.102971,-8656.879127,0.000000
4668.286285,296.082377,-8580.269578,74.020594
4668.286610,222.061783,-8656.879127,0.000000
4668.286934,222.061783,-8656.879127,0.000000
4668.287258,370.102971,-8656.879127,-222.061783
4668.287582,444.123565,-8963.317327,-222.061783
4668.287907,814.226536,-8580.269578,-814.226536
4668.288231,740.205942,-8733.488677,-444.123565
4668.288555,814.226536,-8733.488677,0.000000
4668.288880,148.041188,-8503.660028,-296.082377
4668.289204,666.185348,-8120.612279,222.061783
4668.289528,370.102971,-8503.660028,-518.144159
4668.289853,666.185348,-8656.879127,-740.205942
4668.290177,888.247130,-8273.831378,-222.061783
4668.290501,444.123565,-8350.440928,-592.164754
4668.290825,296.082377,-8963.317327,-444.123565
4668.291150,74.020594,-8350.440928,-222.061783
4668.291474,222.061783,-8810.098227,-888.247130
4668.291798,444.123565,-8273.831378,-666.185348
4668.292123,444.123565,-8580.269578,-370.102971
4668.292447,0.000000,-8733.488677,-296.082377
4668.292771,444.123565,-8503.660028,-518.144159
4668.293096,74.020594,-8580.269578,-370.102971
4668.293420,296.082377,-8580.269578,-222.061783
4668.293744,592.164754,-8503.660028,-518.144159
4668.294068,370.102971,-8427.050478,-592.164754
4668.294393,592.164754,-8427.050478,-296.082377
4668.294717,962.267725,-8656.879127,-148.041188
4668.295041,888.247130,-8350.440928,-518.144159
4668.295366,444.123565,-8503.660028,-296.082377
4668.295690,370.102971,-8427.050478,-444.123565
4668.296014,296.082377,-8656.879127,-518.144159
4668.296339,592.164754,-8810.098227,-814.226536
4668.296663,666.185348,-8427.050478,-518.144159
4668.296987,592.164754,-8580.269578,-296.082377
4668.297311,518.144159,-8350.440928,-592.164754
4668.297636,296.082377,-8963.317327,-296.082377
4668.297960,518.144159,-8810.098227,-518.144159
4668.298284,592.164754,-8580.269578,-592.164754
4668.298609,296.082377,-8580.269578,-740.205942
4668.298933,370.102971,-8580.269578,-222.061783
4668.299257,592.164754,-8886.707777,-592.164754
4668.299582,0.000000,-8656.879127,-296.082377
4668.299906,0.000000,-8656.879127,0.000000
4668.300230,296.082377,-8810.098227,-444.123565
4668.300554,740.205942,-9193.145976,0.000000
4668.300879,592.164754,-8273.831378,-296.082377
4668.301203,518.144159,-8273.831378,0.000000
4668.301527,666.185348,-8810.098227,0.000000
4668.301852,222.061783,-8197.221829,-148.041188
4668.302176,666.185348,-8580.269578,-444.123565
4668.302500,296.082377,-8580.269578,-222.061783
4668.302825,370.102971,-8810.098227,-518.144159
4668.303149,296.082377,-8503.660028,-222.061783
4668.303473,592.164754,-8810.098227,-296.082377
4668.303797,518.144159,-8656.879127,-518.144159
4668.304122,666.185348,-8427.050478,-296.082377
4668.304446,592.164754,-8580.269578,-518.144159
4668.304770,814.226536,-8886.707777,-592.164754
4668.305095,444.123565,-8350.440928,-444.123565
4668.305419,148.041188,-8580.269578,-444.123565
4668.305743,370.102971,-8656.879127,-148.041188
4668.306068,0.000000,-8733.488677,0.000000
4668.306392,74.020594,-8963.317327,-74.020594
4668.306716,74.020594,-8810.098227,-518.144159
4668.307040,444.123565,-8733.488677,-222.061783
4668.307365,444.123565,-8427.050478,-518.144159
4668.307689,1184.329507,-8886.707777,-222.061783
4668.308013,518.144159,-8733.488677,-518.144159
4668.308338,296.082377,-8733.488677,-444.123565
4668.308662,74.020594,-8580.269578,-370.102971
4668.308986,370.102971,-9346.365076,-1110.308913
4668.309311,296.082377,-8580.269578,-592.164754
4668.309635,296.082377,-8580.269578,-444.123565
4668.309959,518.144159,-8886.707777,-592.164754
4668.310283,370.102971,-8503.660028,-222.061783
4668.310608,740.205942,-9039.926876,-444.123565
4668.310932,814.226536,-8580.269578,-518.144159
4668.311256,592.164754,-8120.612279,-814.226536
4668.311581,518.144159,-8580.269578,-740.205942
4668.311905,296.082377,-8656.879127,0.000000
4668.312229,370.102971,-8580.269578,-592.164754
4668.312554,666.185348,-8580.269578,-370.102971
4668.312878,296.082377,-8503.660028,0.000000
4668.313202,666.185348,-8580.269578,-370.102971
4668.313526,222.061783,-8350.440928,-444.123565
4668.313851,370.102971,-8656.879127,-296.082377
4668.314175,296.082377,-8580.269578,0.000000
4668.314499,296.082377,-8580.269578,-148.041188
4668.314824,0.000000,-8503.660028,0.000000
4668.315148,296.082377,-8810.098227,-296.082377
4668.315472,444.123565,-8503.660028,-518.144159
4668.315797,814.226536,-8656.879127,-592.164754
4668.316121,518.144159,-8810.098227,222.061783
4668.316445,592.164754,-8580.269578,-222.061783
4668.316769,444.123565,-8427.050478,-296.082377
4668.317094,222.061783,-8580.269578,0.000000
4668.317418,222.061783,-8503.660028,-666.185348
4668.317742,222.061783,-8427.050478,-444.123565
4668.318067,296.082377,-8273.831378,-148.041188
4668.318391,148.041188,-8503.660028,-222.061783
4668.318715,444.123565,-8580.269578,0.000000
4668.319039,296.082377,-8503.660028,-222.061783
4668.319364,666.185348,-9116.536426,0.000000
4668.319688,370.102971,-8427.050478,-222.061783
4668.320012,444.123565,-8580.269578,148.041188
4668.320337,814.226536,-8427.050478,0.000000
4668.320661,592.164754,-8580.269578,0.000000
4668.320985,370.102971,-8733.488677,-222.061783
4668.321310,296.082377,-8810.098227,0.000000
4668.321634,444.123565,-8656.879127,-296.082377
4668.321958,370.102971,-8580.269578,-444.123565
4668.322282,518.144159,-8503.660028,-592.164754
4668.322607,592.164754,-8197.221829,-296.082377
4668.322931,666.185348,-8656.879127,-592.164754
4668.323255,1110.308913,-8503.660028,-592.164754
4668.323580,592.164754,-8656.879127,-296.082377
4668.323904,518.144159,-8427.050478,-740.205942
4668.324228,518.144159,-8044.002729,-592.164754
4668.324553,518.144159,-7814.174080,-370.102971
4668.324877,444.123565,-8656.879127,-592.164754
4668.325201,296.082377,-8120.612279,-370.102971
4668.325525,222.061783,-8733.488677,-444.123565
4668.325850,296.082377,-8733.488677,-592.164754
4668.326174,740.205942,-8580.269578,-592.164754
4668.326498,666.185348,-8886.707777,-592.164754
4668.326823,814.226536,-8580.269578,-296.082377
4668.327147,888.247130,-8427.050478,-444.123565
4668.327471,740.205942,-8656.879127,-370.102971
4668.327796,592.164754,-8886.707777,0.000000
4668.328120,222.061783,-8580.269578,-222.061783
4668.328444,740.205942,-8580.269578,-222.061783
4668.328768,814.226536,-8350.440928,-666.185348
4668.329093,444.123565,-9346.365076,-370.102971
4668.329417,740.205942,-8273.831378,-518.144159
4668.329741,592.164754,-8427.050478,-370.102971
4668.330066,518.144159,-8503.660028,-518.144159
4668.330390,666.185348,-8963.317327,-296.082377
4668.330714,296.082377,-9039.926876,-518.144159
4668.331039,0.000000,-8656.879127,-222.061783
4668.331363,148.041188,-8886.707777,-740.205942
4668.331687,518.144159,-9269.755526,0.000000
4668.332011,0.000000,-8273.831378,-296.082377
4668.332336,222.061783,-8733.488677,74.020594
4668.332660,296.082377,-8580.269578,-296.082377
4668.332984,592.164754,-8503.660028,-296.082377
4668.333309,814.226536,-8350.440928,-222.061783
4668.333633,592.164754,-8656.879127,-74.020594
4668.333957,370.102971,-8427.050478,0.000000
4668.334282,296.082377,-8427.050478,0.000000
4668.334606,0.000000,-8427.050478,-296.082377
4668.334930,296.082377,-8503.660028,-370.102971
4668.335254,222.061783,-8427.050478,-518.144159
4668.335579,444.123565,-8427.050478,0.000000
4668.335903,296.082377,-7967.393179,74.020594
4668.336227,666.185348,-8656.879127,0.000000
4668.336552,592.164754,-8350.440928,-296.082377
4668.336876,518.144159,-8503.660028,-370.102971
4668.337200,370.102971,-8656.879127,-148.041188
4668.337525,222.061783,-8044.002729,-222.061783
4668.337849,148.041188,-8810.098227,-222.061783
4668.338173,148.041188,-8044.002729,-148.041188
4668.338497,74.020594,-8886.707777,0.000000
4668.338822,0.000000,-7967.393179,0.000000
4668.339146,222.061783,-8503.660028,0.000000
4668.339470,370.102971,-8580.269578,0.000000
4668.339795,592.164754,-8503.660028,-222.061783
4668.340119,1110.308913,-8963.317327,-370.102971
4668.340443,814.226536,-8580.269578,74.020594
4668.340768,370.102971,-8810.098227,0.000000
4668.341092,370.102971,-8963.317327,0.000000
4668.341416,0.000000,-8273.831378,-518.144159
4668.341740,518.144159,-8963.317327,-296.082377
4668.342065,148.041188,-8656.879127,-370.102971
4668.342389,296.082377,-8350.440928,-222.061783
4668.342713,296.082377,-8656.879127,-444.123565
4668.343038,518.144159,-9116.536426,-518.144159
4668.343362,518.144159,-8503.660028,-666.185348
4668.343686,666.185348,-8810.098227,-740.205942
4668.344011,444.123565,-8656.879127,-740.205942
4668.344335,888.247130,-9499.584175,-370.102971
4668.344659,740.205942,-8427.050478,-592.164754
4668.344983,444.123565,-8656.879127,-444.123565
4668.345308,444.123565,-9116.536426,-666.185348
4668.345632,518.144159,-8733.488677,-592.164754
4668.345956,370.102971,-8656.879127,-740.205942
4668.346281,296.082377,-8656.879127,-518.144159
4668.346605,666.185348,-8580.269578,-296.082377
4668.346929,370.102971,-8733.488677,-296.082377
4668.347254,370.102971,-9193.145976,-1184.329507
4668.347578,518.144159,-8963.317327,-518.144159
4668.347902,592.164754,-8580.269578,-592.164754
4668.348226,444.123565,-8580.269578,-370.102971
4668.348551,740.205942,-9499.584175,-740.205942
4668.348875,666.185348,-8580.269578,-518.144159
4668.349199,444.123565,-8963.317327,-444.123565
4668.349524,296.082377,-8580.269578,-370.102971
4668.349848,148.041188,-8427.050478,-370.102971
4668.350172,518.144159,-8656.879127,-888.247130
4668.350497,296.082377,-8350.440928,-740.205942
4668.350821,370.102971,-8427.050478,-444.123565
4668.351145,222.061783,-8580.269578,-444.123565
4668.351469,0.000000,-9193.145976,222.061783
4668.351794,222.061783,-8886.707777,-370.102971
4668.352118,370.102971,-8427.050478,-222.061783
4668.352442,444.123565,-8503.660028,-592.164754
4668.352767,444.123565,-8503.660028,-296.082377
4668.353091,222.061783,-8580.269578,0.000000
4668.353415,0.000000,-8580.269578,-444.123565
4668.353740,222.061783,-8580.269578,0.000000
4668.354064,148.041188,-8273.831378,0.000000
4668.354388,222.061783,-8350.440928,0.000000
4668.354712,592.164754,-8273.831378,0.000000
4668.355037,444.123565,-8197.221829,-148.041188
4668.355361,666.185348,-8427.050478,0.000000
4668.355685,666.185348,-8350.440928,-444.123565
4668.356010,740.205942,-8733.488677,0.000000
4668.356334,444.123565,-8427.050478,-370.102971
4668.356658,444.123565,-8503.660028,-370.102971
4668.356983,296.082377,-8503.660028,-148.041188
4668.357307,592.164754,-8120.612279,-444.123565
4668.357631,1110.308913,-8580.269578,-296.082377
4668.357955,592.164754,-8273.831378,-222.061783
4668.358280,444.123565,-8503.660028,-74.020594
4668.358604,888.247130,-8886.707777,-222.061783
4668.358928,370.102971,-8656.879127,-148.041188
4668.359253,592.164754,-8580.269578,-370.102971
4668.359577,444.123565,-8273.831378,-148.041188
4668.359901,74.020594,-8733.488677,0.000000
4668.360225,0.000000,-8656.879127,-148.041188
4668.360550,296.082377,-8656.879127,-296.082377
4668.360874,222.061783,-8580.269578,-592.164754
4668.361198,518.144159,-8580.269578,-518.144159
4668.361523,444.123565,-9039.926876,-148.041188
4668.361847,222.061783,-8580.269578,-296.082377
4668.362171,592.164754,-8503.660028,-148.041188
4668.362496,370.102971,-8810.098227,-370.102971
4668.362820,74.020594,-8810.098227,-370.102971
4668.363144,518.144159,-8120.612279,-444.123565
4668.363468,148.041188,-8427.050478,-666.185348
4668.363793,222.061783,-8656.879127,-444.123565
4668.364117,666.185348,-8733.488677,-592.164754
4668.364441,296.082377,-8580.269578,-296.082377
4668.364766,370.102971,-8733.488677,-222.061783
4668.365090,222.061783,-8120.612279,-592.164754
4668.365414,592.164754,-8733.488677,-444.123565
4668.365739,444.123565,-8503.660028,-296.082377
4668.366063,370.102971,-8733.488677,-444.123565
4668.366387,518.144159,-8580.269578,-296.082377
4668.366711,222.061783,-8427.050478,0.000000
4668.367036,592.164754,-8733.488677,0.000000
4668.367360,370.102971,-8197.221829,-370.102971
4668.367684,814.226536,-8580.269578,-296.082377
4668.368009,518.144159,-8580.269578,-296.082377
4668.368333,222.061783,-8886.707777,0.000000
4668.368657,444.123565,-8886.707777,-222.061783
4668.368982,222.061783,-9116.536426,0.000000
4668.369306,0.000000,-8503.660028,-666.185348
4668.369630,518.144159,-8810.098227,-296.082377
4668.369954,296.082377,-8580.269578,0.000000
4668.370279,370.102971,-8580.269578,74.020594
4668.370603,888.247130,-8580.269578,-296.082377
4668.370927,370.102971,-8350.440928,0.000000
4668.371252,666.185348,-8273.831378,0.000000
4668.371576,296.082377,-8733.488677,-592.164754
4668.371900,370.102971,-8427.050478,-222.061783
4668.372225,444.123565,-8733.488677,-518.144159
4668.372549,222.061783,-8810.098227,-74.020594
4668.372873,444.123565,-8503.660028,-148.041188
4668.373197,666.185348,-8503.660028,-444.123565
4668.373522,666.185348,-8273.831378,-296.082377
4668.373846,444.123565,-8197.221829,-444.123565
4668.374170,962.267725,-8580.269578,-296.082377
4668.374495,740.205942,-8197.221829,-444.123565
4668.374819,518.144159,-8580.269578,-518.144159
4668.375143,222.061783,-8503.660028,-518.144159
4668.375468,740.205942,-8733.488677,0.000000
4668.375792,0.000000,-8810.098227,-222.061783
4668.376116,444.123565,-8503.660028,-518.144159
4668.376440,444.123565,-8503.660028,-444.123565
4668.376765,444.123565,-8580.269578,-74.020594
4668.377089,1110.308913,-8350.440928,-592.164754
4668.377413,296.082377,-8810.098227,-370.102971
4668.377738,74.020594,-8580.269578,-666.185348
4668.378062,74.020594,-8656.879127,-592.164754
4668.378386,518.144159,-8350.440928,-296.082377
4668.378711,148.041188,-8810.098227,-444.123565
4668.379035,370.102971,-8656.879127,-444.123565
4668.379359,222.061783,-8580.269578,-222.061783
4668.379683,296.082377,-8580.269578,-296.082377
4668.380008,740.205942,-8580.269578,-666.185348
4668.380332,740.205942,-8733.488677,-592.164754
4668.380656,666.185348,-8427.050478,-296.082377
4668.380982,592.164754,-8503.660028,-592.164754
4668.381307,888.247130,-8886.707777,-592.164754
4668.381631,518.144159,-8580.269578,-666.185348
4668.381955,222.061783,-9116.536426,-222.061783
4668.382280,296.082377,-8886.707777,-592.164754
4668.382604,370.102971,-9346.365076,-592.164754
4668.382929,296.082377,-9039.926876,-296.082377
4668.383253,222.061783,-8733.488677,-518.144159
4668.383577,518.144159,-8656.879127,-444.123565
4668.383902,518.144159,-8810.098227,0.000000
4668.384226,592.164754,-8580.269578,-370.102971
4668.384550,296.082377,-9039.926876,-740.205942
4668.384875,518.144159,-8350.440928,-518.144159
4668.385199,444.123565,-8810.098227,-518.144159
4668.385523,74.020594,-8810.098227,-370.102971
4668.385848,370.102971,-8656.879127,0.000000
4668.386172,222.061783,-8580.269578,-296.082377
4668.386496,0.000000,-8886.707777,-370.102971
4668.386821,666.185348,-7967.393179,-888.247130
4668.387145,370.102971,-8810.098227,-296.082377
4668.387470,444.123565,-8197.221829,-592.164754
4668.387794,518.144159,-8733.488677,-370.102971
4668.388118,74.020594,-8197.221829,-370.102971
4668.388443,666.185348,-8656.879127,-592.164754
4668.388767,888.247130,-8197.221829,-740.205942
4668.389091,814.226536,-8427.050478,-148.041188
4668.389416,666.185348,-8120.612279,-222.061783
4668.389740,1110.308913,-8350.440928,-370.102971
4668.390064,740.205942,-8273.831378,-444.123565
4668.390389,592.164754,-8350.440928,-444.123565
4668.390713,370.102971,-8503.660028,-296.082377
4668.391038,370.102971,-8963.317327,-296.082377
4668.391362,592.164754,-8350.440928,-370.102971
4668.391686,444.123565,-8656.879127,0.000000
4668.392011,814.226536,-8120.612279,-296.082377
4668.392335,888.247130,-8580.269578,0.000000
4668.392659,518.144159,-8350.440928,-296.082377
4668.392984,296.082377,-8733.488677,-148.041188
4668.393308,370.102971,-8580.269578,-518.144159
4668.393632,518.144159,-8580.269578,-296.082377
4668.393957,518.144159,-8503.660028,-222.061783
4668.394281,296.082377,-8580.269578,0.000000
4668.394606,0.000000,-8350.440928,74.020594
4668.394930,148.041188,-8810.098227,-444.123565
4668.395254,222.061783,-9422.974625,-518.144159
4668.395579,148.041188,-8503.660028,-518.144159
4668.395903,370.102971,-8810.098227,-148.041188
4668.396227,222.061783,-8733.488677,-370.102971
4668.396552,370.102971,-8656.879127,-222.061783
4668.396876,518.144159,-8810.098227,-518.144159
4668.397200,296.082377,-8886.707777,-370.102971
4668.397525,592.164754,-8580.269578,-814.226536
4668.397849,814.226536,-8580.269578,-296.082377
4668.398173,444.123565,-9039.926876,-222.061783
4668.398498,296.082377,-8886.707777,-814.226536
4668.398822,518.144159,-8427.050478,-370.102971
4668.399147,148.041188,-8656.879127,-740.205942
4668.399471,148.041188,-9193.145976,-518.144159
4668.399795,222.061783,-8580.269578,-888.247130
4668.400120,296.082377,-8733.488677,-370.102971
4668.400444,148.041188,-8503.660028,-592.164754
4668.400768,444.123565,-8810.098227,-592.164754
4668.401093,296.082377,-8350.440928,-370.102971
4668.401417,370.102971,-8427.050478,-444.123565
4668.401741,148.041188,-8810.098227,-148.041188
4668.402066,148.041188,-8427.050478,-666.185348
4668.402390,1036.288319,-8197.221829,-370.102971
4668.402715,444.123565,-8273.831378,-444.123565
4668.403039,592.164754,-8580.269578,0.000000
4668.403363,592.164754,-8197.221829,0.000000
4668.403688,444.123565,-8733.488677,296.082377
4668.404012,296.082377,-8350.440928,-518.144159
4668.404336,814.226536,-8503.660028,-444.123565
4668.404661,962.267725,-8427.050478,-222.061783
4668.404985,666.185348,-8656.879127,-370.102971
4668.405309,1036.288319,-8044.002729,0.000000
4668.405634,518.144159,-8503.660028,0.000000
4668.405958,518.144159,-8197.221829,-370.102971
4668.406282,666.185348,-8810.098227,-444.123565
4668.406607,888.247130,-8044.002729,74.020594
4668.406931,740.205942,-8580.269578,-148.041188
4668.407256,592.164754,-8580.269578,0.000000
4668.407580,296.082377,-8503.660028,148.041188
4668.407904,296.082377,-8810.098227,0.000000
4668.408229,74.020594,-8580.269578,148.041188
4668.408553,148.041188,-8427.050478,-222.061783
4668.408877,592.164754,-8810.098227,-296.082377
4668.409202,592.164754,-8427.050478,0.000000
4668.409526,814.226536,-8350.440928,74.020594
4668.409850,592.164754,-8656.879127,0.000000
4668.410175,518.144159,-8963.317327,0.000000
4668.410499,370.102971,-8580.269578,-592.164754
4668.410824,814.226536,-8580.269578,-518.144159
4668.411148,444.123565,-8656.879127,-666.185348
4668.411472,592.164754,-8886.707777,-222.061783
4668.411797,222.061783,-8120.612279,-444.123565
4668.412121,148.041188,-8963.317327,-370.102971
4668.412445,222.061783,-8656.879127,-592.164754
4668.412770,370.102971,-9039.926876,-666.185348
4668.413094,222.061783,-8580.269578,-592.164754
4668.413418,444.123565,-8733.488677,-444.123565
4668.413743,666.185348,-8427.050478,-222.061783
4668.414067,0.000000,-9116.536426,-148.041188
4668.414391,222.061783,-8656.879127,-444.123565
4668.414716,74.020594,-9116.536426,-370.102971
4668.415040,370.102971,-8273.831378,-296.082377
4668.415365,518.144159,-8580.269578,-296.082377
4668.415689,592.164754,-8580.269578,-370.102971
4668.416013,814.226536,-8503.660028,-296.082377
4668.416338,666.185348,-8580.269578,-518.144159
4668.416662,370.102971,-8503.660028,-148.041188
4668.416986,592.164754,-8810.098227,-518.144159
4668.417311,74.020594,-8810.098227,-296.082377
4668.417635,222.061783,-8273.831378,-370.102971
4668.417959,370.102971,-8886.707777,0.000000
4668.418284,814.226536,-8580.269578,-814.226536
4668.418608,518.144159,-8810.098227,-518.144159
4668.418933,296.082377,-8733.488677,-592.164754
4668.419257,222.061783,-8273.831378,-518.144159
4668.419581,370.102971,-8197.221829,-666.185348
4668.419906,444.123565,-8810.098227,0.000000
4668.420230,518.144159,-8503.660028,-592.164754
4668.420554,222.061783,-8656.879127,74.020594
4668.420879,444.123565,-8656.879127,-666.185348
4668.421203,370.102971,-8810.098227,-296.082377
4668.421527,222.061783,-8503.660028,-592.164754
4668.421852,592.164754,-8656.879127,-370.102971
4668.422176,814.226536,-8120.612279,0.000000
4668.422501,740.205942,-8656.879127,0.000000
4668.422825,518.144159,-8503.660028,-148.041188
4668.423149,518.144159,-8580.269578,0.000000
4668.423474,444.123565,-8656.879127,-518.144159
4668.423798,888.247130,-8503.660028,-296.082377
4668.424122,518.144159,-8197.221829,-296.082377
4668.424447,740.205942,-8886.707777,-444.123565
4668.424771,518.144159,-8273.831378,-518.144159
4668.425095,0.000000,-8427.050478,-592.164754
4668.425420,518.144159,-8503.660028,-444.123565
4668.425744,444.123565,-8427.050478,-296.082377
4668.426068,444.123565,-8044.002729,-740.205942
4668.426393,296.082377,-8273.831378,-740.205942
4668.426717,444.123565,-8503.660028,-592.164754
4668.427042,370.102971,-8810.098227,-518.144159
4668.427366,148.041188,-8427.050478,-592.164754
4668.427690,0.000000,-8503.660028,-370.102971
4668.428015,0.000000,-8580.269578,-740.205942
4668.428339,296.082377,-8273.831378,-296.082377
4668.428663,0.000000,-8503.660028,-444.123565
4668.428988,592.164754,-8656.879127,0.000000
4668.429312,444.123565,-8427.050478,-148.041188
4668.429636,222.061783,-9039.926876,-74.020594
4668.429961,370.102971,-8580.269578,-740.205942
4668.430285,666.185348,-8886.707777,-518.144159
4668.430610,518.144159,-9576.193725,-370.102971
4668.430934,592.164754,-8963.317327,0.000000
4668.431258,222.061783,-8656.879127,-148.041188
4668.431583,0.000000,-8810.098227,-370.102971
4668.431907,444.123565,-8656.879127,-222.061783
4668.432231,222.061783,-9116.536426,-222.061783
4668.432556,666.185348,-8044.002729,-296.082377
4668.432880,814.226536,-8810.098227,-296.082377
4668.433204,592.164754,-8733.488677,0.000000
4668.433529,518.144159,-9346.365076,0.000000
4668.433853,518.144159,-8580.269578,-518.144159
4668.434177,444.123565,-8656.879127,0.000000
4668.434502,0.000000,-8886.707777,-296.082377
4668.434826,444.123565,-8273.831378,0.000000
4668.435151,74.020594,-8273.831378,0.000000
4668.435475,518.144159,-8810.098227,-296.082377
4668.435799,592.164754,-8733.488677,0.000000
4668.436124,592.164754,-8503.660028,0.000000
4668.436448,888.247130,-9039.926876,-296.082377
4668.436772,518.144159,-8733.488677,-518.144159
4668.437097,592.164754,-8273.831378,-296.082377
4668.437421,1036.288319,-8427.050478,-370.102971
4668.437745,666.185348,-8963.317327,0.000000
4668.438070,444.123565,-8427.050478,0.000000
4668.438394,444.123565,-8503.660028,-222.061783
4668.438719,592.164754,-8656.879127,-370.102971
4668.439043,592.164754,-9193.145976,-666.185348
4668.439367,740.205942,-8503.660028,-148.041188
4668.439692,222.061783,-8580.269578,0.000000
4668.440016,370.102971,-9116.536426,0.000000
4668.440340,0.000000,-8350.440928,0.000000
4668.440665,518.144159,-8503.660028,0.000000
4668.440989,370.102971,-8656.879127,-296.082377
4668.441313,666.185348,-8350.440928,0.000000
4668.441638,592.164754,-8580.269578,0.000000
4668.441962,74.020594,-9039.926876,518.144159
4668.442287,296.082377,-8503.660028,-222.061783
4668.442611,222.061783,-9116.536426,-148.041188
4668.442935,222.061783,-8580.269578,-592.164754
