#time,accel_x,accel_y,accel_z
4446.495857,296.082377,-8503.660028,-222.061783
4446.496181,148.041188,-8580.269578,-296.082377
4446.496505,296.082377,-8197.221829,0.000000
4446.496830,444.123565,-8656.879127,296.082377
4446.497154,592.164754,-8733.488677,0.000000
4446.497478,296.082377,-9116.536426,74.020594
4446.497802,444.123565,-8886.707777,74.020594
4446.498126,370.102971,-8656.879127,296.082377
4446.498450,592.164754,-9039.926876,74.020594
4446.498774,518.144159,-8580.269578,296.082377
4446.499098,444.123565,-8350.440928,222.061783
4446.499422,222.061783,-8810.098227,296.082377
4446.499746,222.061783,-9039.926876,518.144159
4446.500070,148.041188,-8503.660028,666.185348
4446.500394,222.061783,-8580.269578,592.164754
4446.500718,74.020594,-8580.269578,962.267725
4446.501043,518.144159,-8580.269578,888.247130
4446.501367,296.082377,-8963.317327,1110.308913
4446.501691,296.082377,-8197.221829,592.164754
4446.502015,74.020594,-8580.269578,888.247130
4446.502339,592.164754,-8656.879127,814.226536
4446.502663,0.000000,-8350.440928,1036.288319
4446.502987,518.144159,-8580.269578,740.205942
4446.503311,0.000000,-8350.440928,740.205942
4446.503635,592.164754,-8273.831378,518.144159
4446.503959,148.041188,-8810.098227,592.164754
4446.504283,518.144159,-8733.488677,814.226536
4446.504607,370.102971,-8733.488677,296.082377
4446.504932,666.185348,-8580.269578,370.102971
4446.505256,444.123565,-8656.879127,518.144159
4446.505580,148.041188,-8656.879127,444.123565
4446.505904,518.144159,-8197.221829,148.041188
4446.506228,592.164754,-8503.660028,0.000000
4446.506552,740.205942,-8810.098227,-148.041188
4446.506876,370.102971,-8503.660028,0.000000
4446.507200,666.185348,-8810.098227,-222.061783
4446.507524,370.102971,-8733.488677,0.000000
4446.507848,296.082377,-8810.098227,0.000000
4446.508172,518.144159,-9269.755526,0.000000
4446.508496,370.102971,-8580.269578,-148.041188
4446.508821,222.061783,-8810.098227,-148.041188
4446.509145,444.123565,-8886.707777,0.000000
4446.509469,518.144159,-8427.050478,-296.082377
4446.509793,592.164754,-8580.269578,-740.205942
4446.510117,444.123565,-8580.269578,-444.123565
4446.510442,296.082377,-8427.050478,-666.185348
4446.510766,370.102971,-8886.707777,-962.267725
4446.511090,592.164754,-8580.269578,-740.205942
4446.511414,296.082377,-8350.440928,-814.226536
4446.511738,296.082377,-8963.317327,-666.185348
4446.512063,296.082377,-8197.221829,-666.185348
4446.512387,592.164754,-8886.707777,-740.205942
4446.512711,518.144159,-8427.050478,-666.185348
4446.513035,814.226536,-8580.269578,-888.247130
4446.513359,444.123565,-8810.098227,-1036.288319
4446.513683,666.185348,-8503.660028,-962.267725
4446.514008,296.082377,-8044.002729,-962.267725
4446.514332,296.082377,-8580.269578,-1110.308913
4446.514656,740.205942,-8273.831378,-1036.288319
4446.514980,222.061783,-8733.488677,-1184.329507
4446.515304,0.000000,-8733.488677,-740.205942
4446.515629,222.061783,-8580.269578,-1110.308913
4446.515953,296.082377,-8656.879127,-888.247130
4446.516277,518.144159,-8427.050478,-1110.308913
4446.516601,592.164754,-8656.879127,-1184.329507
4446.516925,296.082377,-8963.317327,-1036.288319
4446.517250,740.205942,-8886.707777,-1110.308913
4446.517574,370.102971,-8656.879127,-1184.329507
4446.517898,444.123565,-8656.879127,-1184.329507
4446.518222,148.041188,-8273.831378,-518.144159
4446.518546,148.041188,-8656.879127,-888.247130
4446.518870,296.082377,-8810.098227,-814.226536
4446.519195,518.144159,-8733.488677,-962.267725
4446.519519,666.185348,-8810.098227,-888.247130
4446.519843,444.123565,-8503.660028,-666.185348
4446.520167,296.082377,-8810.098227,-518.144159
4446.520491,296.082377,-8963.317327,-518.144159
4446.520816,222.061783,-8733.488677,-592.164754
4446.521140,740.205942,-8656.879127,-962.267725
4446.521464,222.061783,-8810.098227,-592.164754
4446.521788,296.082377,-9116.536426,-740.205942
4446.522112,444.123565,-8886.707777,-666.185348
4446.522437,962.267725,-8886.707777,-666.185348
4446.522761,518.144159,-8733.488677,-888.247130
4446.523085,592.164754,-9039.926876,-444.123565
4446.523409,370.102971,-8503.660028,-444.123565
4446.523733,592.164754,-9039.926876,-444.123565
4446.524057,444.123565,-8886.707777,-518.144159
4446.524382,518.144159,-8886.707777,-666.185348
4446.524706,370.102971,-8733.488677,-592.164754
4446.525030,296.082377,-9116.536426,-444.123565
4446.525354,518.144159,-8350.440928,-370.102971
4446.525678,592.164754,-8580.269578,0.000000
4446.526003,740.205942,-8580.269578,-518.144159
4446.526327,740.205942,-8886.707777,-148.041188
4446.526651,518.144159,-7967.393179,0.000000
4446.526975,666.185348,-8733.488677,74.020594
4446.527299,370.102971,-8656.879127,0.000000
4446.527623,592.164754,-8886.707777,148.041188
4446.527948,518.144159,-8963.317327,0.000000
4446.528272,518.144159,-8810.098227,444.123565
4446.528596,666.185348,-8733.488677,518.144159
4446.528920,740.205942,-8580.269578,370.102971
4446.529244,666.185348,-8656.879127,666.185348
4446.529569,666.185348,-8580.269578,666.185348
4446.529893,962.267725,-8963.317327,592.164754
4446.530217,888.247130,-8273.831378,740.205942
4446.530541,888.247130,-8810.098227,962.267725
4446.530865,296.082377,-7967.393179,1258.350101
4446.531190,592.164754,-8350.440928,1036.288319
4446.531514,666.185348,-8580.269578,814.226536
4446.531838,370.102971,-8580.269578,814.226536
4446.532162,370.102971,-8580.269578,814.226536
4446.532486,444.123565,-8503.660028,814.226536
4446.532810,444.123565,-8427.050478,666.185348
4446.533135,444.123565,-8733.488677,740.205942
4446.533459,592.164754,-8350.440928,740.205942
4446.533783,518.144159,-8120.612279,370.102971
4446.534107,666.185348,-8886.707777,814.226536
4446.534431,518.144159,-8350.440928,592.164754
4446.534756,296.082377,-8656.879127,1110.308913
4446.535080,222.061783,-7584.345430,1332.370696
4446.535404,0.000000,-8503.660028,1036.288319
4446.535728,0.000000,-8580.269578,814.226536
4446.536052,0.000000,-8273.831378,1036.288319
4446.536377,0.000000,-8350.440928,740.205942
4446.536701,74.020594,-8427.050478,888.247130
4446.537025,74.020594,-8427.050478,666.185348
4446.537349,0.000000,-7967.393179,814.226536
4446.537673,0.000000,-8580.269578,814.226536
4446.537997,518.144159,-7814.174080,962.267725
4446.538322,296.082377,-8120.612279,740.205942
4446.538646,222.061783,-8503.660028,814.226536
4446.538970,74.020594,-8273.831378,888.247130
4446.539294,222.061783,-7737.564530,666.185348
4446.539618,296.082377,-8120.612279,518.144159
4446.539943,222.061783,-8273.831378,370.102971
4446.540267,148.041188,-8656.879127,222.061783
4446.540591,296.082377,-7967.393179,148.041188
4446.540915,444.123565,-8197.221829,444.123565
4446.541239,296.082377,-8427.050478,148.041188
4446.541564,444.123565,-8503.660028,74.020594
4446.541888,740.205942,-8580.269578,0.000000
4446.542212,296.082377,-9193.145976,-370.102971
4446.542536,370.102971,-8810.098227,0.000000
4446.542860,518.144159,-8733.488677,0.000000
4446.543184,518.144159,-8733.488677,-444.123565
4446.543509,222.061783,-8656.879127,-444.123565
4446.543833,0.000000,-8810.098227,-370.102971
4446.544157,148.041188,-8273.831378,-370.102971
4446.544481,222.061783,-8580.269578,-444.123565
4446.544805,518.144159,-8656.879127,-444.123565
4446.545130,592.164754,-8656.879127,-592.164754
4446.545454,740.205942,-8810.098227,-592.164754
4446.545778,518.144159,-8656.879127,-592.164754
4446.546102,518.144159,-8656.879127,-666.185348
4446.546426,444.123565,-9652.803275,-814.226536
4446.546751,444.123565,-8886.707777,-888.247130
4446.547075,222.061783,-8963.317327,-1184.329507
4446.547399,222.061783,-8733.488677,-888.247130
4446.547723,222.061783,-8197.221829,-1184.329507
4446.548047,0.000000,-8580.269578,-962.267725
4446.548371,444.123565,-8580.269578,-1332.370696
4446.548696,370.102971,-8886.707777,-1184.329507
4446.549020,518.144159,-8503.660028,-1258.350101
4446.549344,518.144159,-8963.317327,-888.247130
4446.549668,444.123565,-8580.269578,-1332.370696
4446.549992,592.164754,-8656.879127,-1110.308913
4446.550317,296.082377,-8580.269578,-1332.370696
4446.550641,444.123565,-9652.803275,-1258.350101
4446.550965,444.123565,-8427.050478,-1110.308913
4446.551289,0.000000,-8656.879127,-888.247130
4446.551613,-148.041188,-8503.660028,-1110.308913
4446.551938,148.041188,-8580.269578,-962.267725
4446.552262,-148.041188,-8963.317327,-814.226536
4446.552586,592.164754,-8656.879127,-592.164754
4446.552910,370.102971,-8733.488677,-592.164754
4446.553234,370.102971,-8580.269578,-518.144159
4446.553558,444.123565,-8963.317327,-148.041188
4446.553883,296.082377,-8656.879127,-296.082377
4446.554207,444.123565,-8810.098227,-222.061783
4446.554531,148.041188,-8503.660028,0.000000
4446.554855,0.000000,-9039.926876,-222.061783
4446.555179,296.082377,-8580.269578,-222.061783
4446.555504,222.061783,-8580.269578,-222.061783
4446.555828,148.041188,-8503.660028,-222.061783
4446.556152,296.082377,-8580.269578,222.061783
4446.556476,74.020594,-8350.440928,148.041188
4446.556800,518.144159,-8656.879127,74.020594
4446.557125,444.123565,-8503.660028,74.020594
4446.557449,518.144159,-8886.707777,0.000000
4446.557773,888.247130,-8273.831378,370.102971
4446.558097,518.144159,-8503.660028,0.000000
4446.558421,296.082377,-8886.707777,-148.041188
4446.558745,370.102971,-8350.440928,-222.061783
4446.559070,370.102971,-8580.269578,0.000000
4446.559394,444.123565,-8044.002729,-518.144159
4446.559718,222.061783,-8580.269578,-296.082377
4446.560042,518.144159,-8427.050478,-74.020594
4446.560366,370.102971,-8350.440928,0.000000
4446.560691,296.082377,-8120.612279,-370.102971
4446.561015,518.144159,-8427.050478,0.000000
4446.561339,518.144159,-8120.612279,-222.061783
4446.561663,148.041188,-8656.879127,0.000000
4446.561987,0.000000,-8810.098227,-444.123565
4446.562311,222.061783,-8273.831378,-296.082377
4446.562636,370.102971,-8580.269578,-296.082377
4446.562960,370.102971,-8580.269578,-222.061783
4446.563284,370.102971,-8580.269578,-74.020594
4446.563608,296.082377,-8273.831378,-222.061783
4446.563932,444.123565,-8580.269578,-296.082377
4446.564257,148.041188,-8656.879127,0.000000
4446.564581,666.185348,-8656.879127,0.000000
4446.564905,592.164754,-8580.269578,-222.061783
4446.565229,296.082377,-8580.269578,-370.102971
4446.565553,148.041188,-8503.660028,-370.102971
4446.565878,222.061783,-8503.660028,-518.144159
4446.566202,518.144159,-8656.879127,-296.082377
4446.566526,518.144159,-8503.660028,-518.144159
4446.566850,296.082377,-8810.098227,-370.102971
4446.567174,444.123565,-8503.660028,-444.123565
4446.567498,518.144159,-8273.831378,-740.205942
4446.567823,444.123565,-8656.879127,-518.144159
4446.568147,148.041188,-8427.050478,-296.082377
4446.568471,222.061783,-8273.831378,-370.102971
4446.568795,148.041188,-8810.098227,-592.164754
4446.569119,222.061783,-8963.317327,-296.082377
4446.569444,444.123565,-8810.098227,-370.102971
4446.569768,74.020594,-8886.707777,-296.082377
4446.570092,222.061783,-8427.050478,-444.123565
4446.570416,222.061783,-8886.707777,0.000000
4446.570740,222.061783,-8427.050478,-518.144159
4446.571065,222.061783,-8273.831378,-444.123565
4446.571389,592.164754,-8733.488677,-370.102971
4446.571713,444.123565,-8503.660028,74.020594
4446.572037,74.020594,-8580.269578,-148.041188
4446.572361,148.041188,-8733.488677,-222.061783
4446.572685,296.082377,-8044.002729,-444.123565
4446.573010,296.082377,-8197.221829,-370.102971
4446.573334,148.041188,-8580.269578,296.082377
4446.573658,222.061783,-8427.050478,-444.123565
4446.573982,222.061783,-8197.221829,-666.185348
4446.574306,296.082377,-8197.221829,-444.123565
4446.574631,592.164754,-9039.926876,-518.144159
4446.574955,370.102971,-8503.660028,-666.185348
4446.575279,740.205942,-7967.393179,-518.144159
4446.575603,518.144159,-8350.440928,-666.185348
4446.575927,444.123565,-8503.660028,-518.144159
4446.576252,444.123565,-8656.879127,-666.185348
4446.576576,444.123565,-8503.660028,-666.185348
4446.576900,148.041188,-8503.660028,-592.164754
4446.577224,222.061783,-8733.488677,-1110.308913
4446.577548,148.041188,-9346.365076,-666.185348
4446.577872,518.144159,-8427.050478,-1110.308913
4446.578197,814.226536,-8886.707777,-740.205942
4446.578521,740.205942,-8580.269578,-666.185348
4446.578845,592.164754,-8733.488677,-666.185348
4446.579169,666.185348,-9116.536426,-888.247130
4446.579493,740.205942,-8656.879127,-740.205942
4446.579818,888.247130,-9039.926876,-888.247130
4446.580142,888.247130,-8810.098227,-962.267725
4446.580466,666.185348,-9039.926876,-518.144159
4446.580790,444.123565,-9116.536426,-888.247130
4446.581114,444.123565,-9039.926876,-814.226536
4446.581439,222.061783,-8886.707777,-1258.350101
4446.581763,296.082377,-9039.926876,-814.226536
4446.582087,592.164754,-9039.926876,-814.226536
4446.582411,370.102971,-8963.317327,-814.226536
4446.582735,740.205942,-9039.926876,-1258.350101
4446.583059,666.185348,-9269.755526,-1332.370696
4446.583384,666.185348,-9116.536426,-1110.308913
4446.583708,740.205942,-9039.926876,-1332.370696
4446.584032,296.082377,-8963.317327,-1406.391290
4446.584356,370.102971,-8963.317327,-1406.391290
4446.584680,592.164754,-9116.536426,-1554.432478
4446.585005,370.102971,-8886.707777,-1554.432478
4446.585329,666.185348,-9269.755526,-1776.494261
4446.585653,740.205942,-8580.269578,-1554.432478
4446.585977,666.185348,-9346.365076,-1554.432478
4446.586301,740.205942,-9116.536426,-1406.391290
4446.586626,888.247130,-8810.098227,-1628.453072
4446.586950,666.185348,-9116.536426,-1480.411884
4446.587274,666.185348,-9116.536426,-1332.370696
4446.587598,592.164754,-8886.707777,-1258.350101
4446.587922,444.123565,-9193.145976,-1110.308913
4446.588246,74.020594,-8427.050478,-1332.370696
4446.588571,444.123565,-9116.536426,-1480.411884
4446.588895,592.164754,-8350.440928,-962.267725
4446.589219,518.144159,-9039.926876,-1036.288319
4446.589543,222.061783,-8886.707777,-1110.308913
4446.589867,666.185348,-8733.488677,-1110.308913
4446.590192,518.144159,-9269.755526,-888.247130
4446.590516,592.164754,-8656.879127,-1184.329507
4446.590840,518.144159,-8273.831378,-814.226536
4446.591164,814.226536,-8656.879127,-888.247130
4446.591488,518.144159,-8580.269578,-740.205942
4446.591813,592.164754,-8197.221829,-814.226536
4446.592137,370.102971,-8580.269578,-814.226536
4446.592461,444.123565,-8197.221829,-740.205942
4446.592785,518.144159,-8197.221829,-740.205942
4446.593109,592.164754,-7890.783629,-444.123565
4446.593433,444.123565,-8044.002729,-814.226536
4446.593758,444.123565,-8197.221829,-666.185348
4446.594082,370.102971,-8656.879127,-666.185348
4446.594406,296.082377,-8350.440928,74.020594
4446.594730,222.061783,-8273.831378,-148.041188
4446.595054,148.041188,-8273.831378,-222.061783
4446.595379,592.164754,-8044.002729,-518.144159
4446.595703,444.123565,-8733.488677,-148.041188
4446.596027,222.061783,-7737.564530,74.020594
4446.596351,222.061783,-8273.831378,-222.061783
4446.596675,592.164754,-8427.050478,0.000000
4446.597000,518.144159,-8120.612279,0.000000
4446.597324,296.082377,-8120.612279,222.061783
4446.597648,222.061783,-8427.050478,222.061783
4446.597972,370.102971,-8350.440928,74.020594
4446.598296,370.102971,-8580.269578,0.000000
4446.598620,518.144159,-8350.440928,0.000000
4446.598945,296.082377,-8580.269578,222.061783
4446.599269,444.123565,-8580.269578,148.041188
4446.599593,370.102971,-8350.440928,0.000000
4446.599917,370.102971,-8580.269578,-444.123565
4446.600241,444.123565,-8044.002729,74.020594
4446.600566,444.123565,-8580.269578,0.000000
4446.600890,370.102971,-8656.879127,-296.082377
4446.601214,148.041188,-8656.879127,0.000000
4446.601538,1110.308913,-8886.707777,-148.041188
4446.601862,444.123565,-8580.269578,-222.061783
4446.602186,370.102971,-8350.440928,0.000000
4446.602511,370.102971,-8503.660028,-518.144159
4446.602835,666.185348,-8350.440928,-148.041188
4446.603159,0.000000,-8580.269578,0.000000
4446.603483,148.041188,-8656.879127,-370.102971
4446.603807,444.123565,-8656.879127,-222.061783
4446.604132,296.082377,-8580.269578,-296.082377
4446.604456,740.205942,-9116.536426,-222.061783
4446.604780,370.102971,-8580.269578,0.000000
4446.605104,222.061783,-8656.879127,0.000000
4446.605428,444.123565,-8810.098227,74.020594
4446.605753,666.185348,-8580.269578,0.000000
4446.606077,666.185348,-8886.707777,148.041188
4446.606401,592.164754,-8503.660028,74.020594
4446.606725,518.144159,-8580.269578,0.000000
4446.607049,222.061783,-8886.707777,0.000000
4446.607373,370.102971,-8580.269578,-222.061783
4446.607698,370.102971,-8503.660028,0.000000
4446.608022,444.123565,-8886.707777,0.000000
4446.608346,518.144159,-8656.879127,-222.061783
4446.608670,888.247130,-8503.660028,0.000000
4446.608994,592.164754,-8580.269578,-222.061783
4446.609319,888.247130,-8886.707777,-148.041188
4446.609643,740.205942,-8656.879127,0.000000
4446.609968,666.185348,-7890.783629,0.000000
4446.610292,370.102971,-8503.660028,-296.082377
4446.610617,444.123565,-8503.660028,-148.041188
4446.610941,370.102971,-8656.879127,0.000000
4446.611266,370.102971,-8656.879127,-148.041188
4446.611590,444.123565,-8350.440928,-370.102971
4446.611915,296.082377,-8427.050478,-222.061783
4446.612239,444.123565,-8580.269578,0.000000
4446.612564,444.123565,-8427.050478,-148.041188
4446.612888,666.185348,-9346.365076,-296.082377
4446.613213,518.144159,-8503.660028,0.000000
4446.613537,370.102971,-8350.440928,-222.061783
4446.613862,370.102971,-8810.098227,0.000000
4446.614186,222.061783,-8503.660028,-222.061783
4446.614511,370.102971,-8810.098227,0.000000
4446.614835,148.041188,-8733.488677,-370.102971
4446.615160,222.061783,-8810.098227,0.000000
4446.615484,222.061783,-8580.269578,-370.102971
4446.615809,74.020594,-8810.098227,0.000000
4446.616133,518.144159,-8503.660028,-666.185348
4446.616458,444.123565,-8350.440928,-370.102971
4446.616782,592.164754,-8350.440928,-296.082377
4446.617107,814.226536,-9422.974625,-370.102971
4446.617431,370.102971,-8656.879127,-592.164754
4446.617756,148.041188,-8427.050478,-296.082377
4446.618080,518.144159,-8580.269578,-592.164754
4446.618405,222.061783,-8427.050478,-518.144159
4446.618729,296.082377,-9039.926876,-666.185348
4446.619054,222.061783,-8656.879127,-518.144159
4446.619378,370.102971,-8350.440928,-666.185348
4446.619703,296.082377,-8656.879127,-592.164754
4446.620027,666.185348,-8886.707777,-888.247130
4446.620352,666.185348,-8503.660028,-370.102971
4446.620676,592.164754,-8427.050478,-888.247130
4446.621001,666.185348,-8656.879127,-518.144159
4446.621325,592.164754,-8733.488677,-518.144159
4446.621649,518.144159,-8656.879127,-444.123565
4446.621974,148.041188,-8580.269578,-370.102971
4446.622298,370.102971,-8120.612279,-296.082377
4446.622623,666.185348,-8197.221829,-444.123565
4446.622947,296.082377,-8580.269578,-740.205942
4446.623272,518.144159,-8580.269578,-518.144159
4446.623596,666.185348,-8350.440928,0.000000
4446.623921,518.144159,-8350.440928,0.000000
4446.624245,518.144159,-8273.831378,-444.123565
4446.624570,370.102971,-8503.660028,-370.102971
4446.624894,518.144159,-8580.269578,-296.082377
4446.625219,296.082377,-8656.879127,-370.102971
4446.625543,592.164754,-8733.488677,-370.102971
4446.625868,666.185348,-8580.269578,-296.082377
4446.626192,296.082377,-8350.440928,-296.082377
4446.626517,444.123565,-8886.707777,-518.144159
4446.626841,444.123565,-8427.050478,-222.061783
4446.627166,814.226536,-8120.612279,-148.041188
4446.627490,222.061783,-8580.269578,-370.102971
4446.627815,222.061783,-8580.269578,-370.102971
4446.628139,148.041188,-8197.221829,0.000000
4446.628464,296.082377,-8503.660028,-222.061783
4446.628788,148.041188,-8503.660028,0.000000
4446.629113,222.061783,-8580.269578,0.000000
4446.629437,74.020594,-8810.098227,0.000000
4446.629762,74.020594,-8580.269578,0.000000
4446.630086,444.123565,-8656.879127,-296.082377
4446.630411,444.123565,-8656.879127,148.041188
4446.630735,296.082377,-8197.221829,148.041188
4446.631060,74.020594,-8656.879127,148.041188
4446.631384,444.123565,-8733.488677,0.000000
4446.631709,444.123565,-8503.660028,296.082377
4446.632033,444.123565,-8810.098227,148.041188
4446.632358,518.144159,-8580.269578,592.164754
4446.632682,444.123565,-9269.755526,518.144159
4446.633007,518.144159,-8656.879127,148.041188
4446.633331,74.020594,-8427.050478,0.000000
4446.633656,222.061783,-8810.098227,222.061783
4446.633980,370.102971,-8963.317327,0.000000
4446.634305,74.020594,-8503.660028,222.061783
4446.634629,148.041188,-8580.269578,-148.041188
4446.634954,518.144159,-8350.440928,0.000000
4446.635278,518.144159,-8656.879127,-148.041188
4446.635603,296.082377,-8503.660028,-370.102971
4446.635927,666.185348,-8733.488677,0.000000
4446.636251,518.144159,-8503.660028,0.000000
4446.636576,592.164754,-8580.269578,0.000000
4446.636900,296.082377,-8503.660028,-444.123565
4446.637225,518.144159,-8810.098227,0.000000
4446.637549,444.123565,-8656.879127,0.000000
4446.637874,222.061783,-8656.879127,0.000000
4446.638198,592.164754,-8733.488677,0.000000
4446.638523,814.226536,-8810.098227,74.020594
4446.638847,740.205942,-8580.269578,0.000000
4446.639172,592.164754,-8810.098227,148.041188
4446.639496,814.226536,-8503.660028,222.061783
4446.639821,740.205942,-8810.098227,0.000000
4446.640145,444.123565,-8427.050478,74.020594
4446.640470,370.102971,-8733.488677,0.000000
4446.640794,666.185348,-9039.926876,0.000000
4446.641119,592.164754,-8350.440928,148.041188
4446.641443,666.185348,-8810.098227,0.000000
4446.641768,888.247130,-8733.488677,-370.102971
4446.642092,592.164754,-8427.050478,0.000000
4446.642417,814.226536,-8733.488677,-222.061783
4446.642741,740.205942,-8810.098227,0.000000
4446.643066,592.164754,-8810.098227,0.000000
4446.643390,814.226536,-8886.707777,-444.123565
4446.643715,296.082377,-8427.050478,-222.061783
4446.644039,296.082377,-9422.974625,222.061783
4446.644364,592.164754,-8350.440928,-296.082377
4446.644688,444.123565,-8427.050478,-296.082377
4446.645013,370.102971,-8963.317327,-444.123565
4446.645337,222.061783,-9039.926876,-148.041188
4446.645662,370.102971,-8733.488677,-222.061783
4446.645986,444.123565,-8656.879127,-296.082377
4446.646311,296.082377,-8656.879127,0.000000
4446.646635,148.041188,-8733.488677,0.000000
4446.646960,666.185348,-9116.536426,0.000000
4446.647284,148.041188,-8580.269578,0.000000
4446.647609,296.082377,-8886.707777,0.000000
4446.647933,592.164754,-8427.050478,0.000000
4446.648258,370.102971,-7967.393179,222.061783
4446.648582,74.020594,-8580.269578,148.041188
4446.648907,74.020594,-8350.440928,0.000000
4446.649231,296.082377,-8580.269578,0.000000
4446.649556,296.082377,-8810.098227,-222.061783
4446.649880,74.020594,-8427.050478,74.020594
4446.650204,370.102971,-8503.660028,0.000000
4446.650529,148.041188,-8350.440928,-222.061783
4446.650853,518.144159,-8427.050478,-444.123565
4446.651178,74.020594,-8273.831378,-222.061783
4446.651502,296.082377,-8427.050478,0.000000
4446.651827,370.102971,-8810.098227,-444.123565
4446.652151,444.123565,-8503.660028,-370.102971
4446.652476,296.082377,-8273.831378,-148.041188
4446.652800,148.041188,-8580.269578,-740.205942
4446.653125,0.000000,-8427.050478,-518.144159
4446.653449,0.000000,-8810.098227,-444.123565
4446.653774,148.041188,-8273.831378,-444.123565
4446.654098,74.020594,-8733.488677,-444.123565
4446.654423,74.020594,-8427.050478,-370.102971
4446.654747,370.102971,-8427.050478,-444.123565
4446.655072,592.164754,-8044.002729,-148.041188
4446.655396,740.205942,-9039.926876,-296.082377
4446.655721,444.123565,-8656.879127,-296.082377
4446.656045,222.061783,-8503.660028,-222.061783
4446.656370,296.082377,-8580.269578,-222.061783
4446.656694,518.144159,-8733.488677,0.000000
4446.657019,148.041188,-8656.879127,-148.041188
4446.657343,222.061783,-8733.488677,-296.082377
4446.657668,148.041188,-8503.660028,-444.123565
4446.657992,444.123565,-8810.098227,-444.123565
4446.658317,444.123565,-8350.440928,-148.041188
4446.658641,666.185348,-8733.488677,-296.082377
4446.658966,370.102971,-8963.317327,-592.164754
4446.659290,518.144159,-8656.879127,-666.185348
4446.659615,222.061783,-8350.440928,-1258.350101
4446.659939,444.123565,-8886.707777,-592.164754
4446.660264,0.000000,-8886.707777,-666.185348
4446.660588,296.082377,-8886.707777,-666.185348
4446.660913,296.082377,-7967.393179,-666.185348
4446.661237,666.185348,-8810.098227,-888.247130
4446.661562,444.123565,-8503.660028,-666.185348
4446.661886,518.144159,-8427.050478,0.000000
4446.662211,148.041188,-8503.660028,-666.185348
4446.662535,222.061783,-8963.317327,-888.247130
4446.662860,518.144159,-8580.269578,-740.205942
4446.663184,222.061783,-8810.098227,-370.102971
4446.663509,222.061783,-8503.660028,-666.185348
4446.663833,518.144159,-9652.803275,-296.082377
4446.664158,74.020594,-8580.269578,-370.102971
4446.664482,370.102971,-8580.269578,-444.123565
4446.664806,296.082377,-8810.098227,-370.102971
4446.665131,518.144159,-8503.660028,0.000000
4446.665455,370.102971,-8580.269578,0.000000
4446.665780,296.082377,-8963.317327,0.000000
4446.666104,444.123565,-8120.612279,-222.061783
4446.666429,296.082377,-8886.707777,-222.061783
4446.666753,0.000000,-8656.879127,0.000000
4446.667078,74.020594,-8656.879127,0.000000
4446.667402,222.061783,-8580.269578,0.000000
4446.667727,370.102971,-8427.050478,0.000000
4446.668051,296.082377,-8120.612279,-888.247130
4446.668376,518.144159,-8580.269578,-296.082377
4446.668700,888.247130,-8197.221829,-296.082377
4446.669025,518.144159,-8350.440928,-222.061783
4446.669349,296.082377,-8580.269578,-370.102971
4446.669674,296.082377,-8656.879127,-296.082377
4446.669998,74.020594,-8580.269578,-370.102971
4446.670323,148.041188,-8580.269578,-148.041188
4446.670647,296.082377,-8503.660028,-222.061783
4446.670972,222.061783,-8810.098227,74.020594
4446.671296,296.082377,-8197.221829,0.000000
4446.671621,740.205942,-8733.488677,0.000000
4446.671945,444.123565,-8580.269578,-148.041188
4446.672270,592.164754,-8350.440928,74.020594
4446.672594,370.102971,-8427.050478,0.000000
4446.672919,296.082377,-8503.660028,74.020594
4446.673243,444.123565,-8044.002729,0.000000
4446.673568,296.082377,-8886.707777,0.000000
4446.673892,148.041188,-8503.660028,0.000000
4446.674217,444.123565,-8503.660028,74.020594
4446.674541,592.164754,-8733.488677,0.000000
4446.674866,740.205942,-8580.269578,-148.041188
4446.675190,814.226536,-8656.879127,0.000000
4446.675515,666.185348,-8503.660028,-148.041188
4446.675839,222.061783,-8350.440928,0.000000
4446.676164,518.144159,-8656.879127,-370.102971
4446.676488,444.123565,-8427.050478,-370.102971
4446.676813,740.205942,-8503.660028,-222.061783
4446.677137,518.144159,-8503.660028,-592.164754
4446.677462,592.164754,-8350.440928,-518.144159
4446.677786,444.123565,-8656.879127,-518.144159
4446.678111,370.102971,-8886.707777,-296.082377
4446.678435,370.102971,-8580.269578,-592.164754
4446.678760,444.123565,-8656.879127,-592.164754
4446.679084,518.144159,-8427.050478,-740.205942
4446.679408,296.082377,-8810.098227,-148.041188
4446.679733,296.082377,-8886.707777,-740.205942
4446.680057,518.144159,-8810.098227,-444.123565
4446.680382,740.205942,-8733.488677,-666.185348
4446.680706,518.144159,-8503.660028,-592.164754
4446.681031,592.164754,-8963.317327,-296.082377
4446.681355,370.102971,-8350.440928,-518.144159
4446.681680,518.144159,-8733.488677,-370.102971
4446.682004,296.082377,-8273.831378,-592.164754
4446.682329,740.205942,-8886.707777,-888.247130
4446.682653,518.144159,-8656.879127,-444.123565
4446.682978,518.144159,-8656.879127,-518.144159
4446.683302,370.102971,-8733.488677,-592.164754
4446.683627,592.164754,-8273.831378,-444.123565
4446.683951,814.226536,-8886.707777,-518.144159
4446.684276,518.144159,-8580.269578,-740.205942
4446.684600,592.164754,-8350.440928,-518.144159
4446.684925,666.185348,-8503.660028,-666.185348
4446.685249,814.226536,-8810.098227,-888.247130
4446.685574,814.226536,-8427.050478,-1110.308913
4446.685898,444.123565,-8503.660028,-740.205942
4446.686223,666.185348,-8350.440928,-814.226536
4446.686547,740.205942,-8350.440928,-518.144159
4446.686872,444.123565,-8656.879127,-666.185348
4446.687196,444.123565,-8503.660028,-1036.288319
4446.687521,592.164754,-8503.660028,-592.164754
4446.687845,740.205942,-8886.707777,-296.082377
4446.688170,592.164754,-8656.879127,-592.164754
4446.688494,592.164754,-8656.879127,-740.205942
4446.688819,518.144159,-8656.879127,-666.185348
4446.689143,518.144159,-8427.050478,-518.144159
4446.689468,296.082377,-8656.879127,-370.102971
4446.689792,518.144159,-8580.269578,-370.102971
4446.690117,518.144159,-8427.050478,-370.102971
4446.690441,592.164754,-8733.488677,-518.144159
4446.690766,888.247130,-8350.440928,-592.164754
4446.691090,370.102971,-8656.879127,-148.041188
4446.691415,222.061783,-8273.831378,-222.061783
4446.691739,518.144159,-8427.050478,-222.061783
4446.692064,740.205942,-8656.879127,-370.102971
4446.692388,444.123565,-8427.050478,-666.185348
4446.692713,592.164754,-8503.660028,-592.164754
4446.693037,518.144159,-8197.221829,-296.082377
4446.693362,370.102971,-8273.831378,-518.144159
4446.693686,740.205942,-8810.098227,-962.267725
4446.694010,370.102971,-8503.660028,-740.205942
4446.694335,370.102971,-8656.879127,-888.247130
4446.694659,370.102971,-8656.879127,-740.205942
4446.694984,592.164754,-9116.536426,-222.061783
4446.695308,444.123565,-8656.879127,-888.247130
4446.695633,370.102971,-8503.660028,-740.205942
4446.695957,592.164754,-8656.879127,-888.247130
4446.696282,666.185348,-8427.050478,-740.205942
4446.696606,444.123565,-8273.831378,-444.123565
4446.696931,296.082377,-8656.879127,-592.164754
4446.697255,222.061783,-8580.269578,-888.247130
4446.697580,518.144159,-8580.269578,-666.185348
4446.697904,296.082377,-8733.488677,-518.144159
4446.698229,370.102971,-8810.098227,-518.144159
4446.698553,296.082377,-8580.269578,-740.205942
4446.698878,444.123565,-8733.488677,-296.082377
4446.699202,814.226536,-8350.440928,-370.102971
4446.699527,370.102971,-8963.317327,-666.185348
4446.699851,666.185348,-8503.660028,-370.102971
4446.700176,444.123565,-8656.879127,-148.041188
4446.700500,444.123565,-8886.707777,-592.164754
4446.700825,518.144159,-8350.440928,-592.164754
4446.701149,888.247130,-9039.926876,-592.164754
4446.701474,666.185348,-8810.098227,-740.205942
4446.701798,592.164754,-8810.098227,-592.164754
4446.702123,370.102971,-8810.098227,-370.102971
4446.702447,518.144159,-8427.050478,-592.164754
4446.702772,814.226536,-8656.879127,-814.226536
4446.703096,666.185348,-8580.269578,-814.226536
4446.703421,1036.288319,-8656.879127,-518.144159
4446.703745,296.082377,-8733.488677,-814.226536
4446.704070,148.041188,-8810.098227,-666.185348
4446.704394,222.061783,-8580.269578,-666.185348
4446.704719,370.102971,-8503.660028,-518.144159
4446.705043,592.164754,-8656.879127,-518.144159
4446.705368,518.144159,-8580.269578,-370.102971
4446.705692,370.102971,-8580.269578,-222.061783
4446.706017,518.144159,-8580.269578,-444.123565
4446.706341,740.205942,-8427.050478,-518.144159
4446.706666,444.123565,-8580.269578,-222.061783
4446.706990,518.144159,-8580.269578,0.000000
4446.707315,74.020594,-8656.879127,-148.041188
4446.707639,370.102971,-8580.269578,0.000000
4446.707964,296.082377,-8350.440928,74.020594
4446.708288,666.185348,-8427.050478,0.000000
4446.708612,370.102971,-8503.660028,0.000000
4446.708937,592.164754,-8503.660028,0.000000
4446.709261,518.144159,-8273.831378,-222.061783
4446.709586,518.144159,-8273.831378,-222.061783
4446.709910,888.247130,-8810.098227,-222.061783
4446.710235,666.185348,-8503.660028,-296.082377
4446.710559,888.247130,-8733.488677,-518.144159
4446.710884,518.144159,-8733.488677,-370.102971
4446.711209,222.061783,-8656.879127,-296.082377
4446.711533,74.020594,-8503.660028,-74.020594
4446.711858,148.041188,-9193.145976,-370.102971
4446.712182,296.082377,-8273.831378,-370.102971
4446.712507,370.102971,-8503.660028,0.000000
4446.712831,370.102971,-8580.269578,-370.102971
4446.713156,370.102971,-8810.098227,-222.061783
4446.713480,740.205942,-8733.488677,-444.123565
4446.713805,592.164754,-8350.440928,0.000000
4446.714129,222.061783,-8273.831378,-222.061783
4446.714454,296.082377,-8656.879127,-148.041188
4446.714778,666.185348,-8580.269578,-74.020594
4446.715103,370.102971,-8886.707777,-444.123565
4446.715427,296.082377,-8427.050478,-370.102971
4446.715752,222.061783,-8580.269578,-296.082377
4446.716076,444.123565,-8580.269578,-296.082377
4446.716401,296.082377,-8656.879127,-370.102971
4446.716725,296.082377,-8733.488677,-222.061783
4446.717050,444.123565,-8503.660028,-370.102971
4446.717374,518.144159,-8273.831378,-370.102971
4446.717699,518.144159,-9116.536426,0.000000
4446.718023,444.123565,-8733.488677,-222.061783
4446.718348,666.185348,-8427.050478,-666.185348
4446.718672,370.102971,-8733.488677,-740.205942
4446.718997,814.226536,-9499.584175,-148.041188
4446.719321,370.102971,-8580.269578,-740.205942
4446.719646,518.144159,-9193.145976,-666.185348
4446.719970,296.082377,-8580.269578,-666.185348
4446.720295,592.164754,-8656.879127,-666.185348
4446.720619,296.082377,-8273.831378,-518.144159
4446.720944,518.144159,-8503.660028,-666.185348
4446.721268,444.123565,-8580.269578,-814.226536
4446.721593,518.144159,-8656.879127,-740.205942
4446.721917,518.144159,-8427.050478,-592.164754
4446.722242,518.144159,-8580.269578,-666.185348
4446.722566,518.144159,-8810.098227,-740.205942
4446.722891,444.123565,-8427.050478,-666.185348
4446.723215,222.061783,-8656.879127,-370.102971
4446.723540,296.082377,-8503.660028,-592.164754
4446.723864,444.123565,-8733.488677,-444.123565
4446.724189,592.164754,-8503.660028,-444.123565
4446.724514,666.185348,-8503.660028,-518.144159
4446.724838,148.041188,-8886.707777,-296.082377
4446.725163,666.185348,-8580.269578,-296.082377
4446.725487,592.164754,-8580.269578,-148.041188
4446.725812,444.123565,-8810.098227,-296.082377
4446.726136,296.082377,-8350.440928,74.020594
4446.726461,518.144159,-8580.269578,-370.102971
4446.726785,518.144159,-8503.660028,-222.061783
4446.727110,518.144159,-8427.050478,-518.144159
4446.727434,518.144159,-8656.879127,0.000000
4446.727759,222.061783,-8350.440928,-296.082377
4446.728083,444.123565,-8810.098227,-296.082377
4446.728408,444.123565,-8810.098227,-296.082377
4446.728732,666.185348,-8810.098227,-296.082377
4446.729057,518.144159,-8580.269578,-666.185348
4446.729381,222.061783,-8656.879127,-222.061783
4446.729706,518.144159,-8656.879127,-296.082377
4446.730030,296.082377,-8656.879127,-444.123565
4446.730355,740.205942,-8733.488677,-518.144159
4446.730679,370.102971,-8503.660028,-518.144159
4446.731004,592.164754,-8503.660028,-370.102971
4446.731328,444.123565,-8350.440928,-74.020594
4446.731653,518.144159,-8733.488677,-592.164754
4446.731977,518.144159,-8503.660028,-296.082377
4446.732302,296.082377,-8580.269578,-296.082377
4446.732626,74.020594,-8810.098227,-444.123565
4446.732951,296.082377,-8580.269578,0.000000
4446.733275,0.000000,-8427.050478,0.000000
4446.733600,296.082377,-8733.488677,0.000000
4446.733924,74.020594,-8580.269578,-222.061783
4446.734249,222.061783,-8810.098227,0.000000
4446.734573,666.185348,-8273.831378,0.000000
4446.734898,518.144159,-8580.269578,0.000000
4446.735222,444.123565,-8886.707777,-370.102971
4446.735547,444.123565,-8427.050478,-222.061783
4446.735871,444.123565,-8810.098227,-370.102971
4446.736196,666.185348,-8580.269578,0.000000
4446.736520,222.061783,-8197.221829,-296.082377
4446.736845,222.061783,-8656.879127,-222.061783
4446.737169,222.061783,-8273.831378,-370.102971
4446.737494,222.061783,-8810.098227,-296.082377
4446.737819,222.061783,-8656.879127,0.000000
4446.738143,296.082377,-8273.831378,0.000000
4446.738468,296.082377,-8427.050478,-222.061783
4446.738792,370.102971,-8656.879127,0.000000
4446.739117,518.144159,-8810.098227,-222.061783
4446.739441,592.164754,-8503.660028,0.000000
4446.739766,444.123565,-8427.050478,0.000000
4446.740090,592.164754,-8503.660028,0.000000
4446.740415,444.123565,-8427.050478,0.000000
4446.740739,444.123565,-8044.002729,74.020594
4446.741064,518.144159,-8580.269578,-148.041188
4446.741388,444.123565,-8656.879127,74.020594
4446.741713,888.247130,-8503.660028,370.102971
4446.742037,518.144159,-8733.488677,0.000000
4446.742362,444.123565,-8580.269578,-74.020594
4446.742686,296.082377,-8656.879127,-222.061783
4446.743011,370.102971,-8273.831378,0.000000
4446.743335,444.123565,-8656.879127,0.000000
4446.743660,518.144159,-8580.269578,148.041188
4446.743984,444.123565,-8273.831378,0.000000
4446.744309,592.164754,-8273.831378,0.000000
4446.744633,518.144159,-8580.269578,-370.102971
4446.744958,444.123565,-8197.221829,0.000000
4446.745282,444.123565,-8580.269578,0.000000
4446.745607,222.061783,-8886.707777,0.000000
4446.745931,148.041188,-8963.317327,-592.164754
4446.746256,148.041188,-8580.269578,-74.020594
4446.746580,370.102971,-8810.098227,-222.061783
4446.746905,222.061783,-8733.488677,0.000000
4446.747229,370.102971,-9499.584175,74.020594
4446.747554,518.144159,-8886.707777,0.000000
4446.747878,518.144159,-8427.050478,-444.123565
4446.748203,370.102971,-8886.707777,0.000000
4446.748527,222.061783,-8197.221829,0.000000
4446.748852,296.082377,-8656.879127,148.041188
4446.749176,148.041188,-8656.879127,-222.061783
4446.749501,518.144159,-8580.269578,74.020594
4446.749825,370.102971,-8733.488677,-222.061783
4446.750150,370.102971,-8810.098227,222.061783
4446.750475,296.082377,-8810.098227,0.000000
4446.750799,444.123565,-8503.660028,0.000000
4446.751124,592.164754,-8580.269578,-296.082377
4446.751448,444.123565,-8810.098227,-222.061783
4446.751773,518.144159,-8580.269578,0.000000
4446.752097,444.123565,-8580.269578,0.000000
4446.752422,296.082377,-8733.488677,-296.082377
4446.752746,296.082377,-8810.098227,0.000000
4446.753071,740.205942,-8503.660028,-592.164754
4446.753395,444.123565,-8733.488677,-444.123565
4446.753720,296.082377,-8580.269578,-222.061783
4446.754044,518.144159,-8733.488677,-296.082377
4446.754369,444.123565,-8886.707777,0.000000
4446.754693,370.102971,-8427.050478,-296.082377
4446.755018,444.123565,-8427.050478,-444.123565
4446.755342,518.144159,-8350.440928,-148.041188
4446.755667,148.041188,-8503.660028,-296.082377
4446.755991,148.041188,-8886.707777,-444.123565
4446.756316,296.082377,-8427.050478,-222.061783
4446.756640,370.102971,-8427.050478,-296.082377
4446.756965,444.123565,-8580.269578,-370.102971
4446.757289,444.123565,-8810.098227,370.102971
4446.757614,370.102971,-8656.879127,0.000000
4446.757938,518.144159,-8273.831378,-222.061783
4446.758263,222.061783,-8503.660028,0.000000
4446.758587,0.000000,-9116.536426,0.000000
4446.758912,518.144159,-8273.831378,-222.061783
4446.759236,444.123565,-8580.269578,0.000000
4446.759561,296.082377,-8733.488677,-148.041188
4446.759885,296.082377,-8273.831378,0.000000
4446.760210,222.061783,-8810.098227,-222.061783
4446.760534,518.144159,-8427.050478,-148.041188
4446.760859,74.020594,-8656.879127,-296.082377
4446.761183,518.144159,-8580.269578,-370.102971
4446.761508,518.144159,-8427.050478,-148.041188
4446.761832,592.164754,-8656.879127,-370.102971
4446.762157,444.123565,-8656.879127,-296.082377
4446.762481,296.082377,-8427.050478,-222.061783
4446.762806,222.061783,-8580.269578,-296.082377
4446.763130,74.020594,-8273.831378,-518.144159
4446.763455,296.082377,-8810.098227,-370.102971
4446.763780,296.082377,-8350.440928,-444.123565
4446.764104,444.123565,-8733.488677,0.000000
4446.764429,370.102971,-8197.221829,-666.185348
4446.764753,296.082377,-8810.098227,0.000000
4446.765078,518.144159,-8580.269578,-370.102971
4446.765402,592.164754,-8810.098227,-296.082377
4446.765727,222.061783,-8273.831378,-518.144159
4446.766051,296.082377,-8427.050478,-148.041188
4446.766376,74.020594,-8963.317327,-222.061783
4446.766700,296.082377,-8580.269578,0.000000
4446.767025,222.061783,-8810.098227,-296.082377
4446.767349,518.144159,-8733.488677,0.000000
4446.767674,222.061783,-8273.831378,0.000000
4446.767998,518.144159,-8656.879127,0.000000
4446.768323,518.144159,-8580.269578,-222.061783
4446.768647,518.144159,-8810.098227,0.000000
4446.768972,666.185348,-8580.269578,-444.123565
4446.769296,592.164754,-8427.050478,-222.061783
4446.769621,370.102971,-8656.879127,-518.144159
4446.769945,296.082377,-7890.783629,0.000000
4446.770270,518.144159,-8350.440928,-370.102971
4446.770594,518.144159,-8580.269578,-444.123565
4446.770919,592.164754,-8733.488677,-296.082377
4446.771243,518.144159,-8886.707777,0.000000
4446.771568,518.144159,-8580.269578,-592.164754
4446.771892,370.102971,-8197.221829,-296.082377
4446.772217,296.082377,-8580.269578,-370.102971
4446.772541,518.144159,-8503.660028,-296.082377
4446.772866,444.123565,-8197.221829,74.020594
4446.773190,74.020594,-8503.660028,0.000000
4446.773515,222.061783,-8427.050478,74.020594
4446.773839,444.123565,-8273.831378,-296.082377
4446.774164,370.102971,-8580.269578,148.041188
4446.774488,592.164754,-8427.050478,222.061783
4446.774813,444.123565,-8733.488677,74.020594
4446.775137,370.102971,-8580.269578,0.000000
4446.775462,444.123565,-8427.050478,0.000000
4446.775786,518.144159,-8886.707777,-370.102971
4446.776111,148.041188,-8350.440928,0.000000
4446.776435,370.102971,-8427.050478,0.000000
4446.776760,222.061783,-8733.488677,-74.020594
4446.777085,888.247130,-8656.879127,-296.082377
4446.777409,518.144159,-8503.660028,-296.082377
4446.777734,296.082377,-8656.879127,0.000000
4446.778058,444.123565,-8810.098227,-370.102971
4446.778383,444.123565,-8810.098227,-222.061783
4446.778707,518.144159,-8427.050478,-518.144159
4446.779032,444.123565,-8350.440928,-444.123565
4446.779356,296.082377,-8733.488677,-740.205942
4446.779681,444.123565,-8427.050478,0.000000
4446.780005,222.061783,-8503.660028,-370.102971
4446.780330,148.041188,-8656.879127,-370.102971
4446.780654,222.061783,-8427.050478,-370.102971
4446.780979,370.102971,-8427.050478,-74.020594
4446.781303,888.247130,-8963.317327,-222.061783
4446.781628,518.144159,-8580.269578,-444.123565
4446.781952,518.144159,-8656.879127,-222.061783
4446.782277,370.102971,-8273.831378,-296.082377
4446.782601,666.185348,-8810.098227,-518.144159
4446.782926,1036.288319,-8810.098227,-444.123565
4446.783250,370.102971,-8503.660028,-296.082377
4446.783575,518.144159,-9039.926876,-296.082377
4446.783899,370.102971,-8656.879127,-518.144159
4446.784224,592.164754,-9039.926876,-518.144159
4446.784548,444.123565,-8656.879127,-518.144159
4446.784873,370.102971,-8733.488677,-370.102971
4446.785197,666.185348,-8427.050478,-518.144159
4446.785522,1036.288319,-9729.412825,-370.102971
4446.785846,666.185348,-8656.879127,-888.247130
4446.786171,814.226536,-8886.707777,-888.247130
4446.786495,592.164754,-8963.317327,-666.185348
4446.786820,296.082377,-8733.488677,-666.185348
4446.787144,444.123565,-8656.879127,-592.164754
4446.787469,518.144159,-8656.879127,-888.247130
4446.787793,518.144159,-8733.488677,-814.226536
4446.788118,518.144159,-8810.098227,-814.226536
4446.788442,222.061783,-8120.612279,-814.226536
4446.788767,740.205942,-8656.879127,-740.205942
4446.789091,518.144159,-8656.879127,-740.205942
4446.789416,666.185348,-8810.098227,-814.226536
4446.789740,666.185348,-9116.536426,-1332.370696
4446.790065,666.185348,-8350.440928,-444.123565
4446.790390,518.144159,-8580.269578,-666.185348
4446.790714,592.164754,-8733.488677,-740.205942
4446.791039,592.164754,-8197.221829,-666.185348
4446.791363,592.164754,-8656.879127,-296.082377
4446.791688,592.164754,-8503.660028,-518.144159
4446.792012,518.144159,-8733.488677,-370.102971
4446.792337,666.185348,-8886.707777,-592.164754
4446.792661,518.144159,-8656.879127,0.000000
4446.792986,370.102971,-8656.879127,-666.185348
4446.793310,962.267725,-8733.488677,-592.164754
4446.793635,666.185348,-8120.612279,-518.144159
4446.793959,444.123565,-9346.365076,-592.164754
4446.794284,222.061783,-8580.269578,-592.164754
4446.794608,518.144159,-8886.707777,-592.164754
4446.794933,740.205942,-8656.879127,-888.247130
4446.795257,370.102971,-8427.050478,-592.164754
4446.795582,370.102971,-8580.269578,-518.144159
4446.795906,370.102971,-8733.488677,-444.123565
4446.796231,444.123565,-8656.879127,-814.226536
4446.796555,370.102971,-9116.536426,-814.226536
4446.796880,74.020594,-7890.783629,-592.164754
4446.797204,370.102971,-8580.269578,-370.102971
4446.797529,222.061783,-8580.269578,-592.164754
4446.797853,296.082377,-8810.098227,-370.102971
4446.798178,296.082377,-8733.488677,-962.267725
4446.798502,296.082377,-8733.488677,-370.102971
4446.798827,444.123565,-8427.050478,-296.082377
4446.799151,74.020594,-8580.269578,0.000000
4446.799476,296.082377,-8427.050478,-296.082377
4446.799800,370.102971,-8273.831378,-148.041188
4446.800125,370.102971,-8963.317327,0.000000
4446.800449,444.123565,-8120.612279,-222.061783
4446.800774,370.102971,-8886.707777,-222.061783
4446.801098,0.000000,-9422.974625,74.020594
4446.801423,222.061783,-8656.879127,-296.082377
4446.801747,222.061783,-9039.926876,-296.082377
4446.802072,222.061783,-8656.879127,0.000000
4446.802396,444.123565,-8656.879127,-148.041188
4446.802721,444.123565,-8656.879127,-444.123565
4446.803045,592.164754,-8273.831378,-518.144159
4446.803370,740.205942,-8656.879127,-666.185348
4446.803695,814.226536,-8273.831378,-592.164754
4446.804019,296.082377,-8503.660028,-222.061783
4446.804344,370.102971,-8656.879127,-814.226536
4446.804668,370.102971,-8503.660028,-814.226536
4446.804993,444.123565,-8656.879127,-740.205942
4446.805317,0.000000,-8810.098227,-370.102971
4446.805642,296.082377,-8886.707777,-444.123565
4446.805966,592.164754,-8350.440928,-666.185348
4446.806291,592.164754,-8427.050478,-740.205942
4446.806615,592.164754,-8427.050478,-814.226536
4446.806940,444.123565,-8810.098227,-444.123565
4446.807264,592.164754,-8503.660028,-518.144159
4446.807589,592.164754,-8733.488677,-296.082377
4446.807913,296.082377,-8733.488677,-296.082377
4446.808238,444.123565,-8503.660028,0.000000
4446.808562,592.164754,-8503.660028,-666.185348
4446.808887,518.144159,-8810.098227,-370.102971
4446.809211,444.123565,-8427.050478,-296.082377
4446.809536,296.082377,-8886.707777,0.000000
4446.809860,444.123565,-8580.269578,-370.102971
4446.810185,666.185348,-8580.269578,-592.164754
4446.810509,814.226536,-8810.098227,-666.185348
4446.810834,592.164754,-8350.440928,-592.164754
4446.811158,666.185348,-8580.269578,-666.185348
4446.811483,518.144159,-8733.488677,-740.205942
4446.811807,518.144159,-8580.269578,-740.205942
4446.812132,518.144159,-8580.269578,-740.205942
4446.812456,962.267725,-8733.488677,-592.164754
4446.812781,296.082377,-8656.879127,-518.144159
4446.813105,518.144159,-8580.269578,-814.226536
4446.813429,370.102971,-8580.269578,-370.102971
4446.813754,222.061783,-8963.317327,0.000000
4446.814078,148.041188,-8656.879127,-370.102971
4446.814403,74.020594,-8350.440928,-296.082377
4446.814727,370.102971,-8580.269578,-444.123565
4446.815052,296.082377,-8580.269578,-296.082377
4446.815376,148.041188,-8580.269578,0.000000
4446.815701,74.020594,-8580.269578,-148.041188
4446.816025,518.144159,-8656.879127,-222.061783
4446.816350,222.061783,-8197.221829,-444.123565
4446.816674,222.061783,-7890.783629,592.164754
4446.816999,74.020594,-8427.050478,0.000000
4446.817323,0.000000,-8810.098227,-296.082377
4446.817648,444.123565,-8503.660028,0.000000
4446.817972,148.041188,-9116.536426,148.041188
4446.818297,296.082377,-8656.879127,0.000000
4446.818621,592.164754,-8427.050478,0.000000
4446.818945,666.185348,-8503.660028,-148.041188
4446.819270,592.164754,-8427.050478,-370.102971
4446.819594,740.205942,-8427.050478,0.000000
4446.819919,592.164754,-8503.660028,-148.041188
4446.820243,444.123565,-8503.660028,0.000000
4446.820568,148.041188,-8350.440928,-740.205942
4446.820892,814.226536,-8810.098227,-592.164754
4446.821217,296.082377,-8197.221829,-370.102971
4446.821541,0.000000,-8350.440928,-444.123565
4446.821866,222.061783,-8350.440928,-370.102971
4446.822190,370.102971,-8810.098227,-518.144159
4446.822515,592.164754,-8656.879127,-592.164754
4446.822839,296.082377,-8733.488677,-370.102971
4446.823164,370.102971,-8427.050478,-370.102971
4446.823488,296.082377,-8580.269578,-296.082377
4446.823812,148.041188,-8427.050478,0.000000
4446.824137,296.082377,-9039.926876,-222.061783
4446.824461,518.144159,-8656.879127,-444.123565
4446.824786,444.123565,-8656.879127,-370.102971
4446.825110,0.000000,-7967.393179,-296.082377
4446.825435,222.061783,-8580.269578,-148.041188
4446.825759,518.144159,-8580.269578,-370.102971
4446.826084,592.164754,-8503.660028,-592.164754
4446.826408,518.144159,-8810.098227,-296.082377
4446.826733,222.061783,-8580.269578,-74.020594
4446.827057,370.102971,-8733.488677,-222.061783
4446.827382,518.144159,-8656.879127,-444.123565
4446.827706,518.144159,-8427.050478,-592.164754
4446.828031,666.185348,-8580.269578,-1036.288319
4446.828355,296.082377,-8427.050478,-814.226536
4446.828680,592.164754,-8886.707777,-666.185348
4446.829004,592.164754,-8580.269578,-592.164754
4446.829328,666.185348,-8044.002729,-444.123565
4446.829653,148.041188,-8810.098227,-592.164754
4446.829977,370.102971,-8580.269578,-666.185348
4446.830302,370.102971,-8733.488677,-592.164754
4446.830626,370.102971,-8580.269578,-740.205942
4446.830951,518.144159,-8656.879127,-666.185348
4446.831275,370.102971,-8580.269578,-518.144159
4446.831600,444.123565,-8503.660028,-148.041188
4446.831924,222.061783,-8427.050478,-296.082377
4446.832249,666.185348,-8656.879127,-444.123565
4446.832573,444.123565,-8273.831378,-370.102971
4446.832898,518.144159,-8580.269578,-370.102971
4446.833222,370.102971,-8810.098227,-296.082377
4446.833547,592.164754,-8503.660028,0.000000
4446.833871,296.082377,-8810.098227,0.000000
4446.834196,222.061783,-8810.098227,-370.102971
4446.834520,370.102971,-8733.488677,0.000000
4446.834844,666.185348,-8580.269578,0.000000
4446.835169,444.123565,-8120.612279,74.020594
4446.835493,296.082377,-8350.440928,0.000000
4446.835818,518.144159,-8580.269578,0.000000
4446.836142,518.144159,-8273.831378,-296.082377
4446.836467,666.185348,-9422.974625,-296.082377
4446.836791,370.102971,-8350.440928,-148.041188
4446.837116,370.102971,-8503.660028,222.061783
4446.837440,296.082377,-8427.050478,-148.041188
4446.837765,74.020594,-8886.707777,148.041188
4446.838089,444.123565,-8656.879127,-370.102971
4446.838414,592.164754,-8503.660028,0.000000
4446.838738,370.102971,-8273.831378,-296.082377
4446.839063,222.061783,-8733.488677,-296.082377
4446.839387,296.082377,-8503.660028,0.000000
4446.839711,296.082377,-8427.050478,0.000000
4446.840036,444.123565,-8273.831378,-370.102971
4446.840360,444.123565,-8733.488677,0.000000
4446.840685,518.144159,-8963.317327,0.000000
4446.841009,296.082377,-8427.050478,0.000000
4446.841334,592.164754,-8427.050478,-222.061783
4446.841658,370.102971,-8733.488677,0.000000
4446.841983,592.164754,-8580.269578,-148.041188
4446.842307,518.144159,-8580.269578,0.000000
4446.842632,222.061783,-8886.707777,0.000000
4446.842956,444.123565,-8350.440928,0.000000
4446.843281,444.123565,-8963.317327,0.000000
4446.843605,0.000000,-8656.879127,74.020594
4446.843930,296.082377,-8886.707777,0.000000
4446.844254,296.082377,-8733.488677,0.000000
4446.844579,592.164754,-8886.707777,-222.061783
4446.844903,444.123565,-8810.098227,-592.164754
4446.845227,592.164754,-8886.707777,-370.102971
4446.845552,296.082377,-8656.879127,-148.041188
4446.845876,444.123565,-8963.317327,-444.123565
4446.846201,444.123565,-8733.488677,-740.205942
4446.846525,296.082377,-8580.269578,-296.082377
4446.846850,370.102971,-8580.269578,-888.247130
4446.847174,518.144159,-8656.879127,0.000000
4446.847499,444.123565,-8580.269578,-814.226536
4446.847823,666.185348,-8810.098227,-296.082377
4446.848148,222.061783,-8273.831378,-666.185348
4446.848472,518.144159,-8580.269578,-666.185348
4446.848797,592.164754,-8350.440928,-592.164754
4446.849121,518.144159,-8810.098227,-814.226536
4446.849446,518.144159,-8810.098227,-444.123565
4446.849770,370.102971,-8503.660028,-444.123565
4446.850094,518.144159,-8503.660028,-296.082377
4446.850419,518.144159,-8656.879127,-296.082377
4446.850743,148.041188,-8656.879127,0.000000
4446.851068,444.123565,-8580.269578,-222.061783
4446.851392,592.164754,-8503.660028,-148.041188
4446.851717,222.061783,-8503.660028,0.000000
4446.852041,740.205942,-9652.803275,74.020594
4446.852366,370.102971,-8120.612279,-148.041188
4446.852690,592.164754,-8656.879127,0.000000
4446.853015,444.123565,-8656.879127,-444.123565
4446.853339,518.144159,-9346.365076,0.000000
4446.853664,592.164754,-8273.831378,-296.082377
4446.853988,296.082377,-8580.269578,0.000000
4446.854313,444.123565,-8503.660028,-296.082377
4446.854637,370.102971,-8427.050478,-296.082377
4446.854962,222.061783,-8656.879127,0.000000
4446.855286,370.102971,-8656.879127,-444.123565
4446.855610,592.164754,-8427.050478,-296.082377
4446.855935,592.164754,-8427.050478,0.000000
4446.856259,0.000000,-8503.660028,0.000000
4446.856584,148.041188,-8427.050478,-222.061783
4446.856908,222.061783,-8350.440928,-222.061783
4446.857233,296.082377,-8656.879127,-222.061783
4446.857557,370.102971,-8427.050478,0.000000
4446.857882,148.041188,-8503.660028,0.000000
4446.858206,222.061783,-8733.488677,-148.041188
4446.858531,444.123565,-8580.269578,-444.123565
4446.858855,740.205942,-8656.879127,-148.041188
4446.859180,740.205942,-8656.879127,-296.082377
4446.859504,370.102971,-8273.831378,0.000000
4446.859829,222.061783,-8733.488677,74.020594
4446.860153,296.082377,-8427.050478,-148.041188
4446.860478,444.123565,-9039.926876,-370.102971
4446.860802,444.123565,-8656.879127,-370.102971
4446.861126,592.164754,-8963.317327,-148.041188
4446.861451,444.123565,-8580.269578,-518.144159
4446.861775,740.205942,-8503.660028,-444.123565
4446.862100,444.123565,-8350.440928,-296.082377
4446.862424,518.144159,-8656.879127,-370.102971
4446.862749,518.144159,-8503.660028,-370.102971
4446.863073,518.144159,-8886.707777,0.000000
4446.863398,888.247130,-8810.098227,-666.185348
4446.863722,518.144159,-8810.098227,-592.164754
4446.864047,444.123565,-8580.269578,-444.123565
4446.864371,518.144159,-8963.317327,-444.123565
4446.864696,666.185348,-9039.926876,-222.061783
4446.865020,444.123565,-8503.660028,0.000000
4446.865345,444.123565,-8273.831378,-148.041188
4446.865669,666.185348,-8733.488677,-444.123565
4446.865993,370.102971,-8656.879127,-444.123565
4446.866318,666.185348,-8427.050478,-222.061783
4446.866642,370.102971,-8656.879127,-444.123565
4446.866967,444.123565,-8810.098227,0.000000
4446.867291,518.144159,-8656.879127,0.000000
4446.867616,962.267725,-8810.098227,-296.082377
4446.867940,370.102971,-8733.488677,-296.082377
4446.868265,222.061783,-8656.879127,222.061783
4446.868589,666.185348,-8580.269578,0.000000
4446.868914,592.164754,-8580.269578,-148.041188
4446.869238,370.102971,-8656.879127,74.020594
4446.869563,740.205942,-8733.488677,0.000000
4446.869887,518.144159,-8503.660028,-296.082377
4446.870212,444.123565,-8733.488677,-74.020594
4446.870536,592.164754,-8810.098227,0.000000
4446.870861,518.144159,-8656.879127,-222.061783
4446.871185,370.102971,-8503.660028,-370.102971
4446.871509,296.082377,-8810.098227,0.000000
4446.871834,740.205942,-8120.612279,0.000000
4446.872158,222.061783,-8656.879127,0.000000
4446.872483,74.020594,-8197.221829,-148.041188
4446.872807,444.123565,-8656.879127,-296.082377
4446.873132,222.061783,-8273.831378,444.123565
4446.873456,296.082377,-8120.612279,0.000000
4446.873781,222.061783,-8656.879127,-444.123565
4446.874105,296.082377,-8580.269578,0.000000
4446.874430,148.041188,-8273.831378,-296.082377
4446.874754,296.082377,-8197.221829,0.000000
4446.875079,444.123565,-8580.269578,0.000000
4446.875403,444.123565,-8427.050478,0.000000
4446.875728,148.041188,-8350.440928,-148.041188
4446.876052,518.144159,-8733.488677,-222.061783
4446.876377,296.082377,-8733.488677,-222.061783
4446.876701,370.102971,-8427.050478,-296.082377
4446.877025,370.102971,-8273.831378,-444.123565
4446.877350,296.082377,-8810.098227,-296.082377
4446.877674,296.082377,-8503.660028,0.000000
4446.877999,444.123565,-8580.269578,-444.123565
4446.878323,444.123565,-8656.879127,-370.102971
4446.878648,370.102971,-8810.098227,-296.082377
4446.878972,444.123565,-8427.050478,-666.185348
4446.879297,296.082377,-8580.269578,-518.144159
4446.879621,370.102971,-8427.050478,-592.164754
4446.879946,444.123565,-9193.145976,-444.123565
4446.880270,444.123565,-8197.221829,-370.102971
4446.880595,740.205942,-8810.098227,-666.185348
4446.880919,444.123565,-8580.269578,-518.144159
4446.881244,518.144159,-8580.269578,-444.123565
4446.881568,296.082377,-8733.488677,-814.226536
4446.881892,592.164754,-8580.269578,-222.061783
4446.882217,444.123565,-8350.440928,-370.102971
4446.882541,148.041188,-8350.440928,-296.082377
4446.882866,444.123565,-8427.050478,-444.123565
4446.883190,370.102971,-9039.926876,-370.102971
4446.883515,444.123565,-8733.488677,-222.061783
4446.883839,296.082377,-8273.831378,-444.123565
4446.884164,370.102971,-8886.707777,-148.041188
4446.884488,592.164754,-8810.098227,-518.144159
4446.884813,740.205942,-8580.269578,-666.185348
4446.885137,370.102971,-8503.660028,-222.061783
4446.885462,222.061783,-8656.879127,-148.041188
4446.885786,370.102971,-8503.660028,-518.144159
4446.886111,148.041188,-8427.050478,0.000000
4446.886435,518.144159,-8350.440928,-740.205942
4446.886760,518.144159,-8580.269578,-666.185348
4446.887084,666.185348,-8503.660028,-296.082377
4446.887408,666.185348,-9269.755526,-222.061783
4446.887733,592.164754,-8503.660028,-518.144159
4446.888057,444.123565,-8350.440928,-592.164754
4446.888382,666.185348,-8580.269578,-592.164754
4446.888706,370.102971,-8733.488677,-296.082377
4446.889031,0.000000,-8350.440928,0.000000
4446.889355,148.041188,-8886.707777,-370.102971
4446.889680,222.061783,-8273.831378,-222.061783
4446.890004,444.123565,-8580.269578,-518.144159
4446.890329,814.226536,-9269.755526,-296.082377
4446.890653,518.144159,-8427.050478,-296.082377
4446.890978,222.061783,-8427.050478,-370.102971
4446.891302,592.164754,-8503.660028,-296.082377
4446.891627,74.020594,-8810.098227,0.000000
4446.891951,666.185348,-8810.098227,-370.102971
4446.892276,222.061783,-8656.879127,-296.082377
4446.892600,296.082377,-8656.879127,-222.061783
4446.892924,370.102971,-8810.098227,-296.082377
4446.893249,518.144159,-8580.269578,-148.041188
4446.893573,444.123565,-8810.098227,-370.102971
4446.893898,518.144159,-8503.660028,-148.041188
4446.894222,370.102971,-8350.440928,-370.102971
4446.894547,518.144159,-8273.831378,-222.061783
4446.894871,296.082377,-8427.050478,-592.164754
4446.895196,518.144159,-8733.488677,-666.185348
4446.895520,518.144159,-8503.660028,-666.185348
4446.895845,444.123565,-8656.879127,-814.226536
4446.896169,296.082377,-8656.879127,-740.205942
4446.896494,222.061783,-8427.050478,-666.185348
4446.896818,444.123565,-8197.221829,-592.164754
4446.897143,592.164754,-8733.488677,-666.185348
4446.897467,518.144159,-8503.660028,-370.102971
4446.897791,148.041188,-8580.269578,-296.082377
4446.898116,148.041188,-8656.879127,-370.102971
4446.898440,444.123565,-8350.440928,-592.164754
4446.898765,814.226536,-8427.050478,-666.185348
4446.899089,444.123565,-8503.660028,-222.061783
4446.899414,222.061783,-8427.050478,-444.123565
4446.899738,444.123565,-8656.879127,-370.102971
4446.900063,222.061783,-8810.098227,222.061783
4446.900387,518.144159,-8810.098227,-444.123565
4446.900712,592.164754,-8580.269578,-592.164754
4446.901036,296.082377,-8656.879127,-148.041188
4446.901361,222.061783,-8503.660028,-370.102971
4446.901685,296.082377,-8427.050478,-666.185348
4446.902010,296.082377,-8503.660028,-370.102971
4446.902334,222.061783,-8810.098227,-444.123565
4446.902659,296.082377,-8656.879127,-370.102971
4446.902983,592.164754,-8656.879127,-444.123565
4446.903307,592.164754,-8503.660028,-370.102971
4446.903632,518.144159,-8656.879127,-518.144159
4446.903956,518.144159,-8810.098227,-592.164754
4446.904281,814.226536,-8580.269578,-518.144159
4446.904605,666.185348,-8427.050478,-740.205942
4446.904930,296.082377,-8733.488677,-666.185348
4446.905254,222.061783,-8503.660028,-814.226536
4446.905579,444.123565,-8503.660028,-444.123565
4446.905903,222.061783,-9039.926876,-888.247130
4446.906228,296.082377,-8503.660028,-370.102971
4446.906552,222.061783,-8503.660028,-296.082377
4446.906877,296.082377,-8656.879127,-370.102971
4446.907201,444.123565,-8427.050478,-740.205942
4446.907526,370.102971,-8656.879127,-444.123565
4446.907850,592.164754,-8197.221829,-222.061783
4446.908175,444.123565,-8733.488677,-296.082377
4446.908499,518.144159,-8810.098227,-444.123565
4446.908823,518.144159,-8503.660028,-370.102971
4446.909148,296.082377,-8656.879127,-148.041188
4446.909472,222.061783,-8503.660028,-222.061783
4446.909797,370.102971,-8503.660028,-444.123565
4446.910121,296.082377,-9269.755526,0.000000
4446.910446,370.102971,-8656.879127,-222.061783
4446.910770,222.061783,-8810.098227,-592.164754
4446.911095,444.123565,-8580.269578,-444.123565
4446.911419,666.185348,-9116.536426,148.041188
4446.911744,296.082377,-8656.879127,-518.144159
4446.912068,444.123565,-8810.098227,-370.102971
4446.912392,518.144159,-8886.707777,-592.164754
4446.912717,592.164754,-8733.488677,-740.205942
4446.913041,740.205942,-8656.879127,-888.247130
4446.913366,518.144159,-8886.707777,-518.144159
4446.913690,592.164754,-8963.317327,-518.144159
4446.914015,370.102971,-8503.660028,-518.144159
4446.914339,888.247130,-9116.536426,-518.144159
4446.914664,518.144159,-8503.660028,-370.102971
4446.914988,444.123565,-8503.660028,-296.082377
4446.915312,148.041188,-8733.488677,-592.164754
4446.915637,222.061783,-8656.879127,-296.082377
4446.915961,518.144159,-8733.488677,-444.123565
4446.916286,666.185348,-8427.050478,-370.102971
4446.916610,370.102971,-8656.879127,-222.061783
4446.916935,370.102971,-8733.488677,-222.061783
4446.917259,444.123565,-8963.317327,0.000000
4446.917584,444.123565,-8350.440928,-148.041188
4446.917908,518.144159,-8886.707777,-518.144159
4446.918232,444.123565,-8580.269578,-222.061783
4446.918557,0.000000,-8886.707777,0.000000
4446.918881,74.020594,-8733.488677,-296.082377
4446.919206,148.041188,-8580.269578,-296.082377
4446.919530,296.082377,-8580.269578,-518.144159
4446.919855,592.164754,-8886.707777,-370.102971
4446.920179,370.102971,-8427.050478,-592.164754
4446.920503,370.102971,-8656.879127,-370.102971
4446.920828,666.185348,-8350.440928,-962.267725
4446.921152,666.185348,-8580.269578,-444.123565
4446.921477,370.102971,-8197.221829,-740.205942
4446.921801,592.164754,-8503.660028,-740.205942
4446.922126,370.102971,-8503.660028,-666.185348
4446.922450,518.144159,-8656.879127,-592.164754
4446.922775,962.267725,-8350.440928,-444.123565
4446.923099,296.082377,-8656.879127,-592.164754
4446.923423,148.041188,-8733.488677,-666.185348
4446.923748,296.082377,-8656.879127,-370.102971
4446.924072,370.102971,-8656.879127,0.000000
4446.924397,222.061783,-8503.660028,-296.082377
4446.924721,296.082377,-8886.707777,-296.082377
4446.925046,814.226536,-8810.098227,-518.144159
4446.925370,666.185348,-8427.050478,-296.082377
4446.925694,518.144159,-8886.707777,0.000000
4446.926019,518.144159,-8503.660028,-370.102971
4446.926343,370.102971,-8656.879127,-296.082377
4446.926668,518.144159,-8733.488677,0.000000
4446.926992,444.123565,-8120.612279,444.123565
4446.927317,370.102971,-8810.098227,-222.061783
4446.927641,370.102971,-8580.269578,-222.061783
4446.927966,592.164754,-8427.050478,-370.102971
4446.928290,592.164754,-8733.488677,-518.144159
4446.928614,518.144159,-8273.831378,-518.144159
4446.928939,444.123565,-8580.269578,-296.082377
4446.929263,444.123565,-8656.879127,-666.185348
4446.929588,740.205942,-8580.269578,-666.185348
4446.929912,518.144159,-8273.831378,-444.123565
4446.930237,518.144159,-8580.269578,-518.144159
4446.930561,518.144159,-8656.879127,-666.185348
4446.930886,296.082377,-8656.879127,-666.185348
4446.931210,444.123565,-8963.317327,-370.102971
4446.931534,296.082377,-8503.660028,-370.102971
4446.931859,518.144159,-8733.488677,-592.164754
4446.932183,666.185348,-8044.002729,-444.123565
4446.932508,444.123565,-8350.440928,-592.164754
4446.932832,518.144159,-8427.050478,-444.123565
4446.933157,444.123565,-8656.879127,-444.123565
4446.933481,518.144159,-8733.488677,-370.102971
4446.933805,666.185348,-8886.707777,-370.102971
4446.934130,814.226536,-9116.536426,-296.082377
4446.934454,740.205942,-8733.488677,-370.102971
4446.934779,444.123565,-8427.050478,-518.144159
4446.935103,518.144159,-8810.098227,-296.082377
4446.935428,592.164754,-8580.269578,-296.082377
4446.935752,370.102971,-8580.269578,0.000000
4446.936077,148.041188,-8503.660028,-444.123565
4446.936401,592.164754,-8656.879127,-370.102971
4446.936725,444.123565,-8427.050478,-444.123565
4446.937050,666.185348,-8810.098227,-592.164754
4446.937374,518.144159,-8503.660028,-370.102971
4446.937699,592.164754,-8580.269578,-592.164754
4446.938023,444.123565,-8810.098227,-592.164754
4446.938348,518.144159,-9346.365076,-222.061783
4446.938672,444.123565,-8427.050478,-592.164754
4446.938997,518.144159,-8580.269578,-444.123565
4446.939321,370.102971,-8427.050478,-518.144159
4446.939645,148.041188,-9039.926876,-666.185348
4446.939970,296.082377,-8733.488677,-518.144159
4446.940294,222.061783,-8733.488677,-666.185348
4446.940619,0.000000,-8886.707777,-444.123565
4446.940943,148.041188,-8810.098227,-296.082377
4446.941268,296.082377,-8580.269578,-296.082377
4446.941592,444.123565,-8427.050478,-296.082377
4446.941916,592.164754,-8810.098227,-296.082377
4446.942241,592.164754,-8733.488677,-370.102971
4446.942565,814.226536,-7967.393179,370.102971
4446.942890,518.144159,-8503.660028,0.000000
4446.943214,444.123565,-8503.660028,-222.061783
4446.943539,222.061783,-8350.440928,74.020594
4446.943863,296.082377,-8963.317327,0.000000
4446.944188,74.020594,-8656.879127,0.000000
4446.944512,296.082377,-8580.269578,0.000000
4446.944836,296.082377,-8427.050478,0.000000
4446.945161,592.164754,-8273.831378,0.000000
4446.945485,370.102971,-8656.879127,148.041188
4446.945810,888.247130,-8810.098227,0.000000
4446.946134,592.164754,-8197.221829,0.000000
4446.946459,296.082377,-8733.488677,0.000000
4446.946783,814.226536,-8733.488677,-444.123565
4446.947108,370.102971,-8503.660028,0.000000
4446.947432,444.123565,-8733.488677,-518.144159
4446.947756,444.123565,-8580.269578,0.000000
4446.948081,222.061783,-8427.050478,-222.061783
4446.948405,518.144159,-8427.050478,0.000000
4446.948730,518.144159,-8503.660028,-444.123565
4446.949054,592.164754,-8733.488677,-370.102971
4446.949379,444.123565,-8427.050478,-148.041188
4446.949703,370.102971,-8580.269578,0.000000
4446.950027,148.041188,-8733.488677,-444.123565
4446.950352,444.123565,-8580.269578,-296.082377
4446.950676,0.000000,-8580.269578,-222.061783
4446.951001,148.041188,-8273.831378,0.000000
4446.951325,222.061783,-8427.050478,-148.041188
4446.951650,370.102971,-9116.536426,0.000000
4446.951974,370.102971,-8733.488677,-296.082377
4446.952299,370.102971,-8580.269578,-296.082377
4446.952623,296.082377,-8810.098227,-222.061783
4446.952947,222.061783,-8580.269578,-148.041188
4446.953272,296.082377,-8886.707777,-370.102971
4446.953596,222.061783,-8886.707777,-370.102971
4446.953921,592.164754,-8810.098227,-518.144159
4446.954245,518.144159,-8580.269578,-518.144159
4446.954570,518.144159,-8810.098227,-444.123565
4446.954894,444.123565,-8503.660028,-518.144159
4446.955219,518.144159,-9346.365076,-592.164754
4446.955543,296.082377,-8350.440928,-518.144159
4446.955867,444.123565,-8427.050478,-592.164754
4446.956192,296.082377,-8656.879127,-370.102971
4446.956516,370.102971,-8273.831378,-592.164754
4446.956841,0.000000,-8580.269578,-444.123565
4446.957165,370.102971,-8503.660028,-518.144159
4446.957490,666.185348,-8656.879127,-518.144159
4446.957814,666.185348,-8427.050478,-740.205942
4446.958138,0.000000,-8580.269578,-148.041188
4446.958463,296.082377,-8350.440928,-296.082377
4446.958787,444.123565,-8503.660028,-222.061783
4446.959112,444.123565,-8427.050478,-370.102971
4446.959436,296.082377,-8656.879127,-148.041188
4446.959761,592.164754,-8120.612279,-148.041188
4446.960085,444.123565,-8580.269578,-296.082377
4446.960410,370.102971,-8503.660028,-296.082377
4446.960734,444.123565,-8580.269578,148.041188
4446.961058,0.000000,-8273.831378,0.000000
4446.961383,518.144159,-8580.269578,0.000000
4446.961707,518.144159,-8350.440928,-296.082377
4446.962032,444.123565,-8503.660028,0.000000
4446.962356,814.226536,-8120.612279,0.000000
4446.962681,592.164754,-8197.221829,-148.041188
4446.963005,814.226536,-8810.098227,-370.102971
4446.963330,518.144159,-8427.050478,0.000000
4446.963654,296.082377,-8580.269578,0.000000
4446.963978,518.144159,-8350.440928,0.000000
4446.964303,518.144159,-8273.831378,-222.061783
4446.964627,444.123565,-8810.098227,-222.061783
4446.964952,222.061783,-8580.269578,74.020594
4446.965276,370.102971,-8656.879127,0.000000
4446.965601,370.102971,-8733.488677,0.000000
4446.965925,370.102971,-8273.831378,-444.123565
4446.966249,222.061783,-8656.879127,0.000000
4446.966574,370.102971,-8886.707777,-222.061783
4446.966898,222.061783,-8427.050478,74.020594
4446.967223,592.164754,-8656.879127,0.000000
4446.967547,222.061783,-8503.660028,-296.082377
4446.967872,222.061783,-8580.269578,-370.102971
4446.968196,444.123565,-8580.269578,-296.082377
4446.968521,148.041188,-8503.660028,148.041188
4446.968845,222.061783,-8810.098227,0.000000
4446.969169,74.020594,-8656.879127,-222.061783
4446.969494,962.267725,-8886.707777,0.000000
4446.969818,370.102971,-8733.488677,-444.123565
4446.970143,370.102971,-8656.879127,-296.082377
4446.970467,296.082377,-8350.440928,-222.061783
4446.970792,518.144159,-9422.974625,74.020594
4446.971116,518.144159,-8427.050478,-592.164754
4446.971440,444.123565,-8810.098227,-370.102971
4446.971765,222.061783,-8810.098227,-296.082377
4446.972089,518.144159,-8580.269578,-444.123565
4446.972414,518.144159,-9039.926876,-444.123565
4446.972738,0.000000,-8733.488677,-296.082377
4446.973063,296.082377,-8656.879127,-740.205942
4446.973387,222.061783,-8810.098227,-518.144159
4446.973712,222.061783,-8886.707777,148.041188
4446.974036,222.061783,-8656.879127,-444.123565
4446.974360,296.082377,-8733.488677,-518.144159
4446.974685,592.164754,-8733.488677,-740.205942
4446.975009,592.164754,-8580.269578,-518.144159
4446.975334,518.144159,-8810.098227,-370.102971
4446.975658,222.061783,-8427.050478,-444.123565
4446.975983,518.144159,-8580.269578,-444.123565
4446.976307,222.061783,-8503.660028,-222.061783
4446.976632,740.205942,-8733.488677,0.000000
4446.976956,592.164754,-8656.879127,-296.082377
4446.977280,592.164754,-8273.831378,-296.082377
4446.977605,592.164754,-8580.269578,0.000000
4446.977929,888.247130,-8886.707777,0.000000
4446.978254,518.144159,-8503.660028,-296.082377
4446.978578,518.144159,-8427.050478,0.000000
4446.978903,296.082377,-8350.440928,0.000000
4446.979227,296.082377,-8503.660028,-148.041188
4446.979551,814.226536,-8427.050478,-222.061783
4446.979876,370.102971,-8350.440928,0.000000
4446.980200,740.205942,-8810.098227,-592.164754
4446.980525,740.205942,-8350.440928,-296.082377
4446.980849,888.247130,-8350.440928,0.000000
4446.981174,592.164754,-8350.440928,-222.061783
4446.981498,296.082377,-8350.440928,-222.061783
4446.981823,74.020594,-8350.440928,-370.102971
4446.982147,740.205942,-8733.488677,-370.102971
4446.982471,0.000000,-8733.488677,-148.041188
4446.982796,148.041188,-8656.879127,-296.082377
4446.983120,444.123565,-8656.879127,-370.102971
4446.983445,370.102971,-8273.831378,-518.144159
4446.983769,0.000000,-8350.440928,-74.020594
4446.984094,666.185348,-8427.050478,-222.061783
4446.984418,370.102971,-8503.660028,-222.061783
4446.984743,222.061783,-8656.879127,-444.123565
4446.985067,74.020594,-8350.440928,-296.082377
4446.985391,74.020594,-8656.879127,-222.061783
4446.985716,74.020594,-8963.317327,-296.082377
4446.986040,74.020594,-8503.660028,-222.061783
4446.986365,222.061783,-8350.440928,222.061783
4446.986689,74.020594,-8120.612279,-296.082377
4446.987014,74.020594,-8963.317327,-148.041188
4446.987338,518.144159,-8656.879127,-370.102971
4446.987662,518.144159,-8503.660028,-370.102971
4446.987987,592.164754,-8273.831378,-518.144159
4446.988311,370.102971,-8733.488677,-740.205942
4446.988636,666.185348,-8656.879127,-740.205942
4446.988960,444.123565,-8810.098227,-666.185348
4446.989285,444.123565,-8733.488677,-370.102971
4446.989609,74.020594,-8810.098227,-518.144159
4446.989934,222.061783,-8656.879127,-518.144159
4446.990258,370.102971,-8580.269578,-370.102971
4446.990582,962.267725,-8656.879127,-740.205942
4446.990907,740.205942,-8656.879127,-518.144159
4446.991231,444.123565,-8580.269578,-666.185348
4446.991556,666.185348,-8886.707777,-518.144159
4446.991880,518.144159,-8963.317327,-666.185348
4446.992205,814.226536,-8656.879127,-666.185348
4446.992529,518.144159,-8656.879127,-148.041188
4446.992854,518.144159,-8427.050478,-296.082377
4446.993178,370.102971,-8886.707777,-444.123565
4446.993502,592.164754,-9422.974625,0.000000
4446.993827,666.185348,-8886.707777,-592.164754
4446.994151,814.226536,-8427.050478,-444.123565
4446.994476,814.226536,-8656.879127,-148.041188
4446.994800,148.041188,-8656.879127,-296.082377
4446.995125,518.144159,-8886.707777,-370.102971
4446.995449,296.082377,-8350.440928,-222.061783
4446.995773,444.123565,-8963.317327,-148.041188
4446.996098,518.144159,-8656.879127,-444.123565
4446.996422,444.123565,-8197.221829,0.000000
4446.996747,592.164754,-8503.660028,-222.061783
4446.997071,518.144159,-8733.488677,-296.082377
4446.997396,518.144159,-8733.488677,-518.144159
4446.997720,888.247130,-8963.317327,-222.061783
4446.998045,370.102971,-8350.440928,-296.082377
4446.998369,222.061783,-8733.488677,0.000000
4446.998693,296.082377,-8580.269578,-296.082377
4446.999018,74.020594,-8733.488677,-296.082377
4446.999342,222.061783,-8503.660028,0.000000
4446.999667,148.041188,-8733.488677,0.000000
4446.999991,444.123565,-8427.050478,-148.041188
4447.000316,148.041188,-8656.879127,0.000000
4447.000640,592.164754,-8733.488677,-592.164754
4447.000965,296.082377,-8427.050478,-148.041188
4447.001289,74.020594,-8503.660028,-222.061783
4447.001613,222.061783,-8656.879127,-518.144159
4447.001938,296.082377,-9729.412825,-296.082377
4447.002262,0.000000,-8503.660028,-74.020594
4447.002587,370.102971,-8656.879127,-518.144159
4447.002911,296.082377,-8656.879127,-370.102971
4447.003236,444.123565,-8810.098227,-222.061783
4447.003560,74.020594,-8580.269578,-370.102971
4447.003884,222.061783,-8810.098227,-518.144159
4447.004209,444.123565,-8580.269578,-814.226536
4447.004533,518.144159,-8886.707777,-814.226536
4447.004858,518.144159,-8120.612279,-444.123565
4447.005182,444.123565,-8580.269578,-962.267725
4447.005507,518.144159,-9116.536426,-666.185348
4447.005831,296.082377,-8350.440928,-814.226536
4447.006156,444.123565,-8963.317327,-1480.411884
4447.006480,370.102971,-8427.050478,-666.185348
4447.006804,296.082377,-8810.098227,-518.144159
4447.007129,444.123565,-8656.879127,-666.185348
4447.007453,370.102971,-8656.879127,-888.247130
4447.007778,444.123565,-8273.831378,-814.226536
4447.008102,518.144159,-8810.098227,-666.185348
4447.008427,444.123565,-8120.612279,-740.205942
4447.008751,444.123565,-8656.879127,-592.164754
4447.009075,666.185348,-8120.612279,-1036.288319
4447.009400,592.164754,-8503.660028,-666.185348
4447.009724,518.144159,-8580.269578,-592.164754
4447.010049,592.164754,-8427.050478,-222.061783
4447.010373,444.123565,-9116.536426,-370.102971
4447.010698,148.041188,-8733.488677,-370.102971
4447.011022,370.102971,-8273.831378,-296.082377
4447.011347,518.144159,-8580.269578,-444.123565
4447.011671,518.144159,-8273.831378,-370.102971
4447.011995,296.082377,-7890.783629,-444.123565
4447.012320,518.144159,-8656.879127,-592.164754
4447.012644,666.185348,-8350.440928,-666.185348
4447.012968,444.123565,-8656.879127,-888.247130
4447.013293,740.205942,-8963.317327,-592.164754
4447.013617,222.061783,-8273.831378,-518.144159
4447.013942,518.144159,-8503.660028,-444.123565
4447.014266,444.123565,-8733.488677,-222.061783
4447.014590,370.102971,-8427.050478,-370.102971
4447.014915,592.164754,-8656.879127,-592.164754
4447.015239,370.102971,-8503.660028,-444.123565
4447.015564,666.185348,-8273.831378,-296.082377
4447.015888,444.123565,-9039.926876,-444.123565
4447.016212,814.226536,-8503.660028,-666.185348
4447.016537,444.123565,-8580.269578,-518.144159
4447.016861,222.061783,-8810.098227,-222.061783
4447.017185,0.000000,-8656.879127,0.000000
4447.017510,-148.041188,-8503.660028,0.000000
4447.017834,518.144159,-8656.879127,74.020594
4447.018159,444.123565,-8350.440928,-148.041188
4447.018483,518.144159,-8963.317327,0.000000
4447.018807,592.164754,-8427.050478,-148.041188
4447.019132,296.082377,-8810.098227,0.000000
4447.019456,148.041188,-8580.269578,-222.061783
4447.019780,370.102971,-8580.269578,-370.102971
4447.020105,222.061783,-8656.879127,-222.061783
4447.020429,666.185348,-9039.926876,-222.061783
4447.020754,296.082377,-8580.269578,0.000000
4447.021078,148.041188,-8580.269578,0.000000
4447.021402,518.144159,-8350.440928,-518.144159
4447.021727,740.205942,-9039.926876,74.020594
4447.022051,740.205942,-8580.269578,-444.123565
4447.022375,592.164754,-8427.050478,-296.082377
4447.022700,592.164754,-8350.440928,-444.123565
4447.023024,444.123565,-8503.660028,-222.061783
4447.023349,666.185348,-8656.879127,-518.144159
4447.023673,148.041188,-8503.660028,-444.123565
4447.023997,370.102971,-8503.660028,0.000000
4447.024322,222.061783,-8427.050478,-296.082377
4447.024646,666.185348,-8886.707777,-370.102971
4447.024971,444.123565,-8580.269578,0.000000
4447.025295,592.164754,-8580.269578,-444.123565
4447.025619,1036.288319,-8197.221829,-222.061783
4447.025944,666.185348,-8427.050478,148.041188
4447.026268,518.144159,-8427.050478,-444.123565
4447.026592,740.205942,-8580.269578,-444.123565
4447.026917,296.082377,-8580.269578,-370.102971
4447.027241,296.082377,-8427.050478,-148.041188
4447.027566,444.123565,-8350.440928,0.000000
4447.027890,444.123565,-8733.488677,-666.185348
4447.028214,518.144159,-8427.050478,-444.123565
4447.028539,666.185348,-8350.440928,-296.082377
4447.028863,444.123565,-8503.660028,-222.061783
4447.029187,888.247130,-8273.831378,-518.144159
4447.029512,518.144159,-8427.050478,-296.082377
4447.029836,740.205942,-8733.488677,-592.164754
4447.030161,666.185348,-8733.488677,-592.164754
4447.030485,592.164754,-8733.488677,-666.185348
4447.030809,222.061783,-8656.879127,-592.164754
4447.031134,222.061783,-8273.831378,-666.185348
4447.031458,148.041188,-8733.488677,-444.123565
4447.031782,370.102971,-8503.660028,-592.164754
4447.032107,444.123565,-8503.660028,-814.226536
4447.032431,444.123565,-8580.269578,-518.144159
4447.032756,518.144159,-8503.660028,-592.164754
4447.033080,666.185348,-8733.488677,-518.144159
4447.033404,518.144159,-8503.660028,-518.144159
4447.033729,592.164754,-8656.879127,-296.082377
4447.034053,518.144159,-8503.660028,-370.102971
4447.034378,518.144159,-8580.269578,-296.082377
4447.034702,148.041188,-8810.098227,0.000000
4447.035026,222.061783,-8350.440928,-518.144159
4447.035351,222.061783,-8350.440928,-370.102971
4447.035675,370.102971,-8810.098227,-296.082377
4447.035999,592.164754,-8350.440928,-222.061783
4447.036324,296.082377,-8503.660028,-296.082377
4447.036648,370.102971,-8733.488677,-444.123565
4447.036973,444.123565,-8503.660028,-444.123565
4447.037297,296.082377,-8197.221829,-444.123565
4447.037621,592.164754,-8580.269578,-592.164754
4447.037946,222.061783,-8656.879127,-296.082377
4447.038270,370.102971,-8656.879127,-222.061783
4447.038594,370.102971,-8427.050478,-222.061783
4447.038919,518.144159,-8350.440928,-888.247130
4447.039243,444.123565,-8810.098227,-518.144159
4447.039568,592.164754,-8044.002729,-518.144159
4447.039892,518.144159,-8656.879127,-444.123565
4447.040216,370.102971,-8197.221829,-666.185348
4447.040541,370.102971,-8350.440928,-444.123565
4447.040865,592.164754,-8656.879127,-296.082377
4447.041189,444.123565,-8810.098227,-518.144159
4447.041514,518.144159,-9039.926876,-296.082377
4447.041838,518.144159,-8733.488677,0.000000
4447.042163,518.144159,-8503.660028,-518.144159
4447.042487,296.082377,-8810.098227,-370.102971
4447.042811,518.144159,-8886.707777,-222.061783
4447.043136,222.061783,-8350.440928,222.061783
4447.043460,518.144159,-8733.488677,-296.082377
4447.043785,592.164754,-8427.050478,74.020594
4447.044109,740.205942,-8580.269578,0.000000
4447.044433,1110.308913,-9039.926876,-148.041188
4447.044758,444.123565,-9039.926876,0.000000
4447.045082,518.144159,-8580.269578,0.000000
4447.045406,296.082377,-8427.050478,148.041188
4447.045731,296.082377,-8656.879127,-148.041188
4447.046055,518.144159,-9039.926876,-148.041188
4447.046380,666.185348,-8427.050478,-370.102971
4447.046704,666.185348,-8580.269578,-370.102971
4447.047028,592.164754,-8733.488677,-518.144159
4447.047353,444.123565,-8427.050478,-518.144159
4447.047677,518.144159,-8656.879127,-592.164754
4447.048001,296.082377,-8733.488677,-444.123565
4447.048326,444.123565,-8580.269578,-222.061783
4447.048650,222.061783,-9116.536426,-592.164754
4447.048975,222.061783,-8656.879127,-518.144159
4447.049299,222.061783,-8733.488677,-444.123565
4447.049623,296.082377,-8656.879127,-592.164754
4447.049948,370.102971,-8350.440928,-370.102971
4447.050272,296.082377,-8273.831378,-148.041188
4447.050596,296.082377,-8810.098227,-148.041188
4447.050921,370.102971,-8580.269578,-370.102971
4447.051245,370.102971,-8656.879127,-444.123565
4447.051570,592.164754,-8044.002729,-370.102971
4447.051894,296.082377,-8503.660028,0.000000
4447.052218,222.061783,-8810.098227,-222.061783
4447.052543,74.020594,-8810.098227,0.000000
4447.052867,444.123565,-8656.879127,-444.123565
4447.053192,592.164754,-8810.098227,-518.144159
4447.053516,222.061783,-8886.707777,0.000000
4447.053840,148.041188,-8350.440928,-370.102971
4447.054165,296.082377,-8810.098227,-444.123565
4447.054489,222.061783,-8503.660028,-444.123565
4447.054813,518.144159,-9039.926876,-370.102971
4447.055138,296.082377,-8580.269578,-592.164754
4447.055462,592.164754,-8656.879127,-370.102971
4447.055787,444.123565,-8503.660028,-444.123565
4447.056111,370.102971,-8120.612279,-666.185348
4447.056435,518.144159,-9039.926876,-666.185348
4447.056760,296.082377,-8503.660028,-592.164754
4447.057084,666.185348,-8503.660028,-518.144159
4447.057408,222.061783,-8810.098227,-740.205942
4447.057733,370.102971,-8503.660028,-814.226536
4447.058057,518.144159,-8273.831378,-518.144159
4447.058382,222.061783,-8656.879127,-444.123565
4447.058706,296.082377,-8580.269578,-296.082377
4447.059030,370.102971,-8503.660028,-444.123565
4447.059355,444.123565,-8503.660028,-444.123565
4447.059679,666.185348,-8580.269578,-222.061783
4447.060003,962.267725,-8273.831378,-370.102971
4447.060328,518.144159,-8350.440928,-296.082377
4447.060652,518.144159,-8427.050478,-444.123565
4447.060977,444.123565,-8810.098227,0.000000
4447.061301,518.144159,-9039.926876,-296.082377
4447.061625,518.144159,-8810.098227,-222.061783
4447.061950,518.144159,-8503.660028,74.020594
4447.062274,518.144159,-8886.707777,0.000000
4447.062599,370.102971,-8503.660028,-222.061783
4447.062923,814.226536,-8733.488677,-296.082377
4447.063247,370.102971,-8580.269578,-370.102971
4447.063572,888.247130,-8580.269578,-592.164754
4447.063896,666.185348,-8580.269578,-370.102971
4447.064220,296.082377,-8810.098227,444.123565
4447.064545,222.061783,-8886.707777,-296.082377
4447.064869,444.123565,-8810.098227,-592.164754
4447.065194,370.102971,-8886.707777,-222.061783
4447.065518,222.061783,-8810.098227,74.020594
4447.065842,222.061783,-8963.317327,-222.061783
4447.066167,444.123565,-8580.269578,-222.061783
4447.066491,592.164754,-8503.660028,-296.082377
4447.066815,518.144159,-8656.879127,-296.082377
4447.067140,1036.288319,-8733.488677,-296.082377
4447.067464,296.082377,-8810.098227,0.000000
4447.067789,518.144159,-8963.317327,-296.082377
4447.068113,148.041188,-8503.660028,0.000000
4447.068437,1110.308913,-8810.098227,-148.041188
4447.068762,518.144159,-8580.269578,0.000000
4447.069086,444.123565,-8886.707777,0.000000
4447.069410,518.144159,-8733.488677,-222.061783
4447.069735,370.102971,-8656.879127,-148.041188
4447.070059,222.061783,-8886.707777,0.000000
4447.070384,296.082377,-8963.317327,74.020594
4447.070708,592.164754,-8656.879127,-222.061783
4447.071032,296.082377,-8503.660028,0.000000
4447.071357,296.082377,-8963.317327,0.000000
4447.071681,444.123565,-8810.098227,-370.102971
4447.072006,370.102971,-8350.440928,-370.102971
4447.072330,518.144159,-8503.660028,-148.041188
4447.072654,814.226536,-7967.393179,0.000000
4447.072979,444.123565,-8580.269578,-296.082377
4447.073303,518.144159,-8427.050478,-296.082377
4447.073627,444.123565,-8810.098227,-666.185348
4447.073952,222.061783,-8503.660028,-444.123565
4447.074276,296.082377,-8044.002729,-222.061783
4447.074601,370.102971,-8427.050478,-592.164754
4447.074925,370.102971,-8427.050478,-296.082377
4447.075249,444.123565,-8427.050478,-296.082377
4447.075574,518.144159,-8350.440928,0.000000
4447.075898,370.102971,-8427.050478,-296.082377
4447.076222,518.144159,-8503.660028,0.000000
4447.076547,444.123565,-8427.050478,-296.082377
4447.076871,518.144159,-8503.660028,74.020594
4447.077196,296.082377,-8810.098227,-444.123565
4447.077520,592.164754,-8656.879127,0.000000
4447.077844,444.123565,-8350.440928,0.000000
4447.078169,370.102971,-8886.707777,-296.082377
4447.078493,370.102971,-8503.660028,0.000000
4447.078817,444.123565,-8120.612279,-222.061783
4447.079142,592.164754,-8656.879127,-370.102971
4447.079466,444.123565,-8656.879127,0.000000
4447.079791,444.123565,-8273.831378,-518.144159
4447.080115,370.102971,-8350.440928,-296.082377
4447.080439,444.123565,-8427.050478,-592.164754
4447.080764,518.144159,-8580.269578,-666.185348
4447.081088,370.102971,-7967.393179,-296.082377
4447.081413,444.123565,-8197.221829,-592.164754
4447.081737,518.144159,-8810.098227,-666.185348
4447.082061,518.144159,-8733.488677,-740.205942
4447.082386,444.123565,-8963.317327,-666.185348
4447.082710,444.123565,-8503.660028,-740.205942
4447.083034,370.102971,-8733.488677,-518.144159
4447.083359,518.144159,-8656.879127,-592.164754
4447.083683,444.123565,-8427.050478,-592.164754
4447.084008,666.185348,-8963.317327,-666.185348
4447.084332,444.123565,-8810.098227,-814.226536
4447.084656,444.123565,-8427.050478,-592.164754
4447.084981,296.082377,-8733.488677,-518.144159
4447.085305,296.082377,-8733.488677,-296.082377
4447.085629,666.185348,-8656.879127,-370.102971
4447.085954,518.144159,-8963.317327,-296.082377
4447.086278,518.144159,-8503.660028,-222.061783
4447.086603,444.123565,-8503.660028,-296.082377
4447.086927,0.000000,-8810.098227,0.000000
4447.087251,222.061783,-8350.440928,-222.061783
4447.087576,444.123565,-8810.098227,-296.082377
4447.087900,370.102971,-8503.660028,0.000000
4447.088224,666.185348,-8503.660028,0.000000
4447.088549,296.082377,-8503.660028,-74.020594
4447.088873,444.123565,-8427.050478,-370.102971
4447.089198,666.185348,-8580.269578,-444.123565
4447.089522,666.185348,-8580.269578,-444.123565
4447.089846,740.205942,-8733.488677,-222.061783
4447.090171,222.061783,-8733.488677,-518.144159
4447.090495,518.144159,-8733.488677,-370.102971
4447.090820,518.144159,-8580.269578,-444.123565
4447.091144,962.267725,-8886.707777,-444.123565
4447.091468,518.144159,-8427.050478,0.000000
4447.091793,444.123565,-8503.660028,0.000000
4447.092117,592.164754,-8656.879127,-370.102971
4447.092441,592.164754,-8656.879127,-296.082377
4447.092766,740.205942,-8503.660028,-148.041188
4447.093090,592.164754,-8580.269578,-370.102971
4447.093415,370.102971,-8656.879127,0.000000
4447.093739,444.123565,-8580.269578,0.000000
4447.094063,444.123565,-8656.879127,-148.041188
4447.094388,370.102971,-8886.707777,0.000000
4447.094712,444.123565,-8580.269578,74.020594
4447.095036,296.082377,-8656.879127,222.061783
4447.095361,222.061783,-9193.145976,296.082377
4447.095685,518.144159,-8427.050478,-222.061783
4447.096010,296.082377,-8350.440928,-222.061783
4447.096334,518.144159,-8503.660028,-370.102971
4447.096658,296.082377,-9116.536426,0.000000
4447.096983,370.102971,-8427.050478,-370.102971
4447.097307,518.144159,-8427.050478,-444.123565
4447.097631,592.164754,-8197.221829,-296.082377
4447.097956,296.082377,-8656.879127,-592.164754
4447.098280,370.102971,-8273.831378,-518.144159
4447.098605,518.144159,-8197.221829,-518.144159
4447.098929,222.061783,-8810.098227,-740.205942
4447.099253,74.020594,-8810.098227,-666.185348
4447.099578,74.020594,-8580.269578,-814.226536
4447.099902,370.102971,-8427.050478,-666.185348
4447.100227,370.102971,-8656.879127,-592.164754
4447.100551,222.061783,-8886.707777,-370.102971
4447.100875,370.102971,-8656.879127,-296.082377
4447.101200,444.123565,-8810.098227,-518.144159
4447.101524,444.123565,-8810.098227,-666.185348
4447.101848,592.164754,-8580.269578,-296.082377
4447.102173,370.102971,-8350.440928,-222.061783
4447.102497,444.123565,-8656.879127,-370.102971
4447.102822,296.082377,-8427.050478,-444.123565
4447.103146,518.144159,-8733.488677,-444.123565
4447.103470,296.082377,-8733.488677,-444.123565
4447.103795,296.082377,-9193.145976,-296.082377
4447.104119,666.185348,-8810.098227,-592.164754
4447.104443,592.164754,-8350.440928,-518.144159
4447.104768,518.144159,-8656.879127,-370.102971
4447.105092,444.123565,-8733.488677,-518.144159
4447.105417,518.144159,-8503.660028,-444.123565
4447.105741,444.123565,-8503.660028,-814.226536
4447.106065,518.144159,-8733.488677,-444.123565
4447.106390,592.164754,-8350.440928,-592.164754
4447.106714,1036.288319,-8963.317327,-518.144159
4447.107038,370.102971,-8580.269578,-666.185348
4447.107363,370.102971,-8427.050478,-592.164754
4447.107687,370.102971,-8503.660028,-666.185348
4447.108012,518.144159,-8886.707777,-592.164754
4447.108336,444.123565,-8580.269578,-518.144159
4447.108660,444.123565,-8656.879127,-518.144159
4447.108985,666.185348,-8656.879127,-296.082377
4447.109309,222.061783,-8503.660028,-444.123565
4447.109634,148.041188,-8810.098227,-518.144159
4447.109958,592.164754,-8503.660028,-666.185348
4447.110282,296.082377,-8580.269578,-518.144159
4447.110607,296.082377,-8656.879127,-222.061783
4447.110931,1184.329507,-8656.879127,-518.144159
4447.111255,592.164754,-8580.269578,-296.082377
4447.111580,518.144159,-8427.050478,-370.102971
4447.111904,222.061783,-8580.269578,0.000000
4447.112224,444.123565,-8503.660028,-370.102971
4447.112549,370.102971,-8427.050478,-296.082377
4447.112873,296.082377,-8810.098227,-370.102971
4447.113197,222.061783,-8503.660028,-444.123565
4447.113522,148.041188,-8656.879127,-222.061783
4447.113846,592.164754,-8580.269578,-148.041188
4447.114170,222.061783,-8427.050478,0.000000
4447.114495,518.144159,-8503.660028,-370.102971
4447.114819,296.082377,-8580.269578,-222.061783
4447.115143,962.267725,-8273.831378,0.000000
4447.115468,296.082377,-8886.707777,-518.144159
4447.115792,444.123565,-8273.831378,-370.102971
4447.116117,148.041188,-8427.050478,-370.102971
4447.116441,148.041188,-8656.879127,0.000000
4447.116765,370.102971,-8427.050478,-222.061783
4447.117090,518.144159,-8580.269578,-518.144159
4447.117414,444.123565,-8656.879127,0.000000
4447.117738,518.144159,-8350.440928,-222.061783
4447.118063,148.041188,-8427.050478,0.000000
4447.118387,592.164754,-8350.440928,-148.041188
4447.118712,370.102971,-8197.221829,-222.061783
4447.119036,666.185348,-8580.269578,-296.082377
4447.119360,666.185348,-7967.393179,74.020594
4447.119685,592.164754,-8580.269578,-148.041188
4447.120009,296.082377,-8656.879127,0.000000
4447.120333,444.123565,-8503.660028,0.000000
4447.120658,444.123565,-8886.707777,0.000000
4447.120982,370.102971,-8350.440928,0.000000
4447.121307,518.144159,-9039.926876,0.000000
4447.121631,370.102971,-8656.879127,-370.102971
4447.121955,444.123565,-8733.488677,-222.061783
4447.122280,444.123565,-8427.050478,-814.226536
4447.122604,814.226536,-8503.660028,-518.144159
4447.122928,814.226536,-8503.660028,-370.102971
4447.123253,592.164754,-8656.879127,-370.102971
4447.123577,666.185348,-8427.050478,-370.102971
4447.123901,296.082377,-8503.660028,-444.123565
4447.124226,444.123565,-8733.488677,-888.247130
4447.124550,592.164754,-8580.269578,-444.123565
4447.124875,296.082377,-8580.269578,-518.144159
4447.125199,518.144159,-8273.831378,-592.164754
4447.125523,444.123565,-8273.831378,-740.205942
4447.125848,444.123565,-8733.488677,-592.164754
4447.126172,740.205942,-8273.831378,-740.205942
4447.126496,666.185348,-8427.050478,-1036.288319
4447.126821,370.102971,-8656.879127,-740.205942
4447.127145,592.164754,-8503.660028,-444.123565
4447.127470,444.123565,-8580.269578,-444.123565
4447.127794,444.123565,-8273.831378,-222.061783
4447.128118,592.164754,-8580.269578,-518.144159
4447.128443,370.102971,-8810.098227,-518.144159
4447.128767,444.123565,-8503.660028,-518.144159
4447.129091,444.123565,-8656.879127,-592.164754
4447.129416,814.226536,-8656.879127,-592.164754
4447.129740,370.102971,-8580.269578,-296.082377
4447.130064,74.020594,-8427.050478,-370.102971
4447.130389,296.082377,-8580.269578,-592.164754
4447.130713,666.185348,-9346.365076,-814.226536
4447.131038,666.185348,-8733.488677,-814.226536
4447.131362,148.041188,-8656.879127,-296.082377
4447.131686,592.164754,-8656.879127,-518.144159
4447.132011,444.123565,-9039.926876,-518.144159
4447.132335,0.000000,-8197.221829,-370.102971
4447.132659,444.123565,-8810.098227,-666.185348
4447.132984,518.144159,-8503.660028,-740.205942
4447.133308,296.082377,-8503.660028,-370.102971
4447.133633,444.123565,-8503.660028,-666.185348
4447.133957,370.102971,-8810.098227,-444.123565
4447.134281,518.144159,-8503.660028,-666.185348
4447.134606,518.144159,-8810.098227,-296.082377
4447.134930,296.082377,-8656.879127,-518.144159
4447.135254,148.041188,-8580.269578,-222.061783
4447.135579,370.102971,-8580.269578,-444.123565
4447.135903,296.082377,-8427.050478,-518.144159
4447.136228,296.082377,-8886.707777,-370.102971
4447.136552,296.082377,-8503.660028,-296.082377
4447.136876,222.061783,-8580.269578,0.000000
4447.137201,148.041188,-8733.488677,-296.082377
4447.137525,444.123565,-8580.269578,-296.082377
4447.137849,0.000000,-8810.098227,-74.020594
4447.138174,296.082377,-8580.269578,0.000000
4447.138498,74.020594,-8733.488677,-222.061783
4447.138822,444.123565,-8580.269578,-296.082377
4447.139147,444.123565,-8427.050478,-148.041188
4447.139471,518.144159,-8733.488677,-296.082377
4447.139796,814.226536,-8580.269578,-370.102971
4447.140120,518.144159,-8427.050478,-296.082377
4447.140444,518.144159,-8427.050478,-592.164754
4447.140769,296.082377,-8580.269578,-222.061783
4447.141093,518.144159,-8580.269578,-296.082377
4447.141417,444.123565,-8580.269578,-518.144159
4447.141742,518.144159,-8656.879127,-518.144159
4447.142066,518.144159,-8580.269578,-518.144159
4447.142391,518.144159,-8580.269578,-592.164754
4447.142715,592.164754,-8580.269578,0.000000
4447.143039,740.205942,-8580.269578,-592.164754
4447.143364,666.185348,-9193.145976,0.000000
4447.143688,666.185348,-8350.440928,-444.123565
4447.144012,518.144159,-8733.488677,-148.041188
4447.144337,444.123565,-8580.269578,-222.061783
4447.144661,370.102971,-8733.488677,-222.061783
4447.144986,370.102971,-8580.269578,-74.020594
4447.145310,370.102971,-8656.879127,-222.061783
4447.145634,74.020594,-8733.488677,0.000000
4447.145959,296.082377,-8656.879127,0.000000
4447.146283,370.102971,-8197.221829,148.041188
4447.146607,370.102971,-8733.488677,-518.144159
4447.146932,518.144159,-8273.831378,0.000000
4447.147256,740.205942,-8503.660028,-296.082377
4447.147580,518.144159,-9269.755526,-222.061783
4447.147905,370.102971,-8427.050478,-296.082377
4447.148229,518.144159,-8580.269578,-148.041188
4447.148554,444.123565,-8656.879127,-370.102971
4447.148878,148.041188,-8580.269578,-296.082377
4447.149202,592.164754,-8733.488677,-592.164754
4447.149527,222.061783,-8733.488677,-592.164754
4447.149851,222.061783,-8580.269578,-518.144159
4447.150175,592.164754,-8733.488677,-518.144159
4447.150500,740.205942,-8427.050478,-370.102971
4447.150824,222.061783,-8503.660028,-370.102971
4447.151149,444.123565,-8350.440928,-518.144159
4447.151473,370.102971,-8503.660028,-518.144159
4447.151797,518.144159,-8580.269578,-370.102971
4447.152122,444.123565,-8580.269578,-148.041188
4447.152446,222.061783,-8733.488677,0.000000
4447.152770,222.061783,-8810.098227,-222.061783
4447.153095,518.144159,-8197.221829,-222.061783
4447.153419,814.226536,-8733.488677,-296.082377
4447.153744,666.185348,-8810.098227,-148.041188
4447.154068,444.123565,-8427.050478,-296.082377
4447.154392,444.123565,-9116.536426,-296.082377
4447.154717,518.144159,-8503.660028,0.000000
4447.155041,592.164754,-8427.050478,-370.102971
4447.155365,444.123565,-8580.269578,-296.082377
4447.155690,444.123565,-8350.440928,-222.061783
4447.156014,518.144159,-8733.488677,-222.061783
4447.156338,592.164754,-8427.050478,-370.102971
4447.156663,444.123565,-8427.050478,-296.082377
4447.156987,518.144159,-8580.269578,-518.144159
4447.157312,814.226536,-8044.002729,-444.123565
4447.157636,222.061783,-8273.831378,0.000000
4447.157960,370.102971,-8580.269578,-370.102971
4447.158285,370.102971,-8503.660028,-592.164754
4447.158609,296.082377,-8580.269578,-518.144159
4447.158933,296.082377,-8886.707777,0.000000
4447.159258,74.020594,-8810.098227,-222.061783
4447.159582,222.061783,-8427.050478,-222.061783
4447.159907,444.123565,-8503.660028,-444.123565
4447.160231,518.144159,-8733.488677,-888.247130
4447.160555,222.061783,-8503.660028,-222.061783
4447.160880,518.144159,-8503.660028,-518.144159
4447.161204,296.082377,-8273.831378,-444.123565
4447.161528,444.123565,-8503.660028,-296.082377
4447.161853,370.102971,-8427.050478,0.000000
4447.162177,222.061783,-8810.098227,-518.144159
4447.162501,296.082377,-8427.050478,-222.061783
4447.162826,222.061783,-8503.660028,0.000000
4447.163150,370.102971,-8656.879127,0.000000
4447.163475,296.082377,-8580.269578,-296.082377
4447.163799,444.123565,-8963.317327,-296.082377
4447.164123,518.144159,-8810.098227,-222.061783
4447.164448,296.082377,-8350.440928,-296.082377
4447.164772,518.144159,-8733.488677,-592.164754
4447.165096,296.082377,-8656.879127,-444.123565
4447.165421,666.185348,-8886.707777,-370.102971
4447.165745,444.123565,-8350.440928,-814.226536
4447.166070,296.082377,-8580.269578,0.000000
4447.166394,222.061783,-8503.660028,-444.123565
4447.166718,444.123565,-8810.098227,-592.164754
4447.167043,444.123565,-8580.269578,-592.164754
4447.167367,370.102971,-8197.221829,-296.082377
4447.167691,444.123565,-8503.660028,-222.061783
4447.168016,444.123565,-8733.488677,-222.061783
4447.168340,296.082377,-8810.098227,-370.102971
4447.168665,296.082377,-8503.660028,-296.082377
4447.168989,444.123565,-8656.879127,-592.164754
4447.169313,444.123565,-8656.879127,-296.082377
4447.169638,518.144159,-8733.488677,-148.041188
4447.169962,148.041188,-8503.660028,0.000000
4447.170286,518.144159,-8503.660028,222.061783
4447.170611,370.102971,-8656.879127,-222.061783
4447.170935,518.144159,-8656.879127,-222.061783
4447.171259,444.123565,-8273.831378,0.000000
4447.171584,370.102971,-8656.879127,0.000000
4447.171908,370.102971,-8273.831378,-370.102971
4447.172233,222.061783,-8656.879127,0.000000
4447.172557,518.144159,-8197.221829,0.000000
4447.172881,444.123565,-8810.098227,0.000000
4447.173206,296.082377,-8580.269578,-592.164754
4447.173530,518.144159,-8503.660028,-222.061783
4447.173854,592.164754,-8273.831378,-444.123565
4447.174179,518.144159,-8810.098227,-592.164754
4447.174503,814.226536,-8886.707777,-518.144159
4447.174828,518.144159,-8273.831378,-148.041188
4447.175152,296.082377,-8427.050478,-296.082377
4447.175476,296.082377,-8350.440928,-222.061783
4447.175801,444.123565,-8503.660028,-444.123565
4447.176125,518.144159,-8580.269578,-370.102971
4447.176449,444.123565,-8580.269578,-148.041188
4447.176774,444.123565,-8350.440928,-148.041188
4447.177098,444.123565,-8350.440928,-222.061783
4447.177423,518.144159,-8273.831378,-370.102971
4447.177747,444.123565,-8810.098227,-222.061783
4447.178071,666.185348,-8733.488677,0.000000
4447.178396,296.082377,-8503.660028,-370.102971
4447.178720,444.123565,-8733.488677,0.000000
4447.179044,296.082377,-8273.831378,-74.020594
4447.179369,148.041188,-8656.879127,0.000000
4447.179693,74.020594,-8733.488677,0.000000
4447.180017,444.123565,-9039.926876,0.000000
4447.180342,444.123565,-8733.488677,-518.144159
4447.180666,148.041188,-8580.269578,-222.061783
4447.180991,444.123565,-8427.050478,-222.061783
4447.181315,592.164754,-8810.098227,-444.123565
4447.181639,1036.288319,-8427.050478,-148.041188
4447.181964,666.185348,-8580.269578,-296.082377
4447.182288,370.102971,-8733.488677,-370.102971
4447.182612,518.144159,-8580.269578,-592.164754
4447.182937,444.123565,-8580.269578,-518.144159
4447.183261,592.164754,-8886.707777,-370.102971
4447.183586,148.041188,-8656.879127,-444.123565
4447.183910,296.082377,-8733.488677,-222.061783
4447.184234,370.102971,-8503.660028,-444.123565
4447.184559,740.205942,-8810.098227,-666.185348
4447.184883,518.144159,-8886.707777,-370.102971
4447.185207,296.082377,-8350.440928,-222.061783
4447.185532,296.082377,-8733.488677,0.000000
4447.185856,518.144159,-9193.145976,-370.102971
4447.186180,518.144159,-8656.879127,-370.102971
4447.186505,740.205942,-8733.488677,-444.123565
4447.186829,518.144159,-8810.098227,0.000000
4447.187154,370.102971,-8733.488677,-74.020594
4447.187478,370.102971,-8580.269578,-370.102971
4447.187802,444.123565,-8810.098227,-444.123565
4447.188127,518.144159,-8886.707777,-444.123565
4447.188451,444.123565,-8656.879127,0.000000
4447.188775,666.185348,-8350.440928,-296.082377
4447.189100,222.061783,-9116.536426,-148.041188
4447.189424,296.082377,-8120.612279,-444.123565
4447.189749,518.144159,-8810.098227,-222.061783
4447.190073,666.185348,-8886.707777,-518.144159
4447.190397,814.226536,-8656.879127,-296.082377
4447.190722,592.164754,-8503.660028,-518.144159
4447.191046,592.164754,-8580.269578,-518.144159
4447.191370,370.102971,-8810.098227,-592.164754
4447.191695,222.061783,-9039.926876,-444.123565
4447.192019,222.061783,-8350.440928,-296.082377
4447.192344,0.000000,-8580.269578,-222.061783
4447.192668,74.020594,-8580.269578,-222.061783
4447.192992,148.041188,-8733.488677,148.041188
4447.193317,370.102971,-8580.269578,-444.123565
4447.193641,444.123565,-8580.269578,-222.061783
4447.193965,296.082377,-8733.488677,-370.102971
4447.194290,148.041188,-9116.536426,148.041188
4447.194614,518.144159,-8427.050478,-370.102971
4447.194938,370.102971,-8580.269578,-222.061783
4447.195263,370.102971,-8427.050478,-148.041188
4447.195587,592.164754,-8350.440928,-148.041188
4447.195912,296.082377,-8427.050478,-518.144159
4447.196236,296.082377,-8733.488677,0.000000
4447.196560,592.164754,-8350.440928,-370.102971
4447.196885,592.164754,-8886.707777,-370.102971
4447.197209,1184.329507,-8733.488677,-370.102971
4447.197533,518.144159,-8350.440928,-296.082377
4447.197858,518.144159,-8503.660028,-296.082377
4447.198182,370.102971,-8427.050478,-444.123565
4447.198507,518.144159,-8810.098227,0.000000
4447.198831,666.185348,-8656.879127,-370.102971
4447.199155,296.082377,-8503.660028,-592.164754
4447.199480,370.102971,-8810.098227,-444.123565
4447.199804,296.082377,-8427.050478,-444.123565
4447.200128,592.164754,-8656.879127,-666.185348
4447.200453,222.061783,-8810.098227,-740.205942
4447.200777,296.082377,-8886.707777,-370.102971
4447.201102,296.082377,-8656.879127,-592.164754
4447.201426,444.123565,-8273.831378,-222.061783
4447.201750,444.123565,-8656.879127,-666.185348
4447.202075,518.144159,-9039.926876,-444.123565
4447.202399,370.102971,-8580.269578,-222.061783
4447.202723,444.123565,-8656.879127,0.000000
4447.203048,296.082377,-8580.269578,-444.123565
4447.203372,296.082377,-8427.050478,-148.041188
4447.203696,666.185348,-8733.488677,-370.102971
4447.204021,222.061783,-8733.488677,0.000000
4447.204345,518.144159,-9193.145976,-222.061783
4447.204670,222.061783,-8503.660028,0.000000
4447.204994,222.061783,-8656.879127,-370.102971
4447.205318,296.082377,-8656.879127,-148.041188
4447.205643,962.267725,-9039.926876,-296.082377
4447.205967,370.102971,-8350.440928,-222.061783
4447.206291,370.102971,-8656.879127,-296.082377
4447.206616,518.144159,-8810.098227,-518.144159
4447.206940,592.164754,-8656.879127,-370.102971
4447.207265,888.247130,-8503.660028,-444.123565
4447.207589,444.123565,-8733.488677,-296.082377
4447.207913,518.144159,-8810.098227,-518.144159
4447.208238,592.164754,-8656.879127,-518.144159
4447.208562,74.020594,-8427.050478,-888.247130
4447.208886,740.205942,-8733.488677,-444.123565
4447.209211,666.185348,-8503.660028,-444.123565
4447.209535,296.082377,-8733.488677,-518.144159
4447.209859,296.082377,-8120.612279,0.000000
4447.210184,296.082377,-8503.660028,-370.102971
4447.210508,444.123565,-8197.221829,-296.082377
4447.210833,444.123565,-8656.879127,-148.041188
4447.211157,518.144159,-8197.221829,-222.061783
4447.211481,814.226536,-8656.879127,0.000000
4447.211806,518.144159,-8427.050478,-222.061783
4447.212130,444.123565,-8580.269578,-222.061783
4447.212454,444.123565,-8503.660028,-296.082377
4447.212779,888.247130,-8273.831378,74.020594
4447.213103,444.123565,-8427.050478,-222.061783
4447.213428,222.061783,-8503.660028,-296.082377
4447.213752,444.123565,-8656.879127,-222.061783
4447.214076,222.061783,-8273.831378,-370.102971
4447.214401,370.102971,-8273.831378,-296.082377
4447.214725,74.020594,-8656.879127,0.000000
4447.215050,296.082377,-8580.269578,-222.061783
4447.215374,518.144159,-8503.660028,-370.102971
4447.215698,740.205942,-8350.440928,-444.123565
4447.216023,592.164754,-8580.269578,-444.123565
4447.216347,592.164754,-8273.831378,-370.102971
4447.216672,518.144159,-8733.488677,-296.082377
4447.216996,444.123565,-8120.612279,-740.205942
4447.217320,592.164754,-8733.488677,-444.123565
4447.217645,296.082377,-8656.879127,-814.226536
4447.217969,0.000000,-8503.660028,-296.082377
4447.218294,222.061783,-8350.440928,-222.061783
4447.218618,222.061783,-8810.098227,-296.082377
4447.218942,222.061783,-8350.440928,-296.082377
4447.219267,592.164754,-8886.707777,-222.061783
4447.219591,518.144159,-8656.879127,-296.082377
4447.219916,222.061783,-8503.660028,74.020594
4447.220240,370.102971,-8427.050478,-296.082377
4447.220564,444.123565,-8810.098227,-370.102971
4447.220889,222.061783,-8427.050478,0.000000
4447.221213,-222.061783,-8886.707777,0.000000
4447.221538,222.061783,-8580.269578,-222.061783
4447.221862,370.102971,-8886.707777,-148.041188
4447.222186,444.123565,-8503.660028,-518.144159
4447.222511,296.082377,-8963.317327,0.000000
4447.222835,592.164754,-8733.488677,-592.164754
4447.223160,888.247130,-8427.050478,-222.061783
4447.223484,518.144159,-8197.221829,-592.164754
4447.223808,592.164754,-8810.098227,-296.082377
4447.224133,814.226536,-8427.050478,-888.247130
4447.224457,444.123565,-8886.707777,-518.144159
4447.224782,592.164754,-8350.440928,-740.205942
4447.225106,296.082377,-8503.660028,-444.123565
4447.225430,222.061783,-8886.707777,-962.267725
4447.225755,518.144159,-8427.050478,-666.185348
4447.226079,518.144159,-8886.707777,-370.102971
4447.226404,518.144159,-8580.269578,-666.185348
4447.226728,518.144159,-8350.440928,-296.082377
4447.227052,370.102971,-8886.707777,-666.185348
4447.227377,666.185348,-8503.660028,-518.144159
4447.227701,518.144159,-8503.660028,-518.144159
4447.228026,296.082377,-8656.879127,-148.041188
4447.228350,666.185348,-8963.317327,74.020594
4447.228674,444.123565,-8503.660028,-296.082377
4447.228999,666.185348,-8503.660028,-222.061783
4447.229323,444.123565,-8580.269578,0.000000
4447.229648,222.061783,-9039.926876,0.000000
4447.229972,518.144159,-8503.660028,0.000000
4447.230296,518.144159,-8427.050478,0.000000
4447.230621,148.041188,-8733.488677,-296.082377
4447.230945,148.041188,-8733.488677,-296.082377
4447.231270,518.144159,-8273.831378,-518.144159
4447.231594,370.102971,-8580.269578,-370.102971
4447.231918,592.164754,-8810.098227,-296.082377
4447.232243,592.164754,-8656.879127,-296.082377
4447.232567,962.267725,-8350.440928,-592.164754
4447.232892,592.164754,-8044.002729,-666.185348
4447.233216,814.226536,-8580.269578,-814.226536
4447.233540,592.164754,-8580.269578,-444.123565
4447.233865,296.082377,-8656.879127,-444.123565
4447.234189,0.000000,-8656.879127,-666.185348
4447.234514,148.041188,-8503.660028,-518.144159
4447.234838,296.082377,-8503.660028,-592.164754
4447.235162,148.041188,-8733.488677,-592.164754
4447.235487,518.144159,-8656.879127,-296.082377
4447.235811,592.164754,-8963.317327,-444.123565
4447.236136,666.185348,-8503.660028,-518.144159
4447.236460,296.082377,-8733.488677,-296.082377
4447.236784,1110.308913,-8886.707777,-740.205942
4447.237109,592.164754,-8427.050478,-296.082377
4447.237433,370.102971,-8580.269578,-666.185348
4447.237758,296.082377,-8580.269578,-444.123565
4447.238082,370.102971,-8044.002729,0.000000
4447.238406,592.164754,-8886.707777,-296.082377
4447.238731,148.041188,-8503.660028,-370.102971
4447.239055,74.020594,-8810.098227,0.000000
4447.239380,296.082377,-8656.879127,-444.123565
4447.239704,444.123565,-9039.926876,0.000000
4447.240028,444.123565,-8963.317327,-592.164754
4447.240353,666.185348,-8580.269578,-666.185348
4447.240677,666.185348,-8350.440928,-444.123565
4447.241002,518.144159,-7967.393179,-148.041188
4447.241326,592.164754,-8733.488677,-518.144159
4447.241650,518.144159,-8503.660028,-518.144159
4447.241975,444.123565,-8580.269578,-666.185348
4447.242299,444.123565,-8733.488677,-370.102971
4447.242624,518.144159,-8427.050478,-592.164754
4447.242948,370.102971,-8427.050478,-666.185348
4447.243272,518.144159,-8580.269578,-444.123565
4447.243597,222.061783,-8427.050478,-518.144159
4447.243921,888.247130,-8733.488677,-296.082377
4447.244246,592.164754,-7967.393179,-296.082377
4447.244570,444.123565,-8810.098227,-148.041188
4447.244894,592.164754,-8427.050478,-222.061783
4447.245219,740.205942,-8197.221829,296.082377
4447.245543,518.144159,-8503.660028,0.000000
4447.245868,518.144159,-8580.269578,0.000000
4447.246192,370.102971,-8733.488677,0.000000
4447.246516,370.102971,-8350.440928,0.000000
4447.246841,148.041188,-8427.050478,0.000000
4447.247165,444.123565,-8810.098227,0.000000
4447.247490,148.041188,-8503.660028,0.000000
4447.247814,222.061783,-8810.098227,222.061783
4447.248138,148.041188,-8503.660028,-370.102971
4447.248463,444.123565,-8503.660028,0.000000
4447.248787,444.123565,-8656.879127,0.000000
4447.249112,444.123565,-8580.269578,0.000000
4447.249436,740.205942,-8120.612279,0.000000
4447.249760,518.144159,-8580.269578,-296.082377
4447.250085,592.164754,-8273.831378,-592.164754
4447.250409,444.123565,-8580.269578,-370.102971
4447.250734,444.123565,-8656.879127,-444.123565
4447.251058,518.144159,-8273.831378,-222.061783
4447.251382,518.144159,-8580.269578,-518.144159
4447.251707,370.102971,-8273.831378,-296.082377
4447.252031,370.102971,-8503.660028,-296.082377
4447.252356,814.226536,-8810.098227,-444.123565
4447.252680,148.041188,-8656.879127,0.000000
4447.253004,444.123565,-8733.488677,-148.041188
4447.253329,222.061783,-8503.660028,-148.041188
4447.253653,518.144159,-8656.879127,0.000000
4447.253978,592.164754,-8733.488677,-444.123565
4447.254302,592.164754,-8580.269578,0.000000
4447.254626,444.123565,-8350.440928,-222.061783
4447.254951,222.061783,-8656.879127,0.000000
4447.255275,74.020594,-8427.050478,-296.082377
4447.255600,296.082377,-8810.098227,-370.102971
4447.255924,0.000000,-8580.269578,-148.041188
4447.256248,518.144159,-8733.488677,-148.041188
4447.256573,888.247130,-8503.660028,-1110.308913
4447.256897,444.123565,-8656.879127,-370.102971
4447.257222,666.185348,-8810.098227,-518.144159
4447.257546,222.061783,-8503.660028,-592.164754
4447.257870,666.185348,-8503.660028,-740.205942
4447.258195,592.164754,-8656.879127,-666.185348
4447.258519,444.123565,-8963.317327,-666.185348
4447.258844,518.144159,-8810.098227,-888.247130
4447.259168,444.123565,-8733.488677,-1036.288319
4447.259492,370.102971,-8810.098227,-1036.288319
4447.259817,296.082377,-8733.488677,-666.185348
4447.260141,518.144159,-8810.098227,-666.185348
4447.260466,444.123565,-8503.660028,-740.205942
4447.260790,518.144159,-9576.193725,-1036.288319
4447.261114,592.164754,-8580.269578,-518.144159
4447.261439,518.144159,-8656.879127,-592.164754
4447.261763,592.164754,-8810.098227,-592.164754
4447.262088,592.164754,-8503.660028,-592.164754
4447.262412,222.061783,-8503.660028,-370.102971
4447.262736,444.123565,-8580.269578,-444.123565
4447.263061,370.102971,-8733.488677,-370.102971
4447.263385,222.061783,-8810.098227,-148.041188
4447.263710,74.020594,-8197.221829,0.000000
4447.264034,444.123565,-8350.440928,-444.123565
4447.264358,370.102971,-8580.269578,-444.123565
4447.264683,518.144159,-8503.660028,-296.082377
4447.265007,666.185348,-8197.221829,-814.226536
4447.265332,370.102971,-8656.879127,-518.144159
4447.265656,518.144159,-8350.440928,-296.082377
4447.265980,444.123565,-8503.660028,-666.185348
4447.266305,444.123565,-8656.879127,-740.205942
4447.266629,370.102971,-8503.660028,-592.164754
4447.266954,370.102971,-8656.879127,-444.123565
4447.267278,370.102971,-8350.440928,-814.226536
4447.267602,592.164754,-8810.098227,-592.164754
4447.267927,74.020594,-8580.269578,-296.082377
4447.268251,518.144159,-8656.879127,-296.082377
4447.268576,296.082377,-8350.440928,-444.123565
4447.268900,444.123565,-8580.269578,-296.082377
4447.269224,592.164754,-8120.612279,-370.102971
4447.269549,296.082377,-9039.926876,-148.041188
4447.269873,296.082377,-8580.269578,-518.144159
4447.270198,296.082377,-8503.660028,0.000000
4447.270522,370.102971,-8273.831378,-148.041188
4447.270846,296.082377,-8273.831378,-148.041188
4447.271171,444.123565,-8656.879127,-148.041188
4447.271495,666.185348,-8810.098227,0.000000
4447.271820,296.082377,-8503.660028,0.000000
4447.272144,518.144159,-9116.536426,0.000000
4447.272468,222.061783,-8810.098227,74.020594
4447.272793,518.144159,-8886.707777,0.000000
4447.273117,148.041188,-8810.098227,-148.041188
4447.273442,370.102971,-8656.879127,148.041188
4447.273766,518.144159,-8733.488677,0.000000
4447.274090,666.185348,-8503.660028,-296.082377
4447.274415,518.144159,-8580.269578,-222.061783
4447.274739,740.205942,-8656.879127,-444.123565
4447.275064,666.185348,-8656.879127,0.000000
4447.275388,222.061783,-8273.831378,-222.061783
4447.275712,444.123565,-8810.098227,-444.123565
4447.276037,370.102971,-8427.050478,-518.144159
4447.276361,592.164754,-8120.612279,-148.041188
4447.276686,222.061783,-8733.488677,-296.082377
4447.277010,296.082377,-8733.488677,-370.102971
4447.277334,296.082377,-8656.879127,-518.144159
4447.277659,444.123565,-8427.050478,-370.102971
4447.277983,296.082377,-8427.050478,-370.102971
4447.278308,518.144159,-8733.488677,-444.123565
4447.278632,666.185348,-8503.660028,-296.082377
4447.278956,370.102971,-8580.269578,-296.082377
4447.279281,444.123565,-8656.879127,-296.082377
4447.279605,296.082377,-8350.440928,0.000000
4447.279930,592.164754,-8733.488677,-296.082377
4447.280254,222.061783,-8886.707777,-222.061783
4447.280578,740.205942,-8580.269578,74.020594
4447.280903,296.082377,-8427.050478,74.020594
4447.281227,296.082377,-8503.660028,-148.041188
4447.281552,518.144159,-8350.440928,-296.082377
4447.281876,444.123565,-8733.488677,-74.020594
4447.282200,518.144159,-8273.831378,0.000000
4447.282525,518.144159,-8503.660028,-444.123565
4447.282849,296.082377,-8350.440928,-222.061783
4447.283174,518.144159,-8350.440928,-296.082377
4447.283498,888.247130,-8273.831378,-592.164754
4447.283822,296.082377,-8503.660028,-518.144159
4447.284147,296.082377,-8656.879127,-370.102971
4447.284471,296.082377,-8733.488677,-518.144159
4447.284796,518.144159,-7737.564530,0.000000
4447.285120,296.082377,-8733.488677,-370.102971
4447.285444,370.102971,-8656.879127,-444.123565
4447.285769,222.061783,-8427.050478,-518.144159
4447.286093,518.144159,-8427.050478,-592.164754
4447.286418,148.041188,-8120.612279,0.000000
4447.286742,444.123565,-8273.831378,-518.144159
4447.287066,518.144159,-8886.707777,-370.102971
4447.287391,296.082377,-8503.660028,-222.061783
4447.287715,740.205942,-8427.050478,296.082377
4447.288040,370.102971,-8350.440928,-222.061783
4447.288364,222.061783,-8656.879127,0.000000
4447.288688,296.082377,-8963.317327,-296.082377
4447.289013,592.164754,-8733.488677,-370.102971
4447.289337,148.041188,-8656.879127,0.000000
4447.289662,296.082377,-8810.098227,-296.082377
4447.289986,296.082377,-8580.269578,-370.102971
4447.290310,592.164754,-8580.269578,-444.123565
4447.290635,962.267725,-8427.050478,-370.102971
4447.290959,740.205942,-8503.660028,-296.082377
4447.291284,740.205942,-8503.660028,-518.144159
4447.291608,666.185348,-8656.879127,-740.205942
4447.291932,814.226536,-9652.803275,-222.061783
4447.292257,518.144159,-8503.660028,-296.082377
4447.292581,296.082377,-8044.002729,-592.164754
4447.292906,222.061783,-8810.098227,-518.144159
4447.293230,296.082377,-8656.879127,-592.164754
4447.293554,444.123565,-8580.269578,-370.102971
4447.293879,222.061783,-8503.660028,-518.144159
4447.294203,444.123565,-8580.269578,-296.082377
4447.294528,518.144159,-8503.660028,-370.102971
4447.294852,148.041188,-8656.879127,222.061783
4447.295176,296.082377,-8656.879127,-518.144159
4447.295501,592.164754,-8733.488677,-222.061783
4447.295825,444.123565,-8580.269578,-222.061783
4447.296150,888.247130,-8810.098227,-148.041188
4447.296474,74.020594,-8810.098227,74.020594
4447.296798,518.144159,-8733.488677,-222.061783
4447.297123,222.061783,-8886.707777,-222.061783
4447.297447,222.061783,-8656.879127,-222.061783
4447.297772,370.102971,-8580.269578,0.000000
4447.298096,296.082377,-8733.488677,0.000000
4447.298420,370.102971,-8580.269578,-370.102971
4447.298745,518.144159,-8273.831378,-296.082377
4447.299069,592.164754,-8886.707777,0.000000
4447.299394,518.144159,-8580.269578,-296.082377
4447.299718,518.144159,-8810.098227,-370.102971
4447.300042,370.102971,-8810.098227,-444.123565
4447.300367,296.082377,-9346.365076,-296.082377
4447.300691,518.144159,-8656.879127,-666.185348
4447.301016,518.144159,-8580.269578,-592.164754
4447.301340,296.082377,-8503.660028,-296.082377
4447.301664,370.102971,-8580.269578,-444.123565
4447.301989,222.061783,-8427.050478,-222.061783
4447.302313,444.123565,-8350.440928,-814.226536
4447.302638,518.144159,-8656.879127,-444.123565
4447.302962,296.082377,-8197.221829,-296.082377
4447.303286,74.020594,-7967.393179,74.020594
4447.303611,370.102971,-8580.269578,-592.164754
4447.303935,296.082377,-8427.050478,-148.041188
4447.304260,518.144159,-8656.879127,-592.164754
4447.304584,518.144159,-8733.488677,-666.185348
4447.304908,444.123565,-8427.050478,-518.144159
4447.305233,444.123565,-8810.098227,-148.041188
4447.305557,222.061783,-8580.269578,-148.041188
4447.305882,0.000000,-8733.488677,0.000000
4447.306206,74.020594,-8580.269578,0.000000
4447.306530,222.061783,-8273.831378,0.000000
4447.306855,518.144159,-8656.879127,-296.082377
4447.307179,370.102971,-8273.831378,-296.082377
4447.307504,518.144159,-8427.050478,-666.185348
4447.307828,444.123565,-8656.879127,-444.123565
4447.308152,370.102971,-8580.269578,-296.082377
4447.308477,592.164754,-8273.831378,-370.102971
4447.308801,444.123565,-8810.098227,-518.144159
4447.309126,148.041188,-8197.221829,-592.164754
4447.309450,222.061783,-8656.879127,-740.205942
4447.309774,370.102971,-8503.660028,-592.164754
4447.310099,222.061783,-8580.269578,-296.082377
4447.310423,74.020594,-8656.879127,-444.123565
4447.310748,222.061783,-8656.879127,-814.226536
4447.311072,370.102971,-8503.660028,-370.102971
4447.311396,222.061783,-8273.831378,-296.082377
4447.311721,518.144159,-9039.926876,-296.082377
4447.312045,296.082377,-8350.440928,-370.102971
4447.312370,666.185348,-8350.440928,-666.185348
4447.312694,518.144159,-8580.269578,-518.144159
4447.313018,518.144159,-8656.879127,-296.082377
4447.313343,740.205942,-8350.440928,0.000000
4447.313667,296.082377,-8810.098227,-444.123565
4447.313992,148.041188,-8886.707777,-222.061783
4447.314316,222.061783,-8580.269578,-296.082377
4447.314640,814.226536,-8580.269578,-740.205942
4447.314965,444.123565,-8656.879127,-370.102971
4447.315289,444.123565,-8350.440928,-518.144159
4447.315614,370.102971,-8427.050478,-74.020594
4447.315938,222.061783,-8197.221829,-370.102971
4447.316262,740.205942,-8733.488677,-518.144159
4447.316587,518.144159,-8427.050478,-592.164754
4447.316911,518.144159,-8656.879127,-444.123565
