#time,accel_x,accel_y,accel_z
3949.690324,-814.226536,-9116.536426,-888.247130
3949.690648,-1036.288319,-9116.536426,-666.185348
3949.690973,-1406.391290,-9346.365076,-1036.288319
3949.691297,-1480.411884,-8886.707777,-962.267725
3949.691622,-1480.411884,-8963.317327,-962.267725
3949.691946,-1332.370696,-8963.317327,-1036.288319
3949.692271,-814.226536,-9269.755526,-1406.391290
3949.692596,-592.164754,-9269.755526,-1110.308913
3949.692920,296.082377,-8886.707777,-1110.308913
3949.693245,0.000000,-9422.974625,-1332.370696
3949.693569,370.102971,-9193.145976,-1702.473667
3949.693894,-666.185348,-9576.193725,-1258.350101
3949.694218,-1628.453072,-9729.412825,-1332.370696
3949.694543,-1702.473667,-9576.193725,-1110.308913
3949.694867,-2368.659014,-9116.536426,-1554.432478
3949.695192,-2294.638420,-9882.631924,-888.247130
3949.695516,-2812.782580,-8427.050478,-1480.411884
3949.695840,-2146.597232,-9346.365076,-518.144159
3949.696164,-2220.617826,-8120.612279,-888.247130
3949.696489,-962.267725,-9193.145976,-518.144159
3949.696813,-1258.350101,-8580.269578,-1110.308913
3949.697137,-1036.288319,-8886.707777,0.000000
3949.697462,-1480.411884,-8427.050478,-666.185348
3949.697786,-1332.370696,-9576.193725,74.020594
3949.698110,-2072.576638,-9039.926876,-296.082377
3949.698435,-1480.411884,-9346.365076,222.061783
3949.698759,-2220.617826,-8503.660028,0.000000
3949.699083,-1776.494261,-8503.660028,814.226536
3949.699407,-1554.432478,-8044.002729,444.123565
3949.699732,-1406.391290,-8197.221829,592.164754
3949.700056,-518.144159,-8044.002729,0.000000
3949.700380,-222.061783,-7967.393179,222.061783
3949.700705,518.144159,-8733.488677,74.020594
3949.701029,74.020594,-8197.221829,962.267725
3949.701353,74.020594,-8197.221829,666.185348
3949.701677,370.102971,-8350.440928,814.226536
3949.702002,740.205942,-8120.612279,814.226536
3949.702326,666.185348,-8120.612279,814.226536
3949.702650,518.144159,-8044.002729,888.247130
3949.702975,296.082377,-8273.831378,814.226536
3949.703299,296.082377,-7660.954980,222.061783
3949.703623,1406.391290,-7737.564530,444.123565
3949.703947,518.144159,-7354.516781,592.164754
3949.704272,888.247130,-7507.735880,518.144159
3949.704596,1036.288319,-7737.564530,592.164754
3949.704920,1406.391290,-7737.564530,0.000000
3949.705245,1702.473667,-7967.393179,148.041188
3949.705569,1850.514855,-8503.660028,74.020594
3949.705893,1554.432478,-8503.660028,0.000000
3949.706218,1776.494261,-8427.050478,0.000000
3949.706542,1850.514855,-8810.098227,0.000000
3949.706866,1776.494261,-8427.050478,-814.226536
3949.707190,1480.411884,-8427.050478,-518.144159
3949.707515,1184.329507,-8503.660028,-666.185348
3949.707839,1554.432478,-8886.707777,-740.205942
3949.708163,1036.288319,-8503.660028,-814.226536
3949.708488,1332.370696,-8656.879127,-814.226536
3949.708812,1776.494261,-8503.660028,-1258.350101
3949.709136,1776.494261,-9652.803275,-1184.329507
3949.709460,1924.535449,-9269.755526,-1110.308913
3949.709785,1924.535449,-9116.536426,-1184.329507
3949.710109,1480.411884,-9806.022374,-1480.411884
3949.710433,1554.432478,-9422.974625,-1332.370696
3949.710758,1554.432478,-9959.241474,-1406.391290
3949.711082,814.226536,-9116.536426,-1480.411884
3949.711406,296.082377,-9269.755526,-1332.370696
3949.711731,296.082377,-9346.365076,-1406.391290
3949.712055,370.102971,-9422.974625,-1406.391290
3949.712379,0.000000,-9193.145976,-1480.411884
3949.712703,-148.041188,-9039.926876,-1554.432478
3949.713028,0.000000,-9499.584175,-1480.411884
3949.713352,0.000000,-9346.365076,-1554.432478
3949.713676,0.000000,-9652.803275,-1258.350101
3949.714001,74.020594,-9499.584175,-1258.350101
3949.714325,-148.041188,-9729.412825,-962.267725
3949.714649,0.000000,-9346.365076,-962.267725
3949.714973,-444.123565,-9806.022374,-444.123565
3949.715298,-814.226536,-9039.926876,-1036.288319
3949.715622,-814.226536,-8886.707777,-518.144159
3949.715946,-814.226536,-8810.098227,-444.123565
3949.716271,-1258.350101,-8733.488677,296.082377
3949.716595,-740.205942,-8580.269578,-148.041188
3949.716919,-740.205942,-8350.440928,0.000000
3949.717244,-370.102971,-8580.269578,0.000000
3949.717568,-444.123565,-8350.440928,-222.061783
3949.717892,0.000000,-8580.269578,222.061783
3949.718216,-148.041188,-8503.660028,148.041188
3949.718541,-444.123565,-8656.879127,148.041188
3949.718865,-296.082377,-8503.660028,370.102971
3949.719189,-148.041188,-8580.269578,962.267725
3949.719514,-148.041188,-7967.393179,370.102971
3949.719838,0.000000,-8120.612279,740.205942
3949.720162,0.000000,-8273.831378,592.164754
3949.720486,0.000000,-8427.050478,740.205942
3949.720811,-370.102971,-7431.126331,740.205942
3949.721135,-222.061783,-8273.831378,888.247130
3949.721459,0.000000,-7354.516781,888.247130
3949.721784,222.061783,-7890.783629,1036.288319
3949.722108,296.082377,-7890.783629,888.247130
3949.722432,666.185348,-7814.174080,1036.288319
3949.722756,888.247130,-7814.174080,962.267725
3949.723081,962.267725,-8044.002729,740.205942
3949.723405,1110.308913,-8197.221829,1184.329507
3949.723729,962.267725,-8044.002729,518.144159
3949.724054,962.267725,-7967.393179,518.144159
3949.724378,740.205942,-8044.002729,222.061783
3949.724702,962.267725,-8733.488677,222.061783
3949.725027,666.185348,-7660.954980,-222.061783
3949.725351,962.267725,-8427.050478,74.020594
3949.725675,666.185348,-7967.393179,-666.185348
3949.725999,1480.411884,-8580.269578,296.082377
3949.726324,1480.411884,-8503.660028,-592.164754
3949.726648,2072.576638,-8963.317327,-296.082377
3949.726972,1702.473667,-8044.002729,-1110.308913
3949.727297,2146.597232,-9346.365076,-444.123565
3949.727621,1776.494261,-8656.879127,-1036.288319
3949.727945,1406.391290,-9499.584175,-666.185348
3949.728269,1406.391290,-8580.269578,-1406.391290
3949.728594,1110.308913,-9193.145976,-740.205942
3949.728918,740.205942,-9193.145976,-1628.453072
3949.729242,592.164754,-9116.536426,-1110.308913
3949.729567,814.226536,-9116.536426,-1628.453072
3949.729891,1036.288319,-9499.584175,-1554.432478
3949.730215,1184.329507,-9039.926876,-1702.473667
3949.730540,1628.453072,-8963.317327,-1036.288319
3949.730864,1554.432478,-9193.145976,-1776.494261
3949.731188,1332.370696,-9116.536426,-1554.432478
3949.731512,1258.350101,-9806.022374,-1554.432478
3949.731837,1036.288319,-9576.193725,-814.226536
3949.732161,444.123565,-9116.536426,-1628.453072
3949.732485,74.020594,-9269.755526,-1480.411884
3949.732810,-148.041188,-9116.536426,-1480.411884
3949.733134,-148.041188,-8963.317327,-1406.391290
3949.733458,-296.082377,-9039.926876,-1184.329507
3949.733782,74.020594,-9039.926876,-1036.288319
3949.734107,74.020594,-8886.707777,-1184.329507
3949.734431,296.082377,-8810.098227,-1036.288319
3949.734755,222.061783,-8503.660028,-592.164754
3949.735080,370.102971,-8886.707777,-666.185348
3949.735404,222.061783,-8733.488677,-444.123565
3949.735728,296.082377,-8810.098227,-592.164754
3949.736052,0.000000,-8886.707777,-148.041188
3949.736377,0.000000,-8733.488677,-222.061783
3949.736701,-444.123565,-8427.050478,-296.082377
3949.737025,-592.164754,-8427.050478,370.102971
3949.737350,-666.185348,-8197.221829,370.102971
3949.737674,74.020594,-7967.393179,666.185348
3949.737998,-222.061783,-8044.002729,666.185348
3949.738323,-444.123565,-8273.831378,666.185348
3949.738647,296.082377,-8350.440928,814.226536
3949.738971,1036.288319,-8580.269578,1258.350101
3949.739295,370.102971,-8580.269578,518.144159
3949.739620,74.020594,-8120.612279,962.267725
3949.739944,0.000000,-8120.612279,888.247130
3949.740268,1406.391290,-8350.440928,888.247130
3949.740593,370.102971,-7967.393179,1924.535449
3949.740917,148.041188,-7660.954980,0.000000
3949.741241,-962.267725,-7431.126331,1702.473667
3949.741565,-370.102971,-7584.345430,1184.329507
3949.741890,370.102971,-8427.050478,666.185348
3949.742214,222.061783,-7660.954980,740.205942
3949.742538,518.144159,-7967.393179,444.123565
3949.742863,592.164754,-8044.002729,222.061783
3949.743187,370.102971,-8120.612279,370.102971
3949.743511,370.102971,-8197.221829,370.102971
3949.743836,296.082377,-8350.440928,0.000000
3949.744160,222.061783,-8120.612279,444.123565
3949.744484,296.082377,-8273.831378,-296.082377
3949.744808,370.102971,-8120.612279,0.000000
3949.745133,296.082377,-8120.612279,-222.061783
3949.745457,296.082377,-8427.050478,-370.102971
3949.745781,666.185348,-8427.050478,0.000000
3949.746106,0.000000,-8197.221829,-666.185348
3949.746430,592.164754,-8963.317327,-518.144159
3949.746754,888.247130,-8350.440928,-888.247130
3949.747078,814.226536,-9039.926876,-518.144159
3949.747403,1110.308913,-8733.488677,-888.247130
3949.747727,1036.288319,-8886.707777,-888.247130
3949.748051,740.205942,-8886.707777,-962.267725
3949.748376,962.267725,-9193.145976,-814.226536
3949.748700,814.226536,-9269.755526,-1702.473667
3949.749024,962.267725,-9422.974625,-1110.308913
3949.749349,814.226536,-8810.098227,-1184.329507
3949.749673,592.164754,-9346.365076,-1332.370696
3949.749997,518.144159,-9193.145976,-1406.391290
3949.750321,518.144159,-8963.317327,-1110.308913
3949.750646,740.205942,-9499.584175,-1554.432478
3949.750970,518.144159,-8810.098227,-1480.411884
3949.751294,888.247130,-9193.145976,-1258.350101
3949.751619,1110.308913,-8733.488677,-1406.391290
3949.751943,814.226536,-8886.707777,-1406.391290
3949.752267,814.226536,-9116.536426,-1628.453072
3949.752591,740.205942,-9346.365076,-1036.288319
3949.752916,518.144159,-8963.317327,-1406.391290
3949.753240,518.144159,-9193.145976,-1036.288319
3949.753564,370.102971,-8656.879127,-1036.288319
3949.753889,370.102971,-9193.145976,-814.226536
3949.754213,74.020594,-8810.098227,-888.247130
3949.754537,222.061783,-8886.707777,-592.164754
3949.754861,740.205942,-8733.488677,-592.164754
3949.755186,740.205942,-8580.269578,-740.205942
3949.755510,888.247130,-8733.488677,-444.123565
3949.755834,1036.288319,-8733.488677,0.000000
3949.756159,1036.288319,-8656.879127,0.000000
3949.756483,888.247130,-7890.783629,-222.061783
3949.756807,592.164754,-8810.098227,222.061783
3949.757132,74.020594,-8197.221829,0.000000
3949.757456,74.020594,-8197.221829,0.000000
3949.757780,74.020594,-8120.612279,148.041188
3949.758104,0.000000,-8044.002729,444.123565
3949.758429,-148.041188,-7814.174080,370.102971
3949.758753,222.061783,-8963.317327,370.102971
3949.759077,444.123565,-8044.002729,296.082377
3949.759402,518.144159,-8273.831378,666.185348
3949.759726,518.144159,-7814.174080,666.185348
3949.760050,518.144159,-8197.221829,962.267725
3949.760374,74.020594,-8120.612279,222.061783
3949.760699,74.020594,-8120.612279,740.205942
3949.761023,0.000000,-8197.221829,814.226536
3949.761347,-222.061783,-7967.393179,740.205942
3949.761672,-222.061783,-8273.831378,962.267725
3949.761996,296.082377,-8197.221829,592.164754
3949.762320,296.082377,-7814.174080,444.123565
3949.762645,814.226536,-7967.393179,222.061783
3949.762969,962.267725,-8886.707777,814.226536
3949.763293,1036.288319,-8044.002729,222.061783
3949.763617,740.205942,-8350.440928,0.000000
3949.763942,592.164754,-8580.269578,0.000000
3949.764266,0.000000,-8273.831378,74.020594
3949.764590,148.041188,-9039.926876,148.041188
3949.764915,0.000000,-8656.879127,-296.082377
3949.765239,74.020594,-8810.098227,0.000000
3949.765563,0.000000,-8503.660028,-296.082377
3949.765887,296.082377,-8273.831378,-444.123565
3949.766212,518.144159,-8886.707777,-518.144159
3949.766536,888.247130,-8810.098227,-370.102971
3949.766860,1036.288319,-8810.098227,-740.205942
3949.767185,888.247130,-8810.098227,-1258.350101
3949.767509,740.205942,-9039.926876,-1036.288319
3949.767833,518.144159,-8886.707777,-1036.288319
3949.768158,222.061783,-9346.365076,-888.247130
3949.768482,0.000000,-9116.536426,-1036.288319
3949.768806,148.041188,-9116.536426,-1332.370696
3949.769130,0.000000,-8810.098227,-1184.329507
3949.769455,222.061783,-9116.536426,-1258.350101
3949.769779,740.205942,-8656.879127,-1480.411884
3949.770103,1406.391290,-8580.269578,-1184.329507
3949.770428,1110.308913,-8963.317327,-1480.411884
3949.770752,1036.288319,-9269.755526,-1258.350101
3949.771076,1258.350101,-8886.707777,-1406.391290
3949.771400,1036.288319,-9499.584175,-1702.473667
3949.771725,666.185348,-8886.707777,-1406.391290
3949.772049,444.123565,-9346.365076,-888.247130
3949.772373,296.082377,-9116.536426,-814.226536
3949.772698,370.102971,-8810.098227,-1184.329507
3949.773022,740.205942,-8810.098227,-1184.329507
3949.773346,666.185348,-8886.707777,-962.267725
3949.773670,740.205942,-8580.269578,-740.205942
3949.773995,1258.350101,-8656.879127,-962.267725
3949.774319,1110.308913,-8350.440928,-814.226536
3949.774643,1110.308913,-8733.488677,-666.185348
3949.774968,962.267725,-8810.098227,-222.061783
3949.775292,814.226536,-8886.707777,-370.102971
3949.775616,370.102971,-8963.317327,-148.041188
3949.775941,222.061783,-8427.050478,0.000000
3949.776265,148.041188,-8427.050478,-148.041188
3949.776589,296.082377,-8733.488677,-222.061783
3949.776913,296.082377,-8350.440928,0.000000
3949.777238,518.144159,-8120.612279,74.020594
3949.777562,370.102971,-8427.050478,0.000000
3949.777886,740.205942,-8120.612279,148.041188
3949.778211,888.247130,-8197.221829,0.000000
3949.778535,740.205942,-8656.879127,0.000000
3949.778859,666.185348,-8197.221829,74.020594
3949.779183,740.205942,-8427.050478,740.205942
3949.779508,370.102971,-8273.831378,444.123565
3949.779832,592.164754,-8503.660028,148.041188
3949.780156,74.020594,-8427.050478,296.082377
3949.780481,0.000000,-8044.002729,518.144159
3949.780805,222.061783,-8044.002729,148.041188
3949.781129,0.000000,-7814.174080,296.082377
3949.781454,666.185348,-8120.612279,740.205942
3949.781778,444.123565,-8197.221829,518.144159
3949.782102,222.061783,-8273.831378,296.082377
3949.782426,0.000000,-7890.783629,74.020594
3949.782751,-370.102971,-8656.879127,370.102971
3949.783075,-370.102971,-8197.221829,-148.041188
3949.783399,-370.102971,-8656.879127,370.102971
3949.783724,-444.123565,-8273.831378,-222.061783
3949.784048,-222.061783,-9116.536426,148.041188
3949.784372,-592.164754,-7967.393179,0.000000
3949.784696,0.000000,-8656.879127,0.000000
3949.785021,0.000000,-8197.221829,-814.226536
3949.785345,148.041188,-8810.098227,0.000000
3949.785669,0.000000,-8427.050478,-148.041188
3949.785994,-148.041188,-8580.269578,-518.144159
3949.786318,-148.041188,-8810.098227,-444.123565
3949.786642,74.020594,-8656.879127,-888.247130
3949.786966,444.123565,-8733.488677,-888.247130
3949.787291,-222.061783,-9039.926876,-592.164754
3949.787615,0.000000,-8963.317327,-518.144159
3949.787939,-296.082377,-9193.145976,-740.205942
3949.788264,0.000000,-9039.926876,-1184.329507
3949.788588,222.061783,-8886.707777,-814.226536
3949.788912,148.041188,-9039.926876,-1036.288319
3949.789237,444.123565,-9346.365076,-962.267725
3949.789561,370.102971,-8580.269578,-888.247130
3949.789885,222.061783,-8963.317327,-1110.308913
3949.790209,518.144159,-8656.879127,-1258.350101
3949.790534,592.164754,-8886.707777,-962.267725
3949.790858,518.144159,-8503.660028,-1184.329507
3949.791182,444.123565,-8963.317327,-962.267725
3949.791507,148.041188,-8886.707777,-740.205942
3949.791831,370.102971,-8963.317327,-666.185348
3949.792155,444.123565,-8503.660028,-1110.308913
3949.792479,518.144159,-8810.098227,-888.247130
3949.792804,518.144159,-8886.707777,-740.205942
3949.793128,666.185348,-9039.926876,-296.082377
3949.793452,592.164754,-8580.269578,-518.144159
3949.793777,962.267725,-8580.269578,-518.144159
3949.794101,962.267725,-8656.879127,-222.061783
3949.794425,888.247130,-8197.221829,-370.102971
3949.794750,666.185348,-8580.269578,-222.061783
3949.795074,814.226536,-8197.221829,-666.185348
3949.795398,962.267725,-8427.050478,0.000000
3949.795722,814.226536,-8273.831378,-148.041188
3949.796047,888.247130,-8427.050478,0.000000
3949.796371,962.267725,-8427.050478,-222.061783
3949.796695,1036.288319,-8580.269578,148.041188
3949.797020,1036.288319,-7507.735880,74.020594
3949.797344,1110.308913,-8350.440928,-222.061783
3949.797668,1110.308913,-8120.612279,0.000000
3949.797992,1184.329507,-8273.831378,148.041188
3949.798317,1184.329507,-8963.317327,74.020594
3949.798641,518.144159,-8503.660028,222.061783
3949.798965,370.102971,-8120.612279,74.020594
3949.799290,444.123565,-8427.050478,0.000000
3949.799614,592.164754,-8427.050478,0.000000
3949.799938,222.061783,-8273.831378,444.123565
3949.800262,370.102971,-8503.660028,296.082377
3949.800587,518.144159,-8427.050478,0.000000
3949.800911,222.061783,-8733.488677,0.000000
3949.801235,74.020594,-8197.221829,592.164754
3949.801560,0.000000,-8427.050478,74.020594
3949.801884,0.000000,-8350.440928,0.000000
3949.802208,-148.041188,-8503.660028,-222.061783
3949.802532,148.041188,-8733.488677,148.041188
3949.802857,222.061783,-8350.440928,-148.041188
3949.803181,222.061783,-8810.098227,0.000000
3949.803505,74.020594,-8656.879127,-74.020594
3949.803830,296.082377,-8733.488677,-444.123565
3949.804154,296.082377,-8656.879127,-370.102971
3949.804478,-148.041188,-8810.098227,-148.041188
3949.804802,-222.061783,-8656.879127,-518.144159
3949.805127,-370.102971,-8733.488677,-592.164754
3949.805451,148.041188,-8810.098227,-518.144159
3949.805775,-148.041188,-8656.879127,-592.164754
3949.806100,0.000000,-8810.098227,-518.144159
3949.806424,74.020594,-8656.879127,-592.164754
3949.806748,444.123565,-9116.536426,0.000000
3949.807072,518.144159,-8810.098227,-518.144159
3949.807397,740.205942,-9116.536426,-518.144159
3949.807721,444.123565,-8810.098227,-888.247130
3949.808045,444.123565,-9116.536426,-148.041188
3949.808370,148.041188,-8503.660028,-518.144159
3949.808694,0.000000,-9193.145976,-444.123565
3949.809018,-222.061783,-8503.660028,-592.164754
3949.809342,0.000000,-8810.098227,-370.102971
3949.809667,740.205942,-8810.098227,-592.164754
3949.809991,222.061783,-8656.879127,-444.123565
3949.810315,518.144159,-8350.440928,-814.226536
3949.810640,666.185348,-8656.879127,-666.185348
3949.810964,1110.308913,-8810.098227,-814.226536
3949.811288,888.247130,-8810.098227,-592.164754
3949.811612,1258.350101,-8350.440928,-592.164754
3949.811937,888.247130,-8733.488677,-518.144159
3949.812261,740.205942,-8810.098227,-518.144159
3949.812585,666.185348,-8427.050478,-296.082377
3949.812910,814.226536,-8656.879127,-370.102971
3949.813234,444.123565,-8503.660028,-296.082377
3949.813558,444.123565,-8580.269578,-296.082377
3949.813882,1036.288319,-7890.783629,0.000000
3949.814207,1110.308913,-8350.440928,-444.123565
3949.814531,740.205942,-8044.002729,-222.061783
3949.814855,1332.370696,-8197.221829,-296.082377
3949.815180,1406.391290,-8350.440928,-444.123565
3949.815504,1258.350101,-8427.050478,-296.082377
3949.815828,1036.288319,-8350.440928,-222.061783
3949.816152,814.226536,-8733.488677,0.000000
3949.816477,814.226536,-8503.660028,-296.082377
3949.816801,814.226536,-8350.440928,-370.102971
3949.817125,444.123565,-8427.050478,-74.020594
3949.817450,222.061783,-8733.488677,0.000000
3949.817774,592.164754,-8120.612279,0.000000
3949.818098,296.082377,-8044.002729,0.000000
3949.818422,814.226536,-8197.221829,-370.102971
3949.818747,814.226536,-7890.783629,0.000000
3949.819071,814.226536,-8580.269578,-222.061783
3949.819395,518.144159,-8580.269578,-296.082377
3949.819720,518.144159,-8427.050478,0.000000
3949.820044,518.144159,-8733.488677,-296.082377
3949.820368,296.082377,-8580.269578,-296.082377
3949.820692,0.000000,-8580.269578,-74.020594
3949.821017,0.000000,-8273.831378,0.000000
3949.821341,0.000000,-8197.221829,-370.102971
3949.821665,0.000000,-8656.879127,-444.123565
3949.821990,370.102971,-8427.050478,-296.082377
3949.822314,296.082377,-8733.488677,-222.061783
3949.822638,296.082377,-8503.660028,-518.144159
3949.822962,296.082377,-8580.269578,-296.082377
3949.823287,0.000000,-8733.488677,-370.102971
3949.823611,148.041188,-8733.488677,-518.144159
3949.823935,0.000000,-9039.926876,0.000000
3949.824259,-296.082377,-8810.098227,-370.102971
3949.824584,0.000000,-8963.317327,-222.061783
3949.824908,-148.041188,-8580.269578,-370.102971
3949.825232,222.061783,-9346.365076,-222.061783
3949.825557,0.000000,-8427.050478,-148.041188
3949.825881,0.000000,-8810.098227,-222.061783
3949.826205,0.000000,-8656.879127,-592.164754
3949.826529,444.123565,-8656.879127,-296.082377
3949.826854,148.041188,-8810.098227,-592.164754
3949.827178,148.041188,-8733.488677,0.000000
3949.827502,0.000000,-8656.879127,-222.061783
3949.827827,74.020594,-8963.317327,0.000000
3949.828151,296.082377,-8733.488677,-592.164754
3949.828475,0.000000,-8733.488677,-296.082377
3949.828799,222.061783,-8580.269578,-592.164754
3949.829124,-148.041188,-8427.050478,0.000000
3949.829448,666.185348,-8886.707777,-444.123565
3949.829772,0.000000,-8273.831378,-518.144159
3949.830097,296.082377,-8427.050478,-222.061783
3949.830421,444.123565,-8427.050478,-148.041188
3949.830745,444.123565,-8580.269578,0.000000
3949.831069,740.205942,-8273.831378,-444.123565
3949.831394,888.247130,-8810.098227,0.000000
3949.831718,518.144159,-8350.440928,-518.144159
3949.832042,74.020594,-8580.269578,0.000000
3949.832367,1258.350101,-8427.050478,0.000000
3949.832691,1110.308913,-8503.660028,-370.102971
3949.833015,1036.288319,-8886.707777,-370.102971
3949.833339,592.164754,-8503.660028,-148.041188
3949.833664,1110.308913,-8427.050478,-296.082377
3949.833988,962.267725,-8656.879127,-444.123565
3949.834312,888.247130,-8503.660028,-148.041188
3949.834637,1036.288319,-8350.440928,0.000000
3949.834961,1110.308913,-8503.660028,-518.144159
3949.835285,1110.308913,-8273.831378,-222.061783
3949.835609,1110.308913,-8427.050478,-222.061783
3949.835934,1110.308913,-8197.221829,-592.164754
3949.836258,1036.288319,-8656.879127,-444.123565
3949.836582,444.123565,-8273.831378,-296.082377
3949.836907,814.226536,-8733.488677,-814.226536
3949.837231,666.185348,-8963.317327,-296.082377
3949.837555,814.226536,-8580.269578,-444.123565
3949.837879,444.123565,-8273.831378,-370.102971
3949.838204,962.267725,-8273.831378,-592.164754
3949.838528,592.164754,-8656.879127,0.000000
3949.838852,592.164754,-8427.050478,-518.144159
3949.839177,1036.288319,-8963.317327,-592.164754
3949.839501,1036.288319,-8197.221829,-444.123565
3949.839825,518.144159,-8886.707777,-592.164754
3949.840149,74.020594,-8810.098227,-592.164754
3949.840474,222.061783,-8580.269578,0.000000
3949.840798,148.041188,-9116.536426,-666.185348
3949.841122,296.082377,-8886.707777,-370.102971
3949.841447,74.020594,-8733.488677,-222.061783
3949.841771,296.082377,-8580.269578,-296.082377
3949.842095,222.061783,-8810.098227,-444.123565
3949.842419,666.185348,-8886.707777,-444.123565
3949.842744,740.205942,-8427.050478,-518.144159
3949.843068,814.226536,-8427.050478,-444.123565
3949.843392,592.164754,-8810.098227,-592.164754
3949.843717,370.102971,-8886.707777,-592.164754
3949.844041,148.041188,-8886.707777,0.000000
3949.844365,0.000000,-8810.098227,-518.144159
3949.844689,0.000000,-9116.536426,0.000000
3949.845014,0.000000,-9806.022374,-296.082377
3949.845338,148.041188,-8810.098227,0.000000
3949.845662,0.000000,-8197.221829,-518.144159
3949.845987,370.102971,-8963.317327,-296.082377
3949.846311,444.123565,-8197.221829,-518.144159
3949.846635,370.102971,-8580.269578,-296.082377
3949.846959,370.102971,-8350.440928,-296.082377
3949.847284,296.082377,-8963.317327,0.000000
3949.847608,0.000000,-8503.660028,-370.102971
3949.847932,74.020594,-8656.879127,0.000000
3949.848257,0.000000,-8580.269578,-518.144159
3949.848581,-222.061783,-8503.660028,74.020594
3949.848905,0.000000,-8503.660028,-148.041188
3949.849229,222.061783,-8044.002729,148.041188
3949.849554,296.082377,-8350.440928,0.000000
3949.849878,1036.288319,-8197.221829,0.000000
3949.850202,962.267725,-8120.612279,-148.041188
3949.850527,962.267725,-8580.269578,-222.061783
3949.850851,1036.288319,-8273.831378,-444.123565
3949.851175,962.267725,-8273.831378,-148.041188
3949.851499,222.061783,-8580.269578,74.020594
3949.851824,296.082377,-8503.660028,0.000000
3949.852148,148.041188,-8580.269578,0.000000
3949.852472,222.061783,-8120.612279,-296.082377
3949.852796,296.082377,-8580.269578,-148.041188
3949.853121,814.226536,-8427.050478,-370.102971
3949.853445,1110.308913,-8580.269578,0.000000
3949.853769,1036.288319,-8120.612279,-296.082377
3949.854094,1332.370696,-8120.612279,-296.082377
3949.854418,962.267725,-8503.660028,-370.102971
3949.854742,814.226536,-8733.488677,-296.082377
3949.855066,666.185348,-8580.269578,-296.082377
3949.855391,296.082377,-8733.488677,-148.041188
3949.855715,148.041188,-8656.879127,-148.041188
3949.856039,222.061783,-8886.707777,-592.164754
3949.856364,370.102971,-8656.879127,-888.247130
3949.856688,666.185348,-8427.050478,-444.123565
3949.857012,370.102971,-8197.221829,-444.123565
3949.857336,814.226536,-8580.269578,-592.164754
3949.857661,888.247130,-8350.440928,-666.185348
3949.857985,1110.308913,-8733.488677,-592.164754
3949.858309,888.247130,-8580.269578,-666.185348
3949.858634,370.102971,-8656.879127,-296.082377
3949.858958,296.082377,-8810.098227,-370.102971
3949.859282,444.123565,-9116.536426,-518.144159
3949.859606,0.000000,-8810.098227,-888.247130
3949.859931,74.020594,-9269.755526,-518.144159
3949.860255,148.041188,-8350.440928,-666.185348
3949.860579,0.000000,-9269.755526,-370.102971
3949.860904,0.000000,-8656.879127,-666.185348
3949.861228,444.123565,-8656.879127,-592.164754
3949.861552,444.123565,-8427.050478,-740.205942
3949.861876,740.205942,-8810.098227,-518.144159
3949.862201,666.185348,-8580.269578,-370.102971
3949.862525,888.247130,-8656.879127,0.000000
3949.862849,518.144159,-8810.098227,-814.226536
3949.863174,296.082377,-9039.926876,-592.164754
3949.863498,0.000000,-8886.707777,-370.102971
3949.863822,-518.144159,-8120.612279,-962.267725
3949.864146,-518.144159,-8810.098227,-222.061783
3949.864471,-1184.329507,-8656.879127,-296.082377
3949.864795,-296.082377,-8580.269578,0.000000
3949.865119,-222.061783,-8044.002729,-740.205942
3949.865444,370.102971,-8810.098227,0.000000
3949.865768,518.144159,-7967.393179,-444.123565
3949.866092,592.164754,-8733.488677,0.000000
3949.866416,222.061783,-8350.440928,0.000000
3949.866741,222.061783,-8963.317327,74.020594
3949.867065,74.020594,-8733.488677,-740.205942
3949.867389,0.000000,-8963.317327,296.082377
3949.867714,-1036.288319,-8197.221829,-370.102971
3949.868038,-518.144159,-9039.926876,0.000000
3949.868362,-370.102971,-8044.002729,0.000000
3949.868686,-222.061783,-8963.317327,148.041188
3949.869011,-148.041188,-8197.221829,74.020594
3949.869335,296.082377,-8656.879127,148.041188
3949.869659,1036.288319,-8427.050478,-296.082377
3949.869984,1110.308913,-8120.612279,0.000000
3949.870308,888.247130,-8580.269578,-518.144159
3949.870632,888.247130,-8427.050478,148.041188
3949.870956,518.144159,-8810.098227,0.000000
3949.871281,74.020594,-9039.926876,-444.123565
3949.871605,222.061783,-8810.098227,-444.123565
3949.871929,0.000000,-8886.707777,444.123565
3949.872254,0.000000,-8963.317327,-222.061783
3949.872578,0.000000,-8197.221829,-222.061783
3949.872902,444.123565,-8656.879127,74.020594
3949.873226,666.185348,-8656.879127,-370.102971
3949.873551,1036.288319,-8580.269578,-370.102971
3949.873875,962.267725,-8427.050478,-148.041188
3949.874199,1184.329507,-8503.660028,0.000000
3949.874524,888.247130,-8503.660028,-518.144159
3949.874848,814.226536,-8810.098227,0.000000
3949.875172,74.020594,-8580.269578,-518.144159
3949.875496,222.061783,-9039.926876,-592.164754
3949.875821,0.000000,-8810.098227,-444.123565
3949.876145,0.000000,-9039.926876,74.020594
3949.876469,370.102971,-8503.660028,-370.102971
3949.876794,518.144159,-8503.660028,-518.144159
3949.877118,1036.288319,-8503.660028,-740.205942
3949.877442,1332.370696,-8733.488677,-666.185348
3949.877766,1480.411884,-8197.221829,-592.164754
3949.878091,1332.370696,-8503.660028,-444.123565
3949.878415,1332.370696,-8733.488677,-888.247130
3949.878739,1110.308913,-8963.317327,-666.185348
3949.879064,666.185348,-9116.536426,-296.082377
3949.879388,296.082377,-9193.145976,-444.123565
3949.879712,0.000000,-9039.926876,-740.205942
3949.880036,0.000000,-8733.488677,-666.185348
3949.880361,-592.164754,-9116.536426,0.000000
3949.880685,296.082377,-8656.879127,-592.164754
3949.881009,518.144159,-8197.221829,-666.185348
3949.881333,666.185348,-8580.269578,-592.164754
3949.881658,666.185348,-8503.660028,-740.205942
3949.881982,1036.288319,-8733.488677,-592.164754
3949.882306,962.267725,-8273.831378,-814.226536
3949.882631,666.185348,-8963.317327,-296.082377
3949.882955,518.144159,-8963.317327,-518.144159
3949.883279,74.020594,-8503.660028,-148.041188
3949.883603,-296.082377,-8963.317327,-518.144159
3949.883928,-222.061783,-8503.660028,-592.164754
3949.884252,0.000000,-8810.098227,-222.061783
3949.884576,74.020594,-8427.050478,0.000000
3949.884901,0.000000,-8503.660028,-444.123565
3949.885225,222.061783,-8120.612279,-444.123565
3949.885549,592.164754,-8044.002729,-370.102971
3949.885873,888.247130,-8503.660028,-74.020594
3949.886198,740.205942,-8427.050478,0.000000
3949.886522,444.123565,-8503.660028,0.000000
3949.886846,444.123565,-8656.879127,-148.041188
3949.887171,222.061783,-8886.707777,-296.082377
3949.887495,0.000000,-9116.536426,296.082377
3949.887819,74.020594,-8963.317327,0.000000
3949.888143,0.000000,-8197.221829,74.020594
3949.888468,74.020594,-8580.269578,74.020594
3949.888792,148.041188,-8120.612279,0.000000
3949.889116,444.123565,-8273.831378,74.020594
3949.889441,814.226536,-8197.221829,-296.082377
3949.889765,888.247130,-8350.440928,74.020594
3949.890089,740.205942,-8273.831378,0.000000
3949.890413,592.164754,-8580.269578,148.041188
3949.890738,592.164754,-8273.831378,0.000000
3949.891062,444.123565,-8656.879127,-370.102971
3949.891386,444.123565,-8963.317327,222.061783
3949.891711,222.061783,-8656.879127,-222.061783
3949.892035,296.082377,-8963.317327,0.000000
3949.892359,0.000000,-8273.831378,-444.123565
3949.892683,296.082377,-8350.440928,0.000000
3949.893008,444.123565,-8427.050478,-592.164754
3949.893332,740.205942,-8580.269578,74.020594
3949.893656,740.205942,-8044.002729,-222.061783
3949.893981,1110.308913,-8580.269578,-148.041188
3949.894305,592.164754,-8273.831378,-444.123565
3949.894629,814.226536,-9116.536426,74.020594
3949.894953,814.226536,-8427.050478,-370.102971
3949.895278,296.082377,-9039.926876,0.000000
3949.895602,148.041188,-8580.269578,-666.185348
3949.895926,962.267725,-9193.145976,0.000000
3949.896251,370.102971,-8886.707777,-592.164754
3949.896575,444.123565,-8810.098227,-148.041188
3949.896900,370.102971,-8273.831378,-444.123565
3949.897224,814.226536,-8886.707777,-444.123565
3949.897548,444.123565,-8503.660028,-666.185348
3949.897873,814.226536,-8886.707777,-592.164754
3949.898197,888.247130,-8580.269578,-666.185348
3949.898522,518.144159,-8733.488677,-370.102971
3949.898846,666.185348,-9039.926876,-518.144159
3949.899170,296.082377,-8886.707777,-666.185348
3949.899495,222.061783,-9039.926876,-814.226536
3949.899819,0.000000,-8733.488677,-740.205942
3949.900144,592.164754,-8810.098227,-148.041188
3949.900468,0.000000,-9116.536426,-444.123565
3949.900792,444.123565,-8886.707777,-518.144159
3949.901117,296.082377,-8120.612279,-518.144159
3949.901441,296.082377,-8810.098227,-518.144159
3949.901766,148.041188,-7967.393179,-666.185348
3949.902090,444.123565,-8427.050478,-370.102971
3949.902414,518.144159,-8733.488677,-666.185348
3949.902739,148.041188,-8810.098227,-444.123565
3949.903063,222.061783,-8733.488677,-740.205942
3949.903388,74.020594,-8810.098227,-370.102971
3949.903712,370.102971,-8886.707777,-518.144159
3949.904036,74.020594,-8963.317327,0.000000
3949.904361,222.061783,-8503.660028,-222.061783
3949.904685,148.041188,-8580.269578,-296.082377
3949.905010,74.020594,-8580.269578,-370.102971
3949.905334,296.082377,-8197.221829,0.000000
3949.905659,74.020594,-8197.221829,-370.102971
3949.905983,148.041188,-8503.660028,-74.020594
3949.906307,74.020594,-8197.221829,-222.061783
3949.906632,370.102971,-8810.098227,222.061783
3949.906956,0.000000,-8197.221829,-370.102971
3949.907281,592.164754,-9116.536426,370.102971
3949.907605,222.061783,-8197.221829,-222.061783
3949.907929,518.144159,-9039.926876,148.041188
3949.908254,74.020594,-7967.393179,-296.082377
3949.908578,296.082377,-8044.002729,148.041188
3949.908903,444.123565,-7814.174080,0.000000
3949.909227,370.102971,-8580.269578,0.000000
3949.909551,148.041188,-8044.002729,-296.082377
3949.909876,296.082377,-8197.221829,148.041188
3949.910200,148.041188,-8273.831378,-518.144159
3949.910525,296.082377,-8503.660028,0.000000
3949.910849,592.164754,-8503.660028,74.020594
3949.911173,222.061783,-8656.879127,0.000000
3949.911498,74.020594,-8197.221829,74.020594
3949.911822,592.164754,-8963.317327,0.000000
3949.912147,740.205942,-8503.660028,-222.061783
3949.912471,592.164754,-8273.831378,148.041188
3949.912796,518.144159,-8580.269578,0.000000
3949.913120,740.205942,-8580.269578,-444.123565
3949.913444,888.247130,-8197.221829,-370.102971
3949.913769,814.226536,-8580.269578,0.000000
3949.914093,666.185348,-8350.440928,-444.123565
3949.914418,222.061783,-8503.660028,0.000000
3949.914742,666.185348,-8503.660028,-222.061783
3949.915066,518.144159,-8656.879127,-444.123565
3949.915391,518.144159,-8963.317327,-518.144159
3949.915715,1258.350101,-8503.660028,-148.041188
3949.916040,740.205942,-8580.269578,-666.185348
3949.916364,814.226536,-8810.098227,-592.164754
3949.916688,962.267725,-8503.660028,-666.185348
3949.917013,666.185348,-8733.488677,-370.102971
3949.917337,814.226536,-8197.221829,-518.144159
3949.917662,666.185348,-8656.879127,-518.144159
3949.917986,370.102971,-8886.707777,-370.102971
3949.918310,444.123565,-8810.098227,-740.205942
3949.918635,222.061783,-8427.050478,-962.267725
3949.918959,444.123565,-8733.488677,-592.164754
3949.919284,296.082377,-8810.098227,-592.164754
3949.919608,518.144159,-8810.098227,-518.144159
3949.919933,296.082377,-8350.440928,-740.205942
3949.920257,592.164754,-8656.879127,-444.123565
3949.920581,592.164754,-8503.660028,-1036.288319
3949.920906,814.226536,-8810.098227,-296.082377
3949.921230,740.205942,-8810.098227,-518.144159
3949.921555,740.205942,-8656.879127,-666.185348
3949.921879,222.061783,-8656.879127,-518.144159
3949.922203,370.102971,-8733.488677,-370.102971
3949.922528,370.102971,-8656.879127,-740.205942
3949.922852,370.102971,-8733.488677,-370.102971
3949.923177,0.000000,-8580.269578,-370.102971
3949.923501,444.123565,-8810.098227,-444.123565
3949.923825,518.144159,-8503.660028,-592.164754
3949.924150,888.247130,-9576.193725,0.000000
3949.924474,666.185348,-8427.050478,-370.102971
3949.924799,518.144159,-8580.269578,0.000000
3949.925123,666.185348,-8503.660028,-148.041188
3949.925447,518.144159,-8656.879127,-222.061783
3949.925772,148.041188,-8427.050478,0.000000
3949.926096,370.102971,-8733.488677,0.000000
3949.926421,0.000000,-8273.831378,0.000000
3949.926745,0.000000,-8503.660028,-148.041188
3949.927069,-592.164754,-8427.050478,74.020594
3949.927394,148.041188,-8733.488677,148.041188
3949.927718,370.102971,-8580.269578,-296.082377
3949.928043,148.041188,-8503.660028,0.000000
3949.928367,222.061783,-8197.221829,148.041188
3949.928692,0.000000,-8350.440928,-222.061783
3949.929016,148.041188,-8197.221829,0.000000
3949.929340,296.082377,-8580.269578,0.000000
3949.929665,370.102971,-8273.831378,0.000000
3949.929989,0.000000,-8350.440928,74.020594
3949.930314,518.144159,-8580.269578,0.000000
3949.930638,518.144159,-8656.879127,74.020594
3949.930962,296.082377,-8273.831378,-370.102971
3949.931287,666.185348,-9269.755526,222.061783
3949.931611,444.123565,-8350.440928,0.000000
3949.931936,518.144159,-8656.879127,0.000000
3949.932260,370.102971,-8120.612279,-148.041188
3949.932584,592.164754,-8580.269578,-296.082377
3949.932909,370.102971,-8427.050478,0.000000
3949.933233,592.164754,-8273.831378,0.000000
3949.933558,666.185348,-8427.050478,-296.082377
3949.933882,666.185348,-8273.831378,-370.102971
3949.934206,518.144159,-8044.002729,-666.185348
3949.934531,740.205942,-8503.660028,-444.123565
3949.934855,592.164754,-8656.879127,-296.082377
3949.935180,518.144159,-8733.488677,-444.123565
3949.935504,518.144159,-8733.488677,-592.164754
3949.935829,518.144159,-8427.050478,-444.123565
3949.936153,592.164754,-8656.879127,-592.164754
3949.936477,444.123565,-8580.269578,-666.185348
3949.936802,444.123565,-8656.879127,-296.082377
3949.937126,518.144159,-8427.050478,-592.164754
3949.937451,444.123565,-8350.440928,-592.164754
3949.937775,1036.288319,-8580.269578,-666.185348
3949.938099,592.164754,-8580.269578,-666.185348
3949.938424,148.041188,-8580.269578,-592.164754
3949.938748,592.164754,-8580.269578,-518.144159
3949.939073,518.144159,-8886.707777,-592.164754
3949.939397,296.082377,-8733.488677,-592.164754
3949.939721,666.185348,-8810.098227,-370.102971
3949.940046,222.061783,-8427.050478,-518.144159
3949.940370,0.000000,-8656.879127,-518.144159
3949.940695,222.061783,-8810.098227,-592.164754
3949.941019,370.102971,-8350.440928,-666.185348
3949.941343,518.144159,-8197.221829,-888.247130
3949.941668,740.205942,-8810.098227,-222.061783
3949.941992,370.102971,-8963.317327,-518.144159
3949.942317,518.144159,-8580.269578,-444.123565
3949.942641,222.061783,-8733.488677,-370.102971
3949.942966,0.000000,-8733.488677,-592.164754
3949.943290,0.000000,-8580.269578,-444.123565
3949.943614,0.000000,-8503.660028,0.000000
3949.943939,-148.041188,-9116.536426,-444.123565
3949.944263,74.020594,-8580.269578,-296.082377
3949.944588,444.123565,-8656.879127,-222.061783
3949.944912,74.020594,-8273.831378,-888.247130
3949.945236,296.082377,-8503.660028,-148.041188
3949.945561,148.041188,-8427.050478,74.020594
3949.945885,0.000000,-8656.879127,-370.102971
3949.946210,0.000000,-8886.707777,0.000000
3949.946534,-74.020594,-8427.050478,-296.082377
3949.946858,296.082377,-8350.440928,148.041188
3949.947183,-370.102971,-8503.660028,0.000000
3949.947507,148.041188,-8886.707777,0.000000
3949.947832,74.020594,-8044.002729,-370.102971
3949.948156,148.041188,-8886.707777,-222.061783
3949.948480,518.144159,-7967.393179,-222.061783
3949.948805,518.144159,-8350.440928,74.020594
3949.949129,370.102971,-8733.488677,-370.102971
3949.949454,444.123565,-8350.440928,0.000000
3949.949778,444.123565,-8197.221829,74.020594
3949.950102,148.041188,-8656.879127,-296.082377
3949.950427,444.123565,-8503.660028,74.020594
3949.950751,0.000000,-8733.488677,0.000000
3949.951076,296.082377,-9039.926876,444.123565
3949.951400,74.020594,-8120.612279,-148.041188
3949.951725,518.144159,-9039.926876,0.000000
3949.952049,444.123565,-8044.002729,-370.102971
3949.952373,518.144159,-8656.879127,-222.061783
3949.952698,518.144159,-8273.831378,-370.102971
3949.953022,666.185348,-8350.440928,0.000000
3949.953347,370.102971,-8503.660028,-296.082377
3949.953671,296.082377,-8886.707777,0.000000
3949.953995,74.020594,-8044.002729,0.000000
3949.954320,74.020594,-8886.707777,-222.061783
3949.954644,222.061783,-8197.221829,-444.123565
3949.954969,296.082377,-8733.488677,-296.082377
3949.955293,370.102971,-8810.098227,0.000000
3949.955617,444.123565,-8503.660028,0.000000
3949.955942,888.247130,-8656.879127,-518.144159
3949.956266,888.247130,-8810.098227,-444.123565
3949.956591,888.247130,-8427.050478,-592.164754
3949.956915,888.247130,-8733.488677,-888.247130
3949.957239,1036.288319,-8886.707777,-444.123565
3949.957564,518.144159,-8503.660028,-222.061783
3949.957888,740.205942,-8656.879127,-518.144159
3949.958213,1036.288319,-8810.098227,-592.164754
3949.958537,666.185348,-8503.660028,-666.185348
3949.958862,962.267725,-8656.879127,-962.267725
3949.959186,962.267725,-8350.440928,-666.185348
3949.959510,962.267725,-8580.269578,-592.164754
3949.959835,1036.288319,-8427.050478,-592.164754
3949.960159,962.267725,-8656.879127,-148.041188
3949.960484,740.205942,-8886.707777,-740.205942
3949.960808,888.247130,-8580.269578,-888.247130
3949.961132,740.205942,-8580.269578,-666.185348
3949.961457,0.000000,-8886.707777,-592.164754
3949.961781,0.000000,-8733.488677,-592.164754
3949.962106,74.020594,-8733.488677,-888.247130
3949.962430,370.102971,-8427.050478,-222.061783
3949.962754,222.061783,-8580.269578,-592.164754
3949.963079,666.185348,-8503.660028,-444.123565
3949.963403,888.247130,-8733.488677,-518.144159
3949.963728,888.247130,-8733.488677,-666.185348
3949.964052,962.267725,-8810.098227,-814.226536
3949.964376,666.185348,-8580.269578,-296.082377
3949.964701,444.123565,-8733.488677,-518.144159
3949.965025,0.000000,-8427.050478,-518.144159
3949.965350,444.123565,-9576.193725,-222.061783
3949.965674,-518.144159,-8503.660028,-592.164754
3949.965999,-148.041188,-8886.707777,148.041188
3949.966323,-148.041188,-7890.783629,-518.144159
3949.966647,1110.308913,-8656.879127,0.000000
3949.966972,518.144159,-7890.783629,-518.144159
3949.967296,1258.350101,-9039.926876,0.000000
3949.967621,1110.308913,-8350.440928,-370.102971
3949.967945,1110.308913,-8580.269578,222.061783
3949.968269,518.144159,-8273.831378,0.000000
3949.968594,370.102971,-9039.926876,74.020594
3949.968918,0.000000,-8350.440928,-222.061783
3949.969243,-296.082377,-8963.317327,296.082377
3949.969567,-444.123565,-8350.440928,-296.082377
3949.969891,-296.082377,-8580.269578,0.000000
3949.970216,0.000000,-8273.831378,0.000000
3949.970540,74.020594,-8197.221829,0.000000
3949.970865,740.205942,-7507.735880,0.000000
3949.971189,1036.288319,-8120.612279,-222.061783
3949.971513,1036.288319,-8350.440928,-148.041188
3949.971838,888.247130,-8656.879127,-444.123565
3949.972162,814.226536,-8656.879127,-222.061783
3949.972487,518.144159,-8503.660028,0.000000
3949.972811,222.061783,-8580.269578,0.000000
3949.973136,148.041188,-8810.098227,-148.041188
3949.973460,0.000000,-8810.098227,0.000000
3949.973784,444.123565,-8427.050478,-222.061783
3949.974109,74.020594,-8427.050478,-444.123565
3949.974433,518.144159,-8580.269578,-148.041188
3949.974758,592.164754,-7967.393179,-222.061783
3949.975082,1406.391290,-8886.707777,-370.102971
3949.975406,1184.329507,-8273.831378,-518.144159
3949.975731,1184.329507,-8886.707777,-444.123565
3949.976055,666.185348,-8580.269578,-518.144159
3949.976380,814.226536,-9039.926876,-222.061783
3949.976704,592.164754,-9116.536426,-370.102971
3949.977028,444.123565,-8886.707777,-296.082377
3949.977353,296.082377,-8656.879127,-518.144159
3949.977677,296.082377,-8810.098227,-592.164754
3949.978002,740.205942,-9039.926876,-592.164754
3949.978326,518.144159,-8120.612279,-518.144159
3949.978650,444.123565,-8580.269578,-518.144159
3949.978975,370.102971,-8197.221829,-592.164754
3949.979299,814.226536,-8580.269578,-222.061783
3949.979624,592.164754,-8656.879127,-518.144159
3949.979948,518.144159,-8810.098227,-444.123565
3949.980272,296.082377,-8656.879127,-444.123565
3949.980597,148.041188,-8733.488677,-518.144159
3949.980921,-222.061783,-8733.488677,-666.185348
3949.981246,0.000000,-8733.488677,-518.144159
3949.981570,296.082377,-8733.488677,-740.205942
3949.981895,148.041188,-8273.831378,-370.102971
3949.982219,666.185348,-8656.879127,-1036.288319
3949.982543,370.102971,-8350.440928,-518.144159
3949.982868,666.185348,-8656.879127,-592.164754
3949.983192,962.267725,-8503.660028,-592.164754
3949.983517,666.185348,-8656.879127,-296.082377
3949.983841,370.102971,-8810.098227,-518.144159
3949.984165,222.061783,-8810.098227,-296.082377
3949.984490,74.020594,-8503.660028,-444.123565
3949.984814,-222.061783,-8810.098227,-222.061783
3949.985139,296.082377,-9039.926876,-518.144159
3949.985463,74.020594,-8503.660028,-592.164754
3949.985787,74.020594,-8350.440928,-222.061783
3949.986112,74.020594,-8273.831378,-444.123565
3949.986436,740.205942,-8273.831378,0.000000
3949.986761,740.205942,-8273.831378,-370.102971
3949.987085,592.164754,-8350.440928,-148.041188
3949.987409,518.144159,-8810.098227,-296.082377
3949.987734,370.102971,-8733.488677,0.000000
3949.988058,444.123565,-8580.269578,-592.164754
3949.988383,148.041188,-8810.098227,0.000000
3949.988707,-296.082377,-8580.269578,74.020594
3949.989032,0.000000,-8503.660028,0.000000
3949.989356,-296.082377,-9116.536426,0.000000
3949.989680,74.020594,-8580.269578,-148.041188
3949.990005,74.020594,-8120.612279,-222.061783
3949.990329,148.041188,-8273.831378,0.000000
3949.990654,370.102971,-8580.269578,0.000000
3949.990978,296.082377,-8120.612279,0.000000
3949.991302,666.185348,-8350.440928,0.000000
3949.991627,666.185348,-8350.440928,-222.061783
3949.991951,1036.288319,-8886.707777,0.000000
3949.992276,814.226536,-8503.660028,0.000000
3949.992600,444.123565,-8733.488677,-148.041188
3949.992924,296.082377,-8427.050478,-444.123565
3949.993249,444.123565,-8350.440928,0.000000
3949.993573,592.164754,-9039.926876,148.041188
3949.993898,444.123565,-8810.098227,-148.041188
3949.994222,148.041188,-8427.050478,0.000000
3949.994546,666.185348,-8197.221829,-518.144159
3949.994871,888.247130,-8656.879127,-148.041188
3949.995195,666.185348,-8580.269578,-222.061783
3949.995520,1184.329507,-8580.269578,-222.061783
3949.995844,962.267725,-8503.660028,0.000000
3949.996169,888.247130,-9116.536426,-444.123565
3949.996493,444.123565,-8273.831378,-666.185348
3949.996817,444.123565,-8963.317327,-370.102971
3949.997142,296.082377,-8886.707777,-592.164754
3949.997466,148.041188,-8733.488677,-518.144159
3949.997791,148.041188,-8580.269578,-592.164754
3949.998115,370.102971,-8503.660028,-296.082377
3949.998439,666.185348,-8427.050478,-518.144159
3949.998764,666.185348,-8273.831378,-444.123565
3949.999088,962.267725,-8656.879127,-444.123565
3949.999413,518.144159,-8350.440928,-814.226536
3949.999737,518.144159,-8656.879127,-296.082377
3950.000061,444.123565,-8733.488677,-592.164754
3950.000386,148.041188,-9116.536426,-444.123565
3950.000710,444.123565,-9039.926876,-592.164754
3950.001035,74.020594,-8963.317327,-444.123565
3950.001359,370.102971,-8886.707777,-296.082377
3950.001684,370.102971,-8733.488677,-518.144159
3950.002008,1258.350101,-8656.879127,-444.123565
3950.002333,962.267725,-8503.660028,-444.123565
3950.002657,814.226536,-8273.831378,-222.061783
3950.002982,814.226536,-8350.440928,-592.164754
3950.003306,592.164754,-8656.879127,-296.082377
3950.003631,592.164754,-8656.879127,-370.102971
3950.003955,444.123565,-8733.488677,-370.102971
3950.004280,222.061783,-8886.707777,-370.102971
3950.004604,296.082377,-8733.488677,0.000000
3950.004929,962.267725,-8886.707777,-370.102971
3950.005253,444.123565,-8733.488677,0.000000
3950.005578,370.102971,-8886.707777,-370.102971
3950.005902,592.164754,-8656.879127,0.000000
3950.006226,444.123565,-8810.098227,-296.082377
3950.006551,592.164754,-8503.660028,0.000000
3950.006875,592.164754,-8197.221829,-592.164754
3950.007200,444.123565,-8503.660028,-296.082377
3950.007524,74.020594,-8733.488677,-148.041188
3950.007849,0.000000,-8427.050478,0.000000
3950.008173,0.000000,-8503.660028,0.000000
3950.008498,0.000000,-8273.831378,-148.041188
3950.008822,0.000000,-8580.269578,0.000000
3950.009147,148.041188,-7814.174080,296.082377
3950.009471,444.123565,-8273.831378,0.000000
3950.009796,444.123565,-8580.269578,-370.102971
3950.010120,518.144159,-8580.269578,0.000000
3950.010445,444.123565,-8886.707777,-148.041188
3950.010769,666.185348,-8197.221829,0.000000
3950.011094,888.247130,-8580.269578,-148.041188
3950.011418,518.144159,-8350.440928,-222.061783
3950.011743,518.144159,-8580.269578,-222.061783
3950.012067,222.061783,-8503.660028,0.000000
3950.012392,444.123565,-8273.831378,-296.082377
3950.012716,370.102971,-8656.879127,-148.041188
3950.013040,518.144159,-8580.269578,0.000000
3950.013365,666.185348,-8656.879127,-296.082377
3950.013689,296.082377,-8580.269578,-518.144159
3950.014014,888.247130,-8580.269578,-370.102971
3950.014338,592.164754,-8427.050478,-370.102971
3950.014663,740.205942,-8503.660028,-222.061783
3950.014987,666.185348,-8350.440928,-296.082377
3950.015312,444.123565,-8963.317327,-148.041188
3950.015636,370.102971,-8503.660028,-370.102971
3950.015961,592.164754,-8963.317327,-148.041188
3950.016285,592.164754,-8656.879127,-666.185348
3950.016610,296.082377,-8580.269578,-296.082377
3950.016934,0.000000,-8886.707777,-370.102971
3950.017259,296.082377,-8810.098227,-666.185348
3950.017583,888.247130,-8120.612279,-592.164754
3950.017908,888.247130,-8427.050478,-444.123565
3950.018232,814.226536,-8427.050478,-666.185348
3950.018557,666.185348,-8580.269578,-518.144159
3950.018881,666.185348,-8503.660028,-370.102971
3950.019206,740.205942,-8580.269578,-370.102971
3950.019530,518.144159,-8580.269578,-592.164754
3950.019854,814.226536,-8733.488677,-296.082377
3950.020179,444.123565,-8503.660028,-370.102971
3950.020503,518.144159,-9729.412825,-666.185348
3950.020828,444.123565,-8656.879127,-592.164754
3950.021152,444.123565,-8350.440928,-370.102971
3950.021477,666.185348,-8580.269578,-296.082377
3950.021801,814.226536,-8273.831378,-370.102971
3950.022126,888.247130,-9116.536426,-296.082377
3950.022450,370.102971,-8503.660028,-740.205942
3950.022775,370.102971,-8656.879127,-518.144159
3950.023099,-370.102971,-8350.440928,-740.205942
3950.023424,148.041188,-8656.879127,222.061783
3950.023748,-222.061783,-8580.269578,-518.144159
3950.024073,-222.061783,-9346.365076,-444.123565
3950.024397,74.020594,-8120.612279,-814.226536
3950.024722,444.123565,-8580.269578,148.041188
3950.025046,296.082377,-8427.050478,-592.164754
3950.025371,666.185348,-8886.707777,148.041188
3950.025695,148.041188,-8656.879127,-592.164754
3950.026019,296.082377,-8580.269578,0.000000
3950.026344,148.041188,-8656.879127,-222.061783
3950.026668,0.000000,-8503.660028,-444.123565
3950.026993,74.020594,-8656.879127,-296.082377
3950.027317,-148.041188,-8810.098227,0.000000
3950.027642,0.000000,-8733.488677,0.000000
3950.027966,0.000000,-8350.440928,-444.123565
3950.028291,222.061783,-8733.488677,0.000000
3950.028615,296.082377,-8044.002729,-370.102971
3950.028940,740.205942,-9499.584175,0.000000
3950.029264,518.144159,-8580.269578,-222.061783
3950.029589,444.123565,-8350.440928,222.061783
3950.029913,148.041188,-8656.879127,-296.082377
3950.030238,370.102971,-8580.269578,0.000000
3950.030562,148.041188,-8197.221829,74.020594
3950.030887,222.061783,-8427.050478,-296.082377
3950.031211,370.102971,-8427.050478,0.000000
3950.031536,74.020594,-8120.612279,0.000000
3950.031860,444.123565,-8656.879127,-222.061783
3950.032185,74.020594,-8273.831378,-222.061783
3950.032509,222.061783,-8656.879127,0.000000
3950.032833,370.102971,-8273.831378,-222.061783
3950.033158,888.247130,-8733.488677,-370.102971
3950.033482,444.123565,-8810.098227,-148.041188
3950.033807,444.123565,-8044.002729,-148.041188
3950.034131,370.102971,-8503.660028,-222.061783
3950.034456,370.102971,-8580.269578,-518.144159
3950.034780,296.082377,-8580.269578,0.000000
3950.035105,444.123565,-8427.050478,-592.164754
3950.035429,814.226536,-8656.879127,-222.061783
3950.035754,740.205942,-8350.440928,-148.041188
3950.036078,1036.288319,-8886.707777,-1036.288319
3950.036403,740.205942,-8733.488677,-666.185348
3950.036727,518.144159,-8810.098227,0.000000
3950.037052,518.144159,-8350.440928,-518.144159
3950.037376,962.267725,-9499.584175,-148.041188
3950.037701,518.144159,-8656.879127,-296.082377
3950.038025,666.185348,-8503.660028,-518.144159
3950.038350,592.164754,-8580.269578,-740.205942
3950.038674,740.205942,-8733.488677,-444.123565
3950.038998,888.247130,-8503.660028,-370.102971
3950.039323,814.226536,-8733.488677,-518.144159
3950.039647,962.267725,-8656.879127,-518.144159
3950.039972,518.144159,-8427.050478,-666.185348
3950.040296,74.020594,-8963.317327,0.000000
3950.040621,518.144159,-8656.879127,-518.144159
3950.040945,592.164754,-8503.660028,-666.185348
3950.041270,666.185348,-8963.317327,-444.123565
3950.041594,222.061783,-8886.707777,-370.102971
3950.041919,518.144159,-8503.660028,-592.164754
3950.042243,740.205942,-8350.440928,-222.061783
3950.042568,592.164754,-8810.098227,-592.164754
3950.042892,888.247130,-8503.660028,-518.144159
3950.043217,296.082377,-8427.050478,-148.041188
3950.043541,222.061783,-8733.488677,-888.247130
3950.043866,444.123565,-8810.098227,-592.164754
3950.044190,370.102971,-8656.879127,-148.041188
3950.044515,296.082377,-8733.488677,-444.123565
3950.044839,0.000000,-8503.660028,-370.102971
3950.045164,444.123565,-8733.488677,-222.061783
3950.045488,444.123565,-8656.879127,-222.061783
3950.045812,370.102971,-9193.145976,-370.102971
3950.046137,444.123565,-8656.879127,-370.102971
3950.046461,370.102971,-8197.221829,-222.061783
3950.046786,370.102971,-8886.707777,-518.144159
3950.047110,444.123565,-8273.831378,-222.061783
3950.047435,518.144159,-8656.879127,-148.041188
3950.047759,222.061783,-7814.174080,0.000000
3950.048084,444.123565,-8810.098227,0.000000
3950.048408,74.020594,-8427.050478,-222.061783
3950.048733,444.123565,-8810.098227,-74.020594
3950.049057,370.102971,-8503.660028,-296.082377
3950.049382,518.144159,-8503.660028,0.000000
3950.049706,74.020594,-8350.440928,0.000000
3950.050031,222.061783,-9422.974625,0.000000
3950.050355,444.123565,-8427.050478,-222.061783
3950.050680,518.144159,-8427.050478,-296.082377
3950.051004,518.144159,-8427.050478,0.000000
3950.051329,592.164754,-8350.440928,296.082377
3950.051653,592.164754,-8963.317327,74.020594
3950.051977,222.061783,-8503.660028,-296.082377
3950.052302,444.123565,-8733.488677,-148.041188
3950.052626,296.082377,-8427.050478,-444.123565
3950.052951,74.020594,-9039.926876,592.164754
3950.053275,222.061783,-8350.440928,-148.041188
3950.053600,222.061783,-8656.879127,74.020594
3950.053924,148.041188,-8273.831378,-222.061783
3950.054249,370.102971,-8656.879127,-296.082377
3950.054573,592.164754,-8273.831378,-222.061783
3950.054898,592.164754,-8427.050478,0.000000
3950.055222,518.144159,-8580.269578,-592.164754
3950.055547,740.205942,-8810.098227,-296.082377
3950.055871,1036.288319,-8427.050478,-1184.329507
3950.056196,592.164754,-8886.707777,-444.123565
3950.056520,74.020594,-8273.831378,-518.144159
3950.056845,666.185348,-9193.145976,-296.082377
3950.057169,222.061783,-8350.440928,-518.144159
3950.057494,518.144159,-8733.488677,-444.123565
3950.057818,444.123565,-8350.440928,-444.123565
3950.058143,296.082377,-8350.440928,-296.082377
3950.058467,444.123565,-8503.660028,-666.185348
3950.058791,518.144159,-8656.879127,-148.041188
3950.059116,814.226536,-8273.831378,-592.164754
3950.059440,740.205942,-8810.098227,-518.144159
3950.059765,296.082377,-8810.098227,-518.144159
3950.060089,370.102971,-8580.269578,-518.144159
3950.060414,148.041188,-8733.488677,-740.205942
3950.060738,296.082377,-8580.269578,-518.144159
3950.061063,0.000000,-8810.098227,-666.185348
3950.061387,222.061783,-8656.879127,0.000000
3950.061712,296.082377,-8197.221829,-592.164754
3950.062036,148.041188,-8503.660028,-592.164754
3950.062361,296.082377,-8503.660028,-666.185348
3950.062685,740.205942,-8427.050478,-666.185348
3950.063010,888.247130,-8733.488677,-666.185348
3950.063334,444.123565,-8503.660028,-148.041188
3950.063659,518.144159,-8810.098227,-518.144159
3950.063983,444.123565,-8886.707777,-444.123565
3950.064308,518.144159,-8810.098227,-222.061783
3950.064632,222.061783,-8886.707777,-444.123565
3950.064957,0.000000,-8733.488677,-518.144159
3950.065281,0.000000,-8503.660028,0.000000
3950.065605,0.000000,-8350.440928,-370.102971
3950.065930,296.082377,-8273.831378,0.000000
3950.066254,74.020594,-8350.440928,-444.123565
3950.066579,518.144159,-8580.269578,-296.082377
3950.066903,518.144159,-8273.831378,-444.123565
3950.067228,222.061783,-8810.098227,0.000000
3950.067552,222.061783,-8273.831378,-370.102971
3950.067877,296.082377,-9116.536426,0.000000
3950.068201,0.000000,-8350.440928,-444.123565
3950.068526,370.102971,-8733.488677,222.061783
3950.068850,0.000000,-8427.050478,-518.144159
3950.069175,-222.061783,-8886.707777,0.000000
3950.069499,-296.082377,-8197.221829,0.000000
3950.069824,74.020594,-8656.879127,0.000000
3950.070148,444.123565,-8044.002729,-444.123565
3950.070473,222.061783,-8503.660028,-148.041188
3950.070797,444.123565,-8503.660028,-74.020594
3950.071122,592.164754,-8427.050478,0.000000
3950.071446,814.226536,-8503.660028,-518.144159
3950.071770,592.164754,-8503.660028,-370.102971
3950.072095,444.123565,-8503.660028,0.000000
3950.072419,518.144159,-8733.488677,0.000000
3950.072744,592.164754,-9806.022374,-222.061783
3950.073068,814.226536,-8810.098227,0.000000
3950.073393,666.185348,-8503.660028,-370.102971
3950.073717,518.144159,-8503.660028,0.000000
3950.074042,814.226536,-8656.879127,-370.102971
3950.074366,740.205942,-8886.707777,0.000000
3950.074691,740.205942,-8273.831378,-370.102971
3950.075015,740.205942,-8656.879127,-444.123565
3950.075340,962.267725,-8427.050478,0.000000
3950.075664,592.164754,-8580.269578,-370.102971
3950.075989,592.164754,-8656.879127,-444.123565
3950.076313,592.164754,-8810.098227,-296.082377
3950.076638,444.123565,-8580.269578,-296.082377
3950.076962,518.144159,-8963.317327,-518.144159
3950.077287,444.123565,-8503.660028,0.000000
3950.077611,444.123565,-8656.879127,-518.144159
3950.077936,518.144159,-8810.098227,-518.144159
3950.078260,740.205942,-8273.831378,-444.123565
3950.078584,740.205942,-8733.488677,-666.185348
3950.078909,740.205942,-8273.831378,-740.205942
3950.079233,518.144159,-8733.488677,-222.061783
3950.079558,444.123565,-8733.488677,-518.144159
3950.079882,222.061783,-8886.707777,0.000000
3950.080207,592.164754,-8886.707777,-888.247130
3950.080531,148.041188,-8656.879127,-222.061783
3950.080856,74.020594,-8810.098227,-296.082377
3950.081180,222.061783,-8427.050478,-518.144159
3950.081505,444.123565,-8656.879127,-370.102971
3950.081829,444.123565,-8503.660028,-666.185348
3950.082154,518.144159,-8810.098227,-296.082377
3950.082478,1184.329507,-8427.050478,-296.082377
3950.082803,1258.350101,-8503.660028,-592.164754
3950.083127,740.205942,-8886.707777,-518.144159
3950.083452,518.144159,-8733.488677,-296.082377
3950.083776,370.102971,-8656.879127,-296.082377
3950.084101,740.205942,-9039.926876,-518.144159
3950.084425,74.020594,-8656.879127,-370.102971
3950.084749,148.041188,-8733.488677,-518.144159
3950.085074,0.000000,-8273.831378,-222.061783
3950.085398,518.144159,-9729.412825,-296.082377
3950.085723,592.164754,-8427.050478,-370.102971
3950.086047,666.185348,-8350.440928,-148.041188
3950.086372,592.164754,-8503.660028,-444.123565
3950.086696,814.226536,-8656.879127,-296.082377
3950.087021,592.164754,-8427.050478,74.020594
3950.087345,296.082377,-8810.098227,0.000000
3950.087670,-148.041188,-8656.879127,-222.061783
3950.087994,-148.041188,-9039.926876,0.000000
3950.088319,-296.082377,-8656.879127,370.102971
3950.088643,-296.082377,-8503.660028,-222.061783
3950.088968,0.000000,-8580.269578,-222.061783
3950.089292,148.041188,-8427.050478,0.000000
3950.089617,444.123565,-8273.831378,-148.041188
3950.089941,370.102971,-8273.831378,-370.102971
3950.090266,1110.308913,-8350.440928,-222.061783
3950.090590,1184.329507,-8197.221829,-518.144159
3950.090915,740.205942,-8810.098227,0.000000
3950.091239,1258.350101,-8733.488677,-370.102971
3950.091563,370.102971,-8733.488677,-222.061783
3950.091888,296.082377,-8580.269578,-370.102971
3950.092212,74.020594,-8733.488677,0.000000
3950.092537,444.123565,-8886.707777,0.000000
3950.092861,222.061783,-8273.831378,-148.041188
3950.093186,222.061783,-8427.050478,0.000000
3950.093510,444.123565,-8580.269578,-444.123565
3950.093835,666.185348,-8120.612279,-222.061783
3950.094159,1110.308913,-8580.269578,-370.102971
3950.094484,814.226536,-8580.269578,-222.061783
3950.094808,592.164754,-8810.098227,-148.041188
3950.095133,444.123565,-8580.269578,-444.123565
3950.095457,666.185348,-9269.755526,-296.082377
3950.095782,-222.061783,-8886.707777,-666.185348
3950.096106,74.020594,-8810.098227,-296.082377
3950.096431,-370.102971,-8656.879127,-296.082377
3950.096755,-74.020594,-9193.145976,-296.082377
3950.097080,0.000000,-8503.660028,-592.164754
3950.097404,592.164754,-8656.879127,-296.082377
3950.097728,740.205942,-8810.098227,-740.205942
3950.098053,1110.308913,-8273.831378,-518.144159
3950.098377,1258.350101,-8427.050478,-296.082377
3950.098702,962.267725,-8810.098227,-592.164754
3950.099026,740.205942,-8580.269578,-592.164754
3950.099351,222.061783,-9116.536426,-444.123565
3950.099675,148.041188,-8656.879127,0.000000
3950.100000,0.000000,-8733.488677,-518.144159
3950.100324,0.000000,-8580.269578,-592.164754
3950.100649,74.020594,-8656.879127,-518.144159
3950.100973,74.020594,-8503.660028,0.000000
3950.101297,592.164754,-8656.879127,-444.123565
3950.101622,962.267725,-8350.440928,-518.144159
3950.101946,1258.350101,-8350.440928,-666.185348
3950.102270,1776.494261,-7967.393179,-370.102971
3950.102594,1332.370696,-8733.488677,0.000000
3950.102919,666.185348,-9116.536426,-666.185348
3950.103243,518.144159,-8733.488677,-296.082377
3950.103567,-444.123565,-8963.317327,-740.205942
3950.103892,-518.144159,-8963.317327,-148.041188
3950.104216,-814.226536,-8656.879127,0.000000
3950.104540,-518.144159,-8886.707777,-740.205942
3950.104865,0.000000,-8273.831378,-592.164754
3950.105189,0.000000,-7814.174080,-370.102971
3950.105513,1036.288319,-8350.440928,-296.082377
3950.105838,814.226536,-7967.393179,-148.041188
3950.106162,1184.329507,-8886.707777,-222.061783
3950.106486,1110.308913,-8503.660028,-148.041188
3950.106811,518.144159,-8733.488677,0.000000
3950.107135,0.000000,-8733.488677,0.000000
3950.107459,-222.061783,-8656.879127,-370.102971
3950.107783,-518.144159,-8733.488677,-518.144159
3950.108108,-370.102971,-8963.317327,0.000000
3950.108432,-888.247130,-8580.269578,0.000000
3950.108756,-296.082377,-8120.612279,-296.082377
3950.109081,74.020594,-8273.831378,74.020594
3950.109405,296.082377,-8197.221829,-444.123565
3950.109729,1406.391290,-8427.050478,-296.082377
3950.110054,888.247130,-8044.002729,-370.102971
3950.110378,1110.308913,-8580.269578,-222.061783
3950.110702,296.082377,-8503.660028,-370.102971
3950.111027,296.082377,-8656.879127,148.041188
3950.111351,0.000000,-8580.269578,-444.123565
3950.111675,0.000000,-8886.707777,0.000000
3950.112000,-222.061783,-8963.317327,0.000000
3950.112324,0.000000,-7814.174080,0.000000
3950.112648,74.020594,-8273.831378,-296.082377
3950.112972,370.102971,-8197.221829,-370.102971
3950.113297,444.123565,-8120.612279,-666.185348
3950.113621,888.247130,-8273.831378,-222.061783
3950.113945,1036.288319,-8044.002729,-370.102971
3950.114270,518.144159,-8656.879127,-370.102971
3950.114594,666.185348,-8886.707777,-370.102971
3950.114918,592.164754,-8733.488677,-296.082377
3950.115243,296.082377,-9806.022374,-296.082377
3950.115567,0.000000,-8963.317327,-148.041188
3950.115891,0.000000,-8733.488677,-222.061783
3950.116216,0.000000,-8886.707777,-444.123565
3950.116540,148.041188,-8273.831378,-444.123565
3950.116864,518.144159,-8580.269578,-370.102971
3950.117189,888.247130,-8197.221829,0.000000
3950.117513,888.247130,-8120.612279,-444.123565
3950.117837,1258.350101,-8580.269578,-740.205942
3950.118161,814.226536,-8273.831378,-592.164754
3950.118486,1036.288319,-8886.707777,-444.123565
3950.118810,1258.350101,-8733.488677,-444.123565
3950.119134,814.226536,-8886.707777,-296.082377
3950.119459,444.123565,-8580.269578,-888.247130
3950.119783,444.123565,-9116.536426,-740.205942
3950.120107,296.082377,-8810.098227,-592.164754
3950.120432,592.164754,-8886.707777,-370.102971
3950.120756,444.123565,-8350.440928,-370.102971
3950.121080,814.226536,-8810.098227,-518.144159
3950.121405,518.144159,-8580.269578,-666.185348
3950.121729,666.185348,-8427.050478,-444.123565
3950.122053,518.144159,-8350.440928,-444.123565
3950.122378,1036.288319,-8963.317327,-592.164754
3950.122702,518.144159,-8580.269578,-518.144159
3950.123026,814.226536,-8963.317327,-148.041188
3950.123350,518.144159,-8580.269578,-740.205942
3950.123675,888.247130,-9806.022374,-296.082377
3950.123999,592.164754,-8733.488677,0.000000
3950.124323,370.102971,-8733.488677,-518.144159
3950.124648,444.123565,-8886.707777,-444.123565
3950.124972,296.082377,-8350.440928,-296.082377
3950.125296,814.226536,-8733.488677,-740.205942
3950.125621,296.082377,-8120.612279,-518.144159
3950.125945,740.205942,-8886.707777,0.000000
3950.126269,296.082377,-8350.440928,-518.144159
3950.126594,888.247130,-8886.707777,74.020594
3950.126918,740.205942,-8350.440928,-814.226536
3950.127242,666.185348,-9116.536426,0.000000
3950.127566,370.102971,-8427.050478,-222.061783
3950.127891,518.144159,-9729.412825,0.000000
3950.128215,444.123565,-8503.660028,-518.144159
3950.128539,222.061783,-8580.269578,148.041188
3950.128864,222.061783,-8580.269578,-148.041188
3950.129188,148.041188,-8427.050478,0.000000
3950.129512,222.061783,-8580.269578,148.041188
3950.129837,370.102971,-8350.440928,0.000000
3950.130161,370.102971,-8427.050478,0.000000
3950.130485,148.041188,-8580.269578,-296.082377
3950.130810,370.102971,-9116.536426,0.000000
3950.131134,370.102971,-8044.002729,-370.102971
3950.131458,592.164754,-8810.098227,-74.020594
3950.131783,74.020594,-8427.050478,-370.102971
3950.132107,148.041188,-9193.145976,0.000000
3950.132431,0.000000,-8656.879127,-296.082377
3950.132755,296.082377,-8427.050478,0.000000
3950.133080,296.082377,-8427.050478,-296.082377
3950.133404,444.123565,-8503.660028,-148.041188
3950.133728,666.185348,-8044.002729,-444.123565
3950.134053,592.164754,-8427.050478,-444.123565
3950.134377,518.144159,-8197.221829,-222.061783
3950.134701,666.185348,-8580.269578,0.000000
3950.135026,666.185348,-8963.317327,-592.164754
3950.135350,888.247130,-8963.317327,-222.061783
3950.135674,370.102971,-8810.098227,-444.123565
3950.135999,666.185348,-8963.317327,0.000000
3950.136323,592.164754,-8580.269578,-666.185348
3950.136647,518.144159,-8886.707777,0.000000
3950.136972,370.102971,-8120.612279,-666.185348
3950.137296,592.164754,-8580.269578,-74.020594
3950.137620,222.061783,-8350.440928,-518.144159
3950.137944,518.144159,-8273.831378,74.020594
3950.138269,444.123565,-8503.660028,-888.247130
3950.138593,370.102971,-8733.488677,-592.164754
3950.138917,296.082377,-8350.440928,-518.144159
3950.139242,444.123565,-9193.145976,-148.041188
3950.139566,444.123565,-8886.707777,-592.164754
3950.139890,222.061783,-8810.098227,-74.020594
3950.140215,444.123565,-8427.050478,-518.144159
3950.140539,518.144159,-8427.050478,-814.226536
3950.140863,814.226536,-8810.098227,-666.185348
3950.141188,518.144159,-8656.879127,-518.144159
3950.141512,222.061783,-8580.269578,-222.061783
3950.141836,0.000000,-8656.879127,-666.185348
3950.142161,592.164754,-8503.660028,-592.164754
3950.142485,444.123565,-8503.660028,-814.226536
3950.142809,370.102971,-8810.098227,-370.102971
3950.143133,296.082377,-8503.660028,-296.082377
3950.143458,592.164754,-8733.488677,-296.082377
3950.143782,666.185348,-8733.488677,-444.123565
3950.144106,518.144159,-8886.707777,-222.061783
3950.144431,666.185348,-8886.707777,-740.205942
3950.144755,592.164754,-8580.269578,-370.102971
3950.145079,592.164754,-8503.660028,-222.061783
3950.145404,148.041188,-8810.098227,-296.082377
3950.145728,0.000000,-8273.831378,-518.144159
3950.146052,148.041188,-8810.098227,0.000000
3950.146377,444.123565,-8120.612279,0.000000
3950.146701,296.082377,-8886.707777,74.020594
3950.147025,222.061783,-8197.221829,-370.102971
3950.147350,518.144159,-8886.707777,-222.061783
3950.147674,222.061783,-8656.879127,0.000000
3950.147998,444.123565,-9039.926876,0.000000
3950.148322,370.102971,-8273.831378,-222.061783
3950.148647,148.041188,-8886.707777,0.000000
3950.148971,-222.061783,-8273.831378,-444.123565
3950.149295,0.000000,-7967.393179,0.000000
3950.149620,0.000000,-8273.831378,-296.082377
3950.149944,74.020594,-8580.269578,0.000000
3950.150268,0.000000,-8503.660028,-148.041188
3950.150593,0.000000,-9039.926876,296.082377
3950.150917,0.000000,-8350.440928,-370.102971
3950.151241,222.061783,-8273.831378,0.000000
3950.151566,370.102971,-8733.488677,0.000000
3950.151890,444.123565,-8197.221829,0.000000
3950.152214,666.185348,-8503.660028,-296.082377
3950.152539,888.247130,-8580.269578,0.000000
3950.152863,888.247130,-8503.660028,-148.041188
3950.153187,592.164754,-8350.440928,-222.061783
3950.153511,814.226536,-8427.050478,-592.164754
3950.153836,518.144159,-8350.440928,-296.082377
3950.154160,222.061783,-8503.660028,-222.061783
3950.154484,148.041188,-8273.831378,0.000000
3950.154809,296.082377,-8273.831378,0.000000
3950.155133,518.144159,-8580.269578,-370.102971
3950.155457,814.226536,-8580.269578,-148.041188
3950.155782,962.267725,-8427.050478,-444.123565
3950.156106,1036.288319,-8503.660028,-148.041188
3950.156430,1480.411884,-8427.050478,-444.123565
3950.156755,1184.329507,-8580.269578,-444.123565
3950.157079,740.205942,-8503.660028,-444.123565
3950.157403,592.164754,-8580.269578,-370.102971
3950.157728,370.102971,-8350.440928,-592.164754
3950.158052,0.000000,-8503.660028,-370.102971
3950.158376,74.020594,-8963.317327,-444.123565
3950.158700,370.102971,-8503.660028,-296.082377
3950.159025,148.041188,-8273.831378,-370.102971
3950.159349,296.082377,-8580.269578,-296.082377
3950.159673,740.205942,-8427.050478,-370.102971
3950.159998,814.226536,-8503.660028,-666.185348
3950.160322,666.185348,-8503.660028,-296.082377
3950.160646,814.226536,-8733.488677,-666.185348
3950.160971,592.164754,-9039.926876,-370.102971
3950.161295,444.123565,-8580.269578,-518.144159
3950.161619,518.144159,-8886.707777,-296.082377
3950.161944,962.267725,-8886.707777,-888.247130
3950.162268,592.164754,-8503.660028,-370.102971
3950.162592,740.205942,-8427.050478,-370.102971
3950.162917,740.205942,-8886.707777,-518.144159
3950.163241,962.267725,-8886.707777,-592.164754
3950.163565,666.185348,-8733.488677,74.020594
3950.163889,592.164754,-8656.879127,-444.123565
3950.164214,444.123565,-8733.488677,-370.102971
3950.164538,296.082377,-8656.879127,-370.102971
3950.164862,74.020594,-8886.707777,-148.041188
3950.165187,74.020594,-8503.660028,-518.144159
3950.165511,296.082377,-9193.145976,-370.102971
3950.165835,222.061783,-8044.002729,-296.082377
3950.166160,592.164754,-9193.145976,-296.082377
3950.166484,222.061783,-8580.269578,-518.144159
3950.166808,296.082377,-8580.269578,-148.041188
3950.167133,370.102971,-8350.440928,-518.144159
3950.167457,444.123565,-8733.488677,-74.020594
3950.167781,0.000000,-8197.221829,-370.102971
3950.168105,0.000000,-8886.707777,0.000000
3950.168430,-222.061783,-8120.612279,-222.061783
3950.168754,0.000000,-8656.879127,-222.061783
3950.169078,370.102971,-8427.050478,-370.102971
3950.169403,222.061783,-8656.879127,-148.041188
3950.169727,74.020594,-8580.269578,-370.102971
3950.170051,444.123565,-8350.440928,-148.041188
3950.170376,740.205942,-8580.269578,-518.144159
3950.170700,592.164754,-8427.050478,-296.082377
3950.171024,370.102971,-8656.879127,0.000000
3950.171349,444.123565,-8580.269578,-296.082377
3950.171673,148.041188,-8427.050478,-222.061783
3950.171997,74.020594,-8503.660028,0.000000
3950.172322,444.123565,-8120.612279,0.000000
3950.172646,518.144159,-8503.660028,-148.041188
3950.172970,296.082377,-8580.269578,0.000000
3950.173294,592.164754,-8656.879127,0.000000
3950.173619,592.164754,-8350.440928,-444.123565
3950.173943,888.247130,-8580.269578,-370.102971
3950.174267,518.144159,-8503.660028,-222.061783
3950.174592,740.205942,-9116.536426,-444.123565
3950.174916,592.164754,-8427.050478,-148.041188
3950.175240,296.082377,-8580.269578,-296.082377
3950.175565,444.123565,-8580.269578,-370.102971
3950.175889,222.061783,-8580.269578,-148.041188
3950.176213,0.000000,-8273.831378,74.020594
3950.176538,0.000000,-8733.488677,-148.041188
3950.176862,592.164754,-8656.879127,-296.082377
3950.177186,370.102971,-8427.050478,-444.123565
3950.177511,444.123565,-8886.707777,0.000000
3950.177835,814.226536,-8656.879127,-444.123565
3950.178159,888.247130,-8273.831378,-666.185348
3950.178483,888.247130,-8580.269578,-370.102971
3950.178808,666.185348,-9193.145976,0.000000
3950.179132,666.185348,-8733.488677,-666.185348
3950.179456,444.123565,-8350.440928,-666.185348
3950.179781,740.205942,-8810.098227,-518.144159
3950.180105,518.144159,-8656.879127,-592.164754
3950.180429,296.082377,-8963.317327,-296.082377
3950.180754,666.185348,-8427.050478,-592.164754
3950.181078,962.267725,-8810.098227,-666.185348
3950.181402,740.205942,-8350.440928,-740.205942
3950.181727,444.123565,-8197.221829,0.000000
3950.182051,296.082377,-8273.831378,-444.123565
3950.182375,222.061783,-8503.660028,-740.205942
3950.182700,740.205942,-8810.098227,-518.144159
3950.183024,814.226536,-9116.536426,-444.123565
3950.183348,296.082377,-9039.926876,-444.123565
3950.183672,0.000000,-8886.707777,-666.185348
3950.183997,444.123565,-8733.488677,-148.041188
3950.184321,0.000000,-8427.050478,-962.267725
3950.184645,148.041188,-8810.098227,0.000000
3950.184970,-296.082377,-8197.221829,-370.102971
3950.185294,222.061783,-9193.145976,74.020594
3950.185618,-296.082377,-8197.221829,-1184.329507
3950.185943,74.020594,-9039.926876,592.164754
3950.186267,0.000000,-8197.221829,-740.205942
3950.186591,740.205942,-8733.488677,0.000000
3950.186916,222.061783,-8427.050478,-370.102971
3950.187240,0.000000,-8886.707777,0.000000
3950.187564,518.144159,-8273.831378,-814.226536
3950.187889,-370.102971,-8273.831378,0.000000
3950.188213,222.061783,-8810.098227,-296.082377
3950.188537,-148.041188,-8044.002729,-296.082377
3950.188861,518.144159,-8963.317327,-592.164754
3950.189186,0.000000,-8273.831378,0.000000
3950.189510,444.123565,-8733.488677,-148.041188
3950.189834,296.082377,-8427.050478,-222.061783
3950.190159,1110.308913,-8427.050478,518.144159
3950.190483,148.041188,-8503.660028,0.000000
3950.190807,666.185348,-8886.707777,-296.082377
3950.191132,370.102971,-8350.440928,74.020594
3950.191456,444.123565,-8733.488677,0.000000
3950.191780,370.102971,-8350.440928,-222.061783
3950.192105,222.061783,-8580.269578,0.000000
3950.192429,0.000000,-8656.879127,0.000000
3950.192753,74.020594,-8273.831378,-296.082377
3950.193078,74.020594,-8733.488677,-666.185348
3950.193402,296.082377,-8350.440928,0.000000
3950.193726,296.082377,-8197.221829,-370.102971
3950.194050,222.061783,-8656.879127,-296.082377
3950.194375,518.144159,-7584.345430,0.000000
3950.194699,666.185348,-8273.831378,0.000000
3950.195023,518.144159,-8733.488677,-296.082377
3950.195348,666.185348,-8733.488677,-222.061783
3950.195672,444.123565,-8733.488677,-222.061783
3950.195996,222.061783,-8580.269578,-222.061783
3950.196321,592.164754,-8427.050478,-444.123565
3950.196645,592.164754,-8656.879127,-222.061783
3950.196969,444.123565,-8273.831378,-444.123565
3950.197294,962.267725,-8656.879127,-222.061783
3950.197618,740.205942,-8733.488677,-148.041188
3950.197942,1036.288319,-8273.831378,-370.102971
3950.198266,1184.329507,-8733.488677,-666.185348
3950.198591,1480.411884,-8350.440928,-444.123565
3950.198915,1258.350101,-8656.879127,-592.164754
3950.199239,1184.329507,-8503.660028,-592.164754
3950.199564,888.247130,-9116.536426,-222.061783
3950.199888,666.185348,-8886.707777,-370.102971
3950.200212,1110.308913,-9039.926876,-370.102971
3950.200536,370.102971,-8656.879127,-666.185348
3950.200861,148.041188,-8810.098227,-518.144159
3950.201185,0.000000,-8350.440928,-740.205942
3950.201509,444.123565,-8427.050478,-370.102971
3950.201833,444.123565,-8427.050478,-592.164754
3950.202158,444.123565,-8427.050478,-592.164754
3950.202482,666.185348,-8733.488677,-444.123565
3950.202806,888.247130,-7890.783629,-222.061783
3950.203131,888.247130,-8580.269578,-592.164754
3950.203455,1036.288319,-8810.098227,-518.144159
3950.203779,666.185348,-8810.098227,-666.185348
3950.204103,444.123565,-8733.488677,-444.123565
3950.204428,296.082377,-8580.269578,-962.267725
3950.204752,74.020594,-8963.317327,-296.082377
3950.205076,-296.082377,-8656.879127,-740.205942
3950.205400,0.000000,-8733.488677,0.000000
3950.205725,296.082377,-8044.002729,-296.082377
3950.206049,592.164754,-8810.098227,-370.102971
3950.206373,666.185348,-8427.050478,-592.164754
3950.206698,1110.308913,-8810.098227,0.000000
3950.207022,814.226536,-8273.831378,-518.144159
3950.207346,1110.308913,-8810.098227,0.000000
3950.207670,592.164754,-8273.831378,-370.102971
3950.207995,370.102971,-9269.755526,-222.061783
3950.208319,-222.061783,-8503.660028,-222.061783
3950.208643,370.102971,-8963.317327,0.000000
3950.208968,-148.041188,-8503.660028,-518.144159
3950.209292,-518.144159,-8350.440928,0.000000
3950.209616,0.000000,-8503.660028,-148.041188
3950.209940,148.041188,-8503.660028,0.000000
3950.210265,888.247130,-8427.050478,0.000000
3950.210589,888.247130,-8273.831378,-148.041188
3950.210913,1110.308913,-8273.831378,0.000000
3950.211237,888.247130,-8350.440928,-370.102971
3950.211562,962.267725,-8886.707777,0.000000
3950.211886,444.123565,-8427.050478,-222.061783
3950.212210,222.061783,-9039.926876,0.000000
3950.212535,-296.082377,-8733.488677,0.000000
3950.212859,-222.061783,-8580.269578,0.000000
3950.213183,0.000000,-8044.002729,-370.102971
3950.213507,148.041188,-8503.660028,0.000000
3950.213832,518.144159,-8197.221829,-222.061783
3950.214156,888.247130,-8886.707777,-148.041188
3950.214480,1036.288319,-7967.393179,-222.061783
3950.214804,962.267725,-8810.098227,0.000000
3950.215129,888.247130,-7967.393179,-370.102971
3950.215453,1110.308913,-8886.707777,-148.041188
3950.215777,962.267725,-9039.926876,-518.144159
3950.216102,296.082377,-9116.536426,-296.082377
3950.216426,148.041188,-8733.488677,-518.144159
3950.216750,74.020594,-9039.926876,0.000000
3950.217074,0.000000,-8963.317327,0.000000
3950.217399,148.041188,-8963.317327,-444.123565
3950.217723,148.041188,-8427.050478,-148.041188
3950.218047,592.164754,-8656.879127,-518.144159
3950.218371,592.164754,-8733.488677,-518.144159
3950.218696,888.247130,-8503.660028,-592.164754
3950.219020,740.205942,-8273.831378,-666.185348
3950.219344,666.185348,-8886.707777,-444.123565
3950.219669,444.123565,-9193.145976,-370.102971
3950.219993,148.041188,-8810.098227,-222.061783
3950.220317,0.000000,-8886.707777,-518.144159
3950.220641,0.000000,-8886.707777,-1036.288319
3950.220966,74.020594,-8810.098227,-592.164754
3950.221290,-222.061783,-9039.926876,-222.061783
3950.221614,370.102971,-8656.879127,-444.123565
3950.221939,296.082377,-8427.050478,-666.185348
3950.222263,740.205942,-8810.098227,-444.123565
3950.222587,962.267725,-8120.612279,-592.164754
3950.222911,814.226536,-9193.145976,-888.247130
3950.223236,592.164754,-8810.098227,-370.102971
3950.223560,444.123565,-8810.098227,-444.123565
3950.223884,296.082377,-8733.488677,-592.164754
3950.224208,370.102971,-9269.755526,-222.061783
3950.224533,296.082377,-8810.098227,-444.123565
3950.224857,0.000000,-8580.269578,-666.185348
3950.225181,148.041188,-8580.269578,-148.041188
3950.225506,-74.020594,-8273.831378,-222.061783
3950.225830,518.144159,-8656.879127,-296.082377
3950.226154,370.102971,-8350.440928,-740.205942
3950.226478,888.247130,-8810.098227,148.041188
3950.226803,518.144159,-8273.831378,-518.144159
3950.227127,814.226536,-8810.098227,0.000000
3950.227451,444.123565,-8580.269578,-518.144159
3950.227775,222.061783,-8810.098227,0.000000
3950.228100,148.041188,-8427.050478,-296.082377
3950.228424,148.041188,-8350.440928,444.123565
3950.228748,-222.061783,-8810.098227,-518.144159
3950.229073,0.000000,-8427.050478,0.000000
3950.229397,74.020594,-8350.440928,-296.082377
3950.229721,148.041188,-8427.050478,0.000000
3950.230045,148.041188,-8427.050478,0.000000
3950.230370,222.061783,-8273.831378,0.000000
3950.230694,518.144159,-8427.050478,0.000000
3950.231018,740.205942,-8427.050478,-148.041188
3950.231342,592.164754,-8886.707777,296.082377
3950.231667,814.226536,-8197.221829,-148.041188
3950.231991,518.144159,-8733.488677,0.000000
3950.232315,592.164754,-8733.488677,0.000000
3950.232640,296.082377,-8273.831378,74.020594
3950.232964,370.102971,-8580.269578,-222.061783
3950.233288,296.082377,-8350.440928,0.000000
3950.233612,296.082377,-8427.050478,0.000000
3950.233937,518.144159,-8656.879127,-296.082377
3950.234261,518.144159,-8427.050478,-222.061783
3950.234585,592.164754,-8273.831378,-296.082377
3950.234910,1184.329507,-8580.269578,-148.041188
3950.235234,1036.288319,-8197.221829,-222.061783
3950.235558,1332.370696,-8963.317327,-592.164754
3950.235882,814.226536,-8503.660028,-518.144159
3950.236207,740.205942,-8963.317327,-296.082377
3950.236531,296.082377,-8656.879127,-518.144159
3950.236855,814.226536,-8350.440928,0.000000
3950.237179,444.123565,-8656.879127,0.000000
3950.237504,370.102971,-8503.660028,-666.185348
3950.237828,444.123565,-8273.831378,-518.144159
3950.238152,592.164754,-8580.269578,-148.041188
3950.238477,518.144159,-8427.050478,-444.123565
3950.238801,666.185348,-8733.488677,-370.102971
3950.239125,370.102971,-8580.269578,-740.205942
3950.239449,592.164754,-8733.488677,-666.185348
3950.239774,222.061783,-8273.831378,-592.164754
3950.240098,518.144159,-9193.145976,-444.123565
3950.240422,0.000000,-8886.707777,-444.123565
3950.240746,222.061783,-9039.926876,-592.164754
3950.241071,444.123565,-8197.221829,-518.144159
3950.241395,148.041188,-8810.098227,-148.041188
3950.241719,518.144159,-8503.660028,-296.082377
3950.242044,888.247130,-8197.221829,-296.082377
3950.242368,814.226536,-8656.879127,-592.164754
3950.242692,518.144159,-8503.660028,-370.102971
3950.243016,814.226536,-8733.488677,-740.205942
3950.243341,370.102971,-8733.488677,-592.164754
3950.243665,444.123565,-8810.098227,-444.123565
3950.243989,0.000000,-8427.050478,0.000000
3950.244313,148.041188,-9116.536426,-444.123565
3950.244638,148.041188,-8733.488677,-296.082377
3950.244962,296.082377,-8733.488677,-370.102971
3950.245286,1036.288319,-8963.317327,-592.164754
3950.245611,888.247130,-8273.831378,-370.102971
3950.245935,592.164754,-8427.050478,-74.020594
3950.246259,592.164754,-8197.221829,-740.205942
3950.246583,666.185348,-8503.660028,-370.102971
3950.246908,222.061783,-8427.050478,0.000000
3950.247232,0.000000,-8503.660028,74.020594
3950.247556,0.000000,-8273.831378,-370.102971
3950.247881,0.000000,-8733.488677,74.020594
3950.248205,444.123565,-8810.098227,-148.041188
3950.248529,148.041188,-8886.707777,0.000000
3950.248853,370.102971,-8503.660028,-296.082377
3950.249178,444.123565,-8120.612279,-296.082377
3950.249502,888.247130,-8580.269578,0.000000
3950.249826,666.185348,-8350.440928,-148.041188
3950.250150,740.205942,-8350.440928,0.000000
3950.250475,740.205942,-8580.269578,0.000000
3950.250799,444.123565,-8656.879127,0.000000
3950.251123,666.185348,-8810.098227,74.020594
3950.251448,444.123565,-8733.488677,-222.061783
3950.251772,74.020594,-8656.879127,-296.082377
3950.252096,222.061783,-8580.269578,0.000000
3950.252420,740.205942,-8656.879127,0.000000
3950.252745,296.082377,-8350.440928,74.020594
3950.253069,592.164754,-8427.050478,-148.041188
3950.253393,740.205942,-8273.831378,-296.082377
3950.253717,740.205942,-8044.002729,-296.082377
3950.254042,740.205942,-8427.050478,-296.082377
3950.254366,666.185348,-8810.098227,-370.102971
3950.254690,518.144159,-8580.269578,-518.144159
3950.255015,370.102971,-8810.098227,0.000000
3950.255339,0.000000,-8580.269578,-666.185348
3950.255663,74.020594,-8886.707777,-296.082377
3950.255987,74.020594,-8427.050478,-296.082377
3950.256312,148.041188,-8963.317327,-370.102971
3950.256636,0.000000,-7890.783629,-518.144159
3950.256960,518.144159,-8580.269578,-592.164754
3950.257284,740.205942,-8273.831378,-592.164754
3950.257609,592.164754,-8580.269578,-370.102971
3950.257933,888.247130,-8886.707777,-370.102971
3950.258257,592.164754,-8656.879127,-518.144159
3950.258582,370.102971,-8580.269578,-444.123565
3950.258906,444.123565,-8810.098227,-592.164754
3950.259230,592.164754,-8810.098227,-444.123565
3950.259554,592.164754,-8656.879127,-518.144159
3950.259879,370.102971,-8733.488677,-518.144159
3950.260203,148.041188,-8886.707777,-592.164754
3950.260527,666.185348,-8963.317327,-666.185348
3950.260852,518.144159,-8427.050478,-518.144159
3950.261176,666.185348,-8503.660028,-370.102971
3950.261500,592.164754,-8580.269578,-444.123565
3950.261824,518.144159,-8350.440928,-592.164754
3950.262149,370.102971,-8503.660028,-666.185348
3950.262473,370.102971,-8810.098227,-370.102971
3950.262797,592.164754,-8273.831378,-222.061783
3950.263121,222.061783,-8580.269578,-370.102971
3950.263446,222.061783,-9039.926876,-370.102971
3950.263770,222.061783,-8656.879127,-444.123565
3950.264094,370.102971,-9346.365076,0.000000
3950.264419,0.000000,-8427.050478,-888.247130
3950.264743,74.020594,-9346.365076,0.000000
3950.265067,-148.041188,-8197.221829,-518.144159
3950.265391,592.164754,-9116.536426,0.000000
3950.265716,0.000000,-7890.783629,-1110.308913
3950.266040,592.164754,-9346.365076,444.123565
3950.266364,0.000000,-7431.126331,-1184.329507
3950.266688,666.185348,-9269.755526,148.041188
3950.267013,-148.041188,-8044.002729,-666.185348
3950.267337,0.000000,-9269.755526,296.082377
3950.267661,74.020594,-8120.612279,-814.226536
3950.267986,0.000000,-8886.707777,74.020594
3950.268310,0.000000,-8427.050478,-444.123565
3950.268634,0.000000,-8810.098227,370.102971
3950.268958,74.020594,-8350.440928,-444.123565
3950.269283,74.020594,-8503.660028,148.041188
3950.269607,592.164754,-8350.440928,-296.082377
3950.269931,296.082377,-8427.050478,-296.082377
3950.270256,518.144159,-8197.221829,0.000000
3950.270580,222.061783,-8580.269578,-222.061783
3950.270904,666.185348,-8886.707777,-370.102971
3950.271228,444.123565,-8427.050478,-222.061783
3950.271553,592.164754,-8656.879127,0.000000
3950.271877,296.082377,-8350.440928,-296.082377
3950.272201,296.082377,-9193.145976,0.000000
3950.272525,296.082377,-8350.440928,-296.082377
3950.272850,296.082377,-8427.050478,-296.082377
3950.273174,518.144159,-8273.831378,-370.102971
3950.273498,370.102971,-8580.269578,296.082377
3950.273823,444.123565,-8273.831378,-666.185348
3950.274147,296.082377,-8580.269578,-222.061783
3950.274471,740.205942,-8350.440928,-370.102971
3950.274795,222.061783,-8810.098227,-222.061783
3950.275120,222.061783,-9039.926876,-518.144159
3950.275444,592.164754,-9039.926876,-296.082377
3950.275768,222.061783,-8503.660028,-370.102971
3950.276092,296.082377,-8886.707777,-518.144159
3950.276417,814.226536,-9499.584175,-296.082377
3950.276741,592.164754,-8656.879127,0.000000
3950.277065,296.082377,-8273.831378,-518.144159
3950.277390,370.102971,-8963.317327,-296.082377
3950.277714,814.226536,-8656.879127,-592.164754
3950.278038,888.247130,-8503.660028,-592.164754
3950.278362,962.267725,-8580.269578,-740.205942
3950.278687,1184.329507,-8733.488677,-296.082377
3950.279011,518.144159,-8503.660028,-518.144159
3950.279335,740.205942,-8656.879127,-296.082377
3950.279659,814.226536,-8810.098227,-666.185348
3950.279984,740.205942,-9039.926876,-222.061783
3950.280308,888.247130,-8350.440928,-592.164754
3950.280632,740.205942,-9193.145976,-888.247130
3950.280957,444.123565,-8656.879127,-518.144159
3950.281281,296.082377,-8656.879127,-518.144159
3950.281605,444.123565,-8580.269578,-592.164754
3950.281929,74.020594,-8273.831378,-222.061783
3950.282254,666.185348,-8503.660028,-296.082377
3950.282578,518.144159,-8427.050478,-592.164754
3950.282902,814.226536,-8810.098227,-148.041188
3950.283227,814.226536,-8503.660028,-518.144159
3950.283551,1110.308913,-8580.269578,0.000000
3950.283875,962.267725,-8503.660028,-518.144159
3950.284199,444.123565,-9193.145976,-296.082377
3950.284524,296.082377,-8656.879127,-370.102971
3950.284848,74.020594,-8886.707777,-296.082377
3950.285172,296.082377,-8273.831378,-666.185348
3950.285496,74.020594,-8503.660028,-74.020594
3950.285821,296.082377,-8580.269578,-222.061783
3950.286145,296.082377,-8273.831378,-444.123565
3950.286469,740.205942,-8350.440928,-444.123565
3950.286794,740.205942,-8580.269578,-296.082377
3950.287118,740.205942,-8273.831378,0.000000
3950.287442,592.164754,-9039.926876,74.020594
3950.287766,666.185348,-8733.488677,-296.082377
3950.288091,518.144159,-8656.879127,0.000000
3950.288415,0.000000,-8656.879127,-148.041188
3950.288739,0.000000,-8810.098227,0.000000
3950.289063,-148.041188,-9193.145976,-74.020594
3950.289388,0.000000,-8733.488677,0.000000
3950.289712,0.000000,-8350.440928,0.000000
3950.290036,222.061783,-8273.831378,-370.102971
3950.290361,666.185348,-8197.221829,-370.102971
3950.290685,962.267725,-8197.221829,-222.061783
3950.291009,666.185348,-8427.050478,-222.061783
3950.291333,666.185348,-8197.221829,-370.102971
3950.291658,666.185348,-8350.440928,-296.082377
3950.291982,666.185348,-8810.098227,0.000000
3950.292306,0.000000,-8810.098227,-296.082377
3950.292630,222.061783,-8886.707777,0.000000
3950.292955,0.000000,-8503.660028,-222.061783
3950.293279,0.000000,-8580.269578,-148.041188
3950.293603,370.102971,-8580.269578,-444.123565
3950.293928,592.164754,-8350.440928,-296.082377
3950.294252,592.164754,-8044.002729,-222.061783
3950.294576,444.123565,-8350.440928,-296.082377
3950.294900,1406.391290,-8580.269578,-370.102971
3950.295225,666.185348,-8580.269578,-518.144159
3950.295549,888.247130,-8810.098227,-222.061783
3950.295873,814.226536,-8733.488677,-296.082377
3950.296198,666.185348,-9576.193725,222.061783
3950.296522,148.041188,-8350.440928,-370.102971
3950.296846,444.123565,-8733.488677,-296.082377
3950.297170,222.061783,-8810.098227,-814.226536
3950.297495,222.061783,-8580.269578,-222.061783
3950.297819,148.041188,-8427.050478,-148.041188
3950.298143,370.102971,-8733.488677,-444.123565
3950.298468,444.123565,-8197.221829,-666.185348
3950.298792,740.205942,-8810.098227,-666.185348
3950.299116,814.226536,-8273.831378,-370.102971
3950.299441,666.185348,-8656.879127,-222.061783
3950.299765,370.102971,-8580.269578,-444.123565
3950.300089,518.144159,-8886.707777,-518.144159
3950.300414,370.102971,-8886.707777,-518.144159
3950.300738,148.041188,-8733.488677,-518.144159
3950.301062,296.082377,-8963.317327,-518.144159
3950.301387,0.000000,-8427.050478,-518.144159
3950.301711,0.000000,-8503.660028,-370.102971
3950.302035,222.061783,-8350.440928,-296.082377
3950.302360,666.185348,-8580.269578,-666.185348
3950.302684,518.144159,-8503.660028,-370.102971
3950.303008,666.185348,-8580.269578,-296.082377
3950.303333,740.205942,-9499.584175,-296.082377
3950.303657,592.164754,-8427.050478,-592.164754
3950.303981,518.144159,-9039.926876,-444.123565
3950.304306,222.061783,-8656.879127,-444.123565
3950.304630,148.041188,-8656.879127,-296.082377
3950.304954,-74.020594,-8656.879127,-444.123565
3950.305279,74.020594,-9039.926876,-148.041188
3950.305603,-222.061783,-8273.831378,-592.164754
3950.305927,222.061783,-8733.488677,0.000000
3950.306252,148.041188,-7890.783629,-370.102971
3950.306576,518.144159,-8886.707777,0.000000
3950.306900,518.144159,-8197.221829,-296.082377
3950.307225,666.185348,-8886.707777,0.000000
3950.307549,666.185348,-8120.612279,-296.082377
3950.307873,740.205942,-8810.098227,148.041188
3950.308198,0.000000,-8580.269578,-518.144159
3950.308522,0.000000,-8963.317327,0.000000
3950.308847,0.000000,-8580.269578,-444.123565
3950.309171,-370.102971,-8580.269578,-296.082377
3950.309495,0.000000,-8273.831378,-296.082377
3950.309820,0.000000,-8427.050478,-222.061783
3950.310144,296.082377,-8350.440928,0.000000
3950.310468,74.020594,-8350.440928,-296.082377
3950.310793,518.144159,-8273.831378,0.000000
3950.311117,814.226536,-8503.660028,-222.061783
3950.311441,962.267725,-8503.660028,0.000000
3950.311766,888.247130,-8273.831378,0.000000
3950.312090,370.102971,-8886.707777,0.000000
3950.312414,148.041188,-8580.269578,-370.102971
3950.312739,0.000000,-8733.488677,222.061783
3950.313063,0.000000,-8350.440928,0.000000
3950.313387,0.000000,-8580.269578,74.020594
3950.313712,296.082377,-8197.221829,-222.061783
3950.314036,370.102971,-8273.831378,222.061783
3950.314360,962.267725,-8427.050478,-518.144159
3950.314685,888.247130,-8503.660028,0.000000
3950.315009,1184.329507,-8044.002729,-222.061783
3950.315333,1110.308913,-8810.098227,-370.102971
3950.315658,962.267725,-8733.488677,-518.144159
3950.315982,666.185348,-8350.440928,-296.082377
3950.316306,518.144159,-8656.879127,-148.041188
3950.316631,0.000000,-8886.707777,-592.164754
3950.316955,0.000000,-8733.488677,-296.082377
3950.317279,296.082377,-8273.831378,-518.144159
3950.317604,296.082377,-8580.269578,-296.082377
3950.317928,444.123565,-8273.831378,-518.144159
3950.318252,1110.308913,-8656.879127,-518.144159
3950.318577,962.267725,-8427.050478,-740.205942
3950.318901,1110.308913,-8810.098227,-888.247130
3950.319226,1184.329507,-8503.660028,-814.226536
3950.319550,888.247130,-8656.879127,-518.144159
3950.319874,666.185348,-9116.536426,-814.226536
3950.320199,0.000000,-9039.926876,-148.041188
3950.320523,148.041188,-9269.755526,-370.102971
3950.320847,-370.102971,-8733.488677,-666.185348
3950.321172,444.123565,-8656.879127,-444.123565
3950.321496,814.226536,-8580.269578,-444.123565
3950.321820,814.226536,-8580.269578,-296.082377
3950.322145,1036.288319,-7967.393179,-518.144159
3950.322469,1554.432478,-8810.098227,-296.082377
3950.322793,1332.370696,-8580.269578,-740.205942
3950.323118,888.247130,-8810.098227,-370.102971
3950.323442,370.102971,-8810.098227,-296.082377
3950.323766,0.000000,-8733.488677,-518.144159
3950.324091,-148.041188,-9193.145976,-296.082377
3950.324415,-148.041188,-8886.707777,-518.144159
3950.324739,0.000000,-8810.098227,-666.185348
3950.325064,0.000000,-8656.879127,-444.123565
3950.325388,518.144159,-8656.879127,-222.061783
3950.325712,814.226536,-7890.783629,-370.102971
3950.326037,1184.329507,-8427.050478,-222.061783
3950.326361,962.267725,-8197.221829,-370.102971
3950.326685,1036.288319,-8733.488677,0.000000
3950.327010,296.082377,-8350.440928,-444.123565
3950.327334,148.041188,-9193.145976,0.000000
3950.327658,0.000000,-8656.879127,-296.082377
3950.327983,-444.123565,-8733.488677,-148.041188
3950.328307,-444.123565,-8580.269578,-444.123565
3950.328631,-222.061783,-8656.879127,0.000000
3950.328956,0.000000,-8503.660028,0.000000
3950.329280,74.020594,-8580.269578,-296.082377
3950.329605,814.226536,-8197.221829,-518.144159
3950.329929,1036.288319,-7814.174080,-370.102971
3950.330253,1406.391290,-8580.269578,74.020594
3950.330578,1110.308913,-8427.050478,-148.041188
3950.330902,814.226536,-8350.440928,0.000000
3950.331226,666.185348,-8656.879127,-370.102971
3950.331551,-222.061783,-9422.974625,148.041188
3950.331875,-296.082377,-8886.707777,-74.020594
3950.332199,0.000000,-8427.050478,0.000000
3950.332524,0.000000,-8656.879127,-222.061783
3950.332848,-148.041188,-8503.660028,0.000000
3950.333172,370.102971,-8427.050478,-370.102971
3950.333497,814.226536,-8197.221829,-222.061783
3950.333821,1332.370696,-8503.660028,-222.061783
3950.334145,1184.329507,-8810.098227,-222.061783
3950.334470,888.247130,-8580.269578,0.000000
3950.334794,518.144159,-8810.098227,0.000000
3950.335118,148.041188,-8656.879127,-444.123565
3950.335443,148.041188,-9116.536426,0.000000
3950.335767,0.000000,-8656.879127,148.041188
3950.336091,-370.102971,-9193.145976,-148.041188
3950.336416,0.000000,-8886.707777,-666.185348
3950.336740,592.164754,-8503.660028,-296.082377
3950.337064,518.144159,-8273.831378,-962.267725
3950.337389,666.185348,-8197.221829,-370.102971
3950.337713,888.247130,-8503.660028,-296.082377
3950.338037,1036.288319,-8350.440928,-222.061783
3950.338362,1110.308913,-8197.221829,-666.185348
3950.338686,1036.288319,-8963.317327,-148.041188
3950.339010,666.185348,-8656.879127,-518.144159
3950.339335,296.082377,-8733.488677,-444.123565
3950.339659,0.000000,-9193.145976,-222.061783
3950.339984,-222.061783,-8810.098227,-370.102971
3950.340308,74.020594,-8886.707777,-740.205942
3950.340632,222.061783,-8886.707777,-814.226536
3950.340957,370.102971,-8656.879127,-518.144159
3950.341281,518.144159,-8350.440928,-592.164754
3950.341605,1702.473667,-8197.221829,-518.144159
3950.341930,1332.370696,-8273.831378,-444.123565
3950.342254,1332.370696,-8580.269578,-740.205942
3950.342578,962.267725,-8350.440928,-518.144159
3950.342903,0.000000,-9039.926876,-888.247130
3950.343227,-296.082377,-8656.879127,-740.205942
3950.343551,0.000000,-9039.926876,0.000000
3950.343876,-592.164754,-8810.098227,-444.123565
3950.344200,-592.164754,-9116.536426,-370.102971
3950.344524,-222.061783,-8350.440928,-148.041188
3950.344849,222.061783,-8733.488677,-370.102971
3950.345173,296.082377,-8044.002729,-888.247130
3950.345497,1110.308913,-8886.707777,-148.041188
3950.345822,370.102971,-8273.831378,-148.041188
3950.346146,962.267725,-8427.050478,-296.082377
3950.346470,444.123565,-8350.440928,-296.082377
3950.346795,0.000000,-9116.536426,-222.061783
3950.347119,0.000000,-8197.221829,-296.082377
3950.347443,-444.123565,-9116.536426,0.000000
3950.347768,-222.061783,-8580.269578,0.000000
3950.348092,-444.123565,-8580.269578,-222.061783
3950.348416,-296.082377,-8580.269578,0.000000
3950.348741,-222.061783,-7814.174080,0.000000
3950.349065,0.000000,-8427.050478,-148.041188
3950.349390,1036.288319,-8273.831378,-148.041188
3950.349714,1110.308913,-8273.831378,-370.102971
3950.350038,888.247130,-8810.098227,-444.123565
3950.350363,592.164754,-8580.269578,0.000000
3950.350687,518.144159,-8733.488677,-444.123565
3950.351011,74.020594,-9269.755526,-222.061783
3950.351336,0.000000,-8580.269578,0.000000
3950.351660,-148.041188,-9116.536426,0.000000
3950.351984,-148.041188,-8580.269578,0.000000
3950.352309,0.000000,-8733.488677,-148.041188
3950.352633,222.061783,-8580.269578,-148.041188
3950.352957,888.247130,-8427.050478,0.000000
3950.353282,740.205942,-7737.564530,-296.082377
3950.353606,814.226536,-8273.831378,-222.061783
3950.353930,1036.288319,-8273.831378,-222.061783
3950.354255,1406.391290,-8963.317327,-296.082377
3950.354579,518.144159,-8427.050478,-370.102971
3950.354903,296.082377,-8810.098227,0.000000
3950.355228,148.041188,-8733.488677,-222.061783
3950.355552,0.000000,-7737.564530,-222.061783
3950.355876,222.061783,-8656.879127,-148.041188
3950.356201,296.082377,-8580.269578,-370.102971
3950.356525,370.102971,-8427.050478,0.000000
3950.356849,666.185348,-8427.050478,-296.082377
3950.357174,962.267725,-8503.660028,-666.185348
3950.357498,1036.288319,-8197.221829,-518.144159
3950.357822,1480.411884,-8656.879127,-518.144159
3950.358147,1036.288319,-8503.660028,-518.144159
3950.358471,962.267725,-8503.660028,-370.102971
3950.358795,962.267725,-8580.269578,-666.185348
3950.359120,666.185348,-8886.707777,-444.123565
3950.359444,666.185348,-9116.536426,-666.185348
3950.359769,592.164754,-9193.145976,-518.144159
3950.360093,518.144159,-8580.269578,-592.164754
3950.360417,370.102971,-8733.488677,-518.144159
3950.360742,444.123565,-8580.269578,-592.164754
3950.361066,296.082377,-8580.269578,-592.164754
3950.361390,444.123565,-8733.488677,-592.164754
3950.361715,296.082377,-8427.050478,-592.164754
3950.362039,888.247130,-8733.488677,-222.061783
3950.362363,518.144159,-8580.269578,-444.123565
3950.362688,1184.329507,-8963.317327,-740.205942
3950.363012,666.185348,-8733.488677,-888.247130
3950.363336,666.185348,-8886.707777,-444.123565
3950.363661,444.123565,-8733.488677,-592.164754
3950.363985,370.102971,-8886.707777,-444.123565
3950.364309,74.020594,-8427.050478,-592.164754
3950.364634,74.020594,-8656.879127,-370.102971
3950.364958,0.000000,-8273.831378,-814.226536
3950.365282,444.123565,-8963.317327,0.000000
3950.365607,592.164754,-8273.831378,0.000000
3950.365931,666.185348,-8810.098227,-148.041188
3950.366255,444.123565,-7890.783629,-370.102971
3950.366580,1036.288319,-9116.536426,0.000000
3950.366904,1110.308913,-7737.564530,-370.102971
3950.367228,518.144159,-8810.098227,148.041188
3950.367553,518.144159,-8580.269578,-370.102971
3950.367877,148.041188,-8886.707777,0.000000
3950.368201,296.082377,-8656.879127,-518.144159
3950.368526,74.020594,-8580.269578,74.020594
3950.368850,-296.082377,-8580.269578,0.000000
3950.369174,148.041188,-8273.831378,222.061783
3950.369499,296.082377,-8273.831378,0.000000
3950.369823,222.061783,-8580.269578,-222.061783
3950.370148,666.185348,-8350.440928,-222.061783
3950.370472,444.123565,-7967.393179,0.000000
3950.370796,444.123565,-8350.440928,0.000000
3950.371121,518.144159,-8810.098227,-518.144159
3950.371445,666.185348,-8886.707777,-148.041188
3950.371769,148.041188,-8733.488677,-296.082377
3950.372094,148.041188,-8656.879127,0.000000
3950.372418,222.061783,-8810.098227,-296.082377
3950.372742,0.000000,-8733.488677,0.000000
3950.373067,518.144159,-8120.612279,-222.061783
3950.373391,444.123565,-8427.050478,-148.041188
3950.373715,518.144159,-7967.393179,-148.041188
3950.374040,1110.308913,-8120.612279,-148.041188
3950.374364,740.205942,-8427.050478,-444.123565
3950.374688,740.205942,-8503.660028,-222.061783
3950.375013,888.247130,-8503.660028,-296.082377
3950.375337,888.247130,-9116.536426,0.000000
3950.375661,444.123565,-8580.269578,-222.061783
3950.375986,444.123565,-9116.536426,-296.082377
3950.376310,444.123565,-8733.488677,-444.123565
3950.376634,444.123565,-8810.098227,-74.020594
3950.376959,296.082377,-8656.879127,-666.185348
3950.377283,592.164754,-8427.050478,-296.082377
3950.377607,444.123565,-8120.612279,-444.123565
3950.377932,148.041188,-8580.269578,-518.144159
3950.378256,814.226536,-9116.536426,0.000000
3950.378580,666.185348,-8580.269578,-370.102971
3950.378905,592.164754,-8580.269578,-592.164754
3950.379229,666.185348,-8810.098227,-666.185348
3950.379553,592.164754,-9039.926876,-296.082377
3950.379878,222.061783,-8733.488677,-740.205942
3950.380202,296.082377,-9116.536426,-296.082377
3950.380527,296.082377,-8580.269578,-518.144159
3950.380851,74.020594,-8656.879127,-518.144159
3950.381175,-222.061783,-8120.612279,-296.082377
3950.381500,370.102971,-8427.050478,-74.020594
3950.381824,370.102971,-7967.393179,-740.205942
3950.382148,296.082377,-8656.879127,-370.102971
3950.382473,222.061783,-8273.831378,-370.102971
3950.382797,370.102971,-8810.098227,-444.123565
3950.383121,444.123565,-8580.269578,-740.205942
3950.383446,222.061783,-8656.879127,0.000000
3950.383770,148.041188,-8733.488677,-740.205942
3950.384094,296.082377,-9116.536426,0.000000
3950.384419,222.061783,-8503.660028,-370.102971
3950.384743,0.000000,-8886.707777,-74.020594
3950.385067,296.082377,-8350.440928,-592.164754
3950.385392,814.226536,-8733.488677,-666.185348
3950.385716,370.102971,-8350.440928,-592.164754
3950.386040,148.041188,-8580.269578,-296.082377
3950.386365,148.041188,-8427.050478,-222.061783
3950.386689,518.144159,-8886.707777,-592.164754
3950.387013,222.061783,-8503.660028,-296.082377
3950.387338,296.082377,-8886.707777,0.000000
3950.387662,296.082377,-8197.221829,0.000000
3950.387986,222.061783,-8963.317327,0.000000
3950.388311,0.000000,-8733.488677,0.000000
3950.388635,0.000000,-8656.879127,-222.061783
3950.388959,0.000000,-8350.440928,-148.041188
3950.389284,0.000000,-8503.660028,-222.061783
3950.389608,74.020594,-7814.174080,296.082377
3950.389932,148.041188,-8427.050478,74.020594
3950.390257,222.061783,-8273.831378,0.000000
3950.390581,592.164754,-8656.879127,0.000000
3950.390906,444.123565,-9039.926876,0.000000
3950.391230,444.123565,-8503.660028,0.000000
3950.391554,518.144159,-8427.050478,0.000000
3950.391879,148.041188,-8656.879127,-74.020594
3950.392203,592.164754,-8656.879127,-296.082377
3950.392527,370.102971,-8120.612279,-222.061783
3950.392852,666.185348,-8580.269578,0.000000
3950.393176,444.123565,-8120.612279,0.000000
3950.393500,740.205942,-8733.488677,0.000000
3950.393825,296.082377,-7354.516781,-222.061783
3950.394149,518.144159,-8810.098227,0.000000
3950.394473,370.102971,-8273.831378,-370.102971
3950.394798,740.205942,-8733.488677,148.041188
3950.395122,370.102971,-8656.879127,-444.123565
3950.395446,592.164754,-8810.098227,0.000000
3950.395771,888.247130,-8580.269578,-518.144159
3950.396095,814.226536,-8963.317327,-148.041188
3950.396419,740.205942,-8427.050478,-518.144159
3950.396744,962.267725,-8580.269578,0.000000
3950.397068,518.144159,-8656.879127,-444.123565
3950.397392,666.185348,-8503.660028,-370.102971
3950.397717,518.144159,-8427.050478,-592.164754
3950.398041,888.247130,-8427.050478,-518.144159
3950.398365,444.123565,-8197.221829,-666.185348
3950.398690,370.102971,-8886.707777,-296.082377
3950.399016,666.185348,-8580.269578,-592.164754
3950.399340,518.144159,-8580.269578,-518.144159
3950.399665,592.164754,-8886.707777,-518.144159
3950.399989,296.082377,-8810.098227,-592.164754
3950.400313,518.144159,-8810.098227,-296.082377
3950.400638,444.123565,-8886.707777,-592.164754
3950.400962,592.164754,-8580.269578,-888.247130
3950.401286,444.123565,-9039.926876,-592.164754
3950.401611,592.164754,-8503.660028,-370.102971
3950.401935,518.144159,-8503.660028,-518.144159
3950.402259,592.164754,-7890.783629,0.000000
3950.402583,888.247130,-8503.660028,-444.123565
3950.402908,370.102971,-8656.879127,-814.226536
3950.403232,888.247130,-8733.488677,-370.102971
3950.403556,666.185348,-8656.879127,-592.164754
3950.403881,814.226536,-8886.707777,-370.102971
3950.404205,370.102971,-8580.269578,-518.144159
3950.404529,296.082377,-9269.755526,-296.082377
3950.404854,296.082377,-8427.050478,-666.185348
3950.405178,740.205942,-8963.317327,-222.061783
3950.405502,0.000000,-8350.440928,-518.144159
3950.405827,296.082377,-8427.050478,-370.102971
3950.406151,444.123565,-8503.660028,-370.102971
3950.406475,592.164754,-8427.050478,0.000000
3950.406800,370.102971,-8427.050478,-222.061783
3950.407124,296.082377,-8427.050478,0.000000
3950.407448,444.123565,-8580.269578,-370.102971
3950.407773,296.082377,-8503.660028,-370.102971
3950.408097,296.082377,-9039.926876,-148.041188
3950.408421,74.020594,-8427.050478,-148.041188
3950.408746,0.000000,-8350.440928,0.000000
3950.409070,74.020594,-8733.488677,0.000000
3950.409394,444.123565,-8120.612279,0.000000
3950.409718,370.102971,-8656.879127,0.000000
3950.410043,518.144159,-8120.612279,-222.061783
3950.410367,518.144159,-8120.612279,148.041188
3950.410691,518.144159,-8044.002729,-74.020594
3950.411016,666.185348,-8503.660028,0.000000
3950.411340,592.164754,-8427.050478,-370.102971
3950.411664,666.185348,-8810.098227,0.000000
3950.411989,444.123565,-8273.831378,0.000000
3950.412313,222.061783,-9039.926876,222.061783
3950.412637,222.061783,-8580.269578,-296.082377
3950.412962,370.102971,-8733.488677,-296.082377
3950.413286,370.102971,-8350.440928,-370.102971
3950.413610,666.185348,-8733.488677,74.020594
3950.413935,518.144159,-8503.660028,-222.061783
3950.414259,592.164754,-8580.269578,-148.041188
3950.414583,592.164754,-8503.660028,-296.082377
3950.414908,666.185348,-8733.488677,-148.041188
3950.415232,518.144159,-8427.050478,-592.164754
3950.415556,370.102971,-8656.879127,0.000000
3950.415881,222.061783,-8580.269578,-370.102971
3950.416205,444.123565,-8810.098227,-222.061783
3950.416529,296.082377,-8656.879127,-296.082377
3950.416853,740.205942,-8886.707777,-370.102971
3950.417178,518.144159,-8580.269578,-666.185348
3950.417502,518.144159,-8580.269578,-370.102971
3950.417826,814.226536,-8197.221829,-296.082377
3950.418151,888.247130,-8503.660028,-592.164754
3950.418475,444.123565,-8580.269578,-666.185348
3950.418799,888.247130,-8656.879127,-222.061783
3950.419124,518.144159,-8273.831378,-518.144159
3950.419448,296.082377,-9116.536426,-370.102971
3950.419772,592.164754,-8733.488677,-518.144159
3950.420097,962.267725,-9039.926876,-592.164754
3950.420421,370.102971,-8580.269578,-1036.288319
3950.420745,1258.350101,-8733.488677,-518.144159
3950.421070,814.226536,-8350.440928,-666.185348
3950.421394,444.123565,-8963.317327,-592.164754
3950.421718,444.123565,-8733.488677,-814.226536
3950.422043,148.041188,-9346.365076,-962.267725
3950.422367,148.041188,-8350.440928,-666.185348
3950.422691,-148.041188,-8427.050478,-592.164754
3950.423016,-296.082377,-8503.660028,-370.102971
3950.423340,148.041188,-8580.269578,-296.082377
3950.423664,0.000000,-8580.269578,-740.205942
3950.423988,740.205942,-8810.098227,-370.102971
3950.424313,518.144159,-8503.660028,-296.082377
3950.424637,518.144159,-8963.317327,-370.102971
3950.424961,666.185348,-8427.050478,-814.226536
3950.425286,518.144159,-9193.145976,148.041188
3950.425610,0.000000,-8427.050478,-814.226536
3950.425934,296.082377,-8810.098227,-222.061783
3950.426259,-148.041188,-8427.050478,0.000000
3950.426583,-444.123565,-8503.660028,-296.082377
3950.426907,0.000000,-8197.221829,-518.144159
3950.427232,148.041188,-8733.488677,74.020594
3950.427556,222.061783,-8350.440928,-296.082377
3950.427880,370.102971,-8427.050478,-296.082377
3950.428205,592.164754,-8733.488677,0.000000
3950.428529,444.123565,-8580.269578,0.000000
3950.428853,592.164754,-8810.098227,-666.185348
3950.429178,518.144159,-9346.365076,0.000000
3950.429502,148.041188,-8427.050478,-370.102971
3950.429826,-148.041188,-8886.707777,-444.123565
3950.430151,-222.061783,-8427.050478,0.000000
3950.430475,-296.082377,-8503.660028,0.000000
3950.430799,0.000000,-8503.660028,-370.102971
3950.431124,444.123565,-8350.440928,-148.041188
3950.431448,296.082377,-8427.050478,0.000000
3950.431772,592.164754,-8427.050478,-148.041188
3950.432096,444.123565,-8656.879127,0.000000
3950.432421,666.185348,-8656.879127,-222.061783
3950.432745,592.164754,-8120.612279,-148.041188
3950.433069,370.102971,-8427.050478,-222.061783
3950.433394,888.247130,-8656.879127,-296.082377
3950.433718,0.000000,-8503.660028,-296.082377
3950.434042,222.061783,-8503.660028,-592.164754
3950.434367,148.041188,-8503.660028,0.000000
3950.434691,296.082377,-8503.660028,0.000000
3950.435015,370.102971,-8580.269578,0.000000
3950.435340,740.205942,-8273.831378,-222.061783
3950.435664,888.247130,-8427.050478,-518.144159
3950.435988,1110.308913,-8656.879127,-296.082377
3950.436313,1184.329507,-8733.488677,0.000000
3950.436637,666.185348,-8427.050478,-296.082377
3950.436961,740.205942,-8733.488677,-666.185348
3950.437286,888.247130,-8810.098227,-518.144159
3950.437610,814.226536,-8197.221829,0.000000
3950.437934,370.102971,-8580.269578,-370.102971
3950.438259,444.123565,-8810.098227,-148.041188
3950.438583,740.205942,-8503.660028,-370.102971
3950.438907,1110.308913,-8656.879127,-592.164754
3950.439231,592.164754,-8427.050478,-740.205942
3950.439556,814.226536,-8656.879127,-444.123565
3950.439880,814.226536,-8503.660028,-296.082377
3950.440204,1036.288319,-8656.879127,-518.144159
3950.440529,740.205942,-8197.221829,-370.102971
3950.440853,666.185348,-8963.317327,-444.123565
3950.441177,74.020594,-8810.098227,-666.185348
3950.441502,148.041188,-8963.317327,0.000000
3950.441826,518.144159,-8733.488677,-222.061783
3950.442150,444.123565,-8810.098227,-592.164754
3950.442475,370.102971,-8273.831378,-666.185348
3950.442799,666.185348,-9116.536426,-370.102971
3950.443123,592.164754,-8197.221829,-962.267725
3950.443448,1258.350101,-9116.536426,-370.102971
3950.443772,592.164754,-8427.050478,-592.164754
3950.444096,444.123565,-8963.317327,-222.061783
3950.444421,370.102971,-8580.269578,-740.205942
3950.444745,518.144159,-9269.755526,-222.061783
3950.445069,0.000000,-8656.879127,-518.144159
3950.445394,148.041188,-8963.317327,-148.041188
3950.445718,222.061783,-8503.660028,-296.082377
3950.446042,518.144159,-8810.098227,-444.123565
3950.446366,666.185348,-8810.098227,-666.185348
3950.446691,518.144159,-8886.707777,0.000000
3950.447015,370.102971,-8273.831378,-222.061783
3950.447339,296.082377,-8656.879127,-222.061783
3950.447664,666.185348,-8273.831378,-370.102971
3950.447988,666.185348,-8886.707777,-296.082377
3950.448312,148.041188,-8273.831378,0.000000
3950.448637,74.020594,-8656.879127,0.000000
3950.448961,0.000000,-8120.612279,222.061783
3950.449285,0.000000,-8350.440928,0.000000
3950.449610,148.041188,-8503.660028,-222.061783
3950.449934,370.102971,-8273.831378,-370.102971
3950.450258,370.102971,-8197.221829,0.000000
3950.450583,222.061783,-8427.050478,296.082377
3950.450907,222.061783,-8273.831378,0.000000
3950.451231,740.205942,-8273.831378,-296.082377
3950.451556,518.144159,-8580.269578,-222.061783
3950.451880,814.226536,-8120.612279,0.000000
3950.452204,296.082377,-8427.050478,222.061783
3950.452529,222.061783,-8503.660028,0.000000
3950.452853,296.082377,-8120.612279,0.000000
3950.453177,296.082377,-7967.393179,-222.061783
3950.453501,518.144159,-8197.221829,-444.123565
3950.453826,370.102971,-8503.660028,-148.041188
3950.454150,296.082377,-8503.660028,-370.102971
3950.454474,814.226536,-8503.660028,-148.041188
3950.454799,740.205942,-8120.612279,-592.164754
3950.455123,1036.288319,-8656.879127,-148.041188
3950.455447,518.144159,-8044.002729,-444.123565
3950.455772,888.247130,-9039.926876,0.000000
3950.456096,518.144159,-8044.002729,-444.123565
3950.456420,666.185348,-8886.707777,0.000000
3950.456745,666.185348,-8656.879127,-518.144159
3950.457069,666.185348,-8427.050478,-148.041188
3950.457393,222.061783,-8963.317327,-592.164754
3950.457718,296.082377,-8580.269578,-296.082377
3950.458042,222.061783,-8733.488677,-518.144159
3950.458366,444.123565,-8580.269578,-666.185348
3950.458691,518.144159,-8886.707777,-592.164754
3950.459015,148.041188,-8273.831378,-666.185348
3950.459339,740.205942,-8503.660028,-370.102971
3950.459664,370.102971,-8197.221829,-370.102971
3950.459988,740.205942,-8963.317327,-592.164754
3950.460312,370.102971,-8427.050478,-962.267725
3950.460636,518.144159,-8810.098227,-592.164754
3950.460961,370.102971,-8886.707777,-370.102971
3950.461285,74.020594,-8733.488677,-518.144159
3950.461609,222.061783,-9039.926876,-592.164754
3950.461934,296.082377,-8733.488677,-666.185348
3950.462258,296.082377,-8350.440928,-444.123565
3950.462582,592.164754,-8733.488677,-518.144159
3950.462907,666.185348,-8963.317327,-518.144159
3950.463231,888.247130,-8427.050478,-518.144159
3950.463555,444.123565,-8886.707777,-740.205942
3950.463880,518.144159,-8580.269578,-592.164754
3950.464204,370.102971,-8656.879127,-518.144159
3950.464528,222.061783,-9499.584175,-444.123565
3950.464853,0.000000,-8503.660028,-592.164754
3950.465177,148.041188,-8733.488677,-222.061783
3950.465501,0.000000,-8273.831378,-518.144159
3950.465826,0.000000,-9652.803275,0.000000
3950.466150,0.000000,-8197.221829,-592.164754
3950.466474,370.102971,-8810.098227,0.000000
3950.466799,296.082377,-8273.831378,-592.164754
3950.467123,666.185348,-8580.269578,0.000000
3950.467447,740.205942,-7890.783629,-518.144159
3950.467771,222.061783,-8886.707777,0.000000
3950.468096,222.061783,-8580.269578,-518.144159
3950.468420,148.041188,-8503.660028,0.000000
3950.468744,0.000000,-8580.269578,-666.185348
3950.469069,-296.082377,-8580.269578,0.000000
3950.469393,-148.041188,-8733.488677,0.000000
3950.469717,0.000000,-8733.488677,0.000000
3950.470042,444.123565,-8197.221829,0.000000
3950.470366,74.020594,-8503.660028,0.000000
3950.470690,518.144159,-8656.879127,-222.061783
3950.471015,444.123565,-8120.612279,0.000000
3950.471339,296.082377,-8273.831378,-222.061783
3950.471663,740.205942,-8273.831378,74.020594
3950.471988,222.061783,-8273.831378,-296.082377
3950.472312,518.144159,-8886.707777,-222.061783
3950.472636,0.000000,-8273.831378,0.000000
3950.472961,592.164754,-9499.584175,148.041188
3950.473285,296.082377,-8503.660028,-148.041188
3950.473609,814.226536,-8733.488677,0.000000
3950.473934,592.164754,-8273.831378,-592.164754
3950.474258,962.267725,-8580.269578,0.000000
3950.474582,370.102971,-8197.221829,-74.020594
3950.474906,518.144159,-8503.660028,-222.061783
3950.475231,666.185348,-8503.660028,-592.164754
3950.475555,518.144159,-8503.660028,-296.082377
3950.475879,814.226536,-8120.612279,-222.061783
3950.476204,666.185348,-8733.488677,-148.041188
3950.476528,444.123565,-8733.488677,-222.061783
3950.476852,444.123565,-8580.269578,-222.061783
3950.477177,740.205942,-8503.660028,-518.144159
3950.477501,518.144159,-8733.488677,-666.185348
3950.477825,888.247130,-8427.050478,-370.102971
3950.478150,666.185348,-8656.879127,-666.185348
3950.478474,444.123565,-8503.660028,-592.164754
3950.478798,296.082377,-8120.612279,-74.020594
3950.479123,592.164754,-8810.098227,-740.205942
3950.479447,370.102971,-8810.098227,-518.144159
3950.479771,518.144159,-8733.488677,-518.144159
3950.480096,370.102971,-8810.098227,-444.123565
3950.480420,592.164754,-8886.707777,-592.164754
3950.480744,518.144159,-8963.317327,-592.164754
3950.481069,592.164754,-8886.707777,-592.164754
3950.481393,666.185348,-8580.269578,-296.082377
3950.481717,518.144159,-8810.098227,-370.102971
3950.482041,666.185348,-8656.879127,-740.205942
3950.482366,740.205942,-8810.098227,-370.102971
3950.482690,666.185348,-8503.660028,-518.144159
3950.483014,888.247130,-8656.879127,-592.164754
3950.483339,592.164754,-8963.317327,-592.164754
3950.483663,370.102971,-8503.660028,-666.185348
3950.483987,592.164754,-8580.269578,-296.082377
3950.484312,962.267725,-8810.098227,-740.205942
3950.484636,666.185348,-9039.926876,-518.144159
3950.484960,74.020594,-8427.050478,-518.144159
3950.485285,370.102971,-9116.536426,-296.082377
3950.485609,222.061783,-8197.221829,-296.082377
3950.485933,814.226536,-8503.660028,-222.061783
3950.486258,518.144159,-8503.660028,-518.144159
3950.486582,740.205942,-8656.879127,-222.061783
3950.486906,148.041188,-8503.660028,-444.123565
3950.487231,148.041188,-8580.269578,0.000000
3950.487555,0.000000,-7967.393179,-444.123565
3950.487879,0.000000,-9039.926876,0.000000
3950.488204,222.061783,-8120.612279,-370.102971
3950.488528,0.000000,-9269.755526,0.000000
3950.488852,0.000000,-8503.660028,-296.082377
3950.489177,74.020594,-8580.269578,0.000000
3950.489501,296.082377,-8503.660028,-222.061783
3950.489825,666.185348,-8733.488677,0.000000
3950.490149,888.247130,-8044.002729,74.020594
3950.490474,592.164754,-8427.050478,0.000000
3950.490798,444.123565,-8503.660028,-148.041188
3950.491122,222.061783,-8503.660028,-296.082377
3950.491447,-296.082377,-9116.536426,370.102971
3950.491771,0.000000,-8427.050478,0.000000
3950.492095,0.000000,-8503.660028,0.000000
3950.492420,222.061783,-8503.660028,0.000000
3950.492744,222.061783,-8580.269578,-296.082377
3950.493068,296.082377,-8580.269578,-148.041188
3950.493393,592.164754,-8197.221829,-148.041188
3950.493717,666.185348,-8503.660028,0.000000
3950.494041,592.164754,-8427.050478,-444.123565
3950.494366,370.102971,-8733.488677,148.041188
3950.494690,518.144159,-8580.269578,-370.102971
3950.495014,222.061783,-8733.488677,-148.041188
3950.495339,74.020594,-8733.488677,-222.061783
3950.495663,74.020594,-8273.831378,-222.061783
3950.495987,148.041188,-8580.269578,-444.123565
3950.496312,518.144159,-8656.879127,-444.123565
3950.496636,518.144159,-8656.879127,-370.102971
3950.496960,814.226536,-8350.440928,-444.123565
3950.497284,1036.288319,-8580.269578,-296.082377
3950.497609,740.205942,-8273.831378,-370.102971
3950.497933,814.226536,-8733.488677,-444.123565
3950.498257,518.144159,-8810.098227,-740.205942
3950.498582,740.205942,-8963.317327,-592.164754
3950.498906,444.123565,-8656.879127,-592.164754
3950.499230,222.061783,-8886.707777,-592.164754
3950.499555,518.144159,-8580.269578,-592.164754
3950.499879,666.185348,-9346.365076,-666.185348
3950.500203,666.185348,-8733.488677,-296.082377
3950.500528,444.123565,-8580.269578,-666.185348
3950.500852,666.185348,-8733.488677,-296.082377
3950.501176,592.164754,-8580.269578,-592.164754
3950.501500,518.144159,-8810.098227,-296.082377
3950.501825,666.185348,-9039.926876,-518.144159
3950.502149,592.164754,-8350.440928,-370.102971
3950.502473,444.123565,-8503.660028,-592.164754
3950.502798,444.123565,-8963.317327,-444.123565
3950.503122,518.144159,-8580.269578,-370.102971
3950.503446,814.226536,-9039.926876,-518.144159
3950.503770,370.102971,-8886.707777,-444.123565
3950.504095,444.123565,-9269.755526,0.000000
3950.504419,148.041188,-8273.831378,-666.185348
3950.504743,296.082377,-9116.536426,-518.144159
3950.505068,0.000000,-8044.002729,-592.164754
3950.505392,296.082377,-9116.536426,148.041188
3950.505716,-518.144159,-7660.954980,-962.267725
3950.506040,296.082377,-9269.755526,296.082377
3950.506365,0.000000,-7890.783629,-814.226536
3950.506689,592.164754,-9039.926876,-222.061783
3950.507013,518.144159,-7890.783629,-148.041188
3950.507338,370.102971,-9193.145976,148.041188
3950.507662,222.061783,-8427.050478,-592.164754
3950.507986,74.020594,-8810.098227,74.020594
3950.508311,222.061783,-8580.269578,0.000000
3950.508635,-148.041188,-9116.536426,-370.102971
3950.508959,0.000000,-8963.317327,-222.061783
3950.509283,-296.082377,-8044.002729,74.020594
3950.509608,0.000000,-8503.660028,0.000000
3950.509932,0.000000,-8656.879127,-518.144159
3950.510256,296.082377,-8656.879127,148.041188
3950.510581,0.000000,-8273.831378,-518.144159
3950.510905,296.082377,-8427.050478,-222.061783
3950.511229,518.144159,-7584.345430,222.061783
3950.511553,814.226536,-8656.879127,0.000000
3950.511878,370.102971,-8350.440928,-666.185348
3950.512202,148.041188,-8810.098227,296.082377
