#time,accel_x,accel_y,accel_z
5743.798093,0.000000,-8350.440928,74.020594
5743.798417,74.020594,-8733.488677,-518.144159
5743.798742,296.082377,-8580.269578,0.000000
5743.799067,222.061783,-8733.488677,-148.041188
5743.799392,518.144159,-8427.050478,-666.185348
5743.799717,592.164754,-8580.269578,-296.082377
5743.800042,518.144159,-8810.098227,-444.123565
5743.800367,666.185348,-8350.440928,-74.020594
5743.800692,0.000000,-8733.488677,-296.082377
5743.801017,296.082377,-8503.660028,-222.061783
5743.801341,296.082377,-8273.831378,-222.061783
5743.801666,592.164754,-8503.660028,-444.123565
5743.801991,444.123565,-8580.269578,-222.061783
5743.802316,592.164754,-8733.488677,-222.061783
5743.802641,518.144159,-8503.660028,-444.123565
5743.802966,444.123565,-8350.440928,-148.041188
5743.803291,444.123565,-8733.488677,-296.082377
5743.803616,444.123565,-8656.879127,-222.061783
5743.803941,592.164754,-8503.660028,-370.102971
5743.804266,74.020594,-8580.269578,-518.144159
5743.804590,518.144159,-8810.098227,-370.102971
5743.804915,518.144159,-8580.269578,-592.164754
5743.805240,740.205942,-8810.098227,-148.041188
5743.805565,370.102971,-8656.879127,-296.082377
5743.805890,740.205942,-8886.707777,-296.082377
5743.806215,296.082377,-8733.488677,-370.102971
5743.806540,740.205942,-8350.440928,-370.102971
5743.806865,518.144159,-8733.488677,-518.144159
5743.807190,74.020594,-8427.050478,0.000000
5743.807514,222.061783,-8733.488677,0.000000
5743.807839,74.020594,-8733.488677,-148.041188
5743.808164,740.205942,-8580.269578,0.000000
5743.808489,444.123565,-8810.098227,-518.144159
5743.808814,740.205942,-8810.098227,-370.102971
5743.809139,148.041188,-8427.050478,-444.123565
5743.809464,370.102971,-8810.098227,0.000000
5743.809789,296.082377,-8273.831378,-518.144159
5743.810114,444.123565,-8810.098227,-444.123565
5743.810439,222.061783,-8656.879127,-370.102971
5743.810763,444.123565,-8656.879127,-370.102971
5743.811088,74.020594,-8503.660028,0.000000
5743.811413,444.123565,-8656.879127,-296.082377
5743.811738,666.185348,-8273.831378,-740.205942
5743.812063,592.164754,-8733.488677,-222.061783
5743.812388,148.041188,-8580.269578,0.000000
5743.812713,296.082377,-8656.879127,-296.082377
5743.813038,518.144159,-8350.440928,-222.061783
5743.813363,296.082377,-8656.879127,-444.123565
5743.813687,370.102971,-8580.269578,-518.144159
5743.814012,518.144159,-8580.269578,-222.061783
5743.814337,666.185348,-8197.221829,-296.082377
5743.814662,296.082377,-8580.269578,-370.102971
5743.814987,444.123565,-8656.879127,-518.144159
5743.815312,888.247130,-8656.879127,-592.164754
5743.815637,592.164754,-8273.831378,-518.144159
5743.815962,518.144159,-8733.488677,-296.082377
5743.816287,518.144159,-8656.879127,-444.123565
5743.816612,296.082377,-8503.660028,-444.123565
5743.816936,370.102971,-8580.269578,-814.226536
5743.817261,148.041188,-8580.269578,-592.164754
5743.817586,518.144159,-8580.269578,-370.102971
5743.817911,296.082377,-8503.660028,-518.144159
5743.818236,370.102971,-8886.707777,-740.205942
5743.818561,370.102971,-8733.488677,-592.164754
5743.818886,592.164754,-8580.269578,-592.164754
5743.819211,592.164754,-8886.707777,-888.247130
5743.819536,592.164754,-8580.269578,-518.144159
5743.819860,296.082377,-8503.660028,-740.205942
5743.820185,370.102971,-8733.488677,-666.185348
5743.820510,370.102971,-8427.050478,-888.247130
5743.820835,592.164754,-8810.098227,-962.267725
5743.821160,518.144159,-8580.269578,-888.247130
5743.821485,148.041188,-8427.050478,-666.185348
5743.821810,592.164754,-8580.269578,-1036.288319
5743.822135,0.000000,-8733.488677,-296.082377
5743.822460,592.164754,-8963.317327,-888.247130
5743.822785,296.082377,-8656.879127,-888.247130
5743.823109,222.061783,-8580.269578,-592.164754
5743.823434,444.123565,-8656.879127,-814.226536
5743.823759,444.123565,-8580.269578,-592.164754
5743.824084,592.164754,-8810.098227,-1110.308913
5743.824409,888.247130,-8580.269578,-1110.308913
5743.824734,148.041188,-8503.660028,-740.205942
5743.825059,0.000000,-8733.488677,-370.102971
5743.825384,296.082377,-8580.269578,-666.185348
5743.825709,666.185348,-8350.440928,-962.267725
5743.826033,518.144159,-8656.879127,-888.247130
5743.826358,518.144159,-8810.098227,-592.164754
5743.826683,592.164754,-8963.317327,-740.205942
5743.827008,296.082377,-8503.660028,-666.185348
5743.827333,444.123565,-8580.269578,-740.205942
5743.827658,444.123565,-8656.879127,-814.226536
5743.827983,518.144159,-8656.879127,-370.102971
5743.828308,444.123565,-8350.440928,-740.205942
5743.828633,666.185348,-8810.098227,-666.185348
5743.828958,444.123565,-8350.440928,-814.226536
5743.829282,814.226536,-8656.879127,-148.041188
5743.829607,370.102971,-8503.660028,-740.205942
5743.829932,444.123565,-8810.098227,-370.102971
5743.830257,444.123565,-8350.440928,-444.123565
5743.830582,296.082377,-8580.269578,222.061783
5743.830907,370.102971,-8427.050478,-518.144159
5743.831232,296.082377,-8810.098227,-148.041188
5743.831557,592.164754,-8427.050478,-296.082377
5743.831882,370.102971,-8733.488677,-222.061783
5743.832206,518.144159,-8503.660028,-222.061783
5743.832531,518.144159,-8656.879127,-370.102971
5743.832856,666.185348,-8580.269578,-370.102971
5743.833181,74.020594,-8350.440928,0.000000
5743.833506,296.082377,-8120.612279,148.041188
5743.833831,518.144159,-8580.269578,0.000000
5743.834156,370.102971,-8503.660028,0.000000
5743.834481,296.082377,-8886.707777,0.000000
5743.834806,592.164754,-8810.098227,0.000000
5743.835131,740.205942,-8503.660028,148.041188
5743.835455,296.082377,-8810.098227,74.020594
5743.835780,518.144159,-8503.660028,148.041188
5743.836105,444.123565,-8580.269578,74.020594
5743.836430,518.144159,-8810.098227,0.000000
5743.836755,74.020594,-8503.660028,74.020594
5743.837080,148.041188,-8350.440928,296.082377
5743.837405,148.041188,-8580.269578,222.061783
5743.837730,1036.288319,-8044.002729,0.000000
5743.838055,666.185348,-9193.145976,0.000000
5743.838379,148.041188,-8350.440928,74.020594
5743.838704,296.082377,-8886.707777,444.123565
5743.839029,370.102971,-8733.488677,370.102971
5743.839354,666.185348,-8503.660028,222.061783
5743.839679,518.144159,-9039.926876,0.000000
5743.840004,222.061783,-8503.660028,222.061783
5743.840329,148.041188,-8733.488677,0.000000
5743.840654,740.205942,-8350.440928,0.000000
5743.840979,592.164754,-8580.269578,0.000000
5743.841304,222.061783,-8580.269578,0.000000
5743.841628,222.061783,-8733.488677,0.000000
5743.841953,1036.288319,-8656.879127,74.020594
5743.842278,666.185348,-8580.269578,74.020594
5743.842603,222.061783,-8733.488677,222.061783
5743.842928,444.123565,-8273.831378,0.000000
5743.843253,666.185348,-8580.269578,0.000000
5743.843578,814.226536,-8733.488677,0.000000
5743.843903,592.164754,-8810.098227,222.061783
5743.844228,370.102971,-8733.488677,296.082377
5743.844552,518.144159,-8350.440928,0.000000
5743.844877,666.185348,-9422.974625,0.000000
5743.845202,444.123565,-8580.269578,0.000000
5743.845527,296.082377,-8580.269578,0.000000
5743.845852,222.061783,-8656.879127,0.000000
5743.846177,74.020594,-8810.098227,0.000000
5743.846502,444.123565,-8427.050478,0.000000
5743.846827,518.144159,-8963.317327,-370.102971
5743.847152,592.164754,-8580.269578,0.000000
5743.847477,666.185348,-8273.831378,-296.082377
5743.847801,592.164754,-8580.269578,-370.102971
5743.848126,444.123565,-8503.660028,-222.061783
5743.848451,666.185348,-8580.269578,-370.102971
5743.848776,444.123565,-8580.269578,-222.061783
5743.849101,370.102971,-8580.269578,-518.144159
5743.849426,148.041188,-8580.269578,-444.123565
5743.849751,74.020594,-8656.879127,-222.061783
5743.850076,296.082377,-8810.098227,-444.123565
5743.850401,222.061783,-9193.145976,-740.205942
5743.850725,592.164754,-8580.269578,-296.082377
5743.851050,74.020594,-8580.269578,-370.102971
5743.851375,518.144159,-8733.488677,-296.082377
5743.851700,592.164754,-8350.440928,-740.205942
5743.852025,444.123565,-9346.365076,0.000000
5743.852350,518.144159,-8197.221829,-666.185348
5743.852675,444.123565,-8810.098227,-444.123565
5743.853000,74.020594,-8656.879127,-518.144159
5743.853325,74.020594,-9116.536426,-370.102971
5743.853649,74.020594,-8656.879127,-592.164754
5743.853973,222.061783,-8733.488677,-370.102971
5743.854298,222.061783,-8427.050478,-444.123565
5743.854622,370.102971,-8886.707777,-518.144159
5743.854947,296.082377,-8656.879127,-740.205942
5743.855271,740.205942,-8886.707777,-592.164754
5743.855595,1036.288319,-8963.317327,-814.226536
5743.855920,888.247130,-8656.879127,-592.164754
5743.856244,370.102971,-8044.002729,-1036.288319
5743.856569,666.185348,-8427.050478,-888.247130
5743.856893,444.123565,-8580.269578,-814.226536
5743.857217,222.061783,-8503.660028,-592.164754
5743.857542,148.041188,-8503.660028,-1258.350101
5743.857866,0.000000,-8503.660028,-814.226536
5743.858191,74.020594,-8580.269578,-962.267725
5743.858515,444.123565,-8810.098227,-296.082377
5743.858839,814.226536,-8963.317327,-666.185348
5743.859164,1110.308913,-8963.317327,-740.205942
5743.859488,1036.288319,-8580.269578,-296.082377
5743.859813,1036.288319,-9039.926876,-518.144159
5743.860137,666.185348,-8580.269578,-666.185348
5743.860461,814.226536,-9269.755526,-222.061783
5743.860786,370.102971,-8656.879127,-1110.308913
5743.861110,0.000000,-8427.050478,-740.205942
5743.861435,148.041188,-8810.098227,-888.247130
5743.861759,74.020594,-8503.660028,-370.102971
5743.862083,148.041188,-8886.707777,-444.123565
5743.862408,222.061783,-8350.440928,-370.102971
5743.862732,814.226536,-8580.269578,0.000000
5743.863057,666.185348,-8427.050478,0.000000
5743.863381,1036.288319,-8733.488677,0.000000
5743.863705,592.164754,-8197.221829,0.000000
5743.864030,518.144159,-8656.879127,-370.102971
5743.864354,370.102971,-8580.269578,-518.144159
5743.864679,-74.020594,-9116.536426,222.061783
5743.865003,0.000000,-8580.269578,-444.123565
5743.865328,-296.082377,-8503.660028,-296.082377
5743.865652,296.082377,-8503.660028,-148.041188
5743.865976,222.061783,-9193.145976,0.000000
5743.866301,222.061783,-8120.612279,0.000000
5743.866625,222.061783,-8656.879127,0.000000
5743.866950,666.185348,-8733.488677,222.061783
5743.867274,1036.288319,-8350.440928,148.041188
5743.867598,1258.350101,-8580.269578,222.061783
5743.867923,740.205942,-8580.269578,0.000000
5743.868247,370.102971,-8656.879127,0.000000
5743.868572,148.041188,-8656.879127,0.000000
5743.868896,-296.082377,-8120.612279,444.123565
5743.869220,0.000000,-8427.050478,148.041188
5743.869545,-148.041188,-8350.440928,148.041188
5743.869869,148.041188,-8503.660028,296.082377
5743.870194,592.164754,-8350.440928,222.061783
5743.870518,1036.288319,-8656.879127,444.123565
5743.870842,962.267725,-8273.831378,518.144159
5743.871167,1110.308913,-8580.269578,296.082377
5743.871491,740.205942,-8580.269578,518.144159
5743.871816,518.144159,-8120.612279,592.164754
5743.872140,370.102971,-8656.879127,222.061783
5743.872464,222.061783,-8197.221829,74.020594
5743.872789,148.041188,-8273.831378,0.000000
5743.873113,518.144159,-8580.269578,444.123565
5743.873438,370.102971,-8044.002729,0.000000
5743.873762,518.144159,-8656.879127,222.061783
5743.874086,370.102971,-8503.660028,0.000000
5743.874411,740.205942,-8503.660028,444.123565
5743.874735,1036.288319,-8503.660028,74.020594
5743.875060,962.267725,-8733.488677,592.164754
5743.875384,666.185348,-8580.269578,444.123565
5743.875708,444.123565,-8886.707777,148.041188
5743.876033,1110.308913,-8580.269578,0.000000
5743.876357,148.041188,-8427.050478,-222.061783
5743.876682,148.041188,-8350.440928,-296.082377
5743.877006,-222.061783,-8580.269578,-296.082377
5743.877330,148.041188,-8503.660028,-370.102971
5743.877655,370.102971,-8427.050478,0.000000
5743.877979,518.144159,-8580.269578,-296.082377
5743.878304,740.205942,-8810.098227,148.041188
5743.878628,592.164754,-8656.879127,0.000000
5743.878952,1036.288319,-8656.879127,0.000000
5743.879277,592.164754,-8656.879127,-148.041188
5743.879601,666.185348,-8810.098227,-518.144159
5743.879926,222.061783,-8656.879127,-592.164754
5743.880250,296.082377,-8273.831378,-222.061783
5743.880574,0.000000,-8503.660028,-592.164754
5743.880899,0.000000,-8503.660028,-666.185348
5743.881223,0.000000,-8503.660028,-592.164754
5743.881548,370.102971,-8120.612279,-222.061783
5743.881872,148.041188,-8503.660028,-370.102971
5743.882196,370.102971,-8733.488677,-444.123565
5743.882521,592.164754,-8656.879127,-518.144159
5743.882845,592.164754,-9193.145976,0.000000
5743.883170,666.185348,-8580.269578,-518.144159
5743.883494,592.164754,-8656.879127,-222.061783
5743.883818,518.144159,-8427.050478,-740.205942
5743.884143,296.082377,-8273.831378,-666.185348
5743.884467,444.123565,-9269.755526,-148.041188
5743.884792,296.082377,-8503.660028,-592.164754
5743.885116,518.144159,-8503.660028,-666.185348
5743.885440,74.020594,-8963.317327,0.000000
5743.885765,296.082377,-8810.098227,0.000000
5743.886089,592.164754,-8733.488677,148.041188
5743.886414,814.226536,-8350.440928,0.000000
5743.886738,740.205942,-8810.098227,-370.102971
5743.887062,814.226536,-8273.831378,-148.041188
5743.887387,74.020594,-8580.269578,148.041188
5743.887711,444.123565,-8427.050478,-296.082377
5743.888036,222.061783,-8350.440928,-148.041188
5743.888360,222.061783,-8350.440928,-222.061783
5743.888684,0.000000,-7814.174080,-666.185348
5743.889009,222.061783,-8503.660028,-148.041188
5743.889333,370.102971,-8580.269578,74.020594
5743.889658,148.041188,-8886.707777,148.041188
5743.889982,592.164754,-8810.098227,296.082377
5743.890306,666.185348,-8656.879127,0.000000
5743.890631,814.226536,-8427.050478,222.061783
5743.890955,592.164754,-8350.440928,-222.061783
5743.891280,444.123565,-8733.488677,0.000000
5743.891604,666.185348,-8886.707777,-518.144159
5743.891928,370.102971,-8733.488677,0.000000
5743.892253,0.000000,-8733.488677,0.000000
5743.892577,0.000000,-8810.098227,-296.082377
5743.892902,148.041188,-9729.412825,0.000000
5743.893226,0.000000,-8503.660028,0.000000
5743.893550,518.144159,-8656.879127,-370.102971
5743.893875,296.082377,-8580.269578,222.061783
5743.894199,740.205942,-8427.050478,74.020594
5743.894524,518.144159,-8656.879127,-74.020594
5743.894848,814.226536,-9116.536426,-296.082377
5743.895172,518.144159,-8580.269578,-296.082377
5743.895497,370.102971,-8733.488677,-370.102971
5743.895821,74.020594,-8733.488677,-370.102971
5743.896146,296.082377,-8733.488677,-296.082377
5743.896470,148.041188,-8503.660028,-444.123565
5743.896794,222.061783,-9039.926876,-148.041188
5743.897119,222.061783,-9422.974625,-888.247130
5743.897443,888.247130,-8350.440928,-222.061783
5743.897768,666.185348,-8427.050478,-296.082377
5743.898092,592.164754,-8810.098227,0.000000
5743.898416,518.144159,-8427.050478,-148.041188
5743.898741,666.185348,-8733.488677,0.000000
5743.899065,666.185348,-8886.707777,-444.123565
5743.899390,222.061783,-8886.707777,-962.267725
5743.899714,296.082377,-8810.098227,-444.123565
5743.900038,-370.102971,-8886.707777,0.000000
5743.900363,222.061783,-8810.098227,-592.164754
5743.900687,222.061783,-8427.050478,-666.185348
5743.901012,592.164754,-8580.269578,0.000000
5743.901336,74.020594,-9346.365076,-444.123565
5743.901660,592.164754,-8733.488677,-592.164754
5743.901985,592.164754,-8733.488677,-592.164754
5743.902309,518.144159,-8810.098227,-296.082377
5743.902634,592.164754,-8350.440928,-592.164754
5743.902958,444.123565,-8350.440928,-592.164754
5743.903282,518.144159,-8120.612279,-888.247130
5743.903607,296.082377,-8733.488677,-740.205942
5743.903931,370.102971,-8810.098227,-1258.350101
5743.904256,666.185348,-8503.660028,-962.267725
5743.904580,444.123565,-8350.440928,-814.226536
5743.904904,74.020594,-8197.221829,-740.205942
5743.905229,296.082377,-8273.831378,-814.226536
5743.905553,518.144159,-8427.050478,-740.205942
5743.905878,518.144159,-8886.707777,-740.205942
5743.906202,222.061783,-9039.926876,-888.247130
5743.906526,222.061783,-8427.050478,-1184.329507
5743.906851,814.226536,-8963.317327,-814.226536
5743.907175,740.205942,-8273.831378,-740.205942
5743.907500,444.123565,-8733.488677,-962.267725
5743.907824,444.123565,-8044.002729,-1110.308913
5743.908148,74.020594,-8427.050478,-666.185348
5743.908473,0.000000,-9039.926876,-592.164754
5743.908797,222.061783,-8580.269578,-1036.288319
5743.909122,444.123565,-8656.879127,-814.226536
5743.909446,222.061783,-8503.660028,-666.185348
5743.909770,296.082377,-8656.879127,-592.164754
5743.910095,444.123565,-8273.831378,-518.144159
5743.910419,518.144159,-8963.317327,-740.205942
5743.910744,222.061783,-8810.098227,-888.247130
5743.911068,444.123565,-8963.317327,-1258.350101
5743.911392,370.102971,-8273.831378,-740.205942
5743.911717,148.041188,-8427.050478,-962.267725
5743.912041,74.020594,-8733.488677,-888.247130
5743.912366,518.144159,-8580.269578,-962.267725
5743.912690,592.164754,-8503.660028,-370.102971
5743.913014,222.061783,-8963.317327,-666.185348
5743.913339,370.102971,-8503.660028,-814.226536
5743.913663,296.082377,-8886.707777,-518.144159
5743.913988,444.123565,-8656.879127,-666.185348
5743.914312,1110.308913,-8810.098227,-962.267725
5743.914637,962.267725,-8427.050478,-666.185348
5743.914961,888.247130,-7967.393179,-370.102971
5743.915285,814.226536,-8580.269578,-592.164754
5743.915610,1258.350101,-9193.145976,-888.247130
5743.915934,814.226536,-8656.879127,-740.205942
5743.916259,518.144159,-8427.050478,-518.144159
5743.916583,296.082377,-8810.098227,-296.082377
5743.916907,592.164754,-8120.612279,-222.061783
5743.917232,666.185348,-8503.660028,-370.102971
5743.917556,666.185348,-8580.269578,-518.144159
5743.917881,740.205942,-9116.536426,-296.082377
5743.918205,1110.308913,-8810.098227,-814.226536
5743.918529,1036.288319,-8197.221829,-222.061783
5743.918854,518.144159,-8656.879127,-518.144159
5743.919178,296.082377,-8810.098227,-296.082377
5743.919503,444.123565,-8580.269578,-296.082377
5743.919827,518.144159,-9576.193725,74.020594
5743.920151,148.041188,-8810.098227,-148.041188
5743.920476,296.082377,-9039.926876,-296.082377
5743.920800,370.102971,-8503.660028,-74.020594
5743.921125,296.082377,-8656.879127,74.020594
5743.921449,296.082377,-8963.317327,148.041188
5743.921773,814.226536,-8427.050478,0.000000
5743.922098,444.123565,-8427.050478,74.020594
5743.922422,444.123565,-8580.269578,-222.061783
5743.922747,518.144159,-9269.755526,-444.123565
5743.923071,148.041188,-8503.660028,-666.185348
5743.923395,148.041188,-8580.269578,0.000000
5743.923720,222.061783,-8503.660028,-222.061783
5743.924044,740.205942,-8580.269578,-296.082377
5743.924369,518.144159,-8350.440928,-370.102971
5743.924693,296.082377,-8810.098227,-296.082377
5743.925017,444.123565,-8886.707777,-592.164754
5743.925342,296.082377,-8350.440928,0.000000
5743.925666,0.000000,-8503.660028,0.000000
5743.925991,296.082377,-8656.879127,0.000000
5743.926315,518.144159,-8197.221829,-296.082377
5743.926639,962.267725,-8427.050478,-222.061783
5743.926964,370.102971,-8656.879127,-666.185348
5743.927288,74.020594,-9039.926876,-518.144159
5743.927613,0.000000,-8503.660028,-518.144159
5743.927937,148.041188,-8580.269578,-74.020594
5743.928261,740.205942,-8963.317327,-666.185348
5743.928586,518.144159,-8656.879127,-666.185348
5743.928910,740.205942,-8120.612279,-370.102971
5743.929235,666.185348,-8656.879127,-518.144159
5743.929559,518.144159,-8963.317327,-962.267725
5743.929883,592.164754,-8810.098227,-740.205942
5743.930208,518.144159,-8427.050478,-666.185348
5743.930532,74.020594,-8580.269578,-740.205942
5743.930857,518.144159,-8120.612279,-1184.329507
5743.931181,814.226536,-8273.831378,-740.205942
5743.931505,444.123565,-8273.831378,-888.247130
5743.931830,444.123565,-8580.269578,-1184.329507
5743.932154,296.082377,-8733.488677,-1110.308913
5743.932479,740.205942,-8350.440928,-814.226536
5743.932803,592.164754,-8810.098227,-814.226536
5743.933127,518.144159,-8273.831378,-740.205942
5743.933452,814.226536,-8044.002729,-740.205942
5743.933776,666.185348,-8656.879127,-666.185348
5743.934101,518.144159,-8886.707777,-962.267725
5743.934425,518.144159,-9039.926876,-740.205942
5743.934749,148.041188,-8580.269578,-888.247130
5743.935074,370.102971,-8427.050478,-666.185348
5743.935398,592.164754,-8197.221829,-592.164754
5743.935723,444.123565,-8197.221829,-370.102971
5743.936047,222.061783,-8273.831378,-740.205942
5743.936371,222.061783,-8886.707777,-592.164754
5743.936696,74.020594,-8963.317327,-814.226536
5743.937020,740.205942,-8580.269578,-888.247130
5743.937345,296.082377,-8580.269578,-666.185348
5743.937669,222.061783,-8580.269578,-296.082377
5743.937993,444.123565,-8733.488677,-814.226536
5743.938318,370.102971,-8350.440928,-222.061783
5743.938642,296.082377,-8886.707777,-444.123565
5743.938967,370.102971,-8810.098227,-814.226536
5743.939291,148.041188,-8120.612279,-444.123565
5743.939615,444.123565,-8963.317327,-888.247130
5743.939940,444.123565,-8810.098227,-444.123565
5743.940264,518.144159,-8427.050478,-592.164754
5743.940589,814.226536,-8733.488677,-222.061783
5743.940913,740.205942,-8350.440928,-370.102971
5743.941237,814.226536,-8656.879127,-296.082377
5743.941562,518.144159,-8580.269578,-296.082377
5743.941886,444.123565,-8427.050478,74.020594
5743.942211,370.102971,-8580.269578,-666.185348
5743.942535,1110.308913,-8886.707777,-444.123565
5743.942859,444.123565,-8503.660028,-148.041188
5743.943184,148.041188,-9116.536426,0.000000
5743.943508,222.061783,-8580.269578,-518.144159
5743.943833,296.082377,-9882.631924,0.000000
5743.944157,518.144159,-8427.050478,-148.041188
5743.944481,0.000000,-8733.488677,0.000000
5743.944806,444.123565,-8503.660028,0.000000
5743.945130,518.144159,-8273.831378,74.020594
5743.945455,370.102971,-8273.831378,74.020594
5743.945779,222.061783,-8580.269578,-296.082377
5743.946103,518.144159,-8503.660028,-222.061783
5743.946428,296.082377,-8427.050478,-222.061783
5743.946752,148.041188,-8886.707777,74.020594
5743.947077,518.144159,-8427.050478,0.000000
5743.947401,592.164754,-8350.440928,-296.082377
5743.947725,740.205942,-8503.660028,-222.061783
5743.948050,370.102971,-8580.269578,-148.041188
5743.948374,666.185348,-8810.098227,0.000000
5743.948699,222.061783,-8580.269578,-296.082377
5743.949023,666.185348,-8810.098227,-518.144159
5743.949347,888.247130,-8273.831378,-592.164754
5743.949672,740.205942,-8656.879127,-592.164754
5743.949996,370.102971,-8273.831378,-444.123565
5743.950321,518.144159,-8580.269578,0.000000
5743.950645,592.164754,-8733.488677,-518.144159
5743.950969,518.144159,-9422.974625,222.061783
5743.951294,222.061783,-8656.879127,-296.082377
5743.951618,296.082377,-8810.098227,0.000000
5743.951943,592.164754,-8656.879127,0.000000
5743.952267,1036.288319,-9039.926876,-148.041188
5743.952591,814.226536,-8963.317327,-296.082377
5743.952916,518.144159,-8656.879127,-222.061783
5743.953240,518.144159,-8427.050478,-370.102971
5743.953565,296.082377,-8580.269578,-222.061783
5743.953889,74.020594,-8733.488677,0.000000
5743.954214,518.144159,-8656.879127,-296.082377
5743.954538,592.164754,-8350.440928,-370.102971
5743.954863,370.102971,-8963.317327,-296.082377
5743.955187,148.041188,-8733.488677,0.000000
5743.955512,148.041188,-8503.660028,-444.123565
5743.955836,222.061783,-8580.269578,-444.123565
5743.956161,296.082377,-8733.488677,-592.164754
5743.956485,296.082377,-8733.488677,-444.123565
5743.956810,296.082377,-8197.221829,-592.164754
5743.957134,518.144159,-8810.098227,-148.041188
5743.957459,296.082377,-8427.050478,-592.164754
5743.957783,444.123565,-8886.707777,-444.123565
5743.958108,222.061783,-8886.707777,-222.061783
5743.958432,296.082377,-8503.660028,-222.061783
5743.958757,296.082377,-8656.879127,-296.082377
5743.959081,666.185348,-8350.440928,-592.164754
5743.959406,814.226536,-8656.879127,-148.041188
5743.959730,740.205942,-8810.098227,-518.144159
5743.960055,518.144159,-8197.221829,-518.144159
5743.960380,518.144159,-8350.440928,-444.123565
5743.960704,296.082377,-8810.098227,0.000000
5743.961029,444.123565,-8656.879127,0.000000
5743.961353,148.041188,-8580.269578,-592.164754
5743.961678,740.205942,-8580.269578,-296.082377
5743.962002,444.123565,-8656.879127,-222.061783
5743.962327,444.123565,-8656.879127,74.020594
5743.962651,296.082377,-8427.050478,-370.102971
5743.962976,592.164754,-8503.660028,-222.061783
5743.963300,444.123565,-8656.879127,0.000000
5743.963625,666.185348,-7890.783629,0.000000
5743.963949,518.144159,-8197.221829,0.000000
5743.964274,666.185348,-8886.707777,-296.082377
5743.964598,518.144159,-8656.879127,-444.123565
5743.964923,518.144159,-8656.879127,-518.144159
5743.965247,370.102971,-8656.879127,0.000000
5743.965572,296.082377,-8503.660028,0.000000
5743.965896,444.123565,-8810.098227,0.000000
5743.966221,518.144159,-8044.002729,-444.123565
5743.966545,222.061783,-9039.926876,0.000000
5743.966870,370.102971,-8427.050478,-666.185348
5743.967195,444.123565,-8656.879127,-370.102971
5743.967519,0.000000,-8503.660028,0.000000
5743.967844,370.102971,-8963.317327,0.000000
5743.968168,222.061783,-8733.488677,-518.144159
5743.968493,370.102971,-8580.269578,-148.041188
5743.968817,296.082377,-9116.536426,0.000000
5743.969142,370.102971,-8810.098227,-148.041188
5743.969466,666.185348,-8810.098227,74.020594
5743.969791,518.144159,-8580.269578,222.061783
5743.970115,370.102971,-8733.488677,74.020594
5743.970440,148.041188,-8427.050478,222.061783
5743.970764,148.041188,-8810.098227,740.205942
5743.971089,296.082377,-8810.098227,148.041188
5743.971413,740.205942,-8810.098227,0.000000
5743.971738,666.185348,-8733.488677,0.000000
5743.972062,444.123565,-8733.488677,222.061783
5743.972387,296.082377,-8810.098227,0.000000
5743.972711,370.102971,-8503.660028,0.000000
5743.973036,518.144159,-8656.879127,0.000000
5743.973360,444.123565,-8427.050478,0.000000
5743.973685,1184.329507,-9193.145976,0.000000
5743.974010,296.082377,-8273.831378,-222.061783
5743.974334,370.102971,-8733.488677,-222.061783
5743.974659,74.020594,-8886.707777,74.020594
5743.974983,666.185348,-8963.317327,370.102971
5743.975308,666.185348,-8656.879127,-370.102971
5743.975632,518.144159,-8733.488677,148.041188
5743.975957,444.123565,-9039.926876,222.061783
5743.976281,444.123565,-8886.707777,-222.061783
5743.976606,370.102971,-8886.707777,0.000000
5743.976930,370.102971,-8810.098227,0.000000
5743.977255,518.144159,-8427.050478,-222.061783
5743.977579,222.061783,-7967.393179,-444.123565
5743.977904,444.123565,-8733.488677,518.144159
5743.978228,296.082377,-8580.269578,0.000000
5743.978553,592.164754,-8733.488677,-222.061783
5743.978877,148.041188,-8656.879127,-148.041188
5743.979202,444.123565,-8580.269578,518.144159
5743.979526,222.061783,-8427.050478,0.000000
5743.979851,444.123565,-8273.831378,-296.082377
5743.980175,370.102971,-7967.393179,-148.041188
5743.980500,74.020594,-8810.098227,0.000000
5743.980825,296.082377,-8580.269578,-444.123565
5743.981149,148.041188,-8427.050478,0.000000
5743.981474,0.000000,-8656.879127,0.000000
5743.981798,0.000000,-8273.831378,-148.041188
5743.982123,888.247130,-8963.317327,-148.041188
5743.982447,222.061783,-8120.612279,-148.041188
5743.982772,518.144159,-8580.269578,0.000000
5743.983096,148.041188,-8733.488677,0.000000
5743.983421,296.082377,-7967.393179,-296.082377
5743.983745,444.123565,-8427.050478,-518.144159
5743.984070,148.041188,-8580.269578,-74.020594
5743.984394,592.164754,-8427.050478,-296.082377
5743.984719,222.061783,-8503.660028,-370.102971
5743.985043,148.041188,-8273.831378,0.000000
5743.985368,0.000000,-8120.612279,-296.082377
5743.985692,74.020594,-8656.879127,-296.082377
5743.986017,296.082377,-8427.050478,-518.144159
5743.986341,296.082377,-8197.221829,296.082377
5743.986666,296.082377,-8733.488677,0.000000
5743.986990,444.123565,-8120.612279,-444.123565
5743.987315,444.123565,-8197.221829,0.000000
5743.987640,518.144159,-8580.269578,370.102971
5743.987964,370.102971,-8197.221829,0.000000
5743.988289,370.102971,-8733.488677,-222.061783
5743.988613,0.000000,-8197.221829,296.082377
5743.988938,222.061783,-8733.488677,148.041188
5743.989262,296.082377,-8197.221829,-370.102971
5743.989587,296.082377,-8580.269578,222.061783
5743.989911,592.164754,-8656.879127,222.061783
5743.990236,444.123565,-8656.879127,0.000000
5743.990560,518.144159,-8733.488677,-148.041188
5743.990885,222.061783,-8733.488677,-148.041188
5743.991209,222.061783,-8427.050478,-148.041188
5743.991534,74.020594,-8427.050478,-222.061783
5743.991858,222.061783,-8350.440928,-148.041188
5743.992183,666.185348,-8733.488677,-222.061783
5743.992507,518.144159,-8580.269578,-666.185348
5743.992832,148.041188,-9039.926876,-370.102971
5743.993156,222.061783,-8273.831378,-370.102971
5743.993481,666.185348,-8427.050478,-222.061783
5743.993805,296.082377,-8656.879127,-518.144159
5743.994130,444.123565,-8427.050478,-592.164754
5743.994455,592.164754,-9039.926876,-444.123565
5743.994779,370.102971,-8350.440928,-74.020594
5743.995104,444.123565,-8810.098227,-592.164754
5743.995428,296.082377,-8886.707777,-370.102971
5743.995753,222.061783,-8580.269578,-222.061783
5743.996077,592.164754,-8810.098227,-592.164754
5743.996402,518.144159,-8427.050478,-666.185348
5743.996726,666.185348,-8656.879127,0.000000
5743.997051,370.102971,-8886.707777,-222.061783
5743.997375,370.102971,-9116.536426,-296.082377
5743.997700,148.041188,-8656.879127,-296.082377
5743.998024,222.061783,-8733.488677,0.000000
5743.998349,74.020594,-8810.098227,0.000000
5743.998673,444.123565,-8427.050478,-370.102971
5743.998998,666.185348,-8503.660028,-74.020594
5743.999322,592.164754,-8580.269578,0.000000
5743.999647,370.102971,-8963.317327,-592.164754
5743.999971,222.061783,-8733.488677,-518.144159
5744.000296,0.000000,-8427.050478,-296.082377
5744.000620,444.123565,-8733.488677,-444.123565
5744.000945,370.102971,-8427.050478,-518.144159
5744.001270,592.164754,-8656.879127,-592.164754
5744.001594,592.164754,-8580.269578,-148.041188
5744.001919,296.082377,-8656.879127,-962.267725
5744.002243,222.061783,-8810.098227,-518.144159
5744.002568,518.144159,-8503.660028,-222.061783
5744.002892,518.144159,-8427.050478,-518.144159
5744.003217,666.185348,-8656.879127,-666.185348
5744.003541,592.164754,-8197.221829,-444.123565
5744.003866,592.164754,-8580.269578,-518.144159
5744.004190,444.123565,-8580.269578,-592.164754
5744.004515,592.164754,-8656.879127,-666.185348
5744.004839,148.041188,-8580.269578,-592.164754
5744.005164,370.102971,-8044.002729,0.000000
5744.005488,444.123565,-8197.221829,-222.061783
5744.005813,888.247130,-7967.393179,-370.102971
5744.006137,814.226536,-8350.440928,-370.102971
5744.006462,592.164754,-8810.098227,-296.082377
5744.006786,222.061783,-8503.660028,-592.164754
5744.007111,370.102971,-8427.050478,-592.164754
5744.007435,296.082377,-8197.221829,-370.102971
5744.007760,370.102971,-8580.269578,-370.102971
5744.008085,444.123565,-8427.050478,-592.164754
5744.008409,592.164754,-8350.440928,-370.102971
5744.008734,370.102971,-8733.488677,-74.020594
5744.009058,666.185348,-9039.926876,-444.123565
5744.009383,296.082377,-8580.269578,-444.123565
5744.009707,370.102971,-8580.269578,-518.144159
5744.010032,518.144159,-8580.269578,-740.205942
5744.010356,0.000000,-8733.488677,-370.102971
5744.010681,592.164754,-8580.269578,-222.061783
5744.011005,370.102971,-8580.269578,-370.102971
5744.011330,518.144159,-9039.926876,-740.205942
5744.011654,444.123565,-8810.098227,-666.185348
5744.011979,592.164754,-8810.098227,-444.123565
5744.012303,370.102971,-8810.098227,-518.144159
5744.012628,740.205942,-8963.317327,-592.164754
5744.012952,444.123565,-8273.831378,-518.144159
5744.013277,740.205942,-9116.536426,74.020594
5744.013601,370.102971,-8733.488677,-518.144159
5744.013926,296.082377,-8963.317327,-370.102971
5744.014250,0.000000,-8656.879127,-296.082377
5744.014575,370.102971,-8656.879127,0.000000
5744.014900,740.205942,-8580.269578,-666.185348
5744.015224,296.082377,-8273.831378,-296.082377
5744.015549,740.205942,-8427.050478,0.000000
5744.015873,222.061783,-9193.145976,-666.185348
5744.016198,370.102971,-9269.755526,-370.102971
5744.016522,296.082377,-8350.440928,-370.102971
5744.016847,444.123565,-8963.317327,-370.102971
5744.017171,444.123565,-8656.879127,-518.144159
5744.017496,740.205942,-8503.660028,-370.102971
5744.017820,592.164754,-8733.488677,-518.144159
5744.018145,444.123565,-8963.317327,-518.144159
5744.018469,592.164754,-9193.145976,-1036.288319
5744.018794,370.102971,-8656.879127,-444.123565
5744.019118,518.144159,-8427.050478,-592.164754
5744.019443,666.185348,-8503.660028,-518.144159
5744.019767,666.185348,-8120.612279,-888.247130
5744.020092,962.267725,-8427.050478,-296.082377
5744.020416,666.185348,-7814.174080,-370.102971
5744.020741,592.164754,-8886.707777,-592.164754
5744.021065,666.185348,-8656.879127,-370.102971
5744.021390,592.164754,-8656.879127,74.020594
5744.021715,666.185348,-7814.174080,0.000000
5744.022039,518.144159,-8503.660028,-592.164754
5744.022364,814.226536,-8503.660028,74.020594
5744.022688,592.164754,-8120.612279,0.000000
5744.023013,296.082377,-9269.755526,-148.041188
5744.023337,148.041188,-8350.440928,0.000000
5744.023662,592.164754,-8427.050478,0.000000
5744.023986,444.123565,-8733.488677,0.000000
5744.024311,592.164754,-8350.440928,-296.082377
5744.024635,296.082377,-8197.221829,148.041188
5744.024960,296.082377,-8427.050478,74.020594
5744.025284,518.144159,-8810.098227,-370.102971
5744.025609,0.000000,-8810.098227,-888.247130
5744.025933,814.226536,-8273.831378,0.000000
5744.026258,148.041188,-8273.831378,-296.082377
5744.026582,148.041188,-8503.660028,-592.164754
5744.026907,370.102971,-7890.783629,-518.144159
5744.027231,518.144159,-8733.488677,-444.123565
5744.027556,148.041188,-8427.050478,-740.205942
5744.027880,370.102971,-9039.926876,-814.226536
5744.028205,370.102971,-8120.612279,-444.123565
5744.028530,444.123565,-8580.269578,-666.185348
5744.028854,444.123565,-8427.050478,-1184.329507
5744.029179,370.102971,-8580.269578,-814.226536
5744.029503,444.123565,-8197.221829,0.000000
5744.029828,74.020594,-8427.050478,-888.247130
5744.030152,740.205942,-9269.755526,-962.267725
5744.030477,444.123565,-8350.440928,-888.247130
5744.030801,222.061783,-8886.707777,-592.164754
5744.031126,518.144159,-8733.488677,-666.185348
5744.031450,370.102971,-8580.269578,-740.205942
5744.031775,888.247130,-8656.879127,0.000000
5744.032099,518.144159,-8580.269578,-592.164754
5744.032424,740.205942,-9269.755526,-592.164754
5744.032748,518.144159,-8503.660028,-370.102971
5744.033073,740.205942,-9576.193725,0.000000
5744.033397,74.020594,-8810.098227,-518.144159
5744.033722,370.102971,-8580.269578,-740.205942
5744.034046,518.144159,-8197.221829,-296.082377
5744.034371,666.185348,-8886.707777,-444.123565
5744.034696,592.164754,-9269.755526,-518.144159
5744.035020,444.123565,-8580.269578,-740.205942
5744.035345,518.144159,-8810.098227,-592.164754
5744.035669,148.041188,-8580.269578,-666.185348
5744.035994,444.123565,-8273.831378,-962.267725
5744.036318,666.185348,-8044.002729,-518.144159
5744.036643,518.144159,-8810.098227,-296.082377
5744.036967,518.144159,-8886.707777,-888.247130
5744.037292,740.205942,-8503.660028,-962.267725
5744.037616,740.205942,-8503.660028,-740.205942
5744.037941,666.185348,-8580.269578,-666.185348
5744.038265,518.144159,-8580.269578,-740.205942
5744.038590,444.123565,-8427.050478,-74.020594
5744.038914,666.185348,-8273.831378,-222.061783
5744.039239,444.123565,-8963.317327,-888.247130
5744.039563,740.205942,-8580.269578,-666.185348
5744.039888,518.144159,-8120.612279,-370.102971
5744.040212,592.164754,-9116.536426,0.000000
5744.040537,74.020594,-8350.440928,-740.205942
5744.040861,444.123565,-8350.440928,-370.102971
5744.041186,444.123565,-8197.221829,0.000000
5744.041511,444.123565,-9422.974625,-518.144159
5744.041835,222.061783,-8886.707777,-370.102971
5744.042160,444.123565,-8580.269578,-148.041188
5744.042484,296.082377,-8580.269578,-296.082377
5744.042809,222.061783,-8580.269578,-444.123565
5744.043133,444.123565,-8656.879127,-296.082377
5744.043458,370.102971,-8120.612279,0.000000
5744.043782,296.082377,-8963.317327,-444.123565
5744.044107,74.020594,-8963.317327,-518.144159
5744.044431,74.020594,-8886.707777,-518.144159
5744.044756,74.020594,-8810.098227,-666.185348
5744.045080,74.020594,-8580.269578,-370.102971
5744.045405,148.041188,-8656.879127,-592.164754
5744.045729,740.205942,-8427.050478,-222.061783
5744.046054,518.144159,-8656.879127,-740.205942
5744.046378,518.144159,-9499.584175,-592.164754
5744.046703,444.123565,-8656.879127,-740.205942
5744.047027,370.102971,-8810.098227,0.000000
5744.047352,222.061783,-8656.879127,-666.185348
5744.047676,296.082377,-9039.926876,-296.082377
5744.048001,518.144159,-8503.660028,-296.082377
5744.048326,370.102971,-8656.879127,0.000000
5744.048650,962.267725,-8886.707777,-370.102971
5744.048975,222.061783,-8656.879127,-592.164754
5744.049299,740.205942,-8503.660028,-222.061783
5744.049624,370.102971,-8656.879127,-518.144159
5744.049948,814.226536,-8503.660028,-1036.288319
5744.050273,740.205942,-8273.831378,-518.144159
5744.050597,148.041188,-8580.269578,-518.144159
5744.050922,296.082377,-9039.926876,-148.041188
5744.051246,740.205942,-8273.831378,-592.164754
5744.051571,518.144159,-8963.317327,-518.144159
5744.051895,740.205942,-8656.879127,-666.185348
5744.052220,74.020594,-8350.440928,-592.164754
5744.052544,592.164754,-8427.050478,-592.164754
5744.052869,518.144159,-8197.221829,-370.102971
5744.053193,666.185348,-8963.317327,-814.226536
5744.053518,888.247130,-8656.879127,-1110.308913
5744.053842,740.205942,-8197.221829,-666.185348
5744.054167,444.123565,-8963.317327,-370.102971
5744.054491,444.123565,-8350.440928,-444.123565
5744.054816,814.226536,-8580.269578,-444.123565
5744.055140,1036.288319,-8197.221829,-444.123565
5744.055465,592.164754,-8656.879127,-296.082377
5744.055789,222.061783,-8810.098227,-148.041188
5744.056114,592.164754,-8733.488677,-592.164754
5744.056438,444.123565,-8503.660028,-444.123565
5744.056763,296.082377,-8580.269578,-666.185348
5744.057087,444.123565,-9039.926876,296.082377
5744.057412,518.144159,-8044.002729,-518.144159
5744.057736,592.164754,-9346.365076,0.000000
5744.058061,666.185348,-8810.098227,-296.082377
5744.058385,740.205942,-8810.098227,-444.123565
5744.058710,518.144159,-8963.317327,0.000000
5744.059034,296.082377,-8656.879127,296.082377
5744.059359,296.082377,-8810.098227,0.000000
5744.059683,370.102971,-8427.050478,0.000000
5744.060008,888.247130,-8963.317327,-222.061783
5744.060332,148.041188,-8886.707777,-148.041188
5744.060657,0.000000,-8810.098227,0.000000
5744.060982,222.061783,-8656.879127,0.000000
5744.061306,444.123565,-9116.536426,370.102971
5744.061631,518.144159,-8580.269578,-148.041188
5744.061955,370.102971,-8350.440928,0.000000
5744.062280,518.144159,-8503.660028,0.000000
5744.062604,444.123565,-8810.098227,-296.082377
5744.062929,518.144159,-8963.317327,-222.061783
5744.063253,370.102971,-8427.050478,-296.082377
5744.063578,370.102971,-8733.488677,-370.102971
5744.063902,74.020594,-8733.488677,-666.185348
5744.064227,888.247130,-7967.393179,-296.082377
5744.064551,296.082377,-8197.221829,-370.102971
5744.064876,222.061783,-8656.879127,-592.164754
5744.065200,444.123565,-8273.831378,-814.226536
5744.065525,592.164754,-9039.926876,74.020594
5744.065849,518.144159,-8733.488677,-74.020594
5744.066174,444.123565,-8273.831378,-222.061783
5744.066498,814.226536,-8197.221829,-296.082377
5744.066823,592.164754,-7890.783629,-148.041188
5744.067147,592.164754,-8886.707777,-222.061783
5744.067472,370.102971,-8503.660028,-592.164754
5744.067796,222.061783,-8427.050478,-444.123565
5744.068121,148.041188,-8273.831378,-222.061783
5744.068445,0.000000,-7814.174080,222.061783
5744.068770,370.102971,-8427.050478,0.000000
5744.069094,666.185348,-8350.440928,0.000000
5744.069419,296.082377,-9039.926876,0.000000
5744.069743,666.185348,-8656.879127,-814.226536
5744.070068,592.164754,-9193.145976,-74.020594
5744.070392,444.123565,-8733.488677,-222.061783
5744.070717,370.102971,-8656.879127,-296.082377
5744.071041,296.082377,-8656.879127,-296.082377
5744.071366,0.000000,-8350.440928,0.000000
5744.071690,296.082377,-8656.879127,0.000000
5744.072015,148.041188,-8656.879127,-814.226536
5744.072339,370.102971,-8656.879127,-592.164754
5744.072664,888.247130,-8810.098227,-444.123565
5744.072988,0.000000,-8580.269578,-592.164754
5744.073313,370.102971,-8733.488677,-444.123565
5744.073637,370.102971,-8427.050478,-370.102971
5744.073962,740.205942,-8733.488677,-296.082377
5744.074286,518.144159,-8733.488677,-370.102971
5744.074611,444.123565,-8886.707777,-296.082377
5744.074935,296.082377,-8580.269578,-370.102971
5744.075260,74.020594,-8733.488677,-370.102971
5744.075584,0.000000,-8656.879127,-444.123565
5744.075909,222.061783,-8503.660028,-444.123565
5744.076233,0.000000,-8503.660028,148.041188
5744.076558,222.061783,-8503.660028,-296.082377
5744.076882,74.020594,-8886.707777,296.082377
5744.077207,222.061783,-8427.050478,-148.041188
5744.077531,296.082377,-8733.488677,0.000000
5744.077856,296.082377,-8733.488677,74.020594
5744.078180,222.061783,-8350.440928,0.000000
5744.078505,370.102971,-8350.440928,0.000000
5744.078829,0.000000,-8503.660028,0.000000
5744.079154,296.082377,-8580.269578,0.000000
5744.079478,222.061783,-8810.098227,-296.082377
5744.079803,370.102971,-8120.612279,-518.144159
5744.080127,222.061783,-8733.488677,0.000000
5744.080452,444.123565,-8503.660028,0.000000
5744.080776,444.123565,-8580.269578,-370.102971
5744.081101,888.247130,-9269.755526,-222.061783
5744.081425,370.102971,-8656.879127,-148.041188
5744.081750,296.082377,-8963.317327,0.000000
5744.082074,296.082377,-8733.488677,0.000000
5744.082399,148.041188,-8656.879127,222.061783
5744.082723,518.144159,-8427.050478,-296.082377
5744.083048,0.000000,-8656.879127,-370.102971
5744.083372,592.164754,-8350.440928,296.082377
5744.083697,370.102971,-8733.488677,0.000000
5744.084021,444.123565,-8503.660028,-148.041188
5744.084346,444.123565,-8120.612279,0.000000
5744.084670,370.102971,-8733.488677,296.082377
5744.084995,518.144159,-8197.221829,74.020594
5744.085319,222.061783,-7967.393179,0.000000
5744.085644,444.123565,-8197.221829,296.082377
5744.085968,592.164754,-8273.831378,0.000000
5744.086293,666.185348,-9116.536426,-148.041188
5744.086617,444.123565,-8427.050478,-296.082377
5744.086942,222.061783,-8350.440928,0.000000
5744.087266,222.061783,-8733.488677,-296.082377
5744.087591,444.123565,-8120.612279,-222.061783
5744.087915,222.061783,-8580.269578,0.000000
5744.088240,296.082377,-8503.660028,0.000000
5744.088564,222.061783,-8427.050478,-370.102971
5744.088889,74.020594,-8733.488677,-370.102971
5744.089213,444.123565,-8197.221829,0.000000
5744.089538,74.020594,-8580.269578,74.020594
5744.089862,666.185348,-8580.269578,-444.123565
5744.090187,444.123565,-8427.050478,0.000000
5744.090511,444.123565,-9039.926876,0.000000
5744.090836,444.123565,-8810.098227,-444.123565
5744.091160,222.061783,-8810.098227,-370.102971
5744.091485,222.061783,-8886.707777,-370.102971
5744.091809,518.144159,-8810.098227,-222.061783
5744.092134,0.000000,-8273.831378,-666.185348
5744.092458,370.102971,-8580.269578,-296.082377
5744.092783,370.102971,-8503.660028,-148.041188
5744.093107,666.185348,-8963.317327,-740.205942
5744.093432,518.144159,-9039.926876,-666.185348
5744.093756,370.102971,-8656.879127,0.000000
5744.094081,296.082377,-9039.926876,-444.123565
5744.094405,148.041188,-8963.317327,-296.082377
5744.094730,296.082377,-8580.269578,-296.082377
5744.095054,444.123565,-8580.269578,0.000000
5744.095379,518.144159,-8810.098227,-148.041188
5744.095703,0.000000,-8733.488677,-518.144159
5744.096028,444.123565,-8427.050478,0.000000
5744.096352,444.123565,-8503.660028,0.000000
5744.096677,740.205942,-8656.879127,-592.164754
5744.097001,444.123565,-7890.783629,-592.164754
5744.097326,592.164754,-8427.050478,0.000000
5744.097650,444.123565,-8580.269578,-444.123565
5744.097975,444.123565,-8656.879127,-666.185348
5744.098299,592.164754,-8427.050478,-740.205942
5744.098624,370.102971,-8656.879127,-296.082377
5744.098948,370.102971,-8503.660028,-370.102971
5744.099273,444.123565,-8273.831378,-888.247130
5744.099597,740.205942,-8733.488677,222.061783
5744.099922,740.205942,-8503.660028,-740.205942
5744.100246,592.164754,-8656.879127,-666.185348
5744.100571,592.164754,-8656.879127,-592.164754
5744.100895,740.205942,-8886.707777,148.041188
5744.101220,370.102971,-8580.269578,-444.123565
5744.101544,666.185348,-8197.221829,-222.061783
5744.101869,962.267725,-8656.879127,74.020594
5744.102193,592.164754,-8427.050478,-370.102971
5744.102518,370.102971,-8120.612279,-222.061783
5744.102842,74.020594,-8963.317327,0.000000
5744.103167,148.041188,-8350.440928,0.000000
5744.103491,74.020594,-8886.707777,0.000000
5744.103816,296.082377,-8580.269578,-370.102971
5744.104140,148.041188,-8503.660028,222.061783
5744.104465,592.164754,-8963.317327,0.000000
5744.104789,0.000000,-9039.926876,74.020594
5744.105114,444.123565,-9269.755526,0.000000
5744.105438,74.020594,-8810.098227,-296.082377
5744.105763,222.061783,-8810.098227,0.000000
5744.106087,222.061783,-8733.488677,0.000000
5744.106412,148.041188,-8503.660028,-222.061783
5744.106736,444.123565,-8427.050478,-296.082377
5744.107061,148.041188,-8886.707777,-444.123565
5744.107385,444.123565,-8963.317327,-592.164754
5744.107710,222.061783,-8503.660028,-370.102971
5744.108034,444.123565,-8886.707777,-518.144159
5744.108359,296.082377,-8273.831378,-444.123565
5744.108683,888.247130,-8273.831378,-370.102971
5744.109008,518.144159,-8427.050478,-370.102971
5744.109332,814.226536,-8350.440928,-296.082377
5744.109657,370.102971,-8733.488677,-518.144159
5744.109981,518.144159,-8503.660028,-592.164754
5744.110306,740.205942,-8656.879127,-370.102971
5744.110630,592.164754,-8886.707777,-444.123565
5744.110955,370.102971,-7814.174080,0.000000
5744.111279,222.061783,-8427.050478,-222.061783
5744.111604,296.082377,-8733.488677,0.000000
5744.111928,296.082377,-8656.879127,-518.144159
5744.112253,666.185348,-9269.755526,74.020594
5744.112577,666.185348,-8350.440928,-222.061783
5744.112902,666.185348,-8656.879127,-296.082377
5744.113226,518.144159,-8503.660028,-518.144159
5744.113551,814.226536,-8350.440928,-296.082377
5744.113875,666.185348,-8273.831378,-444.123565
5744.114200,666.185348,-8733.488677,-370.102971
5744.114524,518.144159,-8810.098227,-370.102971
5744.114849,666.185348,-8503.660028,-518.144159
5744.115173,814.226536,-8503.660028,0.000000
5744.115498,666.185348,-8427.050478,-444.123565
5744.115822,814.226536,-8656.879127,-370.102971
5744.116147,666.185348,-8656.879127,-222.061783
5744.116471,518.144159,-8350.440928,0.000000
5744.116796,370.102971,-8733.488677,-592.164754
5744.117120,370.102971,-8810.098227,-296.082377
5744.117445,370.102971,-8733.488677,-444.123565
5744.117769,518.144159,-8656.879127,-444.123565
5744.118094,666.185348,-8656.879127,-296.082377
5744.118418,518.144159,-8427.050478,0.000000
5744.118743,592.164754,-8886.707777,-222.061783
5744.119067,0.000000,-8810.098227,-518.144159
5744.119392,518.144159,-8427.050478,-148.041188
5744.119716,518.144159,-8503.660028,0.000000
5744.120041,370.102971,-8503.660028,-518.144159
5744.120365,592.164754,-8580.269578,-370.102971
5744.120690,592.164754,-8350.440928,0.000000
5744.121014,296.082377,-8810.098227,-666.185348
5744.121339,370.102971,-8427.050478,-814.226536
5744.121663,296.082377,-8733.488677,-296.082377
5744.121988,296.082377,-8503.660028,-518.144159
5744.122312,370.102971,-8503.660028,-592.164754
5744.122637,222.061783,-8656.879127,-1036.288319
5744.122961,222.061783,-8503.660028,-370.102971
5744.123286,74.020594,-8503.660028,-592.164754
5744.123610,592.164754,-9269.755526,-888.247130
5744.123935,296.082377,-8350.440928,-740.205942
5744.124259,148.041188,-8733.488677,-592.164754
5744.124584,444.123565,-8273.831378,-518.144159
5744.124908,518.144159,-8733.488677,-296.082377
5744.125233,592.164754,-8350.440928,-148.041188
5744.125557,592.164754,-8656.879127,-148.041188
5744.125882,444.123565,-8886.707777,-740.205942
5744.126206,444.123565,-8656.879127,-666.185348
5744.126531,444.123565,-8044.002729,-296.082377
5744.126855,296.082377,-8733.488677,-148.041188
5744.127180,518.144159,-8503.660028,-444.123565
5744.127504,592.164754,-8580.269578,-148.041188
5744.127829,962.267725,-8810.098227,-666.185348
5744.128153,592.164754,-8580.269578,-518.144159
5744.128478,444.123565,-8503.660028,-444.123565
5744.128802,592.164754,-8197.221829,0.000000
5744.129127,370.102971,-8273.831378,0.000000
5744.129452,296.082377,-8580.269578,-814.226536
5744.129776,296.082377,-8580.269578,-370.102971
5744.130101,518.144159,-8197.221829,0.000000
5744.130425,0.000000,-8810.098227,-296.082377
5744.130750,740.205942,-8733.488677,-888.247130
5744.131074,444.123565,-8350.440928,-148.041188
5744.131399,518.144159,-8810.098227,74.020594
5744.131723,444.123565,-8733.488677,-296.082377
5744.132048,962.267725,-8044.002729,0.000000
5744.132372,666.185348,-8503.660028,0.000000
5744.132697,592.164754,-8503.660028,-666.185348
5744.133021,518.144159,-8886.707777,-962.267725
5744.133346,148.041188,-8733.488677,-518.144159
5744.133670,296.082377,-8503.660028,-370.102971
5744.133995,444.123565,-8580.269578,-1036.288319
5744.134319,296.082377,-8580.269578,-740.205942
5744.134644,444.123565,-8503.660028,-444.123565
5744.134968,592.164754,-9039.926876,-814.226536
5744.135293,222.061783,-8656.879127,-592.164754
5744.135617,296.082377,-8656.879127,-370.102971
5744.135942,518.144159,-8503.660028,-148.041188
5744.136266,296.082377,-9193.145976,-518.144159
5744.136591,148.041188,-8656.879127,-592.164754
5744.136915,148.041188,-8580.269578,0.000000
5744.137240,444.123565,-8733.488677,-518.144159
5744.137564,74.020594,-8886.707777,-370.102971
5744.137889,370.102971,-8656.879127,-592.164754
5744.138213,222.061783,-8810.098227,-148.041188
5744.138538,370.102971,-8810.098227,-222.061783
5744.138862,222.061783,-9039.926876,-148.041188
5744.139187,296.082377,-8733.488677,-296.082377
5744.139511,444.123565,-9039.926876,-296.082377
5744.139836,592.164754,-8810.098227,-962.267725
5744.140160,592.164754,-8580.269578,-814.226536
5744.140485,666.185348,-9499.584175,-148.041188
5744.140809,296.082377,-8197.221829,-666.185348
5744.141134,222.061783,-8810.098227,-888.247130
5744.141458,592.164754,-8197.221829,-666.185348
5744.141783,592.164754,-8580.269578,-592.164754
5744.142107,814.226536,-8963.317327,-1110.308913
5744.142432,296.082377,-8656.879127,-740.205942
5744.142756,592.164754,-8656.879127,-74.020594
5744.143081,296.082377,-8427.050478,-444.123565
5744.143405,666.185348,-8963.317327,-888.247130
5744.143730,666.185348,-8350.440928,-370.102971
5744.144054,444.123565,-8197.221829,-296.082377
5744.144379,222.061783,-8656.879127,-666.185348
5744.144703,592.164754,-8503.660028,-740.205942
5744.145028,370.102971,-8503.660028,-666.185348
5744.145352,444.123565,-8656.879127,-518.144159
5744.145677,74.020594,-8427.050478,-592.164754
5744.146001,296.082377,-8733.488677,-370.102971
5744.146326,370.102971,-8503.660028,0.000000
5744.146650,518.144159,-8733.488677,-666.185348
5744.146975,666.185348,-8963.317327,-814.226536
5744.147299,592.164754,-8503.660028,-296.082377
5744.147624,0.000000,-8733.488677,-370.102971
5744.147948,0.000000,-8273.831378,-518.144159
5744.148273,148.041188,-8197.221829,-370.102971
5744.148597,592.164754,-8273.831378,-666.185348
5744.148922,222.061783,-8580.269578,-592.164754
5744.149246,518.144159,-9039.926876,-592.164754
5744.149571,444.123565,-8580.269578,-888.247130
5744.149895,222.061783,-8656.879127,-370.102971
5744.150220,444.123565,-8810.098227,-370.102971
5744.150544,888.247130,-8810.098227,-370.102971
5744.150869,814.226536,-8427.050478,0.000000
5744.151193,370.102971,-8733.488677,-370.102971
5744.151518,296.082377,-9346.365076,-148.041188
5744.151842,222.061783,-8350.440928,-592.164754
5744.152167,296.082377,-8733.488677,-370.102971
5744.152491,370.102971,-8886.707777,-296.082377
5744.152816,222.061783,-8810.098227,-592.164754
5744.153140,370.102971,-8503.660028,-444.123565
5744.153465,592.164754,-8427.050478,-148.041188
5744.153789,444.123565,-9039.926876,-370.102971
5744.154114,814.226536,-8580.269578,-666.185348
5744.154438,666.185348,-8350.440928,0.000000
5744.154763,740.205942,-8733.488677,-518.144159
5744.155087,296.082377,-8503.660028,-370.102971
5744.155412,740.205942,-8350.440928,-666.185348
5744.155736,814.226536,-8503.660028,-370.102971
5744.156060,370.102971,-9269.755526,-296.082377
5744.156385,222.061783,-8810.098227,-740.205942
5744.156709,444.123565,-8427.050478,-370.102971
5744.157034,222.061783,-8120.612279,-148.041188
5744.157358,740.205942,-8656.879127,-666.185348
5744.157683,592.164754,-8273.831378,-296.082377
5744.158007,666.185348,-8427.050478,0.000000
5744.158331,666.185348,-8733.488677,-444.123565
5744.158656,518.144159,-8886.707777,-444.123565
5744.158980,518.144159,-9039.926876,222.061783
5744.159305,370.102971,-8810.098227,-222.061783
5744.159629,74.020594,-8580.269578,0.000000
5744.159954,296.082377,-8580.269578,-296.082377
5744.160278,962.267725,-8733.488677,-370.102971
5744.160602,592.164754,-8733.488677,-296.082377
5744.160927,296.082377,-8810.098227,-592.164754
5744.161251,592.164754,-8503.660028,-592.164754
5744.161576,666.185348,-8503.660028,0.000000
5744.161900,296.082377,-8810.098227,-148.041188
5744.162224,592.164754,-8503.660028,-592.164754
5744.162549,814.226536,-8273.831378,-296.082377
5744.162873,666.185348,-8656.879127,-222.061783
5744.163198,296.082377,-8810.098227,-518.144159
5744.163522,74.020594,-8580.269578,-370.102971
5744.163847,370.102971,-8350.440928,0.000000
5744.164171,222.061783,-8656.879127,-518.144159
5744.164495,444.123565,-8503.660028,-370.102971
5744.164820,444.123565,-7890.783629,-296.082377
5744.165144,444.123565,-8656.879127,0.000000
5744.165469,74.020594,-8733.488677,-370.102971
5744.165793,814.226536,-8580.269578,-370.102971
5744.166118,74.020594,-7890.783629,-296.082377
5744.166442,296.082377,-8580.269578,74.020594
5744.166766,148.041188,-8963.317327,-296.082377
5744.167091,370.102971,-8580.269578,-222.061783
5744.167415,296.082377,-8886.707777,444.123565
5744.167740,148.041188,-8886.707777,-740.205942
5744.168064,444.123565,-8656.879127,-592.164754
5744.168389,148.041188,-8197.221829,-222.061783
5744.168713,148.041188,-8656.879127,-518.144159
5744.169037,74.020594,-8197.221829,-592.164754
5744.169362,296.082377,-8656.879127,-888.247130
5744.169686,148.041188,-8120.612279,-444.123565
5744.170011,222.061783,-8580.269578,-296.082377
5744.170335,666.185348,-8427.050478,-296.082377
5744.170659,592.164754,-8427.050478,-666.185348
5744.170984,222.061783,-8656.879127,-222.061783
5744.171308,74.020594,-9039.926876,-444.123565
5744.171633,370.102971,-8350.440928,0.000000
5744.171957,296.082377,-8427.050478,-296.082377
5744.172282,296.082377,-8733.488677,-370.102971
5744.172606,592.164754,-8810.098227,-740.205942
5744.172930,518.144159,-8886.707777,-666.185348
5744.173255,444.123565,-8427.050478,222.061783
5744.173579,518.144159,-8733.488677,-148.041188
5744.173904,666.185348,-8656.879127,-148.041188
5744.174228,666.185348,-8273.831378,0.000000
5744.174553,518.144159,-8656.879127,0.000000
5744.174877,666.185348,-8656.879127,-814.226536
5744.175201,592.164754,-8810.098227,-518.144159
5744.175526,222.061783,-8580.269578,-370.102971
5744.175850,222.061783,-8656.879127,0.000000
5744.176175,518.144159,-8120.612279,-444.123565
5744.176499,518.144159,-8503.660028,-296.082377
5744.176823,592.164754,-8427.050478,-444.123565
5744.177148,444.123565,-9039.926876,-222.061783
5744.177472,518.144159,-8733.488677,-296.082377
5744.177797,518.144159,-8503.660028,0.000000
5744.178121,444.123565,-8580.269578,-370.102971
5744.178446,518.144159,-8810.098227,0.000000
5744.178770,1110.308913,-8427.050478,-592.164754
5744.179094,444.123565,-8503.660028,0.000000
5744.179419,518.144159,-8886.707777,0.000000
5744.179743,222.061783,-8503.660028,-666.185348
5744.180068,296.082377,-8810.098227,-444.123565
5744.180392,222.061783,-8273.831378,0.000000
5744.180717,370.102971,-8656.879127,-222.061783
5744.181041,444.123565,-8580.269578,-296.082377
5744.181365,518.144159,-8580.269578,-148.041188
5744.181690,370.102971,-8656.879127,-740.205942
5744.182014,592.164754,-8733.488677,-370.102971
5744.182339,370.102971,-8580.269578,-518.144159
5744.182663,222.061783,-8656.879127,0.000000
5744.182988,370.102971,-8656.879127,-296.082377
5744.183312,74.020594,-8580.269578,-148.041188
5744.183636,518.144159,-8580.269578,0.000000
5744.183961,148.041188,-8886.707777,0.000000
5744.184285,296.082377,-8810.098227,-296.082377
5744.184610,222.061783,-8810.098227,0.000000
5744.184934,370.102971,-8963.317327,0.000000
5744.185258,222.061783,-8580.269578,0.000000
5744.185583,222.061783,-8580.269578,0.000000
5744.185907,296.082377,-8580.269578,-222.061783
5744.186232,296.082377,-8580.269578,0.000000
5744.186556,148.041188,-9039.926876,-370.102971
5744.186881,444.123565,-8733.488677,-518.144159
5744.187205,148.041188,-8273.831378,-222.061783
5744.187529,370.102971,-8810.098227,-444.123565
5744.187854,518.144159,-8427.050478,-370.102971
5744.188178,666.185348,-8350.440928,-222.061783
5744.188503,666.185348,-8273.831378,-518.144159
5744.188827,740.205942,-9039.926876,-666.185348
5744.189152,222.061783,-8350.440928,-592.164754
5744.189476,518.144159,-8656.879127,-592.164754
5744.189800,444.123565,-8427.050478,-592.164754
5744.190125,666.185348,-8886.707777,0.000000
5744.190449,518.144159,-8427.050478,-74.020594
5744.190774,518.144159,-8273.831378,-222.061783
5744.191098,370.102971,-8810.098227,-296.082377
5744.191422,592.164754,-8427.050478,0.000000
5744.191747,444.123565,-8427.050478,-444.123565
5744.192071,518.144159,-8503.660028,-370.102971
5744.192396,370.102971,-8273.831378,0.000000
5744.192720,444.123565,-7967.393179,-296.082377
5744.193045,592.164754,-8580.269578,0.000000
5744.193369,666.185348,-8656.879127,-444.123565
5744.193693,592.164754,-8580.269578,-222.061783
5744.194018,296.082377,-8733.488677,-666.185348
5744.194342,370.102971,-9269.755526,74.020594
5744.194667,518.144159,-8350.440928,-370.102971
5744.194991,740.205942,-8427.050478,0.000000
5744.195316,814.226536,-8350.440928,-222.061783
5744.195640,666.185348,-9039.926876,-296.082377
5744.195964,222.061783,-8886.707777,-370.102971
5744.196289,444.123565,-8656.879127,-222.061783
5744.196613,222.061783,-8810.098227,0.000000
5744.196938,296.082377,-8503.660028,-148.041188
5744.197262,148.041188,-8656.879127,-296.082377
5744.197587,518.144159,-8427.050478,74.020594
5744.197911,444.123565,-8503.660028,0.000000
5744.198235,370.102971,-9193.145976,-148.041188
5744.198560,518.144159,-9039.926876,0.000000
5744.198884,222.061783,-8886.707777,0.000000
5744.199209,444.123565,-8810.098227,-296.082377
5744.199533,296.082377,-8350.440928,0.000000
5744.199857,370.102971,-8733.488677,0.000000
5744.200182,222.061783,-8733.488677,0.000000
5744.200506,74.020594,-9039.926876,0.000000
5744.200831,296.082377,-8810.098227,-296.082377
5744.201155,222.061783,-8810.098227,148.041188
5744.201480,0.000000,-8427.050478,0.000000
5744.201804,296.082377,-8656.879127,0.000000
5744.202128,592.164754,-8427.050478,-296.082377
5744.202453,666.185348,-8810.098227,0.000000
5744.202777,814.226536,-8886.707777,-444.123565
5744.203102,518.144159,-8733.488677,-222.061783
5744.203426,222.061783,-8733.488677,-222.061783
5744.203751,444.123565,-8503.660028,0.000000
5744.204075,666.185348,-8580.269578,-222.061783
5744.204399,370.102971,-8810.098227,-222.061783
5744.204724,592.164754,-8427.050478,-222.061783
5744.205048,592.164754,-8656.879127,0.000000
5744.205373,296.082377,-8733.488677,-444.123565
5744.205697,518.144159,-8810.098227,-148.041188
5744.206021,296.082377,-8503.660028,-74.020594
5744.206346,444.123565,-8503.660028,0.000000
5744.206670,444.123565,-8197.221829,-370.102971
5744.206995,592.164754,-9193.145976,0.000000
5744.207319,222.061783,-8503.660028,-222.061783
5744.207644,518.144159,-8963.317327,-444.123565
5744.207968,148.041188,-8580.269578,-666.185348
5744.208292,222.061783,-8656.879127,0.000000
5744.208617,148.041188,-8503.660028,0.000000
5744.208941,518.144159,-8427.050478,0.000000
5744.209266,518.144159,-8503.660028,-444.123565
5744.209590,888.247130,-8580.269578,0.000000
5744.209915,296.082377,-9193.145976,444.123565
5744.210239,444.123565,-8580.269578,-518.144159
5744.210563,740.205942,-8580.269578,0.000000
5744.210888,444.123565,-8656.879127,-296.082377
5744.211212,666.185348,-9193.145976,-444.123565
5744.211537,148.041188,-8350.440928,-296.082377
5744.211861,222.061783,-8886.707777,0.000000
5744.212186,74.020594,-8656.879127,-518.144159
5744.212510,296.082377,-9193.145976,-444.123565
5744.212834,148.041188,-8273.831378,-148.041188
5744.213159,592.164754,-8963.317327,0.000000
5744.213483,444.123565,-8044.002729,-370.102971
5744.213808,592.164754,-8810.098227,-370.102971
5744.214132,296.082377,-8427.050478,-518.144159
5744.214456,296.082377,-8503.660028,-296.082377
5744.214781,222.061783,-8733.488677,-592.164754
5744.215105,74.020594,-8580.269578,-370.102971
5744.215430,444.123565,-8350.440928,-444.123565
5744.215754,148.041188,-8503.660028,-370.102971
5744.216079,666.185348,-7890.783629,-592.164754
5744.216403,518.144159,-8503.660028,-296.082377
5744.216727,1110.308913,-8503.660028,-592.164754
5744.217052,962.267725,-8733.488677,-1036.288319
5744.217376,444.123565,-8810.098227,-296.082377
5744.217701,444.123565,-8427.050478,-296.082377
5744.218025,444.123565,-8656.879127,-370.102971
5744.218350,962.267725,-8656.879127,-740.205942
5744.218674,518.144159,-8044.002729,-666.185348
5744.218998,740.205942,-8810.098227,-222.061783
5744.219323,296.082377,-8656.879127,-740.205942
5744.219647,740.205942,-9116.536426,-592.164754
5744.219972,592.164754,-8886.707777,-444.123565
5744.220296,666.185348,-9039.926876,0.000000
5744.220620,370.102971,-8350.440928,-592.164754
5744.220945,666.185348,-8503.660028,-148.041188
5744.221269,666.185348,-8810.098227,0.000000
5744.221594,518.144159,-9116.536426,-518.144159
5744.221918,296.082377,-9116.536426,-666.185348
5744.222243,222.061783,-8427.050478,-444.123565
5744.222567,444.123565,-8656.879127,-222.061783
5744.222891,370.102971,-8503.660028,-666.185348
5744.223216,740.205942,-8503.660028,-740.205942
5744.223540,518.144159,-8656.879127,-444.123565
5744.223865,592.164754,-8503.660028,-518.144159
5744.224189,148.041188,-8963.317327,-666.185348
5744.224514,222.061783,-8273.831378,-222.061783
5744.224838,370.102971,-8656.879127,-444.123565
5744.225162,296.082377,-8733.488677,-370.102971
5744.225487,592.164754,-8656.879127,-444.123565
5744.225811,518.144159,-8733.488677,-296.082377
5744.226136,370.102971,-8656.879127,-444.123565
5744.226460,444.123565,-8733.488677,-444.123565
5744.226785,296.082377,-8810.098227,-592.164754
5744.227109,444.123565,-8503.660028,0.000000
5744.227433,74.020594,-8427.050478,-370.102971
5744.227758,296.082377,-8580.269578,-444.123565
5744.228082,296.082377,-8427.050478,-222.061783
5744.228407,592.164754,-9039.926876,-444.123565
5744.228731,222.061783,-9116.536426,-666.185348
5744.229055,592.164754,-8503.660028,-296.082377
5744.229380,370.102971,-8733.488677,0.000000
5744.229704,740.205942,-8886.707777,0.000000
5744.230029,666.185348,-8427.050478,-444.123565
5744.230353,222.061783,-8656.879127,-370.102971
5744.230678,444.123565,-8733.488677,0.000000
5744.231002,74.020594,-8656.879127,-444.123565
5744.231326,148.041188,-8733.488677,-222.061783
5744.231651,0.000000,-8273.831378,0.000000
5744.231975,518.144159,-8810.098227,-222.061783
5744.232300,296.082377,-8503.660028,-222.061783
5744.232624,1036.288319,-8656.879127,0.000000
5744.232949,592.164754,-8427.050478,0.000000
5744.233273,666.185348,-8580.269578,-222.061783
5744.233597,444.123565,-8580.269578,-518.144159
5744.233922,740.205942,-8120.612279,0.000000
5744.234246,296.082377,-8273.831378,0.000000
5744.234571,148.041188,-8503.660028,-370.102971
5744.234895,518.144159,-8273.831378,-222.061783
5744.235219,518.144159,-8350.440928,-370.102971
5744.235544,518.144159,-9116.536426,-592.164754
5744.235868,222.061783,-8656.879127,-592.164754
5744.236193,518.144159,-8427.050478,0.000000
5744.236517,296.082377,-8503.660028,0.000000
5744.236842,740.205942,-8273.831378,-740.205942
5744.237166,518.144159,-8733.488677,-370.102971
5744.237490,814.226536,-8273.831378,-148.041188
5744.237815,296.082377,-8580.269578,-370.102971
5744.238139,592.164754,-9039.926876,-592.164754
5744.238464,444.123565,-8427.050478,-444.123565
5744.238788,518.144159,-8733.488677,-370.102971
5744.239113,592.164754,-8580.269578,-888.247130
5744.239437,814.226536,-8350.440928,-666.185348
5744.239761,444.123565,-8350.440928,-296.082377
5744.240086,222.061783,-8886.707777,-518.144159
5744.240410,518.144159,-8886.707777,-888.247130
5744.240735,592.164754,-8580.269578,-1184.329507
5744.241059,1036.288319,-8427.050478,-1184.329507
5744.241384,296.082377,-8580.269578,-740.205942
5744.241708,518.144159,-8810.098227,-1184.329507
5744.242032,444.123565,-8350.440928,-740.205942
5744.242357,444.123565,-8273.831378,-518.144159
5744.242681,74.020594,-8733.488677,-888.247130
5744.243006,222.061783,-9039.926876,-740.205942
5744.243330,296.082377,-8656.879127,-592.164754
5744.243654,148.041188,-8580.269578,-296.082377
5744.243979,740.205942,-8580.269578,-962.267725
5744.244303,740.205942,-8427.050478,-444.123565
5744.244628,444.123565,-8580.269578,0.000000
5744.244952,222.061783,-8656.879127,-518.144159
5744.245277,370.102971,-9729.412825,-296.082377
5744.245601,296.082377,-8733.488677,-222.061783
5744.245925,222.061783,-8656.879127,-444.123565
5744.246250,592.164754,-8503.660028,-518.144159
5744.246574,222.061783,-8503.660028,-518.144159
5744.246899,518.144159,-8503.660028,0.000000
5744.247223,74.020594,-8427.050478,-444.123565
5744.247548,740.205942,-8810.098227,-592.164754
5744.247872,592.164754,-8273.831378,-370.102971
5744.248196,74.020594,-8044.002729,-148.041188
5744.248521,222.061783,-8503.660028,-518.144159
5744.248845,592.164754,-8580.269578,-296.082377
5744.249170,592.164754,-8350.440928,-222.061783
5744.249494,518.144159,-8656.879127,-1036.288319
5744.249818,148.041188,-8963.317327,-666.185348
5744.250143,370.102971,-8350.440928,-370.102971
5744.250467,592.164754,-8197.221829,-222.061783
5744.250792,296.082377,-8503.660028,-518.144159
5744.251116,740.205942,-8580.269578,-740.205942
5744.251441,962.267725,-8044.002729,0.000000
5744.251765,666.185348,-8503.660028,-222.061783
5744.252089,444.123565,-8810.098227,-666.185348
5744.252414,888.247130,-8886.707777,-740.205942
5744.252738,666.185348,-8733.488677,-296.082377
5744.253063,222.061783,-8656.879127,-370.102971
5744.253387,74.020594,-8427.050478,-222.061783
5744.253712,518.144159,-9422.974625,74.020594
5744.254036,222.061783,-8503.660028,0.000000
5744.254360,666.185348,-9039.926876,-296.082377
5744.254685,296.082377,-8810.098227,-222.061783
5744.255009,296.082377,-8580.269578,74.020594
5744.255334,296.082377,-8580.269578,-296.082377
5744.255658,518.144159,-8427.050478,-370.102971
5744.255982,518.144159,-8273.831378,0.000000
5744.256307,888.247130,-8503.660028,-370.102971
5744.256631,0.000000,-9346.365076,0.000000
5744.256956,370.102971,-8810.098227,-592.164754
5744.257280,370.102971,-8656.879127,-518.144159
5744.257604,444.123565,-8273.831378,-740.205942
5744.257929,444.123565,-9269.755526,-518.144159
5744.258253,444.123565,-8580.269578,-592.164754
5744.258577,296.082377,-8580.269578,-296.082377
5744.258902,296.082377,-9116.536426,-888.247130
5744.259226,296.082377,-8656.879127,-814.226536
5744.259551,444.123565,-8580.269578,-740.205942
5744.259875,370.102971,-8503.660028,-666.185348
5744.260199,370.102971,-8580.269578,-444.123565
5744.260524,444.123565,-8503.660028,-814.226536
5744.260848,444.123565,-8427.050478,-296.082377
5744.261172,296.082377,-8656.879127,-518.144159
5744.261497,444.123565,-9039.926876,-888.247130
5744.261821,518.144159,-8273.831378,-518.144159
5744.262146,370.102971,-8656.879127,-222.061783
5744.262470,222.061783,-8733.488677,-740.205942
5744.262794,518.144159,-8503.660028,-592.164754
5744.263119,518.144159,-8427.050478,-444.123565
5744.263443,444.123565,-8886.707777,-296.082377
5744.263767,222.061783,-8733.488677,-222.061783
5744.264092,370.102971,-8580.269578,-666.185348
5744.264416,370.102971,-8886.707777,-370.102971
5744.264741,296.082377,-8273.831378,-518.144159
5744.265065,518.144159,-8733.488677,-814.226536
5744.265389,592.164754,-7890.783629,0.000000
5744.265714,296.082377,-8120.612279,-222.061783
5744.266038,148.041188,-8963.317327,-666.185348
5744.266362,592.164754,-8503.660028,-666.185348
5744.266687,444.123565,-8427.050478,-222.061783
5744.267011,222.061783,-8350.440928,0.000000
5744.267336,74.020594,-8350.440928,-518.144159
5744.267660,666.185348,-8427.050478,0.000000
5744.267984,962.267725,-8427.050478,-148.041188
5744.268309,666.185348,-8963.317327,-296.082377
5744.268633,222.061783,-8580.269578,-370.102971
5744.268957,370.102971,-7967.393179,74.020594
5744.269282,296.082377,-9039.926876,0.000000
5744.269606,296.082377,-8427.050478,-296.082377
5744.269931,518.144159,-8044.002729,-370.102971
5744.270255,296.082377,-8580.269578,0.000000
5744.270579,296.082377,-8886.707777,-222.061783
5744.270904,222.061783,-8656.879127,-666.185348
5744.271228,814.226536,-8273.831378,74.020594
5744.271552,296.082377,-8273.831378,0.000000
5744.271877,592.164754,-8733.488677,-518.144159
5744.272201,814.226536,-7967.393179,-518.144159
5744.272526,888.247130,-8273.831378,74.020594
5744.272850,370.102971,-8656.879127,-444.123565
5744.273174,444.123565,-8810.098227,-814.226536
5744.273499,444.123565,-8503.660028,-222.061783
5744.273823,518.144159,-8503.660028,-592.164754
5744.274147,296.082377,-8656.879127,-518.144159
5744.274472,444.123565,-8350.440928,-518.144159
5744.274796,518.144159,-8503.660028,-222.061783
5744.275121,518.144159,-8580.269578,-888.247130
5744.275445,592.164754,-9269.755526,-962.267725
5744.275769,370.102971,-8427.050478,-370.102971
5744.276094,222.061783,-8810.098227,-518.144159
5744.276418,74.020594,-9346.365076,-592.164754
5744.276743,518.144159,-8273.831378,-592.164754
5744.277067,518.144159,-8810.098227,-518.144159
5744.277391,370.102971,-8733.488677,-518.144159
5744.277716,74.020594,-8963.317327,-296.082377
5744.278040,296.082377,-9269.755526,-518.144159
5744.278364,296.082377,-8503.660028,-222.061783
5744.278689,444.123565,-8733.488677,-296.082377
5744.279013,666.185348,-8733.488677,-370.102971
5744.279338,592.164754,-8350.440928,74.020594
5744.279662,222.061783,-8580.269578,-222.061783
5744.279986,148.041188,-9116.536426,-296.082377
5744.280311,740.205942,-8733.488677,-592.164754
5744.280635,296.082377,-8197.221829,0.000000
5744.280959,148.041188,-8963.317327,0.000000
5744.281284,444.123565,-8810.098227,-296.082377
5744.281608,518.144159,-8580.269578,0.000000
5744.281933,518.144159,-8580.269578,74.020594
5744.282257,666.185348,-8886.707777,-148.041188
5744.282581,592.164754,-8810.098227,-592.164754
5744.282906,444.123565,-8273.831378,-370.102971
5744.283230,296.082377,-9116.536426,0.000000
5744.283554,222.061783,-7814.174080,-370.102971
5744.283879,666.185348,-8503.660028,-444.123565
5744.284203,518.144159,-8350.440928,-444.123565
5744.284528,518.144159,-8503.660028,-222.061783
5744.284852,296.082377,-9039.926876,-148.041188
5744.285176,518.144159,-8350.440928,-370.102971
5744.285501,444.123565,-8350.440928,-296.082377
5744.285825,296.082377,-8656.879127,-296.082377
5744.286149,740.205942,-8197.221829,-296.082377
5744.286474,814.226536,-7814.174080,-370.102971
5744.286798,888.247130,-8503.660028,-148.041188
5744.287123,444.123565,-8503.660028,-444.123565
5744.287447,592.164754,-8656.879127,-592.164754
5744.287771,0.000000,-8044.002729,74.020594
5744.288096,296.082377,-8580.269578,148.041188
5744.288420,222.061783,-8656.879127,-518.144159
5744.288744,666.185348,-8044.002729,0.000000
5744.289069,444.123565,-8656.879127,-296.082377
5744.289393,370.102971,-9269.755526,-222.061783
5744.289718,814.226536,-8503.660028,-296.082377
5744.290042,296.082377,-8810.098227,148.041188
5744.290366,444.123565,-8656.879127,222.061783
5744.290691,666.185348,-8503.660028,-296.082377
5744.291015,444.123565,-8350.440928,-148.041188
5744.291339,296.082377,-8656.879127,0.000000
5744.291664,444.123565,-8656.879127,-370.102971
5744.291988,444.123565,-9116.536426,-666.185348
5744.292313,370.102971,-8656.879127,0.000000
5744.292637,74.020594,-8810.098227,-444.123565
5744.292961,370.102971,-8656.879127,-518.144159
5744.293286,296.082377,-8273.831378,-74.020594
5744.293610,592.164754,-8580.269578,0.000000
5744.293934,370.102971,-8963.317327,-296.082377
5744.294259,666.185348,-8503.660028,-740.205942
5744.294583,444.123565,-8810.098227,-296.082377
5744.294908,444.123565,-8886.707777,-148.041188
5744.295232,148.041188,-8886.707777,-592.164754
5744.295556,370.102971,-8427.050478,-444.123565
5744.295881,370.102971,-8273.831378,0.000000
5744.296205,518.144159,-9499.584175,-444.123565
5744.296529,444.123565,-8963.317327,-666.185348
5744.296854,296.082377,-8427.050478,-148.041188
5744.297178,444.123565,-8733.488677,-222.061783
5744.297503,222.061783,-8810.098227,-592.164754
5744.297827,1036.288319,-9039.926876,-370.102971
5744.298151,740.205942,-8350.440928,-444.123565
5744.298476,444.123565,-9039.926876,-370.102971
5744.298800,296.082377,-8963.317327,-444.123565
5744.299124,518.144159,-9193.145976,-296.082377
5744.299449,222.061783,-8733.488677,-518.144159
5744.299773,74.020594,-8580.269578,-222.061783
5744.300098,518.144159,-8273.831378,-370.102971
5744.300422,1184.329507,-8350.440928,-222.061783
5744.300746,592.164754,-9116.536426,0.000000
5744.301071,888.247130,-8656.879127,-370.102971
5744.301395,888.247130,-8656.879127,-518.144159
5744.301719,296.082377,-8427.050478,0.000000
5744.302044,444.123565,-8427.050478,0.000000
5744.302368,444.123565,-8350.440928,-444.123565
5744.302693,370.102971,-8427.050478,0.000000
5744.303017,296.082377,-8350.440928,-222.061783
5744.303341,592.164754,-8503.660028,-666.185348
5744.303666,148.041188,-8273.831378,-370.102971
5744.303990,444.123565,-8197.221829,0.000000
5744.304314,444.123565,-8733.488677,0.000000
5744.304639,814.226536,-8656.879127,-222.061783
5744.304963,740.205942,-8273.831378,-148.041188
5744.305288,444.123565,-8197.221829,74.020594
5744.305612,444.123565,-8427.050478,0.000000
5744.305936,518.144159,-8963.317327,-592.164754
5744.306261,148.041188,-8197.221829,-370.102971
5744.306585,296.082377,-8656.879127,-222.061783
5744.306909,370.102971,-8197.221829,-222.061783
5744.307234,518.144159,-8580.269578,-370.102971
5744.307558,666.185348,-8580.269578,0.000000
5744.307883,296.082377,-8656.879127,-148.041188
5744.308207,518.144159,-9116.536426,-592.164754
5744.308531,518.144159,-8427.050478,-296.082377
5744.308856,518.144159,-7890.783629,0.000000
5744.309180,444.123565,-8350.440928,-222.061783
5744.309504,518.144159,-8197.221829,-592.164754
5744.309829,222.061783,-8580.269578,-296.082377
5744.310153,296.082377,-8656.879127,-518.144159
5744.310478,0.000000,-8886.707777,-740.205942
5744.310802,0.000000,-8580.269578,-666.185348
5744.311126,0.000000,-8656.879127,-222.061783
5744.311451,222.061783,-8580.269578,-296.082377
5744.311775,222.061783,-8963.317327,-888.247130
5744.312099,518.144159,-8810.098227,-370.102971
5744.312424,370.102971,-8886.707777,0.000000
5744.312748,444.123565,-9039.926876,-740.205942
5744.313073,518.144159,-8733.488677,-444.123565
5744.313397,666.185348,-8503.660028,0.000000
5744.313721,222.061783,-8810.098227,-296.082377
5744.314046,148.041188,-8503.660028,-370.102971
5744.314370,370.102971,-8427.050478,0.000000
5744.314694,296.082377,-8503.660028,0.000000
5744.315019,296.082377,-8886.707777,-666.185348
5744.315343,222.061783,-8886.707777,-444.123565
5744.315668,518.144159,-8656.879127,-296.082377
5744.315992,592.164754,-8810.098227,74.020594
5744.316316,370.102971,-8503.660028,-370.102971
5744.316641,666.185348,-8197.221829,-370.102971
5744.316965,592.164754,-8503.660028,-296.082377
5744.317289,592.164754,-8810.098227,-444.123565
5744.317614,592.164754,-8656.879127,-370.102971
5744.317938,444.123565,-8580.269578,-296.082377
5744.318263,370.102971,-8580.269578,0.000000
5744.318587,444.123565,-8503.660028,-444.123565
5744.318911,592.164754,-7967.393179,-370.102971
5744.319236,888.247130,-8427.050478,0.000000
5744.319560,666.185348,-8580.269578,-222.061783
5744.319884,518.144159,-8886.707777,-518.144159
5744.320209,592.164754,-8197.221829,-666.185348
5744.320533,444.123565,-8810.098227,0.000000
5744.320858,444.123565,-8197.221829,0.000000
5744.321182,518.144159,-8427.050478,-444.123565
5744.321506,518.144159,-8733.488677,-296.082377
5744.321831,666.185348,-8656.879127,-518.144159
5744.322155,444.123565,-8886.707777,-592.164754
5744.322479,222.061783,-8427.050478,-296.082377
5744.322804,0.000000,-8580.269578,74.020594
5744.323128,444.123565,-9039.926876,-444.123565
5744.323453,444.123565,-8427.050478,0.000000
5744.323777,518.144159,-8503.660028,0.000000
5744.324101,370.102971,-8963.317327,-148.041188
5744.324426,222.061783,-8886.707777,-740.205942
5744.324750,222.061783,-8733.488677,0.000000
5744.325074,296.082377,-8350.440928,0.000000
5744.325399,296.082377,-8733.488677,-222.061783
5744.325723,296.082377,-8656.879127,-296.082377
5744.326048,296.082377,-8350.440928,0.000000
5744.326372,74.020594,-8810.098227,-74.020594
5744.326696,222.061783,-8963.317327,-592.164754
5744.327021,296.082377,-8656.879127,-592.164754
5744.327345,740.205942,-8886.707777,-370.102971
5744.327669,74.020594,-8580.269578,-592.164754
5744.327994,222.061783,-8350.440928,-222.061783
5744.328318,666.185348,-8503.660028,-518.144159
5744.328643,148.041188,-8963.317327,-370.102971
5744.328967,444.123565,-8886.707777,-666.185348
5744.329291,592.164754,-9039.926876,-666.185348
5744.329616,222.061783,-8273.831378,-370.102971
5744.329940,444.123565,-8733.488677,-296.082377
5744.330264,518.144159,-8656.879127,0.000000
5744.330589,222.061783,-8350.440928,-444.123565
5744.330913,444.123565,-8427.050478,-592.164754
5744.331238,592.164754,-8120.612279,-444.123565
5744.331562,74.020594,-8886.707777,-148.041188
5744.331886,444.123565,-8580.269578,-592.164754
5744.332211,444.123565,-8120.612279,-296.082377
5744.332535,666.185348,-8810.098227,-222.061783
5744.332859,592.164754,-8197.221829,-666.185348
5744.333184,518.144159,-8580.269578,0.000000
5744.333508,370.102971,-9039.926876,-444.123565
5744.333833,296.082377,-8810.098227,-666.185348
5744.334157,444.123565,-8733.488677,-370.102971
5744.334481,592.164754,-8733.488677,-222.061783
5744.334806,370.102971,-8733.488677,0.000000
5744.335130,222.061783,-8503.660028,-222.061783
5744.335455,666.185348,-8427.050478,-296.082377
5744.335779,814.226536,-8580.269578,-222.061783
5744.336103,296.082377,-9039.926876,-592.164754
5744.336428,444.123565,-8580.269578,-444.123565
5744.336752,370.102971,-8427.050478,-222.061783
5744.337076,296.082377,-8656.879127,-296.082377
5744.337401,444.123565,-8580.269578,-296.082377
5744.337725,740.205942,-8350.440928,-518.144159
5744.338050,814.226536,-8580.269578,-296.082377
5744.338374,592.164754,-8503.660028,-592.164754
5744.338698,370.102971,-8963.317327,-518.144159
5744.339023,444.123565,-8733.488677,-518.144159
5744.339347,222.061783,-8656.879127,-370.102971
5744.339671,592.164754,-8656.879127,-592.164754
5744.339996,444.123565,-8273.831378,-592.164754
5744.340320,444.123565,-9116.536426,-370.102971
5744.340645,296.082377,-8886.707777,-518.144159
5744.340969,370.102971,-8810.098227,-814.226536
5744.341293,592.164754,-8656.879127,-370.102971
5744.341618,222.061783,-8580.269578,-296.082377
5744.341942,444.123565,-8656.879127,-592.164754
5744.342266,222.061783,-8350.440928,-518.144159
5744.342591,222.061783,-8656.879127,-222.061783
5744.342915,1036.288319,-8503.660028,-370.102971
5744.343240,222.061783,-8656.879127,-888.247130
5744.343564,444.123565,-8656.879127,-518.144159
5744.343888,296.082377,-8503.660028,-296.082377
5744.344213,296.082377,-8733.488677,0.000000
5744.344537,370.102971,-8273.831378,-666.185348
5744.344861,296.082377,-8656.879127,-444.123565
5744.345186,518.144159,-8503.660028,-222.061783
5744.345510,222.061783,-8733.488677,-666.185348
5744.345835,222.061783,-8733.488677,-666.185348
5744.346159,296.082377,-8120.612279,-296.082377
5744.346483,444.123565,-8350.440928,-666.185348
5744.346808,518.144159,-8810.098227,-370.102971
5744.347132,444.123565,-7890.783629,0.000000
5744.347456,592.164754,-8963.317327,-296.082377
5744.347781,444.123565,-8580.269578,-592.164754
5744.348105,296.082377,-8810.098227,-740.205942
5744.348430,148.041188,-8350.440928,74.020594
5744.348754,518.144159,-8120.612279,74.020594
5744.349078,518.144159,-8580.269578,-296.082377
5744.349403,666.185348,-8350.440928,-296.082377
5744.349727,666.185348,-8580.269578,-222.061783
5744.350051,740.205942,-9039.926876,-592.164754
5744.350376,370.102971,-8503.660028,-370.102971
5744.350700,370.102971,-8350.440928,-148.041188
5744.351025,370.102971,-8273.831378,0.000000
5744.351349,666.185348,-8350.440928,-518.144159
5744.351673,666.185348,-8656.879127,-518.144159
5744.351998,518.144159,-8580.269578,-296.082377
5744.352322,666.185348,-8427.050478,-444.123565
5744.352646,222.061783,-8580.269578,-592.164754
5744.352971,666.185348,-8427.050478,-370.102971
5744.353295,518.144159,-8273.831378,-370.102971
5744.353620,296.082377,-8656.879127,-518.144159
5744.353944,518.144159,-8197.221829,-370.102971
5744.354268,814.226536,-8886.707777,-296.082377
5744.354593,444.123565,-8810.098227,-444.123565
5744.354917,444.123565,-8733.488677,-518.144159
5744.355241,444.123565,-8733.488677,-592.164754
5744.355566,888.247130,-7890.783629,74.020594
5744.355890,444.123565,-8350.440928,-296.082377
5744.356215,518.144159,-8656.879127,-592.164754
5744.356539,444.123565,-8273.831378,-222.061783
5744.356864,444.123565,-8656.879127,-148.041188
5744.357188,444.123565,-8503.660028,-592.164754
5744.357512,444.123565,-8656.879127,-222.061783
5744.357837,148.041188,-8503.660028,-222.061783
5744.358161,296.082377,-8580.269578,74.020594
5744.358485,740.205942,-8350.440928,-592.164754
5744.358810,740.205942,-8350.440928,-444.123565
5744.359134,666.185348,-8427.050478,-222.061783
5744.359459,296.082377,-8963.317327,-222.061783
5744.359783,148.041188,-8810.098227,-370.102971
5744.360107,444.123565,-8503.660028,-222.061783
5744.360432,444.123565,-8810.098227,-74.020594
5744.360756,74.020594,-8273.831378,-222.061783
5744.361080,370.102971,-8503.660028,0.000000
5744.361405,666.185348,-8963.317327,74.020594
5744.361729,518.144159,-8580.269578,-592.164754
5744.362053,222.061783,-8733.488677,-592.164754
5744.362378,148.041188,-8580.269578,74.020594
5744.362702,962.267725,-8656.879127,0.000000
5744.363026,296.082377,-8503.660028,-444.123565
5744.363351,814.226536,-8350.440928,-370.102971
5744.363675,814.226536,-8656.879127,-148.041188
5744.363999,592.164754,-9422.974625,-296.082377
5744.364324,444.123565,-8427.050478,-296.082377
5744.364648,296.082377,-8427.050478,0.000000
5744.364972,222.061783,-8733.488677,0.000000
5744.365297,444.123565,-8656.879127,-444.123565
5744.365621,814.226536,-8427.050478,-222.061783
5744.365945,518.144159,-8273.831378,0.000000
5744.366270,592.164754,-8810.098227,-518.144159
5744.366594,148.041188,-8810.098227,-740.205942
5744.366918,0.000000,-8197.221829,0.000000
5744.367243,148.041188,-8810.098227,-74.020594
5744.367567,222.061783,-8810.098227,-370.102971
5744.367891,222.061783,-8580.269578,-666.185348
5744.368216,518.144159,-8733.488677,-370.102971
5744.368540,222.061783,-8120.612279,-444.123565
5744.368865,518.144159,-8963.317327,-666.185348
5744.369189,222.061783,-8350.440928,-518.144159
5744.369513,296.082377,-8273.831378,0.000000
5744.369838,444.123565,-8427.050478,-1036.288319
5744.370162,518.144159,-8656.879127,-666.185348
5744.370486,518.144159,-8273.831378,-444.123565
5744.370811,444.123565,-8503.660028,-370.102971
5744.371135,888.247130,-8733.488677,-962.267725
5744.371459,222.061783,-8963.317327,-592.164754
5744.371784,370.102971,-8503.660028,-370.102971
5744.372108,444.123565,-8503.660028,-222.061783
5744.372432,592.164754,-8733.488677,-814.226536
5744.372757,888.247130,-8427.050478,-370.102971
5744.373081,592.164754,-8503.660028,0.000000
5744.373405,296.082377,-8656.879127,-666.185348
5744.373730,444.123565,-8810.098227,-592.164754
5744.374054,740.205942,-8886.707777,-740.205942
5744.374378,518.144159,-8810.098227,-296.082377
5744.374703,518.144159,-8656.879127,-296.082377
5744.375027,444.123565,-8733.488677,-370.102971
5744.375351,592.164754,-9039.926876,0.000000
5744.375676,740.205942,-8656.879127,-444.123565
5744.376000,370.102971,-9116.536426,-666.185348
5744.376324,592.164754,-8656.879127,0.000000
5744.376649,222.061783,-8503.660028,-296.082377
5744.376973,0.000000,-8503.660028,-296.082377
5744.377297,444.123565,-8197.221829,-592.164754
5744.377622,592.164754,-8580.269578,-370.102971
5744.377946,370.102971,-8886.707777,-666.185348
5744.378271,148.041188,-8886.707777,-444.123565
5744.378595,222.061783,-8886.707777,-370.102971
5744.378919,74.020594,-8503.660028,0.000000
5744.379244,148.041188,-8963.317327,-296.082377
5744.379568,370.102971,-8656.879127,-592.164754
5744.379892,814.226536,-8273.831378,0.000000
5744.380217,370.102971,-8810.098227,-370.102971
5744.380541,518.144159,-8810.098227,-740.205942
5744.380865,592.164754,-8733.488677,-296.082377
5744.381190,666.185348,-8886.707777,-222.061783
5744.381514,444.123565,-8427.050478,-444.123565
5744.381838,296.082377,-8733.488677,-444.123565
5744.382163,740.205942,-8503.660028,-296.082377
5744.382487,740.205942,-9193.145976,0.000000
5744.382811,518.144159,-9116.536426,-740.205942
5744.383136,444.123565,-8733.488677,-740.205942
5744.383460,444.123565,-8197.221829,0.000000
5744.383784,74.020594,-8733.488677,-222.061783
5744.384109,296.082377,-8503.660028,0.000000
5744.384433,740.205942,-8503.660028,-148.041188
5744.384757,444.123565,-8733.488677,-370.102971
5744.385082,222.061783,-8810.098227,-296.082377
5744.385406,296.082377,-8427.050478,-222.061783
5744.385730,222.061783,-8580.269578,0.000000
5744.386055,222.061783,-8580.269578,0.000000
5744.386379,296.082377,-8656.879127,-518.144159
5744.386703,444.123565,-8197.221829,-666.185348
5744.387028,592.164754,-8197.221829,0.000000
5744.387352,370.102971,-8580.269578,-296.082377
5744.387677,666.185348,-8503.660028,-370.102971
5744.388001,296.082377,-8197.221829,-370.102971
5744.388325,740.205942,-8503.660028,0.000000
5744.388650,222.061783,-8503.660028,-370.102971
5744.388974,666.185348,-8197.221829,-296.082377
5744.389298,592.164754,-8580.269578,0.000000
5744.389623,444.123565,-8503.660028,-370.102971
5744.389947,296.082377,-9039.926876,-666.185348
5744.390271,518.144159,-8273.831378,-222.061783
5744.390596,370.102971,-8350.440928,-222.061783
5744.390920,296.082377,-9116.536426,0.000000
5744.391244,592.164754,-8197.221829,-148.041188
5744.391569,592.164754,-8273.831378,0.000000
5744.391893,518.144159,-8656.879127,-370.102971
5744.392217,148.041188,-8886.707777,-444.123565
5744.392542,296.082377,-8656.879127,-148.041188
5744.392866,0.000000,-8273.831378,0.000000
5744.393190,296.082377,-8733.488677,-148.041188
5744.393515,222.061783,-8580.269578,-592.164754
5744.393839,370.102971,-8350.440928,74.020594
5744.394163,222.061783,-8656.879127,-296.082377
5744.394488,296.082377,-8733.488677,-592.164754
5744.394812,518.144159,-8733.488677,-518.144159
5744.395136,296.082377,-9193.145976,-148.041188
5744.395461,370.102971,-8810.098227,0.000000
5744.395785,296.082377,-8350.440928,-148.041188
5744.396109,444.123565,-8503.660028,-296.082377
5744.396434,296.082377,-8810.098227,0.000000
5744.396758,444.123565,-8963.317327,-592.164754
5744.397083,0.000000,-8503.660028,-370.102971
5744.397407,370.102971,-8580.269578,74.020594
5744.397731,148.041188,-8886.707777,-370.102971
5744.398056,592.164754,-8350.440928,0.000000
5744.398380,666.185348,-8120.612279,-444.123565
5744.398704,1036.288319,-8656.879127,0.000000
5744.399029,740.205942,-8656.879127,-370.102971
5744.399353,444.123565,-8886.707777,-592.164754
5744.399677,666.185348,-8810.098227,-74.020594
5744.400002,222.061783,-8427.050478,-148.041188
5744.400326,370.102971,-8886.707777,-444.123565
5744.400650,370.102971,-8044.002729,-370.102971
5744.400975,1110.308913,-8427.050478,0.000000
5744.401299,222.061783,-8197.221829,-370.102971
5744.401623,444.123565,-9193.145976,-370.102971
5744.401948,222.061783,-8656.879127,-518.144159
5744.402272,666.185348,-9269.755526,148.041188
5744.402596,444.123565,-8427.050478,0.000000
5744.402921,518.144159,-8656.879127,-296.082377
5744.403245,814.226536,-8427.050478,0.000000
5744.403569,518.144159,-8886.707777,-296.082377
5744.403894,518.144159,-8810.098227,-740.205942
5744.404218,74.020594,-8427.050478,-296.082377
5744.404542,296.082377,-8810.098227,-296.082377
5744.404867,148.041188,-8503.660028,-370.102971
5744.405191,1110.308913,-8810.098227,-222.061783
5744.405515,518.144159,-8427.050478,-444.123565
5744.405840,814.226536,-8963.317327,-222.061783
5744.406164,592.164754,-8733.488677,-518.144159
5744.406489,888.247130,-8886.707777,-518.144159
5744.406813,666.185348,-8503.660028,-444.123565
5744.407137,370.102971,-8810.098227,-740.205942
5744.407462,0.000000,-8656.879127,-296.082377
5744.407786,74.020594,-8120.612279,-370.102971
5744.408110,148.041188,-8427.050478,-296.082377
5744.408435,222.061783,-8810.098227,-370.102971
5744.408759,148.041188,-8656.879127,-666.185348
5744.409083,370.102971,-8810.098227,0.000000
5744.409408,444.123565,-8350.440928,592.164754
5744.409732,518.144159,-8810.098227,-370.102971
5744.410056,666.185348,-8427.050478,-148.041188
5744.410381,370.102971,-8350.440928,0.000000
5744.410705,296.082377,-8503.660028,-148.041188
5744.411029,370.102971,-8656.879127,-148.041188
5744.411354,148.041188,-8197.221829,-222.061783
5744.411678,0.000000,-8503.660028,-370.102971
5744.412002,222.061783,-8427.050478,-370.102971
5744.412327,592.164754,-8197.221829,-740.205942
5744.412651,592.164754,-8273.831378,-296.082377
5744.412975,592.164754,-8656.879127,-518.144159
5744.413300,592.164754,-8886.707777,-814.226536
5744.413624,814.226536,-9346.365076,-296.082377
5744.413948,592.164754,-8580.269578,-148.041188
5744.414273,518.144159,-8656.879127,-444.123565
5744.414597,370.102971,-8120.612279,-518.144159
5744.414921,296.082377,-8120.612279,-296.082377
5744.415246,222.061783,-8733.488677,0.000000
5744.415570,444.123565,-8656.879127,-740.205942
5744.415895,370.102971,-8656.879127,-444.123565
5744.416219,222.061783,-8503.660028,-296.082377
5744.416543,0.000000,-8273.831378,222.061783
5744.416868,296.082377,-8427.050478,-148.041188
5744.417192,666.185348,-8350.440928,0.000000
5744.417516,444.123565,-8656.879127,0.000000
5744.417841,592.164754,-8963.317327,-1036.288319
5744.418165,370.102971,-8580.269578,-370.102971
5744.418489,444.123565,-8733.488677,-222.061783
5744.418814,148.041188,-8656.879127,-370.102971
5744.419138,518.144159,-8350.440928,-518.144159
5744.419462,148.041188,-8503.660028,-740.205942
5744.419787,148.041188,-8580.269578,-296.082377
5744.420111,74.020594,-8733.488677,-296.082377
5744.420435,74.020594,-8733.488677,-518.144159
5744.420760,370.102971,-8273.831378,-444.123565
5744.421084,296.082377,-8810.098227,-296.082377
5744.421408,666.185348,-8733.488677,-370.102971
5744.421733,296.082377,-8350.440928,-222.061783
5744.422057,592.164754,-9039.926876,0.000000
5744.422381,592.164754,-8580.269578,-518.144159
5744.422706,222.061783,-8733.488677,-592.164754
5744.423030,222.061783,-8503.660028,-296.082377
5744.423354,148.041188,-8350.440928,-222.061783
5744.423679,296.082377,-8963.317327,-666.185348
5744.424003,74.020594,-8503.660028,-592.164754
5744.424327,888.247130,-8350.440928,-148.041188
5744.424652,518.144159,-8810.098227,-370.102971
5744.424976,592.164754,-8963.317327,-296.082377
5744.425301,370.102971,-8886.707777,-592.164754
5744.425625,444.123565,-8733.488677,0.000000
5744.425949,666.185348,-8656.879127,-518.144159
5744.426274,592.164754,-9576.193725,-666.185348
5744.426598,444.123565,-8580.269578,-148.041188
5744.426922,518.144159,-8580.269578,0.000000
5744.427247,444.123565,-8580.269578,-814.226536
5744.427571,222.061783,-8427.050478,-592.164754
5744.427895,518.144159,-8503.660028,74.020594
5744.428220,370.102971,-8273.831378,-296.082377
5744.428544,888.247130,-8197.221829,0.000000
5744.428868,666.185348,-8197.221829,0.000000
5744.429193,518.144159,-8810.098227,0.000000
5744.429517,444.123565,-8503.660028,-296.082377
5744.429841,740.205942,-8810.098227,-222.061783
5744.430166,370.102971,-8427.050478,0.000000
5744.430490,444.123565,-8656.879127,0.000000
5744.430814,74.020594,-8503.660028,-444.123565
5744.431139,370.102971,-8350.440928,-296.082377
5744.431463,666.185348,-8886.707777,-370.102971
5744.431787,296.082377,-8810.098227,-296.082377
5744.432112,74.020594,-8503.660028,-518.144159
5744.432436,444.123565,-8427.050478,-370.102971
5744.432760,296.082377,-8656.879127,-74.020594
5744.433085,296.082377,-8350.440928,-370.102971
5744.433409,592.164754,-8503.660028,-296.082377
5744.433733,296.082377,-8427.050478,0.000000
5744.434058,148.041188,-8656.879127,-296.082377
5744.434382,148.041188,-8427.050478,-518.144159
5744.434707,148.041188,-8273.831378,-518.144159
5744.435031,222.061783,-8886.707777,-370.102971
5744.435355,222.061783,-8197.221829,-444.123565
5744.435680,74.020594,-8656.879127,-370.102971
5744.436004,444.123565,-8503.660028,0.000000
5744.436328,444.123565,-9116.536426,148.041188
5744.436653,444.123565,-9039.926876,-888.247130
5744.436977,370.102971,-8733.488677,-148.041188
5744.437301,74.020594,-8886.707777,0.000000
5744.437626,0.000000,-9193.145976,0.000000
5744.437950,518.144159,-8886.707777,-222.061783
5744.438274,592.164754,-9116.536426,0.000000
5744.438599,592.164754,-9116.536426,-518.144159
5744.438923,518.144159,-8427.050478,-592.164754
5744.439247,444.123565,-8733.488677,-296.082377
5744.439572,222.061783,-8656.879127,0.000000
5744.439896,370.102971,-8503.660028,-148.041188
5744.440220,444.123565,-8580.269578,-296.082377
5744.440545,740.205942,-8273.831378,0.000000
5744.440869,518.144159,-8427.050478,-296.082377
5744.441193,444.123565,-8886.707777,-592.164754
5744.441518,296.082377,-8503.660028,-518.144159
5744.441842,444.123565,-8733.488677,-296.082377
5744.442166,222.061783,-8427.050478,-518.144159
5744.442491,222.061783,-8350.440928,-444.123565
5744.442815,296.082377,-8427.050478,-518.144159
5744.443139,296.082377,-8427.050478,-148.041188
5744.443464,592.164754,-8350.440928,-740.205942
5744.443788,444.123565,-8733.488677,-888.247130
5744.444113,666.185348,-8427.050478,-296.082377
5744.444437,444.123565,-8580.269578,0.000000
5744.444761,518.144159,-8503.660028,-666.185348
5744.445086,666.185348,-8427.050478,-444.123565
5744.445410,1110.308913,-8733.488677,-222.061783
5744.445734,888.247130,-8427.050478,-148.041188
5744.446059,592.164754,-8503.660028,-962.267725
5744.446383,222.061783,-8503.660028,-444.123565
5744.446707,370.102971,-8427.050478,0.000000
5744.447032,444.123565,-8656.879127,-518.144159
5744.447356,444.123565,-8503.660028,-518.144159
5744.447680,148.041188,-8503.660028,222.061783
5744.448005,296.082377,-8656.879127,0.000000
5744.448329,296.082377,-8810.098227,-740.205942
5744.448653,296.082377,-8886.707777,-518.144159
5744.448978,296.082377,-8197.221829,222.061783
5744.449302,222.061783,-8427.050478,0.000000
5744.449626,0.000000,-8350.440928,-666.185348
5744.449951,222.061783,-8656.879127,-296.082377
5744.450275,296.082377,-8810.098227,-296.082377
5744.450599,296.082377,-8810.098227,-888.247130
5744.450924,74.020594,-8503.660028,-666.185348
5744.451248,0.000000,-8580.269578,0.000000
5744.451572,148.041188,-8580.269578,-296.082377
5744.451897,148.041188,-7890.783629,-370.102971
5744.452221,666.185348,-8427.050478,-666.185348
5744.452546,444.123565,-8656.879127,0.000000
5744.452870,370.102971,-8580.269578,-666.185348
5744.453194,370.102971,-9116.536426,-592.164754
5744.453519,444.123565,-8197.221829,-370.102971
5744.453843,444.123565,-8503.660028,-296.082377
5744.454167,222.061783,-8656.879127,-592.164754
5744.454492,296.082377,-8350.440928,-444.123565
5744.454816,666.185348,-8503.660028,0.000000
5744.455140,518.144159,-8656.879127,-296.082377
5744.455465,370.102971,-8810.098227,-666.185348
5744.455789,666.185348,-8810.098227,-518.144159
5744.456113,518.144159,-8273.831378,0.000000
5744.456438,444.123565,-8120.612279,-370.102971
5744.456762,518.144159,-8427.050478,-666.185348
5744.457086,888.247130,-8580.269578,-444.123565
5744.457411,666.185348,-8810.098227,-370.102971
5744.457735,518.144159,-8886.707777,-962.267725
5744.458059,296.082377,-8350.440928,-370.102971
5744.458384,444.123565,-8580.269578,-222.061783
5744.458708,518.144159,-8427.050478,-518.144159
5744.459033,370.102971,-8197.221829,-518.144159
5744.459357,740.205942,-8886.707777,-592.164754
5744.459681,666.185348,-8197.221829,-666.185348
5744.460006,370.102971,-8733.488677,-1110.308913
5744.460330,518.144159,-8656.879127,-370.102971
5744.460655,518.144159,-8503.660028,-148.041188
5744.460979,518.144159,-8810.098227,-370.102971
5744.461303,370.102971,-8580.269578,-296.082377
5744.461628,592.164754,-8886.707777,148.041188
5744.461952,518.144159,-9039.926876,-148.041188
5744.462276,370.102971,-8733.488677,-518.144159
5744.462601,370.102971,-8580.269578,-444.123565
5744.462925,518.144159,-8733.488677,0.000000
5744.463250,74.020594,-8273.831378,74.020594
5744.463574,444.123565,-8810.098227,-370.102971
5744.463898,592.164754,-8656.879127,0.000000
5744.464223,740.205942,-8503.660028,0.000000
5744.464547,518.144159,-8273.831378,-444.123565
5744.464871,444.123565,-8886.707777,-370.102971
5744.465196,518.144159,-8503.660028,-370.102971
5744.465520,222.061783,-8656.879127,-222.061783
5744.465845,592.164754,-8503.660028,-666.185348
5744.466169,592.164754,-8503.660028,-740.205942
5744.466493,666.185348,-8656.879127,-518.144159
5744.466818,296.082377,-8503.660028,-296.082377
5744.467142,148.041188,-9039.926876,-888.247130
5744.467466,666.185348,-8810.098227,-370.102971
5744.467791,370.102971,-8427.050478,-296.082377
5744.468115,222.061783,-8503.660028,-370.102971
5744.468440,296.082377,-8810.098227,-444.123565
5744.468764,888.247130,-8886.707777,0.000000
5744.469088,296.082377,-8733.488677,0.000000
5744.469413,518.144159,-8963.317327,-370.102971
5744.469737,444.123565,-8580.269578,-370.102971
5744.470061,222.061783,-8350.440928,74.020594
5744.470386,148.041188,-8273.831378,222.061783
5744.470710,592.164754,-8427.050478,-148.041188
5744.471035,666.185348,-8273.831378,0.000000
5744.471359,296.082377,-8503.660028,-518.144159
5744.471683,74.020594,-8656.879127,-518.144159
5744.472008,222.061783,-8427.050478,-222.061783
5744.472332,370.102971,-8733.488677,0.000000
5744.472657,444.123565,-8350.440928,-296.082377
5744.472981,444.123565,-7737.564530,-296.082377
5744.473305,814.226536,-8427.050478,-222.061783
5744.473630,814.226536,-8120.612279,0.000000
5744.473954,592.164754,-8350.440928,-222.061783
5744.474278,370.102971,-8273.831378,-296.082377
5744.474603,592.164754,-8273.831378,-296.082377
5744.474927,444.123565,-8580.269578,-222.061783
5744.475252,370.102971,-8273.831378,-370.102971
5744.475576,444.123565,-8350.440928,0.000000
5744.475900,666.185348,-8427.050478,-296.082377
5744.476225,444.123565,-8503.660028,-370.102971
5744.476549,296.082377,-8963.317327,-370.102971
5744.476873,666.185348,-8427.050478,-370.102971
5744.477198,222.061783,-8350.440928,-296.082377
5744.477522,296.082377,-8580.269578,-592.164754
5744.477847,444.123565,-8580.269578,-592.164754
5744.478171,592.164754,-8580.269578,-518.144159
5744.478495,444.123565,-8810.098227,-740.205942
5744.478820,518.144159,-9039.926876,-666.185348
5744.479144,222.061783,-8427.050478,-518.144159
5744.479468,296.082377,-8810.098227,0.000000
5744.479793,296.082377,-8273.831378,-518.144159
5744.480117,814.226536,-9269.755526,0.000000
5744.480442,740.205942,-8350.440928,-296.082377
5744.480766,592.164754,-8656.879127,-370.102971
5744.481090,518.144159,-8963.317327,-962.267725
5744.481415,370.102971,-8503.660028,-370.102971
5744.481739,296.082377,-8733.488677,0.000000
5744.482063,296.082377,-8580.269578,-666.185348
5744.482388,222.061783,-8810.098227,-370.102971
5744.482712,296.082377,-8580.269578,-296.082377
5744.483037,0.000000,-8963.317327,-148.041188
5744.483361,296.082377,-9193.145976,-740.205942
5744.483685,296.082377,-8810.098227,-370.102971
5744.484010,518.144159,-8427.050478,0.000000
5744.484334,296.082377,-8886.707777,-296.082377
5744.484659,518.144159,-8656.879127,-592.164754
5744.484983,592.164754,-8503.660028,-148.041188
5744.485307,518.144159,-8886.707777,-370.102971
5744.485632,0.000000,-9193.145976,-444.123565
5744.485956,444.123565,-8580.269578,-666.185348
5744.486280,222.061783,-8656.879127,-148.041188
5744.486605,296.082377,-8503.660028,-370.102971
5744.486929,370.102971,-8503.660028,-666.185348
5744.487254,592.164754,-8656.879127,-518.144159
5744.487578,666.185348,-8427.050478,-370.102971
5744.487902,740.205942,-8963.317327,-444.123565
5744.488227,296.082377,-8580.269578,-518.144159
5744.488551,296.082377,-9116.536426,-370.102971
5744.488875,148.041188,-9039.926876,-222.061783
5744.489200,222.061783,-8580.269578,-666.185348
5744.489524,518.144159,-8656.879127,-222.061783
5744.489849,444.123565,-8580.269578,0.000000
5744.490173,518.144159,-8503.660028,-444.123565
5744.490497,444.123565,-8580.269578,-592.164754
5744.490822,740.205942,-8503.660028,74.020594
5744.491146,370.102971,-8273.831378,0.000000
5744.491470,444.123565,-8656.879127,0.000000
5744.491795,740.205942,-7890.783629,-370.102971
5744.492119,740.205942,-8656.879127,-222.061783
5744.492444,296.082377,-8656.879127,-370.102971
5744.492768,370.102971,-9499.584175,0.000000
5744.493092,370.102971,-8580.269578,-222.061783
5744.493417,666.185348,-8427.050478,0.000000
5744.493741,592.164754,-8427.050478,-518.144159
5744.494065,666.185348,-8350.440928,-592.164754
5744.494390,740.205942,-8350.440928,-222.061783
5744.494714,444.123565,-8733.488677,-518.144159
5744.495039,296.082377,-8733.488677,-814.226536
5744.495363,222.061783,-8427.050478,-814.226536
5744.495687,74.020594,-8963.317327,444.123565
5744.496012,0.000000,-8580.269578,-74.020594
5744.496336,222.061783,-8810.098227,-444.123565
5744.496660,518.144159,-8580.269578,0.000000
5744.496985,592.164754,-8580.269578,0.000000
5744.497309,444.123565,-9116.536426,0.000000
5744.497634,296.082377,-8886.707777,-518.144159
5744.497958,370.102971,-8427.050478,0.000000
5744.498282,444.123565,-8503.660028,-370.102971
5744.498607,296.082377,-8427.050478,-444.123565
5744.498931,518.144159,-8197.221829,-518.144159
5744.499256,518.144159,-8656.879127,-592.164754
5744.499580,444.123565,-8886.707777,-592.164754
5744.499904,814.226536,-8886.707777,-666.185348
5744.500229,518.144159,-8503.660028,-518.144159
5744.500553,592.164754,-8427.050478,-222.061783
5744.500877,592.164754,-8580.269578,-666.185348
5744.501202,1110.308913,-8197.221829,-740.205942
5744.501526,666.185348,-8427.050478,-518.144159
5744.501851,518.144159,-8886.707777,-296.082377
5744.502175,0.000000,-8580.269578,-740.205942
5744.502499,296.082377,-8656.879127,-370.102971
5744.502824,74.020594,-8503.660028,222.061783
5744.503148,0.000000,-8886.707777,0.000000
5744.503472,148.041188,-8656.879127,0.000000
5744.503797,296.082377,-8580.269578,0.000000
5744.504121,296.082377,-9039.926876,0.000000
5744.504446,370.102971,-8733.488677,-222.061783
5744.504770,666.185348,-8044.002729,-148.041188
5744.505094,148.041188,-8120.612279,296.082377
5744.505419,592.164754,-8350.440928,0.000000
5744.505743,370.102971,-8120.612279,-296.082377
5744.506067,740.205942,-8427.050478,-296.082377
5744.506392,370.102971,-8733.488677,0.000000
5744.506716,222.061783,-8580.269578,-740.205942
5744.507041,148.041188,-7890.783629,-370.102971
5744.507365,518.144159,-8350.440928,-296.082377
5744.507689,370.102971,-8656.879127,-222.061783
5744.508014,666.185348,-8197.221829,-518.144159
5744.508338,740.205942,-8656.879127,0.000000
5744.508662,962.267725,-8580.269578,-370.102971
5744.508987,814.226536,-8580.269578,-148.041188
5744.509311,518.144159,-8427.050478,-444.123565
5744.509636,296.082377,-8427.050478,-148.041188
5744.509960,296.082377,-8580.269578,0.000000
5744.510284,222.061783,-8580.269578,0.000000
5744.510609,74.020594,-8350.440928,0.000000
5744.510933,148.041188,-8886.707777,296.082377
5744.511258,444.123565,-9116.536426,-370.102971
5744.511582,296.082377,-8810.098227,0.000000
5744.511906,0.000000,-8350.440928,0.000000
5744.512231,74.020594,-8810.098227,0.000000
5744.512555,296.082377,-8350.440928,-222.061783
5744.512879,370.102971,-8503.660028,-296.082377
5744.513204,222.061783,-8350.440928,-370.102971
5744.513528,370.102971,-8963.317327,0.000000
5744.513853,148.041188,-8810.098227,-518.144159
5744.514177,0.000000,-8273.831378,0.000000
5744.514501,74.020594,-8656.879127,-592.164754
5744.514826,592.164754,-8733.488677,-370.102971
5744.515150,518.144159,-8044.002729,-370.102971
5744.515474,444.123565,-8350.440928,0.000000
5744.515799,518.144159,-8886.707777,-296.082377
5744.516123,296.082377,-8580.269578,-592.164754
5744.516448,740.205942,-8580.269578,-296.082377
5744.516772,666.185348,-8580.269578,148.041188
5744.517096,666.185348,-8580.269578,0.000000
5744.517421,370.102971,-8503.660028,-296.082377
5744.517745,518.144159,-8656.879127,-370.102971
5744.518069,444.123565,-8810.098227,-370.102971
5744.518394,0.000000,-8656.879127,-296.082377
5744.518718,0.000000,-8503.660028,-444.123565
5744.519043,148.041188,-8963.317327,0.000000
5744.519367,444.123565,-8886.707777,-148.041188
5744.519691,962.267725,-8963.317327,-592.164754
5744.520016,518.144159,-8503.660028,-518.144159
5744.520340,740.205942,-8580.269578,-444.123565
5744.520664,444.123565,-8656.879127,-666.185348
5744.520989,296.082377,-8503.660028,-666.185348
5744.521313,296.082377,-8580.269578,-814.226536
5744.521638,518.144159,-8733.488677,-592.164754
5744.521962,814.226536,-8580.269578,-666.185348
5744.522286,370.102971,-8197.221829,-518.144159
5744.522611,962.267725,-8963.317327,-518.144159
5744.522935,592.164754,-8580.269578,-296.082377
5744.523260,592.164754,-8656.879127,-370.102971
5744.523584,740.205942,-8427.050478,-518.144159
5744.523908,814.226536,-8580.269578,-148.041188
5744.524233,444.123565,-8886.707777,-296.082377
5744.524557,148.041188,-8503.660028,-296.082377
5744.524881,666.185348,-8733.488677,0.000000
5744.525206,148.041188,-8886.707777,-444.123565
5744.525530,74.020594,-8350.440928,-148.041188
5744.525855,148.041188,-8656.879127,-518.144159
5744.526179,0.000000,-8580.269578,0.000000
5744.526503,518.144159,-8197.221829,0.000000
5744.526828,740.205942,-7967.393179,-888.247130
5744.527152,518.144159,-8273.831378,-444.123565
5744.527476,444.123565,-8503.660028,-222.061783
5744.527801,444.123565,-8963.317327,-444.123565
5744.528125,0.000000,-8044.002729,-370.102971
5744.528450,148.041188,-8886.707777,-518.144159
5744.528774,222.061783,-8810.098227,-592.164754
5744.529098,296.082377,-8273.831378,-444.123565
5744.529423,148.041188,-8197.221829,-814.226536
5744.529747,0.000000,-8580.269578,-222.061783
5744.530071,296.082377,-8503.660028,-370.102971
5744.530396,296.082377,-8733.488677,-518.144159
5744.530720,296.082377,-8503.660028,-148.041188
5744.531045,518.144159,-8427.050478,-296.082377
5744.531369,814.226536,-8580.269578,-296.082377
5744.531693,296.082377,-8120.612279,-444.123565
5744.532018,592.164754,-8733.488677,-222.061783
5744.532342,370.102971,-8120.612279,-222.061783
5744.532666,444.123565,-8810.098227,-370.102971
5744.532991,148.041188,-8503.660028,-518.144159
5744.533315,592.164754,-8273.831378,0.000000
5744.533640,444.123565,-8120.612279,-592.164754
5744.533964,592.164754,-8427.050478,-370.102971
5744.534288,814.226536,-8197.221829,-296.082377
5744.534613,814.226536,-8580.269578,-296.082377
5744.534937,518.144159,-8503.660028,-740.205942
5744.535261,888.247130,-8886.707777,-296.082377
5744.535586,666.185348,-8733.488677,-296.082377
5744.535910,370.102971,-8273.831378,-222.061783
5744.536235,296.082377,-8273.831378,-370.102971
5744.536559,74.020594,-8886.707777,-148.041188
5744.536883,370.102971,-8656.879127,0.000000
5744.537208,370.102971,-8810.098227,-444.123565
5744.537532,592.164754,-8580.269578,-296.082377
5744.537857,666.185348,-8810.098227,0.000000
5744.538181,370.102971,-8350.440928,222.061783
5744.538505,666.185348,-8503.660028,0.000000
5744.538830,666.185348,-8503.660028,-222.061783
5744.539154,518.144159,-9039.926876,0.000000
5744.539478,518.144159,-8886.707777,0.000000
5744.539803,370.102971,-8733.488677,-296.082377
5744.540127,296.082377,-8886.707777,-148.041188
5744.540452,444.123565,-8733.488677,0.000000
5744.540776,518.144159,-8580.269578,-592.164754
5744.541100,518.144159,-8273.831378,-370.102971
5744.541425,296.082377,-8886.707777,-370.102971
5744.541749,518.144159,-8580.269578,-592.164754
5744.542073,518.144159,-8656.879127,-666.185348
5744.542398,518.144159,-8886.707777,-370.102971
5744.542722,370.102971,-8580.269578,-444.123565
5744.543047,222.061783,-8350.440928,-296.082377
5744.543371,222.061783,-8427.050478,-444.123565
5744.543695,296.082377,-9193.145976,0.000000
5744.544020,444.123565,-8350.440928,-518.144159
5744.544344,222.061783,-8810.098227,-444.123565
5744.544668,222.061783,-8733.488677,-296.082377
5744.544993,74.020594,-8810.098227,-296.082377
5744.545317,666.185348,-8580.269578,-518.144159
5744.545642,444.123565,-8427.050478,-370.102971
5744.545966,370.102971,-8810.098227,-444.123565
5744.546290,518.144159,-8810.098227,-296.082377
5744.546615,0.000000,-8963.317327,148.041188
5744.546939,222.061783,-8886.707777,-296.082377
5744.547263,370.102971,-8350.440928,-444.123565
5744.547588,518.144159,-8580.269578,-296.082377
5744.547912,370.102971,-8733.488677,-370.102971
5744.548237,592.164754,-8810.098227,-370.102971
5744.548561,370.102971,-8733.488677,-518.144159
5744.548885,740.205942,-8656.879127,-296.082377
5744.549210,370.102971,-8427.050478,-518.144159
5744.549534,444.123565,-8810.098227,0.000000
5744.549859,666.185348,-7967.393179,0.000000
5744.550183,296.082377,-8273.831378,-148.041188
5744.550507,222.061783,-8580.269578,0.000000
5744.550832,222.061783,-8656.879127,0.000000
5744.551156,370.102971,-8886.707777,-148.041188
5744.551480,222.061783,-8580.269578,-148.041188
5744.551805,518.144159,-8656.879127,74.020594
5744.552129,296.082377,-8350.440928,0.000000
5744.552454,592.164754,-8350.440928,-444.123565
5744.552778,518.144159,-8656.879127,-296.082377
5744.553102,518.144159,-8427.050478,0.000000
5744.553427,666.185348,-8503.660028,-518.144159
5744.553751,222.061783,-8197.221829,-814.226536
5744.554075,370.102971,-8580.269578,-370.102971
5744.554400,444.123565,-8197.221829,-222.061783
5744.554724,222.061783,-8427.050478,-666.185348
5744.555049,222.061783,-8580.269578,-592.164754
5744.555373,370.102971,-8580.269578,-592.164754
5744.555697,444.123565,-8810.098227,-592.164754
5744.556022,296.082377,-8580.269578,-962.267725
5744.556346,592.164754,-8656.879127,-444.123565
5744.556670,592.164754,-8503.660028,-518.144159
5744.556995,444.123565,-8656.879127,-370.102971
5744.557319,222.061783,-8733.488677,0.000000
5744.557643,370.102971,-8810.098227,0.000000
5744.557968,740.205942,-9193.145976,222.061783
5744.558292,296.082377,-8810.098227,-296.082377
5744.558616,74.020594,-8656.879127,-148.041188
5744.558941,370.102971,-8733.488677,74.020594
5744.559265,0.000000,-8810.098227,-148.041188
5744.559589,518.144159,-8580.269578,-518.144159
5744.559913,148.041188,-8886.707777,-370.102971
5744.560238,296.082377,-8963.317327,-370.102971
5744.560562,296.082377,-8810.098227,-518.144159
5744.560886,74.020594,-8886.707777,-666.185348
5744.561211,222.061783,-8733.488677,-296.082377
5744.561535,518.144159,-8350.440928,-370.102971
5744.561859,518.144159,-8427.050478,-370.102971
5744.562183,148.041188,-7737.564530,148.041188
5744.562508,592.164754,-8427.050478,-518.144159
5744.562832,148.041188,-8656.879127,-1036.288319
5744.563156,222.061783,-8733.488677,-740.205942
5744.563480,148.041188,-9039.926876,-370.102971
5744.563805,444.123565,-8273.831378,-222.061783
5744.564129,444.123565,-8273.831378,-592.164754
5744.564453,444.123565,-8503.660028,-444.123565
5744.564778,814.226536,-8580.269578,-370.102971
5744.565102,814.226536,-8810.098227,-444.123565
5744.565426,518.144159,-8733.488677,-592.164754
5744.565750,296.082377,-8503.660028,-518.144159
5744.566075,444.123565,-8503.660028,-370.102971
5744.566399,444.123565,-8350.440928,-148.041188
5744.566723,814.226536,-8580.269578,-370.102971
5744.567048,518.144159,-8580.269578,-296.082377
5744.567372,370.102971,-8656.879127,-444.123565
5744.567696,148.041188,-8427.050478,-518.144159
5744.568020,370.102971,-8580.269578,-222.061783
5744.568345,666.185348,-8427.050478,0.000000
5744.568669,814.226536,-8427.050478,-222.061783
5744.568993,296.082377,-8350.440928,-296.082377
5744.569317,148.041188,-8427.050478,-296.082377
5744.569642,666.185348,-9039.926876,-296.082377
5744.569966,518.144159,-8733.488677,-592.164754
5744.570290,222.061783,-8427.050478,-444.123565
5744.570615,444.123565,-8197.221829,0.000000
5744.570939,148.041188,-8580.269578,-444.123565
5744.571263,370.102971,-8580.269578,-296.082377
5744.571587,444.123565,-8656.879127,-370.102971
5744.571912,370.102971,-9116.536426,-592.164754
5744.572236,296.082377,-8810.098227,-444.123565
5744.572560,370.102971,-8580.269578,-666.185348
5744.572885,592.164754,-8656.879127,-148.041188
5744.573209,296.082377,-8656.879127,-444.123565
5744.573533,592.164754,-8197.221829,-444.123565
5744.573857,370.102971,-8656.879127,-296.082377
5744.574182,222.061783,-8503.660028,-148.041188
5744.574506,370.102971,-9116.536426,-518.144159
5744.574830,666.185348,-8580.269578,-962.267725
5744.575154,370.102971,-8580.269578,-444.123565
5744.575479,666.185348,-8427.050478,-666.185348
5744.575803,296.082377,-8273.831378,-370.102971
5744.576127,666.185348,-8273.831378,-666.185348
5744.576452,666.185348,-8656.879127,-592.164754
5744.576776,592.164754,-8810.098227,-666.185348
5744.577100,222.061783,-8503.660028,-592.164754
5744.577424,370.102971,-8427.050478,-296.082377
5744.577749,1036.288319,-8810.098227,-370.102971
5744.578073,444.123565,-8273.831378,-740.205942
5744.578397,518.144159,-8580.269578,-592.164754
5744.578722,740.205942,-8733.488677,-592.164754
5744.579046,814.226536,-9269.755526,-370.102971
5744.579370,370.102971,-8886.707777,-444.123565
5744.579694,444.123565,-8810.098227,-222.061783
5744.580019,444.123565,-8656.879127,-222.061783
5744.580343,444.123565,-8427.050478,-148.041188
5744.580667,666.185348,-8273.831378,-222.061783
5744.580991,814.226536,-8503.660028,-222.061783
5744.581316,666.185348,-8427.050478,-370.102971
5744.581640,592.164754,-8886.707777,-444.123565
5744.581964,296.082377,-8503.660028,-518.144159
5744.582289,592.164754,-8656.879127,-222.061783
5744.582613,370.102971,-8273.831378,-518.144159
5744.582937,444.123565,-8503.660028,-296.082377
5744.583261,296.082377,-7890.783629,0.000000
5744.583586,518.144159,-8733.488677,-296.082377
5744.583910,296.082377,-8733.488677,-296.082377
5744.584234,444.123565,-8656.879127,-222.061783
5744.584559,296.082377,-8580.269578,0.000000
5744.584883,222.061783,-7967.393179,-148.041188
5744.585207,518.144159,-8503.660028,0.000000
5744.585531,444.123565,-8197.221829,0.000000
5744.585856,370.102971,-8656.879127,0.000000
5744.586180,148.041188,-8273.831378,0.000000
5744.586504,0.000000,-8427.050478,0.000000
5744.586828,296.082377,-8733.488677,0.000000
5744.587153,370.102971,-8350.440928,74.020594
5744.587477,740.205942,-8580.269578,0.000000
5744.587801,740.205942,-8733.488677,-222.061783
5744.588126,222.061783,-8580.269578,-148.041188
5744.588450,296.082377,-8733.488677,-222.061783
5744.588774,222.061783,-8503.660028,-444.123565
5744.589098,74.020594,-8733.488677,0.000000
5744.589423,370.102971,-8733.488677,-222.061783
5744.589747,296.082377,-8427.050478,-370.102971
5744.590071,592.164754,-8733.488677,-296.082377
5744.590396,592.164754,-8656.879127,-370.102971
5744.590720,74.020594,-8656.879127,-222.061783
5744.591044,148.041188,-8733.488677,-444.123565
5744.591368,296.082377,-8580.269578,-296.082377
5744.591693,148.041188,-8197.221829,-148.041188
5744.592017,148.041188,-8580.269578,-444.123565
5744.592341,222.061783,-8656.879127,-222.061783
5744.592665,888.247130,-8656.879127,-666.185348
5744.592990,296.082377,-8733.488677,-518.144159
5744.593314,444.123565,-9346.365076,-444.123565
5744.593638,296.082377,-9039.926876,-296.082377
5744.593963,296.082377,-8580.269578,0.000000
5744.594287,666.185348,-8580.269578,-370.102971
5744.594611,666.185348,-8656.879127,0.000000
5744.594935,962.267725,-8580.269578,-222.061783
5744.595260,444.123565,-8733.488677,-296.082377
5744.595584,296.082377,-8886.707777,-296.082377
5744.595908,444.123565,-8427.050478,-592.164754
5744.596233,370.102971,-8580.269578,-222.061783
5744.596557,444.123565,-8503.660028,-592.164754
5744.596881,370.102971,-8580.269578,-592.164754
5744.597205,444.123565,-8580.269578,-444.123565
5744.597530,148.041188,-9039.926876,0.000000
5744.597854,592.164754,-8810.098227,-518.144159
5744.598178,518.144159,-8580.269578,-740.205942
5744.598502,666.185348,-8273.831378,-370.102971
5744.598827,592.164754,-9116.536426,-296.082377
5744.599151,592.164754,-8580.269578,-592.164754
5744.599475,888.247130,-8503.660028,-592.164754
5744.599800,444.123565,-8580.269578,-666.185348
5744.600124,444.123565,-8963.317327,-592.164754
5744.600448,370.102971,-8503.660028,-740.205942
5744.600772,296.082377,-8963.317327,-296.082377
5744.601097,0.000000,-8273.831378,-370.102971
5744.601421,592.164754,-8656.879127,-444.123565
5744.601745,666.185348,-8810.098227,-296.082377
5744.602069,370.102971,-8503.660028,-296.082377
5744.602394,370.102971,-8810.098227,-666.185348
5744.602718,370.102971,-8503.660028,-814.226536
5744.603042,518.144159,-9193.145976,-518.144159
5744.603367,296.082377,-8350.440928,-296.082377
5744.603691,296.082377,-8580.269578,-296.082377
5744.604015,370.102971,-8350.440928,-148.041188
5744.604339,370.102971,-8580.269578,-296.082377
5744.604664,74.020594,-8886.707777,0.000000
5744.604988,148.041188,-8656.879127,-296.082377
5744.605312,148.041188,-8503.660028,0.000000
5744.605637,222.061783,-8656.879127,0.000000
5744.605961,0.000000,-8810.098227,296.082377
5744.606285,518.144159,-8580.269578,-296.082377
5744.606609,666.185348,-9116.536426,-444.123565
5744.606934,444.123565,-8580.269578,-518.144159
5744.607258,296.082377,-8810.098227,-370.102971
5744.607582,74.020594,-8503.660028,-148.041188
5744.607906,74.020594,-8580.269578,0.000000
5744.608231,518.144159,-8733.488677,-296.082377
5744.608555,666.185348,-8503.660028,-518.144159
5744.608879,666.185348,-8350.440928,-148.041188
5744.609204,370.102971,-8733.488677,-592.164754
5744.609528,592.164754,-8810.098227,-518.144159
5744.609852,592.164754,-8580.269578,-296.082377
5744.610176,814.226536,-8503.660028,0.000000
5744.610501,666.185348,-8733.488677,0.000000
5744.610825,444.123565,-8656.879127,-222.061783
5744.611149,518.144159,-8963.317327,-296.082377
5744.611474,518.144159,-8656.879127,-370.102971
5744.611798,592.164754,-9116.536426,-444.123565
5744.612122,296.082377,-8427.050478,-444.123565
5744.612446,296.082377,-8656.879127,0.000000
5744.612771,296.082377,-8580.269578,-222.061783
5744.613095,888.247130,-7967.393179,74.020594
5744.613419,740.205942,-8503.660028,-296.082377
5744.613743,666.185348,-8886.707777,-666.185348
5744.614068,296.082377,-8656.879127,-222.061783
5744.614392,592.164754,-9346.365076,-296.082377
5744.614716,222.061783,-8810.098227,-222.061783
5744.615041,370.102971,-8503.660028,-518.144159
5744.615365,518.144159,-8963.317327,-814.226536
5744.615689,370.102971,-8273.831378,-296.082377
5744.616013,222.061783,-8810.098227,-518.144159
5744.616338,518.144159,-8733.488677,-962.267725
5744.616662,444.123565,-8350.440928,-592.164754
5744.616986,444.123565,-8503.660028,-740.205942
5744.617311,740.205942,-7737.564530,-370.102971
5744.617635,592.164754,-8427.050478,-370.102971
5744.617959,518.144159,-8580.269578,-518.144159
5744.618283,518.144159,-8886.707777,-740.205942
5744.618608,370.102971,-8963.317327,-222.061783
5744.618932,518.144159,-8733.488677,-370.102971
5744.619256,518.144159,-8120.612279,-222.061783
5744.619580,222.061783,-8580.269578,-222.061783
5744.619905,444.123565,-8427.050478,0.000000
5744.620229,0.000000,-7890.783629,-296.082377
5744.620553,518.144159,-8656.879127,-74.020594
