#time,accel_x,accel_y,accel_z
5701.658398,296.082377,-9039.926876,296.082377
5701.658722,666.185348,-8503.660028,74.020594
5701.659047,666.185348,-8503.660028,74.020594
5701.659371,666.185348,-8963.317327,74.020594
5701.659696,222.061783,-8503.660028,148.041188
5701.660021,444.123565,-8580.269578,74.020594
5701.660345,444.123565,-8580.269578,0.000000
5701.660670,666.185348,-9193.145976,0.000000
5701.660994,518.144159,-9039.926876,0.000000
5701.661319,444.123565,-8427.050478,0.000000
5701.661643,148.041188,-8733.488677,148.041188
5701.661968,444.123565,-8810.098227,0.000000
5701.662293,888.247130,-8963.317327,222.061783
5701.662617,518.144159,-8733.488677,0.000000
5701.662942,444.123565,-8810.098227,148.041188
5701.663266,444.123565,-8963.317327,-148.041188
5701.663591,148.041188,-8963.317327,740.205942
5701.663915,222.061783,-8350.440928,0.000000
5701.664240,444.123565,-8810.098227,-148.041188
5701.664564,444.123565,-8580.269578,74.020594
5701.664889,592.164754,-8810.098227,-370.102971
5701.665214,148.041188,-9039.926876,-222.061783
5701.665538,222.061783,-8886.707777,-370.102971
5701.665863,296.082377,-8733.488677,-370.102971
5701.666187,370.102971,-8580.269578,-222.061783
5701.666512,296.082377,-8656.879127,0.000000
5701.666836,444.123565,-8580.269578,-222.061783
5701.667161,222.061783,-8886.707777,-148.041188
5701.667486,444.123565,-8580.269578,-370.102971
5701.667810,370.102971,-8580.269578,-666.185348
5701.668135,444.123565,-8580.269578,-444.123565
5701.668459,518.144159,-8580.269578,-370.102971
5701.668784,444.123565,-8656.879127,-592.164754
5701.669108,740.205942,-8503.660028,-222.061783
5701.669433,518.144159,-8656.879127,-370.102971
5701.669758,518.144159,-8810.098227,-222.061783
5701.670082,74.020594,-8656.879127,-296.082377
5701.670407,592.164754,-8733.488677,-296.082377
5701.670731,444.123565,-8733.488677,0.000000
5701.671056,518.144159,-8810.098227,-444.123565
5701.671380,444.123565,-8656.879127,0.000000
5701.671705,518.144159,-8427.050478,-296.082377
5701.672029,370.102971,-8656.879127,-296.082377
5701.672354,370.102971,-8886.707777,0.000000
5701.672679,592.164754,-8503.660028,-518.144159
5701.673003,518.144159,-8733.488677,-518.144159
5701.673328,518.144159,-8503.660028,-296.082377
5701.673652,296.082377,-8810.098227,-148.041188
5701.673977,296.082377,-8580.269578,-370.102971
5701.674301,370.102971,-8503.660028,-444.123565
5701.674626,444.123565,-8656.879127,-370.102971
5701.674951,1036.288319,-8656.879127,-296.082377
5701.675275,0.000000,-8503.660028,-296.082377
5701.675600,296.082377,-9039.926876,-518.144159
5701.675924,518.144159,-8503.660028,-592.164754
5701.676249,518.144159,-8886.707777,-148.041188
5701.676573,444.123565,-8656.879127,-370.102971
5701.676898,518.144159,-8733.488677,-444.123565
5701.677223,296.082377,-8503.660028,0.000000
5701.677547,74.020594,-8580.269578,0.000000
5701.677872,296.082377,-8197.221829,0.000000
5701.678196,444.123565,-8733.488677,-370.102971
5701.678521,666.185348,-8503.660028,-74.020594
5701.678845,222.061783,-8503.660028,0.000000
5701.679170,444.123565,-8044.002729,148.041188
5701.679494,592.164754,-8350.440928,0.000000
5701.679819,518.144159,-8427.050478,0.000000
5701.680144,592.164754,-8503.660028,74.020594
5701.680468,518.144159,-8733.488677,0.000000
5701.680793,296.082377,-8886.707777,222.061783
5701.681117,592.164754,-8580.269578,74.020594
5701.681442,518.144159,-8733.488677,0.000000
5701.681766,296.082377,-8580.269578,74.020594
5701.682091,222.061783,-8044.002729,296.082377
5701.682416,296.082377,-8580.269578,74.020594
5701.682740,296.082377,-8580.269578,148.041188
5701.683065,518.144159,-8580.269578,0.000000
5701.683389,518.144159,-8656.879127,222.061783
5701.683714,592.164754,-8656.879127,0.000000
5701.684038,592.164754,-8503.660028,0.000000
5701.684363,518.144159,-8503.660028,0.000000
5701.684688,740.205942,-8503.660028,74.020594
5701.685012,370.102971,-8580.269578,296.082377
5701.685337,740.205942,-8350.440928,0.000000
5701.685661,370.102971,-8350.440928,222.061783
5701.685986,296.082377,-8503.660028,222.061783
5701.686310,0.000000,-8197.221829,592.164754
5701.686635,518.144159,-8503.660028,148.041188
5701.686959,296.082377,-8350.440928,74.020594
5701.687284,296.082377,-8350.440928,148.041188
5701.687609,370.102971,-8810.098227,518.144159
5701.687933,444.123565,-8503.660028,592.164754
5701.688258,444.123565,-8427.050478,0.000000
5701.688582,592.164754,-8810.098227,296.082377
5701.688907,444.123565,-8427.050478,222.061783
5701.689231,666.185348,-8427.050478,222.061783
5701.689556,296.082377,-8580.269578,74.020594
5701.689881,222.061783,-8427.050478,222.061783
5701.690205,222.061783,-8580.269578,0.000000
5701.690530,444.123565,-8503.660028,518.144159
5701.690854,222.061783,-8580.269578,148.041188
5701.691179,370.102971,-8580.269578,0.000000
5701.691503,444.123565,-8580.269578,74.020594
5701.691828,518.144159,-7967.393179,148.041188
5701.692152,444.123565,-8580.269578,74.020594
5701.692477,296.082377,-8273.831378,148.041188
5701.692802,222.061783,-8656.879127,-222.061783
5701.693126,0.000000,-8580.269578,0.000000
5701.693451,0.000000,-8197.221829,-370.102971
5701.693775,0.000000,-8733.488677,0.000000
5701.694100,0.000000,-8427.050478,0.000000
5701.694424,0.000000,-8273.831378,0.000000
5701.694749,74.020594,-7660.954980,222.061783
5701.695074,148.041188,-8427.050478,148.041188
5701.695398,370.102971,-8580.269578,0.000000
5701.695723,148.041188,-8580.269578,222.061783
5701.696047,0.000000,-8273.831378,222.061783
5701.696372,0.000000,-8503.660028,222.061783
5701.696696,148.041188,-8503.660028,222.061783
5701.697021,370.102971,-8580.269578,0.000000
5701.697346,222.061783,-8580.269578,0.000000
5701.697670,518.144159,-8273.831378,0.000000
5701.697995,296.082377,-8580.269578,222.061783
5701.698319,148.041188,-8273.831378,222.061783
5701.698644,296.082377,-8350.440928,0.000000
5701.698968,518.144159,-8810.098227,74.020594
5701.699293,666.185348,-8580.269578,222.061783
5701.699617,444.123565,-8273.831378,0.000000
5701.699942,296.082377,-8427.050478,222.061783
5701.700267,518.144159,-8427.050478,444.123565
5701.700591,740.205942,-8810.098227,74.020594
5701.700916,296.082377,-8273.831378,222.061783
5701.701240,518.144159,-8580.269578,370.102971
5701.701565,296.082377,-8427.050478,0.000000
5701.701889,444.123565,-8656.879127,222.061783
5701.702214,444.123565,-8427.050478,0.000000
5701.702539,444.123565,-8733.488677,0.000000
5701.702863,370.102971,-8120.612279,370.102971
5701.703188,888.247130,-8580.269578,74.020594
5701.703512,740.205942,-8503.660028,0.000000
5701.703837,592.164754,-8503.660028,148.041188
5701.704161,814.226536,-8733.488677,222.061783
5701.704486,370.102971,-8656.879127,296.082377
5701.704811,592.164754,-8733.488677,296.082377
5701.705135,518.144159,-8350.440928,222.061783
5701.705460,148.041188,-8427.050478,370.102971
5701.705784,148.041188,-8580.269578,0.000000
5701.706109,518.144159,-8810.098227,-222.061783
5701.706433,148.041188,-8197.221829,74.020594
5701.706758,222.061783,-8503.660028,-296.082377
5701.707082,666.185348,-8503.660028,0.000000
5701.707407,666.185348,-8656.879127,-222.061783
5701.707732,666.185348,-8656.879127,0.000000
5701.708056,592.164754,-8427.050478,-74.020594
5701.708381,518.144159,-8503.660028,0.000000
5701.708705,148.041188,-8427.050478,-222.061783
5701.709030,0.000000,-8350.440928,0.000000
5701.709354,0.000000,-8733.488677,-666.185348
5701.709679,74.020594,-8810.098227,-296.082377
5701.710004,-296.082377,-8273.831378,-222.061783
5701.710328,222.061783,-9806.022374,-370.102971
5701.710653,222.061783,-8580.269578,-592.164754
5701.710977,888.247130,-8963.317327,-518.144159
5701.711302,962.267725,-8580.269578,-740.205942
5701.711626,888.247130,-8886.707777,-296.082377
5701.711951,888.247130,-8963.317327,-222.061783
5701.712276,444.123565,-8503.660028,-518.144159
5701.712600,296.082377,-8656.879127,-592.164754
5701.712925,148.041188,-8733.488677,-740.205942
5701.713249,518.144159,-8656.879127,-814.226536
5701.713574,0.000000,-8580.269578,-1036.288319
5701.713898,0.000000,-8810.098227,-888.247130
5701.714223,74.020594,-8733.488677,-592.164754
5701.714547,518.144159,-9806.022374,-1036.288319
5701.714872,592.164754,-8963.317327,-592.164754
5701.715197,888.247130,-8963.317327,-444.123565
5701.715521,888.247130,-9116.536426,-814.226536
5701.715846,518.144159,-8810.098227,-740.205942
5701.716170,592.164754,-9269.755526,-1332.370696
5701.716495,370.102971,-8810.098227,-962.267725
5701.716819,0.000000,-8350.440928,-962.267725
5701.717144,-370.102971,-8963.317327,-1110.308913
5701.717469,0.000000,-8656.879127,-1258.350101
5701.717793,74.020594,-8503.660028,-1036.288319
5701.718118,74.020594,-8580.269578,-962.267725
5701.718442,592.164754,-8427.050478,-814.226536
5701.718767,888.247130,-9729.412825,-740.205942
5701.719091,1036.288319,-8810.098227,-888.247130
5701.719416,1036.288319,-8733.488677,-814.226536
5701.719741,666.185348,-9116.536426,-740.205942
5701.720065,814.226536,-8733.488677,-740.205942
5701.720390,296.082377,-8810.098227,-740.205942
5701.720714,0.000000,-8656.879127,-1258.350101
5701.721039,-296.082377,-8580.269578,-962.267725
5701.721363,-222.061783,-8656.879127,-1110.308913
5701.721688,-370.102971,-9269.755526,-814.226536
5701.722012,222.061783,-8427.050478,-962.267725
5701.722337,444.123565,-8886.707777,-666.185348
5701.722662,1036.288319,-8580.269578,-518.144159
5701.722986,1480.411884,-8886.707777,-444.123565
5701.723311,1480.411884,-9116.536426,-740.205942
5701.723635,1332.370696,-8580.269578,-296.082377
5701.723960,888.247130,-8886.707777,-666.185348
5701.724284,666.185348,-8886.707777,-814.226536
5701.724609,518.144159,-8427.050478,-592.164754
5701.724934,0.000000,-8886.707777,-740.205942
5701.725258,-444.123565,-8656.879127,-888.247130
5701.725583,-148.041188,-8503.660028,-814.226536
5701.725907,-222.061783,-8427.050478,-592.164754
5701.726232,740.205942,-8427.050478,-444.123565
5701.726556,962.267725,-9193.145976,-370.102971
5701.726881,1628.453072,-8733.488677,0.000000
5701.727206,1554.432478,-8580.269578,0.000000
5701.727530,1332.370696,-9116.536426,0.000000
5701.727855,1036.288319,-8656.879127,-148.041188
5701.728179,518.144159,-8810.098227,-518.144159
5701.728504,148.041188,-8197.221829,-592.164754
5701.728828,74.020594,-8503.660028,-148.041188
5701.729153,-740.205942,-8197.221829,-666.185348
5701.729477,-370.102971,-8197.221829,-666.185348
5701.729802,0.000000,-8580.269578,-296.082377
5701.730127,740.205942,-8503.660028,-148.041188
5701.730451,1406.391290,-8580.269578,0.000000
5701.730776,1258.350101,-8427.050478,0.000000
5701.731100,1850.514855,-9116.536426,74.020594
5701.731425,1628.453072,-8733.488677,0.000000
5701.731749,1258.350101,-9116.536426,-370.102971
5701.732074,518.144159,-8810.098227,-444.123565
5701.732399,-222.061783,-8503.660028,-370.102971
5701.732723,-740.205942,-8197.221829,-962.267725
5701.733048,-518.144159,-8580.269578,-814.226536
5701.733372,-666.185348,-8656.879127,-962.267725
5701.733697,-222.061783,-8733.488677,-518.144159
5701.734021,592.164754,-8120.612279,-296.082377
5701.734346,888.247130,-9499.584175,-444.123565
5701.734670,1406.391290,-8886.707777,-296.082377
5701.734995,1776.494261,-9039.926876,-222.061783
5701.735320,1924.535449,-8886.707777,0.000000
5701.735644,1184.329507,-8886.707777,-518.144159
5701.735969,222.061783,-8733.488677,-888.247130
5701.736293,-222.061783,-8350.440928,-962.267725
5701.736618,-962.267725,-8580.269578,-962.267725
5701.736942,-740.205942,-8580.269578,-962.267725
5701.737267,0.000000,-8733.488677,-1184.329507
5701.737592,0.000000,-8580.269578,-740.205942
5701.737916,222.061783,-8503.660028,-592.164754
5701.738241,1036.288319,-9193.145976,-592.164754
5701.738565,1406.391290,-8963.317327,-444.123565
5701.738890,1998.556043,-8810.098227,-592.164754
5701.739214,1702.473667,-9039.926876,-592.164754
5701.739539,1480.411884,-9039.926876,-666.185348
5701.739864,814.226536,-8886.707777,-1406.391290
5701.740188,74.020594,-7967.393179,-1332.370696
5701.740513,-666.185348,-8427.050478,-1554.432478
5701.740837,-518.144159,-8197.221829,-1554.432478
5701.741162,-444.123565,-8044.002729,-1332.370696
5701.741486,0.000000,-9039.926876,-1258.350101
5701.741811,222.061783,-8273.831378,-814.226536
5701.742135,814.226536,-9346.365076,-962.267725
5701.742460,962.267725,-8656.879127,-1036.288319
5701.742785,1924.535449,-8886.707777,-444.123565
5701.743109,1332.370696,-9193.145976,-518.144159
5701.743434,1036.288319,-9039.926876,-888.247130
5701.743758,666.185348,-8580.269578,-1628.453072
5701.744083,148.041188,-8580.269578,-1258.350101
5701.744407,0.000000,-7967.393179,-1110.308913
5701.744732,-1258.350101,-8273.831378,-1258.350101
5701.745057,-370.102971,-8044.002729,-1480.411884
5701.745381,-666.185348,-7967.393179,-1036.288319
5701.745706,148.041188,-7967.393179,-296.082377
5701.746030,444.123565,-8656.879127,-296.082377
5701.746355,1628.453072,-8733.488677,0.000000
5701.746679,1628.453072,-8886.707777,-222.061783
5701.747004,1702.473667,-8810.098227,-222.061783
5701.747329,1258.350101,-8580.269578,-666.185348
5701.747653,740.205942,-8656.879127,-814.226536
5701.747978,370.102971,-7814.174080,-962.267725
5701.748302,-222.061783,-8197.221829,-962.267725
5701.748627,-1332.370696,-7660.954980,-1110.308913
5701.748951,-592.164754,-7967.393179,-888.247130
5701.749276,-740.205942,-8273.831378,-740.205942
5701.749600,0.000000,-8580.269578,0.000000
5701.749925,740.205942,-8656.879127,296.082377
5701.750249,1702.473667,-9039.926876,74.020594
5701.750574,1850.514855,-8886.707777,222.061783
5701.750898,1850.514855,-8886.707777,-370.102971
5701.751223,1184.329507,-8810.098227,148.041188
5701.751547,666.185348,-8503.660028,-592.164754
5701.751871,518.144159,-8197.221829,-740.205942
5701.752196,-740.205942,-8120.612279,-962.267725
5701.752520,-962.267725,-8503.660028,-666.185348
5701.752844,-370.102971,-8503.660028,-1036.288319
5701.753169,-370.102971,-8427.050478,-148.041188
5701.753493,222.061783,-8197.221829,74.020594
5701.753818,740.205942,-8503.660028,222.061783
5701.754142,1184.329507,-8810.098227,148.041188
5701.754466,2072.576638,-8580.269578,370.102971
5701.754791,1554.432478,-8120.612279,296.082377
5701.755115,1184.329507,-8886.707777,0.000000
5701.755439,592.164754,-8656.879127,-666.185348
5701.755764,222.061783,-8273.831378,-740.205942
5701.756088,-370.102971,-8197.221829,-666.185348
5701.756413,-888.247130,-8273.831378,-666.185348
5701.756737,-592.164754,-8120.612279,-518.144159
5701.757061,-148.041188,-8197.221829,0.000000
5701.757386,222.061783,-8350.440928,-222.061783
5701.757710,740.205942,-8656.879127,-148.041188
5701.758035,1184.329507,-8733.488677,370.102971
5701.758359,1628.453072,-9039.926876,666.185348
5701.758683,1554.432478,-8503.660028,148.041188
5701.759008,1184.329507,-9422.974625,-296.082377
5701.759332,814.226536,-8580.269578,-962.267725
5701.759656,148.041188,-8273.831378,-1036.288319
5701.759981,-296.082377,-8044.002729,-740.205942
5701.760305,-814.226536,-8427.050478,-1036.288319
5701.760630,-740.205942,-8427.050478,-888.247130
5701.760954,-370.102971,-8273.831378,-888.247130
5701.761278,148.041188,-8503.660028,-444.123565
5701.761603,518.144159,-9116.536426,0.000000
5701.761927,962.267725,-8427.050478,-296.082377
5701.762251,1924.535449,-9422.974625,0.000000
5701.762576,1332.370696,-8503.660028,-296.082377
5701.762900,1332.370696,-9346.365076,-148.041188
5701.763225,814.226536,-8503.660028,-962.267725
5701.763549,222.061783,-8810.098227,-740.205942
5701.763873,0.000000,-8197.221829,-962.267725
5701.764198,-666.185348,-8656.879127,-1258.350101
5701.764522,-740.205942,-8733.488677,-1332.370696
5701.764846,-296.082377,-8120.612279,-1110.308913
5701.765171,74.020594,-8580.269578,-296.082377
5701.765495,74.020594,-8044.002729,0.000000
5701.765820,740.205942,-9039.926876,-222.061783
5701.766144,1998.556043,-8963.317327,-222.061783
5701.766468,1184.329507,-8580.269578,0.000000
5701.766793,1628.453072,-9039.926876,-370.102971
5701.767117,1110.308913,-8120.612279,-1258.350101
5701.767442,592.164754,-8503.660028,-888.247130
5701.767766,148.041188,-7814.174080,-1406.391290
5701.768090,-592.164754,-8044.002729,-1110.308913
5701.768415,0.000000,-8733.488677,-1036.288319
5701.768739,-370.102971,-7660.954980,-592.164754
5701.769063,-148.041188,-8427.050478,-148.041188
5701.769388,444.123565,-8733.488677,148.041188
5701.769712,1406.391290,-9116.536426,0.000000
5701.770037,1924.535449,-9269.755526,0.000000
5701.770361,1406.391290,-8580.269578,444.123565
5701.770685,1702.473667,-9039.926876,0.000000
5701.771010,814.226536,-8503.660028,-740.205942
5701.771334,888.247130,-8580.269578,-740.205942
5701.771658,222.061783,-8350.440928,-1110.308913
5701.771983,-592.164754,-8350.440928,-1110.308913
5701.772307,-592.164754,-8427.050478,-592.164754
5701.772632,-222.061783,-7890.783629,-444.123565
5701.772956,-222.061783,-8580.269578,0.000000
5701.773280,518.144159,-8810.098227,0.000000
5701.773605,888.247130,-9039.926876,222.061783
5701.773929,1554.432478,-8503.660028,740.205942
5701.774253,1554.432478,-8656.879127,148.041188
5701.774578,1702.473667,-9269.755526,148.041188
5701.774902,1332.370696,-8427.050478,-814.226536
5701.775227,518.144159,-8733.488677,-518.144159
5701.775551,222.061783,-7967.393179,-888.247130
5701.775875,-666.185348,-8197.221829,-666.185348
5701.776200,-888.247130,-8656.879127,-814.226536
5701.776524,-444.123565,-7967.393179,-814.226536
5701.776849,0.000000,-8733.488677,-222.061783
5701.777173,444.123565,-8886.707777,-222.061783
5701.777497,1332.370696,-8886.707777,592.164754
5701.777822,1850.514855,-8733.488677,222.061783
5701.778146,1776.494261,-9193.145976,296.082377
5701.778470,1998.556043,-9499.584175,0.000000
5701.778795,1258.350101,-8733.488677,-518.144159
5701.779119,740.205942,-8656.879127,-444.123565
5701.779444,370.102971,-7967.393179,-814.226536
5701.779768,-666.185348,-8656.879127,-592.164754
5701.780092,-814.226536,-8427.050478,-1036.288319
5701.780417,-296.082377,-8350.440928,-666.185348
5701.780741,-74.020594,-8656.879127,0.000000
5701.781065,666.185348,-8963.317327,444.123565
5701.781390,1036.288319,-9039.926876,444.123565
5701.781714,2146.597232,-9422.974625,592.164754
5701.782039,2072.576638,-8886.707777,0.000000
5701.782363,1924.535449,-9729.412825,370.102971
5701.782687,1480.411884,-8427.050478,-518.144159
5701.783012,814.226536,-8886.707777,-666.185348
5701.783336,-296.082377,-8350.440928,-962.267725
5701.783660,-814.226536,-8733.488677,-592.164754
5701.783985,-1110.308913,-8273.831378,-592.164754
5701.784309,-666.185348,-8427.050478,0.000000
5701.784634,-296.082377,-8120.612279,-296.082377
5701.784958,444.123565,-9116.536426,0.000000
5701.785282,888.247130,-9882.631924,296.082377
5701.785607,962.267725,-9576.193725,518.144159
5701.785931,2368.659014,-8810.098227,666.185348
5701.786256,1406.391290,-8963.317327,444.123565
5701.786580,1480.411884,-9193.145976,-592.164754
5701.786904,74.020594,-8427.050478,-814.226536
5701.787229,-592.164754,-8656.879127,-518.144159
5701.787553,-888.247130,-8427.050478,-740.205942
5701.787877,-740.205942,-8273.831378,-518.144159
5701.788202,-888.247130,-8044.002729,74.020594
5701.788526,-296.082377,-8120.612279,-370.102971
5701.788851,0.000000,-8963.317327,148.041188
5701.789175,592.164754,-9039.926876,0.000000
5701.789499,1406.391290,-9039.926876,148.041188
5701.789824,1332.370696,-9039.926876,518.144159
5701.790148,1258.350101,-8810.098227,518.144159
5701.790472,1258.350101,-8656.879127,-148.041188
5701.790797,592.164754,-8580.269578,-888.247130
5701.791121,-222.061783,-8503.660028,-592.164754
5701.791446,-888.247130,-8120.612279,-592.164754
5701.791770,-1110.308913,-8427.050478,-592.164754
5701.792094,-888.247130,-8120.612279,-518.144159
5701.792419,-888.247130,-8886.707777,518.144159
5701.792743,222.061783,-8503.660028,74.020594
5701.793067,592.164754,-9193.145976,888.247130
5701.793392,1628.453072,-9193.145976,666.185348
5701.793716,1628.453072,-9116.536426,666.185348
5701.794041,1406.391290,-9039.926876,370.102971
5701.794365,740.205942,-8886.707777,0.000000
5701.794689,444.123565,-8580.269578,-148.041188
5701.795014,0.000000,-7890.783629,-518.144159
5701.795338,-518.144159,-8197.221829,-370.102971
5701.795663,-1258.350101,-8044.002729,-962.267725
5701.795987,-666.185348,-8580.269578,-370.102971
5701.796311,-740.205942,-8044.002729,74.020594
5701.796636,370.102971,-8886.707777,444.123565
5701.796960,814.226536,-9039.926876,370.102971
5701.797284,1776.494261,-8733.488677,666.185348
5701.797609,1850.514855,-9039.926876,444.123565
5701.797933,1702.473667,-8886.707777,296.082377
5701.798258,1184.329507,-8733.488677,0.000000
5701.798582,296.082377,-8197.221829,-666.185348
5701.798906,0.000000,-8044.002729,-888.247130
5701.799231,-1036.288319,-8044.002729,-740.205942
5701.799555,-962.267725,-8580.269578,-518.144159
5701.799879,-1036.288319,-7277.907231,-296.082377
5701.800204,-666.185348,-8886.707777,148.041188
5701.800528,148.041188,-8273.831378,74.020594
5701.800853,888.247130,-9576.193725,814.226536
5701.801177,1184.329507,-8963.317327,444.123565
5701.801501,2294.638420,-8810.098227,888.247130
5701.801826,1480.411884,-9193.145976,740.205942
5701.802150,1110.308913,-9269.755526,-74.020594
5701.802474,296.082377,-8350.440928,-740.205942
5701.802799,0.000000,-8273.831378,-666.185348
5701.803123,-1036.288319,-8503.660028,-296.082377
5701.803448,-1110.308913,-8120.612279,-518.144159
5701.803772,-1184.329507,-7890.783629,0.000000
5701.804096,-444.123565,-8580.269578,74.020594
5701.804421,222.061783,-8427.050478,148.041188
5701.804745,666.185348,-9346.365076,518.144159
5701.805070,1998.556043,-9346.365076,1110.308913
5701.805394,2072.576638,-9039.926876,888.247130
5701.805718,1628.453072,-9269.755526,444.123565
5701.806043,1480.411884,-8656.879127,0.000000
5701.806367,518.144159,-8963.317327,-814.226536
5701.806691,0.000000,-8197.221829,-666.185348
5701.807016,-888.247130,-7814.174080,-814.226536
5701.807340,-1184.329507,-8733.488677,-370.102971
5701.807665,-1110.308913,-8044.002729,-740.205942
5701.807989,-666.185348,-7967.393179,74.020594
5701.808313,222.061783,-8350.440928,0.000000
5701.808638,444.123565,-9422.974625,518.144159
5701.808962,1628.453072,-8810.098227,444.123565
5701.809286,1776.494261,-8656.879127,444.123565
5701.809611,1628.453072,-9039.926876,148.041188
5701.809935,1184.329507,-8810.098227,-518.144159
5701.810260,740.205942,-8427.050478,-444.123565
5701.810584,0.000000,-8044.002729,-518.144159
5701.810908,-888.247130,-8273.831378,-962.267725
5701.811233,-1110.308913,-8197.221829,-518.144159
5701.811557,-1184.329507,-7660.954980,-814.226536
5701.811881,-666.185348,-8580.269578,222.061783
5701.812206,518.144159,-8197.221829,74.020594
5701.812530,666.185348,-9422.974625,518.144159
5701.812855,1110.308913,-8580.269578,370.102971
5701.813179,2072.576638,-8886.707777,518.144159
5701.813503,1924.535449,-9039.926876,666.185348
5701.813828,1554.432478,-8810.098227,-370.102971
5701.814152,666.185348,-8503.660028,-888.247130
5701.814477,0.000000,-8197.221829,-1036.288319
5701.814801,-666.185348,-8273.831378,-1036.288319
5701.815125,-962.267725,-7890.783629,-518.144159
5701.815450,-962.267725,-8120.612279,-740.205942
5701.815774,-740.205942,-8350.440928,-370.102971
5701.816098,222.061783,-8120.612279,-370.102971
5701.816423,666.185348,-9269.755526,370.102971
5701.816747,1480.411884,-9116.536426,0.000000
5701.817072,2146.597232,-8733.488677,296.082377
5701.817396,1702.473667,-8886.707777,444.123565
5701.817720,1184.329507,-9116.536426,-444.123565
5701.818045,444.123565,-8886.707777,-740.205942
5701.818369,74.020594,-8273.831378,-888.247130
5701.818693,-222.061783,-8197.221829,-962.267725
5701.819018,-1332.370696,-8273.831378,-888.247130
5701.819342,-1036.288319,-8503.660028,0.000000
5701.819667,-814.226536,-8197.221829,-296.082377
5701.819991,-296.082377,-8350.440928,0.000000
5701.820315,666.185348,-8963.317327,296.082377
5701.820640,1924.535449,-7660.954980,814.226536
5701.820964,1776.494261,-9039.926876,370.102971
5701.821288,1554.432478,-9039.926876,0.000000
5701.821613,1332.370696,-8810.098227,-222.061783
5701.821937,592.164754,-8733.488677,-666.185348
5701.822262,222.061783,-8120.612279,-888.247130
5701.822586,-222.061783,-7967.393179,-740.205942
5701.822910,-814.226536,-8273.831378,-814.226536
5701.823235,-814.226536,-8044.002729,-962.267725
5701.823559,-444.123565,-8044.002729,-444.123565
5701.823884,0.000000,-8120.612279,370.102971
5701.824208,888.247130,-8733.488677,592.164754
5701.824532,1480.411884,-8656.879127,74.020594
5701.824857,2590.720797,-9039.926876,222.061783
5701.825181,1998.556043,-8886.707777,-222.061783
5701.825505,1554.432478,-9039.926876,-296.082377
5701.825830,888.247130,-8733.488677,-740.205942
5701.826154,444.123565,-8273.831378,-740.205942
5701.826479,-592.164754,-8197.221829,-740.205942
5701.826803,-1036.288319,-8044.002729,-1036.288319
5701.827127,-518.144159,-7967.393179,-740.205942
5701.827452,-518.144159,-7814.174080,-222.061783
5701.827776,666.185348,-7890.783629,74.020594
5701.828100,592.164754,-8656.879127,148.041188
5701.828425,1406.391290,-8886.707777,444.123565
5701.828749,2294.638420,-8810.098227,148.041188
5701.829074,1702.473667,-8503.660028,148.041188
5701.829398,1702.473667,-8886.707777,-148.041188
5701.829722,666.185348,-8733.488677,-592.164754
5701.830047,296.082377,-8580.269578,-962.267725
5701.830371,-222.061783,-8044.002729,-962.267725
5701.830695,-814.226536,-8273.831378,-1110.308913
5701.831020,-444.123565,-8197.221829,-518.144159
5701.831344,0.000000,-7890.783629,-666.185348
5701.831669,0.000000,-8580.269578,0.000000
5701.831993,814.226536,-8120.612279,0.000000
5701.832317,1258.350101,-9116.536426,0.000000
5701.832642,2220.617826,-9193.145976,148.041188
5701.832966,1480.411884,-8733.488677,0.000000
5701.833291,1702.473667,-9116.536426,0.000000
5701.833615,888.247130,-8733.488677,-1258.350101
5701.833939,370.102971,-8580.269578,-962.267725
5701.834264,-296.082377,-8120.612279,-1332.370696
5701.834588,-814.226536,-8733.488677,-1110.308913
5701.834912,-814.226536,-7890.783629,-1184.329507
5701.835237,-444.123565,-8427.050478,-740.205942
5701.835561,444.123565,-8580.269578,-444.123565
5701.835886,592.164754,-8810.098227,0.000000
5701.836210,814.226536,-8886.707777,222.061783
5701.836534,1628.453072,-8656.879127,222.061783
5701.836859,1406.391290,-8733.488677,0.000000
5701.837183,1036.288319,-8886.707777,-222.061783
5701.837507,888.247130,-8427.050478,-1258.350101
5701.837832,444.123565,-8503.660028,-1110.308913
5701.838156,296.082377,-7737.564530,-1110.308913
5701.838481,-666.185348,-8273.831378,-1184.329507
5701.838805,0.000000,-8733.488677,-962.267725
5701.839129,-740.205942,-8044.002729,-592.164754
5701.839454,222.061783,-8656.879127,0.000000
5701.839778,370.102971,-8810.098227,0.000000
5701.840102,962.267725,-8886.707777,148.041188
5701.840427,2146.597232,-9422.974625,296.082377
5701.840751,1110.308913,-8733.488677,0.000000
5701.841076,1036.288319,-9422.974625,-296.082377
5701.841400,666.185348,-8350.440928,-740.205942
5701.841724,296.082377,-8273.831378,-740.205942
5701.842049,0.000000,-8120.612279,-888.247130
5701.842373,-1184.329507,-8044.002729,-1184.329507
5701.842698,-222.061783,-8656.879127,-962.267725
5701.843022,-296.082377,-8273.831378,-592.164754
5701.843346,0.000000,-8733.488677,0.000000
5701.843671,518.144159,-8733.488677,0.000000
5701.843995,888.247130,-9039.926876,74.020594
5701.844319,1628.453072,-9116.536426,0.000000
5701.844644,1480.411884,-9116.536426,0.000000
5701.844968,1406.391290,-8963.317327,0.000000
5701.845293,740.205942,-8656.879127,-962.267725
5701.845617,74.020594,-8656.879127,-740.205942
5701.845941,0.000000,-7890.783629,-666.185348
5701.846266,-740.205942,-8044.002729,-1036.288319
5701.846590,-444.123565,-8503.660028,-740.205942
5701.846914,-518.144159,-8350.440928,-518.144159
5701.847239,0.000000,-8963.317327,0.000000
5701.847563,148.041188,-8580.269578,0.000000
5701.847888,888.247130,-9116.536426,0.000000
5701.848212,1554.432478,-8886.707777,-148.041188
5701.848536,1554.432478,-8503.660028,74.020594
5701.848861,1036.288319,-9422.974625,0.000000
5701.849185,814.226536,-8044.002729,-1036.288319
5701.849509,296.082377,-8197.221829,-1110.308913
5701.849834,0.000000,-8044.002729,-1110.308913
5701.850158,-592.164754,-8197.221829,-1110.308913
5701.850483,-148.041188,-8656.879127,-1184.329507
5701.850807,-666.185348,-8273.831378,-740.205942
5701.851131,0.000000,-9039.926876,-370.102971
5701.851456,296.082377,-9039.926876,-370.102971
5701.851780,740.205942,-9039.926876,0.000000
5701.852105,1628.453072,-8886.707777,0.000000
5701.852429,1258.350101,-8963.317327,-370.102971
5701.852754,1184.329507,-9346.365076,-444.123565
5701.853078,666.185348,-8580.269578,-962.267725
5701.853402,370.102971,-8810.098227,-814.226536
5701.853727,0.000000,-8350.440928,-1110.308913
5701.854051,0.000000,-8427.050478,-888.247130
5701.854376,-1036.288319,-8580.269578,-1184.329507
5701.854700,0.000000,-8733.488677,-1110.308913
5701.855024,0.000000,-8656.879127,-518.144159
5701.855349,370.102971,-8810.098227,-444.123565
5701.855673,962.267725,-8810.098227,-296.082377
5701.855998,1924.535449,-9576.193725,222.061783
5701.856322,1406.391290,-8503.660028,0.000000
5701.856647,1850.514855,-9116.536426,-888.247130
5701.856971,1258.350101,-8656.879127,-1184.329507
5701.857295,370.102971,-8197.221829,-1036.288319
5701.857620,518.144159,-8427.050478,-1702.473667
5701.857944,-1036.288319,-8273.831378,-1332.370696
5701.858269,-740.205942,-8580.269578,-1258.350101
5701.858593,-740.205942,-8580.269578,-814.226536
5701.858917,148.041188,-8273.831378,-444.123565
5701.859242,222.061783,-8580.269578,-370.102971
5701.859566,666.185348,-9116.536426,0.000000
5701.859891,1702.473667,-8810.098227,222.061783
5701.860215,1480.411884,-8656.879127,222.061783
5701.860540,1628.453072,-9269.755526,0.000000
5701.860864,1036.288319,-8197.221829,-962.267725
5701.861188,592.164754,-8656.879127,-814.226536
5701.861513,0.000000,-7660.954980,-1406.391290
5701.861837,-814.226536,-8656.879127,-1110.308913
5701.862162,-592.164754,-7967.393179,-962.267725
5701.862486,-962.267725,-8120.612279,-888.247130
5701.862811,0.000000,-8733.488677,-444.123565
5701.863135,814.226536,-8503.660028,-518.144159
5701.863459,962.267725,-9193.145976,0.000000
5701.863784,1110.308913,-8733.488677,0.000000
5701.864108,1924.535449,-8886.707777,148.041188
5701.864433,1184.329507,-9193.145976,-222.061783
5701.864757,1480.411884,-8733.488677,-962.267725
5701.865081,518.144159,-8197.221829,-962.267725
5701.865406,-666.185348,-8580.269578,-1036.288319
5701.865730,-666.185348,-8350.440928,-814.226536
5701.866055,-444.123565,-8427.050478,-1184.329507
5701.866379,-888.247130,-8427.050478,-444.123565
5701.866704,-148.041188,-8197.221829,-518.144159
5701.867028,222.061783,-9269.755526,0.000000
5701.867352,888.247130,-8656.879127,444.123565
5701.867677,1258.350101,-8656.879127,370.102971
5701.868001,1258.350101,-8810.098227,370.102971
5701.868326,888.247130,-9039.926876,-222.061783
5701.868650,1036.288319,-8580.269578,-888.247130
5701.868974,148.041188,-8733.488677,-444.123565
5701.869299,74.020594,-8350.440928,-888.247130
5701.869623,0.000000,-8197.221829,-962.267725
5701.869948,-740.205942,-8963.317327,-1258.350101
5701.870272,-592.164754,-8197.221829,-444.123565
5701.870597,0.000000,-8503.660028,-592.164754
5701.870921,0.000000,-9422.974625,74.020594
5701.871245,1480.411884,-9193.145976,148.041188
5701.871570,1850.514855,-9422.974625,222.061783
5701.871894,1406.391290,-9116.536426,0.000000
5701.872219,1776.494261,-8886.707777,-592.164754
5701.872543,1258.350101,-8810.098227,-444.123565
5701.872868,814.226536,-8350.440928,-814.226536
5701.873192,74.020594,-8197.221829,-814.226536
5701.873516,0.000000,-8350.440928,-1184.329507
5701.873841,-1036.288319,-8656.879127,-1258.350101
5701.874165,0.000000,-8044.002729,-1184.329507
5701.874490,-296.082377,-8197.221829,0.000000
5701.874814,370.102971,-8963.317327,0.000000
5701.875138,962.267725,-8810.098227,0.000000
5701.875463,1406.391290,-8810.098227,0.000000
5701.875787,1406.391290,-9039.926876,296.082377
5701.876112,1702.473667,-8733.488677,-296.082377
5701.876436,1258.350101,-8886.707777,-666.185348
5701.876761,370.102971,-8503.660028,-444.123565
5701.877085,592.164754,-8044.002729,-1110.308913
5701.877409,0.000000,-8044.002729,-1184.329507
5701.877734,-888.247130,-8427.050478,-666.185348
5701.878058,0.000000,-8197.221829,-666.185348
5701.878383,0.000000,-8580.269578,-222.061783
5701.878707,814.226536,-8120.612279,518.144159
5701.879031,1110.308913,-8886.707777,0.000000
5701.879356,1332.370696,-9039.926876,-148.041188
5701.879680,2072.576638,-8733.488677,740.205942
5701.880005,1628.453072,-7967.393179,0.000000
5701.880329,1110.308913,-8733.488677,0.000000
5701.880654,1258.350101,-8197.221829,-1184.329507
5701.880978,-370.102971,-8273.831378,-666.185348
5701.881302,-592.164754,-8120.612279,-1036.288319
5701.881627,-888.247130,-8044.002729,-888.247130
5701.881951,-296.082377,-8350.440928,-592.164754
5701.882276,0.000000,-8503.660028,-592.164754
5701.882600,370.102971,-9039.926876,-444.123565
5701.882924,592.164754,-8350.440928,518.144159
5701.883249,814.226536,-8503.660028,222.061783
5701.883573,1628.453072,-9499.584175,296.082377
5701.883898,1406.391290,-8580.269578,148.041188
5701.884222,1332.370696,-8963.317327,-222.061783
5701.884547,888.247130,-8273.831378,-1258.350101
5701.884871,74.020594,-8273.831378,-370.102971
5701.885195,-518.144159,-8197.221829,-592.164754
5701.885520,-962.267725,-8427.050478,-888.247130
5701.885844,-814.226536,-7737.564530,-740.205942
5701.886169,-444.123565,-8273.831378,-444.123565
5701.886493,518.144159,-8044.002729,0.000000
5701.886818,518.144159,-8656.879127,222.061783
5701.887142,1998.556043,-9116.536426,148.041188
5701.887466,1628.453072,-8810.098227,222.061783
5701.887791,1554.432478,-9039.926876,222.061783
5701.888115,1110.308913,-8580.269578,-148.041188
5701.888440,370.102971,-8350.440928,-370.102971
5701.888764,518.144159,-8273.831378,-666.185348
5701.889088,-296.082377,-7890.783629,-592.164754
5701.889413,-888.247130,-8350.440928,-962.267725
5701.889737,-444.123565,-8044.002729,-814.226536
5701.890062,0.000000,-8197.221829,0.000000
5701.890386,222.061783,-8580.269578,0.000000
5701.890711,592.164754,-8886.707777,222.061783
5701.891035,1406.391290,-8886.707777,222.061783
5701.891359,2294.638420,-8427.050478,296.082377
5701.891684,1554.432478,-8963.317327,148.041188
5701.892008,1332.370696,-8886.707777,-444.123565
5701.892333,888.247130,-8580.269578,-444.123565
5701.892657,222.061783,-8120.612279,-1036.288319
5701.892981,-888.247130,-8197.221829,-666.185348
5701.893306,-592.164754,-8273.831378,-666.185348
5701.893630,-740.205942,-8044.002729,-296.082377
5701.893955,-444.123565,-8656.879127,-296.082377
5701.894279,74.020594,-8810.098227,518.144159
5701.894604,518.144159,-9116.536426,296.082377
5701.894928,1184.329507,-8963.317327,296.082377
5701.895252,1998.556043,-8733.488677,518.144159
5701.895577,1702.473667,-9422.974625,666.185348
5701.895901,1036.288319,-8503.660028,-148.041188
5701.896226,666.185348,-8963.317327,-444.123565
5701.896550,-222.061783,-8273.831378,-740.205942
5701.896874,-888.247130,-7967.393179,-444.123565
5701.897199,-1628.453072,-7814.174080,-444.123565
5701.897523,-888.247130,-8273.831378,-296.082377
5701.897848,-148.041188,-8273.831378,-444.123565
5701.898172,222.061783,-8963.317327,-222.061783
5701.898497,666.185348,-8427.050478,0.000000
5701.898821,1554.432478,-8733.488677,222.061783
5701.899145,1554.432478,-9193.145976,296.082377
5701.899470,1628.453072,-8810.098227,0.000000
5701.899794,962.267725,-8810.098227,-222.061783
5701.900119,888.247130,-8656.879127,-814.226536
5701.900443,0.000000,-7890.783629,-666.185348
5701.900768,-962.267725,-8273.831378,-962.267725
5701.901092,-814.226536,-8427.050478,-814.226536
5701.901416,-888.247130,-7507.735880,-666.185348
5701.901741,0.000000,-8427.050478,-296.082377
5701.902065,296.082377,-8503.660028,0.000000
5701.902390,962.267725,-9116.536426,370.102971
5701.902714,1480.411884,-8963.317327,74.020594
5701.903038,1776.494261,-8886.707777,518.144159
5701.903363,1554.432478,-9193.145976,370.102971
5701.903687,1110.308913,-8886.707777,0.000000
5701.904012,592.164754,-8580.269578,0.000000
5701.904336,0.000000,-8197.221829,-518.144159
5701.904661,-666.185348,-8503.660028,-296.082377
5701.904985,-1110.308913,-8120.612279,-592.164754
5701.905309,-888.247130,-8350.440928,-296.082377
5701.905634,0.000000,-8273.831378,0.000000
5701.905958,222.061783,-8273.831378,222.061783
5701.906283,666.185348,-8886.707777,592.164754
5701.906607,1110.308913,-8656.879127,444.123565
5701.906931,1998.556043,-9576.193725,222.061783
5701.907256,1702.473667,-8886.707777,444.123565
5701.907580,1184.329507,-8963.317327,0.000000
5701.907905,296.082377,-8733.488677,-444.123565
5701.908229,-370.102971,-8120.612279,-444.123565
5701.908554,-888.247130,-8427.050478,-370.102971
5701.908878,-962.267725,-8120.612279,-592.164754
5701.909202,-1036.288319,-8273.831378,-444.123565
5701.909527,-296.082377,-8350.440928,-444.123565
5701.909851,148.041188,-8656.879127,296.082377
5701.910176,592.164754,-9269.755526,444.123565
5701.910500,1184.329507,-9193.145976,296.082377
5701.910824,1776.494261,-8580.269578,518.144159
5701.911149,1628.453072,-8886.707777,592.164754
5701.911473,1332.370696,-8886.707777,0.000000
5701.911798,666.185348,-8963.317327,-296.082377
5701.912122,0.000000,-8350.440928,-666.185348
5701.912447,-814.226536,-8733.488677,-370.102971
5701.912771,-1110.308913,-8656.879127,-518.144159
5701.913095,-962.267725,-8503.660028,0.000000
5701.913420,-592.164754,-8273.831378,-444.123565
5701.913744,74.020594,-8886.707777,148.041188
5701.914069,962.267725,-9039.926876,370.102971
5701.914393,1554.432478,-8886.707777,740.205942
5701.914718,1702.473667,-9116.536426,296.082377
5701.915042,1554.432478,-9039.926876,518.144159
5701.915366,1332.370696,-8963.317327,148.041188
5701.915691,592.164754,-9116.536426,-370.102971
5701.916015,0.000000,-8197.221829,-518.144159
5701.916340,-444.123565,-8197.221829,-592.164754
5701.916664,-1184.329507,-8350.440928,-592.164754
5701.916988,-1184.329507,-7967.393179,-518.144159
5701.917313,-740.205942,-8503.660028,-444.123565
5701.917637,74.020594,-8427.050478,0.000000
5701.917962,666.185348,-8810.098227,444.123565
5701.918286,1924.535449,-8427.050478,518.144159
5701.918611,1998.556043,-9039.926876,148.041188
5701.918935,1628.453072,-9499.584175,296.082377
5701.919259,1184.329507,-9116.536426,0.000000
5701.919584,740.205942,-9039.926876,-370.102971
5701.919908,0.000000,-8350.440928,-444.123565
5701.920233,-444.123565,-8273.831378,-444.123565
5701.920557,-1110.308913,-8273.831378,-888.247130
5701.920881,-962.267725,-8580.269578,-592.164754
5701.921206,-518.144159,-7967.393179,-296.082377
5701.921530,0.000000,-8733.488677,0.000000
5701.921855,592.164754,-9193.145976,296.082377
5701.922179,1480.411884,-8810.098227,444.123565
5701.922504,2516.700203,-8963.317327,74.020594
5701.922828,1924.535449,-9116.536426,0.000000
5701.923152,1554.432478,-9269.755526,0.000000
5701.923477,888.247130,-8733.488677,-814.226536
5701.923801,148.041188,-8427.050478,-814.226536
5701.924126,-666.185348,-8503.660028,-740.205942
5701.924450,-740.205942,-8273.831378,-740.205942
5701.924774,-740.205942,-7890.783629,-888.247130
5701.925099,-296.082377,-8503.660028,-444.123565
5701.925423,0.000000,-8044.002729,-444.123565
5701.925748,592.164754,-8580.269578,0.000000
5701.926072,1628.453072,-8656.879127,74.020594
5701.926397,2146.597232,-8886.707777,444.123565
5701.926721,2072.576638,-9576.193725,0.000000
5701.927045,1702.473667,-8810.098227,-444.123565
5701.927370,592.164754,-8580.269578,-370.102971
5701.927694,222.061783,-8273.831378,-666.185348
5701.928019,-148.041188,-8197.221829,-592.164754
5701.928343,-814.226536,-8120.612279,-888.247130
5701.928668,-592.164754,-8273.831378,-740.205942
5701.928992,-592.164754,-8120.612279,-592.164754
5701.929316,0.000000,-8733.488677,0.000000
5701.929641,1036.288319,-9499.584175,296.082377
5701.929965,1628.453072,-8810.098227,74.020594
5701.930290,2146.597232,-8810.098227,0.000000
5701.930614,1776.494261,-9039.926876,0.000000
5701.930938,1702.473667,-9269.755526,-296.082377
5701.931263,962.267725,-8963.317327,-1036.288319
5701.931587,592.164754,-8120.612279,-666.185348
5701.931912,-296.082377,-8427.050478,-1036.288319
5701.932236,-1036.288319,-8810.098227,-962.267725
5701.932561,-666.185348,-7660.954980,-1332.370696
5701.932885,-740.205942,-8350.440928,-518.144159
5701.933209,296.082377,-8197.221829,-444.123565
5701.933534,888.247130,-8886.707777,-296.082377
5701.933858,1036.288319,-9116.536426,-444.123565
5701.934183,1776.494261,-8810.098227,222.061783
5701.934507,1776.494261,-8886.707777,-296.082377
5701.934831,1702.473667,-9346.365076,-370.102971
5701.935156,1110.308913,-8656.879127,-962.267725
5701.935480,74.020594,-8733.488677,-962.267725
5701.935805,-740.205942,-8350.440928,-1184.329507
5701.936129,-592.164754,-8120.612279,-1184.329507
5701.936454,-666.185348,-8427.050478,-1110.308913
5701.936778,-148.041188,-8580.269578,-888.247130
5701.937102,74.020594,-8427.050478,-444.123565
5701.937427,222.061783,-8810.098227,0.000000
5701.937751,740.205942,-9116.536426,74.020594
5701.938076,2294.638420,-9729.412825,296.082377
5701.938400,1184.329507,-8963.317327,666.185348
5701.938724,1480.411884,-9039.926876,0.000000
5701.939049,1036.288319,-8427.050478,-962.267725
5701.939373,148.041188,-8656.879127,-592.164754
5701.939698,0.000000,-8350.440928,-888.247130
5701.940022,-1406.391290,-8427.050478,-962.267725
5701.940347,-814.226536,-8427.050478,-518.144159
5701.940671,-888.247130,-7814.174080,-518.144159
5701.940995,-148.041188,-8273.831378,148.041188
5701.941320,296.082377,-8963.317327,0.000000
5701.941644,1554.432478,-9193.145976,74.020594
5701.941969,1702.473667,-8810.098227,222.061783
5701.942293,1332.370696,-8886.707777,0.000000
5701.942618,962.267725,-9116.536426,-370.102971
5701.942942,518.144159,-8810.098227,-74.020594
5701.943266,592.164754,-8427.050478,-888.247130
5701.943591,370.102971,-8120.612279,-1258.350101
5701.943915,-740.205942,-8120.612279,-1036.288319
5701.944240,-370.102971,-8350.440928,-962.267725
5701.944564,-518.144159,-7660.954980,-814.226536
5701.944888,0.000000,-8580.269578,74.020594
5701.945213,1036.288319,-8810.098227,-148.041188
5701.945537,1184.329507,-8580.269578,222.061783
5701.945862,1850.514855,-8656.879127,296.082377
5701.946186,1628.453072,-8580.269578,0.000000
5701.946511,1628.453072,-9193.145976,-666.185348
5701.946835,740.205942,-8656.879127,-740.205942
5701.947159,222.061783,-8427.050478,-814.226536
5701.947484,0.000000,-8044.002729,-814.226536
5701.947808,-962.267725,-8120.612279,-888.247130
5701.948133,-444.123565,-8580.269578,-592.164754
5701.948457,-296.082377,-8197.221829,-814.226536
5701.948781,370.102971,-8886.707777,74.020594
5701.949106,666.185348,-8197.221829,0.000000
5701.949430,518.144159,-9346.365076,740.205942
5701.949755,1332.370696,-8733.488677,0.000000
5701.950079,1776.494261,-8580.269578,148.041188
5701.950404,1332.370696,-9116.536426,-148.041188
5701.950728,814.226536,-9422.974625,-1110.308913
5701.951052,296.082377,-8656.879127,-962.267725
5701.951377,-592.164754,-8197.221829,-1258.350101
5701.951701,-592.164754,-8503.660028,-1110.308913
5701.952026,-592.164754,-8350.440928,-1110.308913
5701.952350,0.000000,-8044.002729,-666.185348
5701.952675,74.020594,-8427.050478,-592.164754
5701.952999,444.123565,-8963.317327,-666.185348
5701.953323,740.205942,-8810.098227,-222.061783
5701.953648,814.226536,-8656.879127,0.000000
5701.953972,1702.473667,-9039.926876,0.000000
5701.954297,814.226536,-8580.269578,-222.061783
5701.954621,814.226536,-8963.317327,-888.247130
5701.954946,0.000000,-7660.954980,-1184.329507
5701.955270,-222.061783,-8044.002729,-740.205942
5701.955595,0.000000,-8120.612279,-962.267725
5701.955919,-666.185348,-8503.660028,-814.226536
5701.956243,-518.144159,-8503.660028,-962.267725
5701.956568,74.020594,-7967.393179,0.000000
5701.956892,518.144159,-8886.707777,0.000000
5701.957217,1258.350101,-8656.879127,0.000000
5701.957541,1776.494261,-8886.707777,74.020594
5701.957866,1554.432478,-9193.145976,444.123565
5701.958190,1110.308913,-8963.317327,-296.082377
5701.958515,740.205942,-8197.221829,-814.226536
5701.958839,518.144159,-8427.050478,-592.164754
5701.959163,0.000000,-7967.393179,-888.247130
5701.959488,-370.102971,-7890.783629,-1036.288319
5701.959812,-740.205942,-8656.879127,-962.267725
5701.960137,-444.123565,-8197.221829,-962.267725
5701.960461,0.000000,-8886.707777,0.000000
5701.960786,444.123565,-8427.050478,0.000000
5701.961110,1036.288319,-8963.317327,296.082377
5701.961434,1332.370696,-8886.707777,0.000000
5701.961759,1406.391290,-8656.879127,148.041188
5701.962083,1480.411884,-8656.879127,0.000000
5701.962408,888.247130,-8656.879127,-740.205942
5701.962732,444.123565,-8427.050478,-592.164754
5701.963057,74.020594,-8044.002729,-962.267725
5701.963381,-1110.308913,-8580.269578,-592.164754
5701.963706,-370.102971,-8427.050478,-1184.329507
5701.964030,-370.102971,-8503.660028,-740.205942
5701.964354,74.020594,-8733.488677,0.000000
5701.964679,592.164754,-8810.098227,-296.082377
5701.965003,1702.473667,-9269.755526,0.000000
5701.965328,1184.329507,-8886.707777,0.000000
5701.965652,1924.535449,-8656.879127,74.020594
5701.965977,1406.391290,-9193.145976,0.000000
5701.966301,1184.329507,-7814.174080,-814.226536
5701.966626,296.082377,-8427.050478,-740.205942
5701.966950,-444.123565,-8120.612279,-1184.329507
5701.967274,-740.205942,-8733.488677,-1110.308913
5701.967599,-962.267725,-8503.660028,-962.267725
5701.967923,-592.164754,-8733.488677,-740.205942
5701.968248,0.000000,-8733.488677,-370.102971
5701.968572,296.082377,-8810.098227,-222.061783
5701.968897,814.226536,-9346.365076,0.000000
5701.969221,1332.370696,-8580.269578,-148.041188
5701.969545,1776.494261,-8810.098227,0.000000
5701.969870,1110.308913,-8886.707777,-222.061783
5701.970194,1110.308913,-8886.707777,-888.247130
5701.970519,370.102971,-8580.269578,-962.267725
5701.970843,74.020594,-8503.660028,-1258.350101
5701.971168,-666.185348,-8656.879127,-1554.432478
5701.971492,-666.185348,-8810.098227,-1036.288319
5701.971817,-592.164754,-8350.440928,-1110.308913
5701.972141,74.020594,-9116.536426,-222.061783
5701.972465,666.185348,-8427.050478,-370.102971
5701.972790,962.267725,-9499.584175,0.000000
5701.973114,1924.535449,-8503.660028,0.000000
5701.973439,1850.514855,-9193.145976,-296.082377
5701.973763,1554.432478,-9422.974625,-148.041188
5701.974088,814.226536,-8273.831378,-1110.308913
5701.974412,666.185348,-8733.488677,-592.164754
5701.974737,222.061783,-7890.783629,-1258.350101
5701.975061,-296.082377,-8427.050478,-814.226536
5701.975385,-962.267725,-8350.440928,-1036.288319
5701.975710,-222.061783,-8044.002729,-814.226536
5701.976034,-296.082377,-8350.440928,-444.123565
5701.976359,444.123565,-8810.098227,148.041188
5701.976683,1258.350101,-8580.269578,518.144159
5701.977008,1258.350101,-8810.098227,0.000000
5701.977332,1184.329507,-8810.098227,0.000000
5701.977657,1332.370696,-8120.612279,0.000000
5701.977981,1110.308913,-8656.879127,-592.164754
5701.978305,518.144159,-8197.221829,-666.185348
5701.978630,370.102971,-7967.393179,-740.205942
5701.978954,-148.041188,-8120.612279,-592.164754
5701.979279,-1036.288319,-8197.221829,-666.185348
5701.979603,0.000000,-8273.831378,-1036.288319
5701.979928,296.082377,-8273.831378,0.000000
5701.980252,518.144159,-8580.269578,0.000000
5701.980576,814.226536,-8427.050478,0.000000
5701.980901,814.226536,-8197.221829,74.020594
5701.981225,1850.514855,-8886.707777,148.041188
5701.981550,1554.432478,-8810.098227,-222.061783
5701.981874,1110.308913,-9422.974625,-740.205942
5701.982199,1110.308913,-8120.612279,-888.247130
5701.982523,-222.061783,-8273.831378,-814.226536
5701.982848,-740.205942,-8503.660028,-814.226536
5701.983172,-592.164754,-8427.050478,-814.226536
5701.983496,-296.082377,-8197.221829,-296.082377
5701.983821,-148.041188,-8656.879127,-444.123565
5701.984145,444.123565,-8886.707777,0.000000
5701.984470,962.267725,-9116.536426,0.000000
5701.984794,1036.288319,-9652.803275,0.000000
5701.985119,1702.473667,-9116.536426,222.061783
5701.985443,1258.350101,-9039.926876,222.061783
5701.985768,1258.350101,-9116.536426,-370.102971
5701.986092,666.185348,-8427.050478,-740.205942
5701.986416,-148.041188,-8503.660028,-740.205942
5701.986741,-296.082377,-8427.050478,-666.185348
5701.987065,-666.185348,-8044.002729,-1110.308913
5701.987390,-666.185348,-8120.612279,-592.164754
5701.987714,-370.102971,-8810.098227,-370.102971
5701.988039,296.082377,-8963.317327,-444.123565
5701.988363,888.247130,-9116.536426,0.000000
5701.988687,1924.535449,-8963.317327,0.000000
5701.989012,1406.391290,-9193.145976,296.082377
5701.989336,1480.411884,-9039.926876,0.000000
5701.989661,962.267725,-9116.536426,-444.123565
5701.989985,370.102971,-8580.269578,-592.164754
5701.990310,296.082377,-8427.050478,-814.226536
5701.990634,0.000000,-8120.612279,-666.185348
5701.990959,-1184.329507,-8733.488677,-962.267725
5701.991283,-518.144159,-8273.831378,-962.267725
5701.991607,-222.061783,-8427.050478,-370.102971
5701.991932,814.226536,-9193.145976,148.041188
5701.992256,1110.308913,-8580.269578,74.020594
5701.992581,1036.288319,-8886.707777,222.061783
5701.992905,1776.494261,-9193.145976,444.123565
5701.993230,1702.473667,-9039.926876,296.082377
5701.993554,1480.411884,-9269.755526,0.000000
5701.993879,592.164754,-8427.050478,-370.102971
5701.994203,-222.061783,-8273.831378,-592.164754
5701.994527,-962.267725,-8580.269578,-518.144159
5701.994852,-814.226536,-8197.221829,-518.144159
5701.995176,-444.123565,-8197.221829,-518.144159
5701.995501,-444.123565,-8197.221829,0.000000
5701.995825,222.061783,-8580.269578,0.000000
5701.996150,296.082377,-8427.050478,518.144159
5701.996474,1110.308913,-8733.488677,74.020594
5701.996799,1998.556043,-8810.098227,296.082377
5701.997123,1258.350101,-9193.145976,370.102971
5701.997447,1406.391290,-9116.536426,0.000000
5701.997772,666.185348,-8273.831378,-814.226536
5701.998096,0.000000,-8197.221829,-592.164754
5701.998421,-888.247130,-8120.612279,-888.247130
5701.998745,-592.164754,-8197.221829,-1036.288319
5701.999070,-740.205942,-8044.002729,-740.205942
5701.999394,-148.041188,-8120.612279,-148.041188
5701.999718,296.082377,-8656.879127,-518.144159
5702.000043,888.247130,-8963.317327,296.082377
5702.000367,2442.679609,-9116.536426,0.000000
5702.000692,1702.473667,-8886.707777,222.061783
5702.001016,1628.453072,-8810.098227,296.082377
5702.001341,1258.350101,-8733.488677,-74.020594
5702.001665,370.102971,-8503.660028,-592.164754
5702.001990,0.000000,-8044.002729,-518.144159
5702.002314,-444.123565,-7967.393179,-740.205942
5702.002638,-1110.308913,-8580.269578,-888.247130
5702.002963,-518.144159,-8120.612279,-814.226536
5702.003287,0.000000,-8350.440928,-222.061783
5702.003612,222.061783,-8503.660028,0.000000
5702.003936,1184.329507,-9116.536426,0.000000
5702.004261,1702.473667,-8810.098227,148.041188
5702.004585,1924.535449,-9652.803275,666.185348
5702.004910,1258.350101,-9116.536426,-148.041188
5702.005234,962.267725,-8810.098227,-592.164754
5702.005558,888.247130,-8503.660028,-888.247130
5702.005883,222.061783,-8503.660028,-1036.288319
5702.006207,-518.144159,-8273.831378,-888.247130
5702.006532,-740.205942,-8044.002729,-1184.329507
5702.006856,-148.041188,-8044.002729,-1036.288319
5702.007181,-592.164754,-8273.831378,-740.205942
5702.007505,296.082377,-9039.926876,-296.082377
5702.007829,962.267725,-8810.098227,148.041188
5702.008154,1480.411884,-9193.145976,0.000000
5702.008478,1554.432478,-9039.926876,0.000000
5702.008803,2220.617826,-8580.269578,222.061783
5702.009127,1036.288319,-9116.536426,-444.123565
5702.009452,592.164754,-8656.879127,-666.185348
5702.009776,-148.041188,-8120.612279,-814.226536
5702.010101,-888.247130,-8580.269578,-592.164754
5702.010425,-740.205942,-8273.831378,-814.226536
5702.010749,-666.185348,-8197.221829,-592.164754
5702.011074,0.000000,-8427.050478,0.000000
5702.011398,370.102971,-8350.440928,148.041188
5702.011723,888.247130,-9269.755526,592.164754
5702.012047,1110.308913,-8810.098227,370.102971
5702.012372,1924.535449,-9039.926876,592.164754
5702.012696,1702.473667,-9039.926876,296.082377
5702.013021,1554.432478,-8503.660028,148.041188
5702.013345,370.102971,-8580.269578,-296.082377
5702.013669,-666.185348,-8273.831378,-444.123565
5702.013994,-1110.308913,-8044.002729,-444.123565
5702.014318,-1036.288319,-8273.831378,-518.144159
5702.014643,-740.205942,-8044.002729,0.000000
5702.014967,-370.102971,-8197.221829,0.000000
5702.015292,222.061783,-8733.488677,518.144159
5702.015616,740.205942,-8810.098227,814.226536
5702.015940,1110.308913,-8503.660028,296.082377
5702.016265,1628.453072,-8886.707777,814.226536
5702.016589,1406.391290,-8963.317327,740.205942
5702.016914,888.247130,-9039.926876,222.061783
5702.017238,370.102971,-8044.002729,-296.082377
5702.017563,-296.082377,-7967.393179,0.000000
5702.017887,-962.267725,-8273.831378,-370.102971
5702.018212,-962.267725,-7967.393179,-222.061783
5702.018536,-888.247130,-8197.221829,-370.102971
5702.018860,-370.102971,-8427.050478,0.000000
5702.019185,148.041188,-8427.050478,296.082377
5702.019509,888.247130,-8963.317327,296.082377
5702.019834,1702.473667,-8963.317327,518.144159
5702.020158,1998.556043,-9499.584175,222.061783
5702.020483,1258.350101,-9269.755526,518.144159
5702.020807,740.205942,-8580.269578,-296.082377
5702.021132,296.082377,-8580.269578,-592.164754
5702.021456,74.020594,-8197.221829,-740.205942
5702.021780,-370.102971,-8044.002729,-444.123565
5702.022105,-1332.370696,-8197.221829,-814.226536
5702.022429,-518.144159,-8350.440928,-888.247130
5702.022754,-296.082377,-8273.831378,-444.123565
5702.023078,518.144159,-8810.098227,0.000000
5702.023403,1184.329507,-8886.707777,0.000000
5702.023727,1776.494261,-8963.317327,0.000000
5702.024052,1776.494261,-8733.488677,0.000000
5702.024376,1332.370696,-8810.098227,74.020594
5702.024700,1258.350101,-9039.926876,-148.041188
5702.025025,518.144159,-8580.269578,-888.247130
5702.025349,222.061783,-8120.612279,-962.267725
5702.025674,-296.082377,-8120.612279,-962.267725
5702.025998,-592.164754,-8120.612279,-1036.288319
5702.026323,-666.185348,-8273.831378,-1036.288319
5702.026647,0.000000,-8580.269578,-1036.288319
5702.026971,0.000000,-8733.488677,74.020594
5702.027296,1406.391290,-9039.926876,0.000000
5702.027620,1480.411884,-8580.269578,0.000000
5702.027945,1924.535449,-8733.488677,148.041188
5702.028269,1628.453072,-9193.145976,0.000000
5702.028594,1554.432478,-8963.317327,-444.123565
5702.028918,666.185348,-8810.098227,-592.164754
5702.029243,296.082377,-8197.221829,-888.247130
5702.029567,-296.082377,-8120.612279,-888.247130
5702.029891,-814.226536,-8427.050478,-888.247130
5702.030216,-518.144159,-8044.002729,-1036.288319
5702.030540,-370.102971,-8197.221829,-370.102971
5702.030865,444.123565,-8810.098227,-222.061783
5702.031189,814.226536,-8656.879127,0.000000
5702.031514,1406.391290,-9652.803275,592.164754
5702.031838,1332.370696,-8963.317327,0.000000
5702.032163,1924.535449,-8810.098227,518.144159
5702.032487,1258.350101,-9039.926876,0.000000
5702.032811,1036.288319,-9346.365076,-518.144159
5702.033136,-222.061783,-8273.831378,-814.226536
5702.033460,-888.247130,-8273.831378,-740.205942
5702.033785,-740.205942,-8120.612279,-666.185348
5702.034109,-888.247130,-8197.221829,-444.123565
5702.034434,-296.082377,-8350.440928,-296.082377
5702.034758,0.000000,-8273.831378,0.000000
5702.035082,444.123565,-9193.145976,0.000000
5702.035407,888.247130,-8733.488677,444.123565
5702.035731,2368.659014,-9039.926876,962.267725
5702.036056,1184.329507,-9422.974625,518.144159
5702.036380,1332.370696,-9269.755526,0.000000
5702.036705,740.205942,-8580.269578,-370.102971
5702.037029,148.041188,-8656.879127,-444.123565
5702.037354,-74.020594,-8350.440928,-444.123565
5702.037678,-1110.308913,-8350.440928,-740.205942
5702.038002,-814.226536,-8044.002729,-592.164754
5702.038327,-814.226536,-7890.783629,-666.185348
5702.038651,296.082377,-8733.488677,0.000000
5702.038976,1110.308913,-8810.098227,148.041188
5702.039300,1998.556043,-8810.098227,222.061783
5702.039625,1480.411884,-9193.145976,222.061783
5702.039949,1258.350101,-9269.755526,1110.308913
5702.040274,962.267725,-9346.365076,0.000000
5702.040598,592.164754,-9039.926876,-666.185348
5702.040922,370.102971,-8350.440928,-666.185348
5702.041247,-222.061783,-8273.831378,-666.185348
5702.041571,-1258.350101,-8427.050478,-666.185348
5702.041896,-592.164754,-8197.221829,-962.267725
5702.042220,-370.102971,-8273.831378,-666.185348
5702.042545,296.082377,-8350.440928,148.041188
5702.042869,1332.370696,-8503.660028,0.000000
5702.043193,1480.411884,-8810.098227,74.020594
5702.043518,2146.597232,-8963.317327,592.164754
5702.043842,1480.411884,-9116.536426,-222.061783
5702.044167,1702.473667,-9269.755526,0.000000
5702.044491,518.144159,-8733.488677,-444.123565
5702.044816,148.041188,-8580.269578,-444.123565
5702.045140,0.000000,-8120.612279,-962.267725
5702.045465,-740.205942,-8427.050478,-962.267725
5702.045789,-370.102971,-8656.879127,-888.247130
5702.046113,-74.020594,-7814.174080,-592.164754
5702.046438,0.000000,-8810.098227,74.020594
5702.046762,888.247130,-8810.098227,74.020594
5702.047087,1628.453072,-8886.707777,0.000000
5702.047411,1924.535449,-8963.317327,296.082377
5702.047736,1332.370696,-8733.488677,0.000000
5702.048060,1480.411884,-9269.755526,0.000000
5702.048385,814.226536,-7890.783629,-592.164754
5702.048709,148.041188,-8503.660028,-962.267725
5702.049033,-592.164754,-8044.002729,-1258.350101
5702.049358,-666.185348,-8197.221829,-1110.308913
5702.049682,-518.144159,-7814.174080,-666.185348
5702.050007,-518.144159,-7967.393179,-592.164754
5702.050331,518.144159,-8503.660028,-296.082377
5702.050656,518.144159,-8886.707777,-444.123565
5702.050980,888.247130,-9193.145976,0.000000
5702.051305,1554.432478,-8503.660028,592.164754
5702.051629,1406.391290,-8886.707777,370.102971
5702.051953,1258.350101,-9039.926876,-296.082377
5702.052278,888.247130,-8427.050478,-1184.329507
5702.052602,0.000000,-8120.612279,-370.102971
5702.052927,-592.164754,-8120.612279,-814.226536
5702.053251,-962.267725,-8120.612279,-814.226536
5702.053576,-740.205942,-7967.393179,-888.247130
5702.053900,-444.123565,-8273.831378,-444.123565
5702.054225,592.164754,-8044.002729,-370.102971
5702.054549,518.144159,-8656.879127,148.041188
5702.054874,1184.329507,-8886.707777,444.123565
5702.055198,1480.411884,-9116.536426,148.041188
5702.055523,1406.391290,-9269.755526,148.041188
5702.055847,1258.350101,-8963.317327,-444.123565
5702.056172,592.164754,-8273.831378,-814.226536
5702.056496,74.020594,-8197.221829,-1036.288319
5702.056821,0.000000,-8197.221829,-962.267725
5702.057145,-666.185348,-8273.831378,-1480.411884
5702.057470,0.000000,-8427.050478,-814.226536
5702.057794,0.000000,-7814.174080,-1036.288319
5702.058119,444.123565,-8810.098227,74.020594
5702.058443,814.226536,-8733.488677,-222.061783
5702.058768,1406.391290,-9039.926876,0.000000
5702.059092,1628.453072,-8656.879127,0.000000
5702.059417,1258.350101,-9039.926876,-222.061783
5702.059741,1850.514855,-8656.879127,0.000000
5702.060066,740.205942,-8886.707777,-814.226536
5702.060390,296.082377,-8810.098227,-1036.288319
5702.060715,-222.061783,-8197.221829,-1184.329507
5702.061039,-740.205942,-8503.660028,-1036.288319
5702.061364,-296.082377,-8656.879127,-888.247130
5702.061688,-296.082377,-8350.440928,-814.226536
5702.062013,296.082377,-9269.755526,-148.041188
5702.062337,888.247130,-9116.536426,0.000000
5702.062662,1258.350101,-8580.269578,296.082377
5702.062986,1776.494261,-9269.755526,-148.041188
5702.063311,1332.370696,-8886.707777,-222.061783
5702.063635,1110.308913,-9193.145976,-148.041188
5702.063960,592.164754,-8810.098227,-1184.329507
5702.064284,222.061783,-8810.098227,-1110.308913
5702.064609,74.020594,-8503.660028,-1258.350101
5702.064933,-518.144159,-8886.707777,-1110.308913
5702.065257,-296.082377,-8733.488677,-1184.329507
5702.065582,0.000000,-8044.002729,-888.247130
5702.065906,148.041188,-8963.317327,0.000000
5702.066231,666.185348,-8733.488677,-740.205942
5702.066555,962.267725,-8963.317327,-222.061783
5702.066880,1036.288319,-9193.145976,-370.102971
5702.067204,1776.494261,-8963.317327,-222.061783
5702.067529,814.226536,-8886.707777,-74.020594
5702.067853,740.205942,-9193.145976,-666.185348
5702.068178,370.102971,-8580.269578,-888.247130
5702.068502,-740.205942,-8503.660028,-814.226536
5702.068827,-666.185348,-8656.879127,-814.226536
5702.069151,-518.144159,-8273.831378,-518.144159
5702.069476,-666.185348,-8427.050478,-518.144159
5702.069800,74.020594,-8810.098227,0.000000
5702.070125,370.102971,-8810.098227,0.000000
5702.070449,592.164754,-8656.879127,222.061783
5702.070774,1480.411884,-8810.098227,296.082377
5702.071098,1480.411884,-9269.755526,518.144159
5702.071423,1258.350101,-9039.926876,0.000000
5702.071747,888.247130,-8503.660028,-962.267725
5702.072072,222.061783,-8273.831378,-518.144159
5702.072396,0.000000,-8273.831378,-666.185348
5702.072721,-666.185348,-8503.660028,-888.247130
5702.073045,-444.123565,-8273.831378,-1110.308913
5702.073370,-666.185348,-8503.660028,-592.164754
5702.073694,296.082377,-7967.393179,0.000000
5702.074019,0.000000,-8427.050478,0.000000
5702.074343,962.267725,-8810.098227,0.000000
5702.074668,1184.329507,-8197.221829,0.000000
5702.074992,1332.370696,-8810.098227,0.000000
5702.075317,962.267725,-8503.660028,-444.123565
5702.075641,740.205942,-8197.221829,-1036.288319
5702.075966,222.061783,-8273.831378,-592.164754
5702.076290,-222.061783,-7967.393179,-1258.350101
5702.076615,-370.102971,-8350.440928,-1110.308913
5702.076939,-740.205942,-8273.831378,-1110.308913
5702.077264,-444.123565,-7967.393179,-518.144159
5702.077588,-148.041188,-8273.831378,-444.123565
5702.077913,444.123565,-8810.098227,-370.102971
5702.078237,1480.411884,-9116.536426,74.020594
5702.078562,1702.473667,-8810.098227,0.000000
5702.078886,1258.350101,-9039.926876,0.000000
5702.079211,1036.288319,-8503.660028,-222.061783
5702.079535,814.226536,-9499.584175,-444.123565
5702.079859,444.123565,-8120.612279,-666.185348
5702.080184,74.020594,-8273.831378,-962.267725
5702.080508,0.000000,-8273.831378,-1110.308913
5702.080833,-518.144159,-8197.221829,-1036.288319
5702.081157,0.000000,-8503.660028,-740.205942
5702.081482,0.000000,-8197.221829,-222.061783
5702.081806,518.144159,-8656.879127,-222.061783
5702.082131,1110.308913,-8886.707777,-296.082377
5702.082455,1332.370696,-8656.879127,518.144159
5702.082780,1628.453072,-8810.098227,0.000000
5702.083104,1480.411884,-8963.317327,-222.061783
5702.083429,962.267725,-8886.707777,-962.267725
5702.083753,888.247130,-8963.317327,-592.164754
5702.084078,0.000000,-8273.831378,-962.267725
5702.084402,-1184.329507,-8427.050478,-1110.308913
5702.084727,-370.102971,-8350.440928,-962.267725
5702.085051,-518.144159,-8273.831378,-666.185348
5702.085376,444.123565,-8656.879127,-518.144159
5702.085700,444.123565,-8580.269578,-148.041188
5702.086025,592.164754,-9039.926876,296.082377
5702.086349,888.247130,-9116.536426,0.000000
5702.086674,1406.391290,-8656.879127,592.164754
5702.086998,1036.288319,-9116.536426,222.061783
5702.087323,962.267725,-8963.317327,-1036.288319
5702.087647,888.247130,-8273.831378,-592.164754
5702.087972,-296.082377,-8273.831378,-444.123565
5702.088296,-518.144159,-8733.488677,-666.185348
5702.088621,-592.164754,-8273.831378,-518.144159
5702.088945,-518.144159,-8427.050478,-444.123565
5702.089270,222.061783,-8503.660028,74.020594
5702.089594,222.061783,-9039.926876,592.164754
5702.089919,518.144159,-8886.707777,444.123565
5702.090243,814.226536,-8580.269578,148.041188
5702.090568,1628.453072,-9039.926876,666.185348
5702.090892,740.205942,-9039.926876,740.205942
5702.091217,1184.329507,-8503.660028,-222.061783
5702.091541,444.123565,-8427.050478,-370.102971
5702.091866,0.000000,-8044.002729,-592.164754
5702.092190,-518.144159,-7814.174080,-518.144159
5702.092515,-814.226536,-8580.269578,-444.123565
5702.092839,-518.144159,-8197.221829,-444.123565
5702.093164,0.000000,-8273.831378,0.000000
5702.093488,74.020594,-8886.707777,0.000000
5702.093813,814.226536,-8656.879127,444.123565
5702.094137,1480.411884,-8886.707777,74.020594
5702.094462,1406.391290,-8733.488677,74.020594
5702.094786,1554.432478,-9116.536426,148.041188
5702.095110,666.185348,-8733.488677,-1110.308913
5702.095435,592.164754,-8350.440928,-444.123565
5702.095759,74.020594,-8120.612279,-1110.308913
5702.096084,-370.102971,-8503.660028,-666.185348
5702.096408,-962.267725,-8427.050478,-1184.329507
5702.096733,-444.123565,-8580.269578,-740.205942
5702.097057,0.000000,-8120.612279,-444.123565
5702.097382,592.164754,-8656.879127,-518.144159
5702.097706,1036.288319,-8963.317327,-370.102971
5702.098031,1850.514855,-8427.050478,-148.041188
5702.098355,1332.370696,-9116.536426,370.102971
5702.098680,1554.432478,-9039.926876,0.000000
5702.099004,814.226536,-8733.488677,-518.144159
5702.099329,518.144159,-8120.612279,-1036.288319
5702.099653,444.123565,-8273.831378,-962.267725
5702.099978,-222.061783,-8197.221829,-1036.288319
5702.100302,-740.205942,-8427.050478,-1184.329507
5702.100627,-518.144159,-8197.221829,-1184.329507
5702.100951,-444.123565,-8427.050478,-370.102971
5702.101276,296.082377,-8886.707777,-444.123565
5702.101600,888.247130,-8503.660028,0.000000
5702.101925,1480.411884,-8810.098227,0.000000
5702.102249,1702.473667,-8656.879127,74.020594
5702.102574,1924.535449,-8580.269578,-370.102971
5702.102898,1332.370696,-9269.755526,-518.144159
5702.103223,592.164754,-8656.879127,-814.226536
5702.103547,148.041188,-8503.660028,-592.164754
5702.103872,-666.185348,-8273.831378,-888.247130
5702.104196,-592.164754,-8273.831378,-1332.370696
5702.104521,-444.123565,-8044.002729,-1110.308913
5702.104845,0.000000,-8427.050478,-296.082377
5702.105170,222.061783,-8197.221829,-222.061783
5702.105494,814.226536,-8963.317327,74.020594
5702.105819,1184.329507,-8503.660028,-222.061783
5702.106143,1850.514855,-9116.536426,444.123565
5702.106468,1850.514855,-8503.660028,222.061783
5702.106792,1184.329507,-9116.536426,-370.102971
5702.107117,814.226536,-8350.440928,-740.205942
5702.107441,-444.123565,-7967.393179,-592.164754
5702.107766,-962.267725,-8350.440928,0.000000
5702.108090,-962.267725,-8120.612279,-740.205942
5702.108415,-370.102971,-7814.174080,-296.082377
5702.108739,222.061783,-8197.221829,0.000000
5702.109064,296.082377,-8580.269578,0.000000
5702.109388,1036.288319,-8810.098227,296.082377
5702.109712,1258.350101,-8886.707777,444.123565
5702.110037,1554.432478,-8886.707777,740.205942
5702.110361,1258.350101,-8580.269578,444.123565
5702.110686,1628.453072,-9116.536426,222.061783
5702.111010,370.102971,-8197.221829,-444.123565
5702.111335,0.000000,-8350.440928,-518.144159
5702.111659,-666.185348,-8044.002729,-370.102971
5702.111984,-888.247130,-8044.002729,-518.144159
5702.112308,-444.123565,-8044.002729,-592.164754
5702.112633,-296.082377,-8044.002729,0.000000
5702.112957,370.102971,-8350.440928,74.020594
5702.113282,1184.329507,-8810.098227,222.061783
5702.113606,1850.514855,-9116.536426,592.164754
5702.113931,1628.453072,-8963.317327,740.205942
5702.114255,1480.411884,-9039.926876,518.144159
5702.114580,1184.329507,-8810.098227,-222.061783
5702.114904,1036.288319,-8427.050478,0.000000
5702.115229,0.000000,-8427.050478,-518.144159
5702.115553,-888.247130,-8044.002729,-518.144159
5702.115878,-888.247130,-8350.440928,-296.082377
5702.116202,-666.185348,-8350.440928,-370.102971
5702.116527,0.000000,-8427.050478,-296.082377
5702.116851,296.082377,-8810.098227,0.000000
5702.117176,592.164754,-9116.536426,370.102971
5702.117500,1554.432478,-8810.098227,370.102971
5702.117825,1998.556043,-8886.707777,518.144159
5702.118149,1258.350101,-8886.707777,444.123565
5702.118474,1036.288319,-8886.707777,-296.082377
5702.118798,666.185348,-8427.050478,-518.144159
5702.119123,0.000000,-8273.831378,-888.247130
5702.119447,-1036.288319,-8656.879127,-888.247130
5702.119772,-962.267725,-8273.831378,-962.267725
5702.120096,-666.185348,-8197.221829,-888.247130
5702.120421,-370.102971,-8503.660028,-148.041188
5702.120745,0.000000,-8580.269578,-148.041188
5702.121070,1036.288319,-8963.317327,0.000000
5702.121394,1776.494261,-9039.926876,0.000000
5702.121719,1628.453072,-9422.974625,0.000000
5702.122043,1776.494261,-9806.022374,0.000000
5702.122368,1258.350101,-8810.098227,-444.123565
5702.122692,444.123565,-8503.660028,-740.205942
5702.123017,0.000000,-8503.660028,-888.247130
5702.123341,-370.102971,-8580.269578,-592.164754
5702.123666,-814.226536,-8273.831378,-1184.329507
5702.123990,-592.164754,-8503.660028,-962.267725
5702.124314,-148.041188,-8197.221829,-740.205942
5702.124639,0.000000,-9116.536426,148.041188
5702.124963,1406.391290,-8810.098227,0.000000
5702.125288,1628.453072,-9269.755526,0.000000
5702.125612,1850.514855,-8963.317327,370.102971
5702.125937,1554.432478,-8503.660028,-148.041188
5702.126261,1258.350101,-10035.851024,0.000000
5702.126586,888.247130,-8350.440928,-592.164754
5702.126910,0.000000,-8197.221829,-962.267725
5702.127235,-814.226536,-8197.221829,-1036.288319
5702.127559,-814.226536,-8427.050478,-814.226536
5702.127884,-592.164754,-7967.393179,-888.247130
5702.128208,-444.123565,-8503.660028,-444.123565
5702.128533,444.123565,-8810.098227,0.000000
5702.128857,962.267725,-8810.098227,0.000000
5702.129182,1184.329507,-8656.879127,592.164754
5702.129506,1998.556043,-8733.488677,0.000000
5702.129831,1850.514855,-9116.536426,0.000000
5702.130155,1332.370696,-9039.926876,-666.185348
5702.130480,1110.308913,-8273.831378,-740.205942
5702.130804,-518.144159,-8503.660028,-888.247130
5702.131129,-888.247130,-8350.440928,-444.123565
5702.131453,-962.267725,-8044.002729,-888.247130
5702.131778,-814.226536,-8120.612279,-148.041188
5702.132102,-222.061783,-8120.612279,-888.247130
5702.132427,444.123565,-8963.317327,0.000000
5702.132751,740.205942,-8350.440928,74.020594
5702.133076,1702.473667,-9039.926876,296.082377
5702.133400,1924.535449,-8886.707777,370.102971
5702.133725,1554.432478,-9193.145976,222.061783
5702.134049,1332.370696,-9422.974625,-74.020594
5702.134374,296.082377,-8503.660028,-592.164754
5702.134698,-296.082377,-8963.317327,-296.082377
5702.135023,-888.247130,-8197.221829,-592.164754
5702.135347,-962.267725,-8350.440928,-518.144159
5702.135672,-592.164754,-8273.831378,-666.185348
5702.135996,0.000000,-8273.831378,-222.061783
5702.136321,296.082377,-8656.879127,0.000000
5702.136645,814.226536,-8886.707777,-222.061783
5702.136970,1332.370696,-8656.879127,0.000000
5702.137294,1998.556043,-8503.660028,222.061783
5702.137619,1628.453072,-9806.022374,0.000000
5702.137943,1332.370696,-9039.926876,-518.144159
5702.138268,518.144159,-8427.050478,-666.185348
5702.138592,0.000000,-8273.831378,-666.185348
5702.138916,-444.123565,-8273.831378,-592.164754
5702.139241,-1036.288319,-8810.098227,-1258.350101
5702.139565,-444.123565,-8044.002729,-518.144159
5702.139890,-740.205942,-8120.612279,-444.123565
5702.140214,0.000000,-9039.926876,148.041188
5702.140539,962.267725,-8810.098227,148.041188
5702.140863,1850.514855,-9269.755526,296.082377
5702.141188,1924.535449,-9193.145976,148.041188
5702.141512,1184.329507,-8886.707777,592.164754
5702.141837,962.267725,-9882.631924,222.061783
5702.142161,444.123565,-8427.050478,-518.144159
5702.142486,148.041188,-8427.050478,-444.123565
5702.142810,-592.164754,-8350.440928,-518.144159
5702.143135,-888.247130,-8503.660028,-518.144159
5702.143459,-592.164754,-7584.345430,-740.205942
5702.143784,-518.144159,-7967.393179,-296.082377
5702.144108,296.082377,-8656.879127,74.020594
5702.144433,888.247130,-8656.879127,0.000000
5702.144757,1628.453072,-8886.707777,0.000000
5702.145082,1554.432478,-8580.269578,296.082377
5702.145406,1184.329507,-9039.926876,370.102971
5702.145731,1184.329507,-9269.755526,-296.082377
5702.146055,740.205942,-9116.536426,-962.267725
5702.146380,0.000000,-8503.660028,-740.205942
5702.146704,-888.247130,-8120.612279,-740.205942
5702.147029,-962.267725,-8503.660028,-962.267725
5702.147353,-666.185348,-7890.783629,-814.226536
5702.147678,74.020594,-8120.612279,-592.164754
5702.148002,444.123565,-8810.098227,-148.041188
5702.148327,1036.288319,-8733.488677,74.020594
5702.148651,1110.308913,-9193.145976,0.000000
5702.148976,2368.659014,-9116.536426,296.082377
5702.149300,1110.308913,-8656.879127,222.061783
5702.149625,1110.308913,-9422.974625,-148.041188
5702.149949,1036.288319,-8120.612279,-888.247130
5702.150274,-444.123565,-8656.879127,-518.144159
5702.150598,-296.082377,-8580.269578,-814.226536
5702.150923,-962.267725,-8120.612279,-888.247130
5702.151247,-444.123565,-8427.050478,-962.267725
5702.151572,-518.144159,-7967.393179,-370.102971
5702.151896,444.123565,-8810.098227,0.000000
5702.152221,962.267725,-8580.269578,-296.082377
5702.152545,1406.391290,-8656.879127,74.020594
5702.152869,1628.453072,-8733.488677,74.020594
5702.153194,1258.350101,-9499.584175,370.102971
5702.153518,1332.370696,-8503.660028,-222.061783
5702.153842,666.185348,-8733.488677,-370.102971
5702.154167,296.082377,-8503.660028,-740.205942
5702.154491,-148.041188,-8120.612279,-962.267725
5702.154815,-962.267725,-8350.440928,-1184.329507
5702.155140,-444.123565,-8503.660028,-888.247130
5702.155464,-370.102971,-8273.831378,-518.144159
5702.155788,148.041188,-8656.879127,-222.061783
5702.156113,814.226536,-8733.488677,0.000000
5702.156437,1036.288319,-9039.926876,-370.102971
5702.156761,1702.473667,-8963.317327,74.020594
5702.157086,1702.473667,-8733.488677,0.000000
5702.157410,1628.453072,-9499.584175,-370.102971
5702.157734,666.185348,-8427.050478,-814.226536
5702.158059,222.061783,-8427.050478,-740.205942
5702.158383,-666.185348,-8197.221829,-814.226536
5702.158707,-814.226536,-8350.440928,-592.164754
5702.159032,-666.185348,-8120.612279,-296.082377
5702.159356,-296.082377,-8273.831378,-592.164754
5702.159680,148.041188,-8656.879127,0.000000
5702.160005,740.205942,-8656.879127,-148.041188
5702.160329,1702.473667,-8963.317327,444.123565
5702.160653,1850.514855,-8580.269578,222.061783
5702.160978,1258.350101,-9499.584175,74.020594
5702.161302,1110.308913,-9039.926876,-296.082377
5702.161626,962.267725,-8810.098227,-740.205942
5702.161951,0.000000,-8580.269578,-888.247130
5702.162275,-296.082377,-8350.440928,-666.185348
5702.162599,-888.247130,-8503.660028,-814.226536
5702.162924,-370.102971,-8273.831378,-666.185348
5702.163248,-148.041188,-8120.612279,-444.123565
5702.163572,222.061783,-9039.926876,0.000000
5702.163897,1110.308913,-8503.660028,-148.041188
5702.164221,1258.350101,-8810.098227,0.000000
5702.164545,1258.350101,-8580.269578,370.102971
5702.164870,1258.350101,-8886.707777,74.020594
5702.165194,1332.370696,-9346.365076,0.000000
5702.165518,814.226536,-8427.050478,-740.205942
5702.165843,0.000000,-8503.660028,-444.123565
5702.166167,-592.164754,-8197.221829,-592.164754
5702.166491,-814.226536,-8120.612279,-666.185348
5702.166816,-592.164754,-7967.393179,-888.247130
5702.167140,-296.082377,-8427.050478,-518.144159
5702.167464,740.205942,-8580.269578,0.000000
5702.167789,444.123565,-8810.098227,0.000000
5702.168113,1406.391290,-9039.926876,74.020594
5702.168437,1702.473667,-8350.440928,296.082377
5702.168762,1554.432478,-9269.755526,222.061783
5702.169086,962.267725,-8733.488677,-370.102971
5702.169410,666.185348,-8810.098227,-444.123565
5702.169735,148.041188,-8273.831378,-888.247130
5702.170059,-148.041188,-7507.735880,-444.123565
5702.170383,-740.205942,-8656.879127,-962.267725
5702.170708,-296.082377,-8273.831378,-740.205942
5702.171032,-444.123565,-7660.954980,-518.144159
5702.171356,148.041188,-8733.488677,0.000000
5702.171681,888.247130,-8197.221829,-444.123565
5702.172005,1554.432478,-8733.488677,-296.082377
5702.172330,1628.453072,-8810.098227,0.000000
5702.172654,1332.370696,-8810.098227,0.000000
5702.172978,1332.370696,-9039.926876,74.020594
5702.173303,370.102971,-8350.440928,-1184.329507
5702.173627,222.061783,-8580.269578,-1110.308913
5702.173951,-666.185348,-8273.831378,-1406.391290
5702.174276,-740.205942,-8580.269578,-666.185348
5702.174600,-666.185348,-8044.002729,-888.247130
5702.174924,0.000000,-8503.660028,-888.247130
5702.175249,444.123565,-8580.269578,-518.144159
5702.175573,814.226536,-8580.269578,-518.144159
5702.175897,1110.308913,-8656.879127,0.000000
5702.176222,1850.514855,-8656.879127,222.061783
5702.176546,1258.350101,-8810.098227,0.000000
5702.176870,1702.473667,-8963.317327,-296.082377
5702.177195,1332.370696,-9499.584175,-1110.308913
5702.177519,222.061783,-8427.050478,-666.185348
5702.177843,-148.041188,-7814.174080,-740.205942
5702.178168,-888.247130,-8350.440928,-1110.308913
5702.178492,-592.164754,-8350.440928,-814.226536
5702.178816,-148.041188,-7967.393179,-888.247130
5702.179141,222.061783,-8733.488677,-740.205942
5702.179465,1036.288319,-8810.098227,-148.041188
5702.179789,1332.370696,-8733.488677,222.061783
5702.180114,2220.617826,-8963.317327,0.000000
5702.180438,1480.411884,-8886.707777,-148.041188
5702.180762,1702.473667,-9346.365076,-592.164754
5702.181087,740.205942,-8427.050478,-740.205942
5702.181411,370.102971,-8656.879127,-814.226536
5702.181735,-962.267725,-8580.269578,-666.185348
5702.182060,-888.247130,-8580.269578,-814.226536
5702.182384,-592.164754,-8120.612279,-962.267725
5702.182708,-370.102971,-8197.221829,-518.144159
5702.183033,444.123565,-8656.879127,0.000000
5702.183357,888.247130,-8656.879127,0.000000
5702.183681,962.267725,-8886.707777,74.020594
5702.184006,1628.453072,-8273.831378,370.102971
5702.184330,1480.411884,-9116.536426,740.205942
5702.184654,1036.288319,-8963.317327,0.000000
5702.184979,666.185348,-8427.050478,-740.205942
5702.185303,0.000000,-8503.660028,-592.164754
5702.185627,0.000000,-8580.269578,-666.185348
5702.185952,-740.205942,-8427.050478,-888.247130
5702.186276,-444.123565,-8350.440928,-666.185348
5702.186600,-592.164754,-8044.002729,-592.164754
5702.186925,444.123565,-8656.879127,0.000000
5702.187249,518.144159,-8427.050478,0.000000
5702.187573,1628.453072,-8886.707777,74.020594
5702.187898,1850.514855,-8656.879127,-222.061783
5702.188222,1480.411884,-8963.317327,74.020594
5702.188546,1258.350101,-8886.707777,0.000000
5702.188871,740.205942,-8580.269578,-1184.329507
5702.189195,666.185348,-8733.488677,-888.247130
5702.189519,-740.205942,-7967.393179,-962.267725
5702.189844,-814.226536,-8733.488677,-370.102971
5702.190168,-666.185348,-8273.831378,-1036.288319
5702.190492,-296.082377,-8580.269578,-518.144159
5702.190817,148.041188,-8427.050478,0.000000
5702.191141,444.123565,-8886.707777,-148.041188
5702.191465,1332.370696,-9116.536426,-148.041188
5702.191790,1332.370696,-8350.440928,296.082377
5702.192114,1406.391290,-9039.926876,0.000000
5702.192438,1110.308913,-8963.317327,-296.082377
5702.192763,962.267725,-8350.440928,-444.123565
5702.193087,0.000000,-8580.269578,-518.144159
5702.193411,-592.164754,-8273.831378,-666.185348
5702.193736,-740.205942,-8886.707777,-888.247130
5702.194060,-296.082377,-8120.612279,-888.247130
5702.194384,-296.082377,-8350.440928,-518.144159
5702.194709,222.061783,-8733.488677,-296.082377
5702.195033,666.185348,-8427.050478,0.000000
5702.195358,740.205942,-8656.879127,74.020594
5702.195682,1480.411884,-8580.269578,-222.061783
5702.196006,1258.350101,-8503.660028,0.000000
5702.196331,1554.432478,-9346.365076,-222.061783
5702.196655,962.267725,-8503.660028,-1036.288319
5702.196979,148.041188,-8733.488677,-1036.288319
5702.197304,-444.123565,-8503.660028,-962.267725
5702.197628,-888.247130,-9039.926876,-740.205942
5702.197952,-592.164754,-8120.612279,-1036.288319
5702.198277,-444.123565,-8503.660028,-740.205942
5702.198601,592.164754,-8427.050478,-222.061783
5702.198925,444.123565,-8656.879127,-222.061783
5702.199250,1036.288319,-8810.098227,0.000000
5702.199574,1924.535449,-8350.440928,0.000000
5702.199898,1332.370696,-8656.879127,0.000000
5702.200223,1628.453072,-9193.145976,0.000000
5702.200547,666.185348,-8580.269578,-592.164754
5702.200871,296.082377,-8503.660028,-444.123565
5702.201196,-296.082377,-8197.221829,-888.247130
5702.201520,-444.123565,-8656.879127,-666.185348
5702.201844,-592.164754,-8503.660028,-740.205942
5702.202169,-148.041188,-8120.612279,-444.123565
5702.202493,0.000000,-8503.660028,74.020594
5702.202817,592.164754,-8427.050478,-222.061783
5702.203142,1184.329507,-8427.050478,74.020594
5702.203466,1406.391290,-8273.831378,74.020594
5702.203790,1702.473667,-8963.317327,0.000000
5702.204115,1554.432478,-8656.879127,148.041188
5702.204439,740.205942,-8656.879127,-222.061783
5702.204763,0.000000,-8273.831378,-592.164754
5702.205088,0.000000,-8427.050478,-592.164754
5702.205412,-592.164754,-9116.536426,-814.226536
5702.205736,-370.102971,-8273.831378,-814.226536
5702.206061,-518.144159,-8120.612279,-518.144159
5702.206385,222.061783,-8427.050478,0.000000
5702.206709,592.164754,-8503.660028,-222.061783
5702.207034,1110.308913,-8810.098227,-444.123565
5702.207358,1480.411884,-8350.440928,148.041188
5702.207682,1702.473667,-8886.707777,148.041188
5702.208007,1406.391290,-9039.926876,0.000000
5702.208331,1332.370696,-9499.584175,-370.102971
5702.208655,444.123565,-8656.879127,-666.185348
5702.208980,-592.164754,-7967.393179,-370.102971
5702.209304,-814.226536,-8427.050478,-814.226536
5702.209628,-666.185348,-8656.879127,-518.144159
5702.209953,0.000000,-8197.221829,-666.185348
5702.210277,370.102971,-8427.050478,-222.061783
5702.210601,888.247130,-8427.050478,0.000000
5702.210926,1036.288319,-8580.269578,148.041188
5702.211250,1258.350101,-8886.707777,74.020594
5702.211574,1480.411884,-8656.879127,0.000000
5702.211899,1480.411884,-9499.584175,0.000000
5702.212223,1036.288319,-9269.755526,-518.144159
5702.212547,518.144159,-8120.612279,-888.247130
5702.212872,-370.102971,-8580.269578,-740.205942
5702.213196,-888.247130,-8810.098227,-518.144159
5702.213520,-518.144159,-8273.831378,-740.205942
5702.213845,-518.144159,-8120.612279,-518.144159
5702.214169,0.000000,-8273.831378,0.000000
5702.214493,592.164754,-8656.879127,0.000000
5702.214818,1184.329507,-8733.488677,0.000000
5702.215142,1702.473667,-8580.269578,74.020594
5702.215466,1628.453072,-9269.755526,74.020594
5702.215791,1332.370696,-9269.755526,0.000000
5702.216115,592.164754,-8733.488677,-518.144159
5702.216439,148.041188,-8886.707777,-444.123565
5702.216764,74.020594,-8273.831378,-518.144159
5702.217088,-888.247130,-8580.269578,-666.185348
5702.217412,-444.123565,-8427.050478,-962.267725
5702.217737,-666.185348,-8273.831378,-592.164754
5702.218061,74.020594,-8273.831378,-296.082377
5702.218386,370.102971,-8427.050478,148.041188
5702.218710,1332.370696,-8427.050478,-222.061783
5702.219034,1406.391290,-9039.926876,0.000000
5702.219359,1554.432478,-8427.050478,74.020594
5702.219683,814.226536,-8810.098227,740.205942
5702.220007,592.164754,-9039.926876,-296.082377
5702.220332,222.061783,-8427.050478,-370.102971
5702.220656,0.000000,-8350.440928,-740.205942
5702.220980,-962.267725,-8580.269578,-296.082377
5702.221305,-814.226536,-8427.050478,-1258.350101
5702.221629,-592.164754,-8044.002729,-740.205942
5702.221953,74.020594,-8197.221829,-370.102971
5702.222278,888.247130,-8886.707777,-296.082377
5702.222602,1628.453072,-8810.098227,0.000000
5702.222926,1702.473667,-8503.660028,0.000000
5702.223251,1702.473667,-9039.926876,296.082377
5702.223575,1554.432478,-9193.145976,148.041188
5702.223899,1776.494261,-9116.536426,-148.041188
5702.224224,592.164754,-8427.050478,-518.144159
5702.224548,-148.041188,-8733.488677,-296.082377
5702.224872,-666.185348,-8044.002729,-740.205942
5702.225197,-814.226536,-8427.050478,74.020594
5702.225521,-444.123565,-7814.174080,-518.144159
5702.225845,0.000000,-8503.660028,0.000000
5702.226170,888.247130,-8733.488677,-148.041188
5702.226494,1332.370696,-8427.050478,222.061783
5702.226818,1332.370696,-8810.098227,74.020594
5702.227143,1628.453072,-8963.317327,148.041188
5702.227467,1406.391290,-9193.145976,222.061783
5702.227791,962.267725,-9039.926876,-444.123565
5702.228116,370.102971,-8427.050478,-370.102971
5702.228440,-296.082377,-8273.831378,-740.205942
5702.228764,-814.226536,-8350.440928,-740.205942
5702.229089,-1036.288319,-7890.783629,-814.226536
5702.229413,0.000000,-8503.660028,-814.226536
5702.229737,0.000000,-7890.783629,-296.082377
5702.230062,666.185348,-8886.707777,0.000000
5702.230386,1110.308913,-8886.707777,-222.061783
5702.230710,1702.473667,-8886.707777,148.041188
5702.231035,2072.576638,-9039.926876,0.000000
5702.231359,1554.432478,-9269.755526,74.020594
5702.231683,740.205942,-9116.536426,-370.102971
5702.232008,296.082377,-8656.879127,-296.082377
5702.232332,-148.041188,-8427.050478,-814.226536
5702.232656,-814.226536,-8810.098227,-592.164754
5702.232981,-888.247130,-8503.660028,-814.226536
5702.233305,-370.102971,-8350.440928,-592.164754
5702.233629,74.020594,-8197.221829,-518.144159
5702.233954,444.123565,-8350.440928,74.020594
5702.234278,1184.329507,-8963.317327,148.041188
5702.234602,1702.473667,-8580.269578,0.000000
5702.234927,1702.473667,-9039.926876,518.144159
5702.235251,1406.391290,-8963.317327,444.123565
5702.235575,888.247130,-9039.926876,-296.082377
5702.235900,74.020594,-8580.269578,-666.185348
5702.236224,-370.102971,-8503.660028,-666.185348
5702.236548,-1184.329507,-7890.783629,-518.144159
5702.236873,-962.267725,-8273.831378,-1036.288319
5702.237197,-444.123565,-8044.002729,-592.164754
5702.237521,-148.041188,-8427.050478,-148.041188
5702.237846,444.123565,-8810.098227,-148.041188
5702.238170,1110.308913,-8733.488677,-370.102971
5702.238494,1850.514855,-8656.879127,222.061783
5702.238819,1406.391290,-8963.317327,592.164754
5702.239143,1406.391290,-9039.926876,148.041188
5702.239467,814.226536,-8503.660028,-444.123565
5702.239792,74.020594,-8656.879127,-444.123565
5702.240116,-222.061783,-8044.002729,-370.102971
5702.240440,-962.267725,-8273.831378,-444.123565
5702.240765,-1110.308913,-8120.612279,-444.123565
5702.241089,-592.164754,-7814.174080,-370.102971
5702.241414,148.041188,-8197.221829,0.000000
5702.241738,222.061783,-8350.440928,0.000000
5702.242062,1184.329507,-8810.098227,222.061783
5702.242387,1776.494261,-8503.660028,0.000000
5702.242711,1628.453072,-9116.536426,518.144159
5702.243035,1406.391290,-8810.098227,0.000000
5702.243360,1184.329507,-8963.317327,0.000000
5702.243684,518.144159,-8656.879127,-814.226536
5702.244008,-740.205942,-8350.440928,-740.205942
5702.244333,-962.267725,-8197.221829,-740.205942
5702.244657,-814.226536,-8350.440928,-592.164754
5702.244981,-370.102971,-8273.831378,-962.267725
5702.245306,148.041188,-8197.221829,-296.082377
5702.245630,444.123565,-8503.660028,-296.082377
5702.245954,888.247130,-9116.536426,0.000000
5702.246279,1554.432478,-8503.660028,0.000000
5702.246603,1480.411884,-9193.145976,444.123565
5702.246927,1480.411884,-9039.926876,-148.041188
5702.247252,1184.329507,-8733.488677,-444.123565
5702.247576,444.123565,-8963.317327,-666.185348
5702.247900,0.000000,-8963.317327,-666.185348
5702.248225,-444.123565,-8580.269578,-888.247130
5702.248549,-962.267725,-8733.488677,-1110.308913
5702.248873,-518.144159,-8350.440928,-444.123565
5702.249198,-148.041188,-8273.831378,-370.102971
5702.249522,370.102971,-8886.707777,-222.061783
5702.249846,1332.370696,-8963.317327,148.041188
5702.250171,1480.411884,-9039.926876,0.000000
5702.250495,1554.432478,-9039.926876,518.144159
5702.250819,1406.391290,-9269.755526,222.061783
5702.251144,888.247130,-9269.755526,-222.061783
5702.251468,296.082377,-8656.879127,-740.205942
5702.251792,-222.061783,-8427.050478,-666.185348
5702.252117,-592.164754,-9499.584175,-370.102971
5702.252441,-814.226536,-8044.002729,-1036.288319
5702.252765,-518.144159,-8427.050478,-814.226536
5702.253090,-222.061783,-8044.002729,-444.123565
5702.253414,444.123565,-8350.440928,-74.020594
5702.253738,1258.350101,-8963.317327,-222.061783
5702.254063,1702.473667,-8427.050478,0.000000
5702.254387,1850.514855,-9039.926876,-296.082377
5702.254711,1406.391290,-9116.536426,-296.082377
5702.255035,1332.370696,-9116.536426,-592.164754
5702.255360,592.164754,-8580.269578,-962.267725
5702.255684,-222.061783,-8427.050478,-1036.288319
5702.256008,-962.267725,-8273.831378,-740.205942
5702.256333,-740.205942,-8733.488677,-1258.350101
5702.256657,-296.082377,-8044.002729,-814.226536
5702.256981,0.000000,-8350.440928,-518.144159
5702.257306,740.205942,-8427.050478,0.000000
5702.257630,1110.308913,-8733.488677,0.000000
5702.257954,1702.473667,-8810.098227,-148.041188
5702.258278,1554.432478,-9116.536426,296.082377
5702.258603,1554.432478,-9116.536426,74.020594
5702.258927,1110.308913,-9116.536426,0.000000
5702.259251,148.041188,-8963.317327,222.061783
5702.259576,-296.082377,-8580.269578,-518.144159
5702.259900,-814.226536,-8503.660028,-518.144159
5702.260224,-740.205942,-8427.050478,-444.123565
5702.260549,-518.144159,-8580.269578,-740.205942
5702.260873,0.000000,-8427.050478,-222.061783
5702.261197,370.102971,-8427.050478,0.000000
5702.261521,888.247130,-8963.317327,0.000000
5702.261846,1406.391290,-8580.269578,-296.082377
5702.262170,1406.391290,-8886.707777,296.082377
5702.262494,1110.308913,-9116.536426,0.000000
5702.262819,1184.329507,-9269.755526,-370.102971
5702.263143,444.123565,-8580.269578,-592.164754
5702.263467,-518.144159,-8503.660028,-888.247130
5702.263792,-444.123565,-8120.612279,-1036.288319
5702.264116,-814.226536,-8273.831378,-1036.288319
5702.264440,-444.123565,-7660.954980,-814.226536
5702.264764,-296.082377,-8120.612279,-444.123565
5702.265089,222.061783,-8427.050478,0.000000
5702.265413,888.247130,-8656.879127,0.000000
5702.265737,1702.473667,-8503.660028,0.000000
5702.266062,1702.473667,-8810.098227,296.082377
5702.266386,1184.329507,-9116.536426,222.061783
5702.266710,1110.308913,-8886.707777,0.000000
5702.267035,370.102971,-8656.879127,-518.144159
5702.267359,-148.041188,-8427.050478,-592.164754
5702.267683,-74.020594,-8503.660028,0.000000
5702.268007,-592.164754,-7890.783629,-740.205942
5702.268332,-370.102971,-8580.269578,-962.267725
5702.268656,-74.020594,-7967.393179,-666.185348
5702.268980,370.102971,-8503.660028,0.000000
5702.269305,1184.329507,-8656.879127,-370.102971
5702.269629,1258.350101,-8886.707777,0.000000
5702.269953,1554.432478,-8656.879127,222.061783
5702.270278,1332.370696,-9116.536426,0.000000
5702.270602,1332.370696,-8733.488677,-222.061783
5702.270926,740.205942,-8656.879127,-962.267725
5702.271250,370.102971,-8197.221829,-740.205942
5702.271575,-666.185348,-8427.050478,-814.226536
5702.271899,-814.226536,-8197.221829,-740.205942
5702.272223,0.000000,-8044.002729,-1110.308913
5702.272548,-222.061783,-8273.831378,-888.247130
5702.272872,518.144159,-8733.488677,-444.123565
5702.273196,888.247130,-8810.098227,-74.020594
5702.273521,1406.391290,-9116.536426,-296.082377
5702.273845,1258.350101,-8580.269578,0.000000
5702.274169,1332.370696,-8733.488677,74.020594
5702.274493,1332.370696,-9269.755526,-444.123565
5702.274818,1554.432478,-8656.879127,-592.164754
5702.275142,0.000000,-8350.440928,-1332.370696
5702.275466,-666.185348,-8580.269578,-370.102971
5702.275791,-666.185348,-8044.002729,-1110.308913
5702.276115,-444.123565,-8733.488677,-592.164754
5702.276439,0.000000,-8197.221829,-518.144159
5702.276764,370.102971,-8580.269578,0.000000
5702.277088,444.123565,-8810.098227,0.000000
5702.277412,740.205942,-8580.269578,0.000000
5702.277736,1628.453072,-8656.879127,222.061783
5702.278061,1184.329507,-8810.098227,0.000000
5702.278385,1110.308913,-8810.098227,0.000000
5702.278709,740.205942,-8733.488677,-962.267725
5702.279034,518.144159,-8886.707777,-962.267725
5702.279358,-592.164754,-8273.831378,-888.247130
5702.279682,-888.247130,-8350.440928,-962.267725
5702.280007,-444.123565,-8120.612279,-740.205942
5702.280331,-222.061783,-8273.831378,-444.123565
5702.280655,444.123565,-8733.488677,-370.102971
5702.280979,666.185348,-8656.879127,0.000000
5702.281304,1406.391290,-9193.145976,-222.061783
5702.281628,1702.473667,-8810.098227,0.000000
5702.281952,1628.453072,-9116.536426,0.000000
5702.282277,1036.288319,-8886.707777,-444.123565
5702.282601,592.164754,-8733.488677,-592.164754
5702.282925,296.082377,-8656.879127,-888.247130
5702.283250,-296.082377,-8044.002729,-296.082377
5702.283574,-814.226536,-8427.050478,-740.205942
5702.283898,-518.144159,-8733.488677,-666.185348
5702.284223,-370.102971,-7967.393179,-518.144159
5702.284547,296.082377,-8503.660028,0.000000
5702.284871,1036.288319,-8580.269578,0.000000
5702.285195,1554.432478,-8656.879127,222.061783
5702.285520,1258.350101,-8580.269578,0.000000
5702.285844,1258.350101,-8810.098227,-148.041188
5702.286168,962.267725,-8963.317327,-370.102971
5702.286493,666.185348,-8810.098227,-666.185348
5702.286817,296.082377,-8350.440928,-962.267725
5702.287141,0.000000,-8580.269578,-814.226536
5702.287466,-148.041188,-9269.755526,-962.267725
5702.287790,-518.144159,-8503.660028,-740.205942
5702.288114,0.000000,-8120.612279,-814.226536
5702.288438,0.000000,-8656.879127,-148.041188
5702.288763,814.226536,-8427.050478,-296.082377
5702.289087,888.247130,-8886.707777,-222.061783
5702.289411,1480.411884,-8733.488677,74.020594
5702.289736,1406.391290,-8963.317327,74.020594
5702.290060,1480.411884,-9422.974625,-74.020594
5702.290384,518.144159,-9422.974625,-444.123565
5702.290709,0.000000,-8503.660028,-814.226536
5702.291033,-222.061783,-8656.879127,-888.247130
5702.291357,-592.164754,-8503.660028,-518.144159
5702.291681,-222.061783,-8733.488677,-962.267725
5702.292006,0.000000,-8044.002729,-814.226536
5702.292330,518.144159,-8580.269578,-296.082377
5702.292654,592.164754,-8886.707777,74.020594
5702.292979,1110.308913,-8656.879127,0.000000
5702.293303,962.267725,-8886.707777,0.000000
5702.293627,1406.391290,-9116.536426,148.041188
5702.293952,888.247130,-9116.536426,0.000000
5702.294276,666.185348,-8963.317327,-666.185348
5702.294600,222.061783,-8503.660028,-1110.308913
5702.294924,0.000000,-8273.831378,-740.205942
5702.295249,-370.102971,-8427.050478,-1036.288319
5702.295573,-296.082377,-8427.050478,-962.267725
5702.295897,-222.061783,-8810.098227,-814.226536
5702.296222,-370.102971,-8120.612279,-370.102971
5702.296546,666.185348,-8886.707777,-148.041188
5702.296870,1110.308913,-8427.050478,0.000000
5702.297195,1702.473667,-8886.707777,444.123565
5702.297519,1332.370696,-8963.317327,296.082377
5702.297843,1332.370696,-9193.145976,148.041188
5702.298167,740.205942,-8273.831378,-740.205942
5702.298492,444.123565,-8197.221829,-518.144159
5702.298816,-370.102971,-8427.050478,-666.185348
5702.299140,-888.247130,-8120.612279,-666.185348
5702.299465,-666.185348,-8120.612279,-518.144159
5702.299789,-592.164754,-7967.393179,-814.226536
5702.300113,74.020594,-8427.050478,148.041188
5702.300438,148.041188,-8503.660028,74.020594
5702.300762,666.185348,-9116.536426,222.061783
5702.301086,1628.453072,-8656.879127,148.041188
5702.301410,1554.432478,-8810.098227,0.000000
5702.301735,740.205942,-8733.488677,-222.061783
5702.302059,888.247130,-8733.488677,-962.267725
5702.302383,222.061783,-8197.221829,-296.082377
5702.302708,0.000000,-7814.174080,-444.123565
5702.303032,-666.185348,-8427.050478,-1332.370696
5702.303356,-592.164754,-8427.050478,-1036.288319
5702.303681,-592.164754,-7890.783629,-814.226536
5702.304005,148.041188,-8503.660028,-296.082377
5702.304329,444.123565,-8273.831378,-370.102971
5702.304653,1184.329507,-8503.660028,-148.041188
5702.304978,1480.411884,-8733.488677,0.000000
5702.305302,1332.370696,-8963.317327,148.041188
5702.305626,1406.391290,-9269.755526,-370.102971
5702.305951,1702.473667,-8886.707777,-1184.329507
5702.306275,370.102971,-8580.269578,-592.164754
5702.306599,-518.144159,-8503.660028,-888.247130
5702.306924,-666.185348,-8580.269578,-1184.329507
5702.307248,-518.144159,-9269.755526,-1258.350101
5702.307572,-518.144159,-8120.612279,-592.164754
5702.307896,0.000000,-8810.098227,0.000000
5702.308221,222.061783,-8886.707777,-222.061783
5702.308545,1258.350101,-8886.707777,0.000000
5702.308869,1406.391290,-8810.098227,0.000000
5702.309194,1480.411884,-9269.755526,0.000000
5702.309518,1406.391290,-9039.926876,0.000000
5702.309842,888.247130,-8963.317327,-592.164754
5702.310167,888.247130,-8656.879127,-518.144159
5702.310491,0.000000,-8273.831378,-666.185348
5702.310815,-222.061783,-8580.269578,-740.205942
5702.311139,-518.144159,-8656.879127,-1036.288319
5702.311464,-296.082377,-8273.831378,-666.185348
5702.311788,0.000000,-8810.098227,0.000000
5702.312112,444.123565,-8656.879127,0.000000
5702.312437,1480.411884,-8886.707777,74.020594
5702.312761,1480.411884,-8733.488677,74.020594
5702.313085,1332.370696,-8350.440928,444.123565
5702.313410,1332.370696,-9193.145976,0.000000
5702.313734,814.226536,-9039.926876,-444.123565
5702.314058,518.144159,-8580.269578,-444.123565
5702.314382,74.020594,-8120.612279,-592.164754
5702.314707,-814.226536,-8273.831378,-814.226536
5702.315031,-370.102971,-8427.050478,-814.226536
5702.315355,-666.185348,-8273.831378,-444.123565
5702.315680,148.041188,-8810.098227,0.000000
5702.316004,444.123565,-8580.269578,-148.041188
5702.316328,1184.329507,-8733.488677,0.000000
5702.316653,1036.288319,-8886.707777,74.020594
5702.316977,1554.432478,-8810.098227,148.041188
5702.317301,1110.308913,-8886.707777,370.102971
5702.317625,1036.288319,-8886.707777,-814.226536
5702.317950,666.185348,-8656.879127,-592.164754
5702.318274,-444.123565,-8580.269578,-666.185348
5702.318598,-740.205942,-7967.393179,-666.185348
5702.318923,-592.164754,-8197.221829,-888.247130
5702.319247,-666.185348,-8580.269578,-666.185348
5702.319571,0.000000,-8733.488677,-444.123565
5702.319896,370.102971,-8427.050478,-222.061783
5702.320220,518.144159,-8580.269578,444.123565
5702.320544,1850.514855,-8580.269578,370.102971
5702.320868,1480.411884,-9039.926876,0.000000
5702.321193,1480.411884,-9116.536426,0.000000
5702.321517,740.205942,-8273.831378,-370.102971
5702.321841,148.041188,-8580.269578,-370.102971
5702.322166,-370.102971,-8273.831378,-296.082377
5702.322490,-888.247130,-7814.174080,-888.247130
5702.322814,-666.185348,-8733.488677,-592.164754
5702.323139,-666.185348,-7890.783629,-888.247130
5702.323463,296.082377,-8197.221829,148.041188
5702.323787,370.102971,-8273.831378,-370.102971
5702.324111,1776.494261,-8886.707777,296.082377
5702.324436,1924.535449,-8503.660028,-296.082377
5702.324760,1628.453072,-9039.926876,74.020594
5702.325084,1406.391290,-8503.660028,0.000000
5702.325409,888.247130,-8810.098227,-518.144159
5702.325733,592.164754,-8886.707777,-592.164754
5702.326057,-148.041188,-8044.002729,-962.267725
5702.326382,-1036.288319,-8886.707777,-888.247130
5702.326706,-592.164754,-8273.831378,-740.205942
5702.327030,-444.123565,-7967.393179,-296.082377
5702.327354,0.000000,-8733.488677,-148.041188
5702.327679,1184.329507,-8503.660028,0.000000
5702.328003,1480.411884,-8656.879127,-222.061783
5702.328327,1850.514855,-8733.488677,0.000000
5702.328652,1702.473667,-8503.660028,222.061783
5702.328976,1184.329507,-9116.536426,74.020594
5702.329300,592.164754,-8503.660028,-370.102971
5702.329625,296.082377,-8733.488677,-666.185348
5702.329949,-370.102971,-9193.145976,-296.082377
5702.330273,-740.205942,-8580.269578,-592.164754
5702.330598,-592.164754,-8197.221829,-888.247130
5702.330922,-518.144159,-8427.050478,-296.082377
5702.331246,444.123565,-8350.440928,-592.164754
5702.331570,962.267725,-8656.879127,-148.041188
5702.331895,1406.391290,-8580.269578,74.020594
5702.332219,1406.391290,-8427.050478,0.000000
5702.332543,1406.391290,-9116.536426,222.061783
5702.332868,1332.370696,-9116.536426,0.000000
5702.333192,814.226536,-9039.926876,-370.102971
5702.333516,0.000000,-8427.050478,-370.102971
5702.333841,-370.102971,-8350.440928,0.000000
5702.334165,-1258.350101,-9116.536426,-518.144159
5702.334489,-370.102971,-8427.050478,-592.164754
5702.334813,-148.041188,-7967.393179,-444.123565
5702.335138,222.061783,-8427.050478,-296.082377
5702.335462,888.247130,-8733.488677,-148.041188
5702.335786,814.226536,-8427.050478,0.000000
5702.336111,1554.432478,-8733.488677,518.144159
5702.336435,1258.350101,-8503.660028,0.000000
5702.336759,1332.370696,-9346.365076,148.041188
5702.337084,370.102971,-8733.488677,-222.061783
5702.337408,0.000000,-8963.317327,0.000000
5702.337732,-740.205942,-8580.269578,-518.144159
5702.338056,-592.164754,-8503.660028,-148.041188
5702.338381,-518.144159,-7890.783629,-740.205942
5702.338705,-296.082377,-8427.050478,-740.205942
5702.339029,74.020594,-7967.393179,-222.061783
5702.339354,962.267725,-8503.660028,74.020594
5702.339678,1332.370696,-8886.707777,0.000000
5702.340002,1184.329507,-8963.317327,222.061783
5702.340327,1406.391290,-9346.365076,0.000000
5702.340651,888.247130,-8810.098227,148.041188
5702.340975,592.164754,-8886.707777,-370.102971
5702.341299,444.123565,-8656.879127,-666.185348
5702.341624,-222.061783,-8350.440928,-814.226536
5702.341948,-814.226536,-8427.050478,-740.205942
5702.342272,-814.226536,-8197.221829,-740.205942
5702.342597,-518.144159,-8886.707777,-370.102971
5702.342921,222.061783,-8580.269578,-370.102971
5702.343245,444.123565,-8656.879127,-148.041188
5702.343570,1110.308913,-8580.269578,0.000000
5702.343894,1258.350101,-9039.926876,0.000000
5702.344218,1332.370696,-8427.050478,222.061783
5702.344542,1184.329507,-9039.926876,0.000000
5702.344867,666.185348,-8656.879127,-370.102971
5702.345191,666.185348,-8656.879127,-444.123565
5702.345515,0.000000,-7737.564530,-962.267725
5702.345840,-518.144159,-8197.221829,-592.164754
5702.346164,-888.247130,-8044.002729,-1036.288319
5702.346488,-370.102971,-8197.221829,-592.164754
5702.346813,0.000000,-8503.660028,-518.144159
5702.347137,666.185348,-8886.707777,-296.082377
5702.347461,1332.370696,-8503.660028,-296.082377
5702.347785,1628.453072,-8656.879127,74.020594
5702.348110,1332.370696,-9193.145976,-296.082377
5702.348434,1036.288319,-8963.317327,0.000000
5702.348758,1110.308913,-9039.926876,-444.123565
5702.349083,296.082377,-8656.879127,-888.247130
5702.349407,0.000000,-8656.879127,-814.226536
5702.349731,-444.123565,-8273.831378,-814.226536
5702.350056,-592.164754,-8197.221829,-1184.329507
5702.350380,-740.205942,-8427.050478,-814.226536
5702.350704,0.000000,-8427.050478,-296.082377
5702.351028,370.102971,-8656.879127,-296.082377
5702.351353,888.247130,-8580.269578,0.000000
5702.351677,1332.370696,-8963.317327,0.000000
5702.352001,1702.473667,-8963.317327,0.000000
5702.352326,1184.329507,-8886.707777,0.000000
5702.352650,1184.329507,-9116.536426,-444.123565
5702.352974,444.123565,-8580.269578,-666.185348
5702.353299,-444.123565,-8580.269578,-740.205942
5702.353623,-518.144159,-8197.221829,-1036.288319
5702.353947,-592.164754,-7890.783629,-666.185348
5702.354271,-222.061783,-8503.660028,-740.205942
5702.354595,0.000000,-7967.393179,-296.082377
5702.354920,222.061783,-8810.098227,-222.061783
5702.355244,888.247130,-8580.269578,-148.041188
5702.355568,1480.411884,-8810.098227,148.041188
5702.355893,1628.453072,-8810.098227,74.020594
5702.356217,1258.350101,-9116.536426,74.020594
5702.356541,1036.288319,-8886.707777,0.000000
5702.356866,74.020594,-8197.221829,0.000000
5702.357190,-222.061783,-8350.440928,-296.082377
5702.357514,-666.185348,-8350.440928,-740.205942
5702.357838,-740.205942,-8427.050478,-444.123565
5702.358163,-814.226536,-7660.954980,-148.041188
5702.358487,0.000000,-8503.660028,-296.082377
5702.358811,370.102971,-8120.612279,-148.041188
5702.359136,1332.370696,-8350.440928,148.041188
5702.359460,1554.432478,-8503.660028,74.020594
5702.359784,1776.494261,-8886.707777,518.144159
5702.360108,1110.308913,-8963.317327,0.000000
5702.360433,814.226536,-8886.707777,0.000000
5702.360757,444.123565,-8350.440928,-740.205942
5702.361081,74.020594,-8197.221829,-888.247130
5702.361406,-592.164754,-8273.831378,-370.102971
5702.361730,-888.247130,-8273.831378,-814.226536
5702.362054,-518.144159,-8350.440928,-444.123565
5702.362378,-148.041188,-8044.002729,0.000000
5702.362703,1036.288319,-8733.488677,222.061783
5702.363027,1036.288319,-8197.221829,74.020594
5702.363351,1628.453072,-8656.879127,592.164754
5702.363676,1480.411884,-8580.269578,370.102971
5702.364000,1850.514855,-8810.098227,370.102971
5702.364324,592.164754,-8963.317327,-148.041188
5702.364649,592.164754,-8810.098227,0.000000
5702.364973,0.000000,-8273.831378,-222.061783
5702.365297,-740.205942,-8350.440928,-370.102971
5702.365621,-814.226536,-8350.440928,-444.123565
5702.365946,-444.123565,-8120.612279,-370.102971
5702.366270,222.061783,-8656.879127,-148.041188
5702.366594,222.061783,-7660.954980,0.000000
5702.366919,888.247130,-8656.879127,222.061783
5702.367243,1332.370696,-8656.879127,222.061783
5702.367567,1406.391290,-8733.488677,74.020594
5702.367891,1036.288319,-9193.145976,0.000000
5702.368216,962.267725,-8733.488677,-444.123565
5702.368540,370.102971,-8656.879127,-444.123565
5702.368864,-518.144159,-8810.098227,-1036.288319
5702.369189,-740.205942,-8350.440928,-814.226536
5702.369513,-592.164754,-8273.831378,-888.247130
5702.369837,-296.082377,-8273.831378,-962.267725
5702.370161,370.102971,-8427.050478,-444.123565
5702.370486,518.144159,-8810.098227,-518.144159
5702.370810,814.226536,-8886.707777,-222.061783
5702.371134,1110.308913,-8963.317327,-518.144159
5702.371459,1332.370696,-8963.317327,-222.061783
5702.371783,1258.350101,-8733.488677,-296.082377
5702.372107,888.247130,-8810.098227,-888.247130
5702.372431,74.020594,-9039.926876,-592.164754
5702.372756,0.000000,-8503.660028,-962.267725
5702.373080,-296.082377,-8503.660028,-1110.308913
5702.373404,-518.144159,-8656.879127,-1332.370696
5702.373729,0.000000,-8503.660028,-740.205942
5702.374053,74.020594,-8580.269578,-592.164754
5702.374377,444.123565,-8503.660028,-518.144159
5702.374702,1184.329507,-8427.050478,-296.082377
5702.375026,1480.411884,-8963.317327,-222.061783
5702.375350,1406.391290,-8886.707777,0.000000
5702.375674,1332.370696,-9039.926876,-370.102971
5702.375999,666.185348,-8580.269578,-296.082377
5702.376323,666.185348,-8580.269578,-518.144159
5702.376647,148.041188,-8273.831378,-1110.308913
5702.376972,-222.061783,-8273.831378,-814.226536
5702.377296,-222.061783,-8044.002729,-888.247130
5702.377620,0.000000,-8273.831378,-1184.329507
5702.377944,0.000000,-7967.393179,-518.144159
5702.378269,370.102971,-8427.050478,-296.082377
5702.378593,1110.308913,-8580.269578,-296.082377
5702.378917,1332.370696,-8350.440928,-222.061783
5702.379242,1332.370696,-8656.879127,-222.061783
5702.379566,1110.308913,-8733.488677,0.000000
5702.379890,1110.308913,-8886.707777,-444.123565
5702.380214,444.123565,-8963.317327,-666.185348
5702.380539,0.000000,-7967.393179,-814.226536
5702.380863,-518.144159,-8120.612279,-444.123565
5702.381187,-888.247130,-8273.831378,-888.247130
5702.381512,-222.061783,-8197.221829,-814.226536
5702.381836,148.041188,-8120.612279,-444.123565
5702.382160,814.226536,-8733.488677,0.000000
5702.382485,962.267725,-8733.488677,0.000000
5702.382809,1258.350101,-8733.488677,74.020594
5702.383133,1258.350101,-8810.098227,222.061783
5702.383457,1258.350101,-9039.926876,74.020594
5702.383782,1110.308913,-9193.145976,0.000000
5702.384106,222.061783,-8810.098227,-296.082377
5702.384430,-370.102971,-8810.098227,-370.102971
5702.384755,-740.205942,-8350.440928,-518.144159
5702.385079,-814.226536,-8963.317327,-740.205942
5702.385403,-296.082377,-8273.831378,-740.205942
5702.385727,148.041188,-8273.831378,0.000000
5702.386052,296.082377,-8273.831378,-444.123565
5702.386376,888.247130,-8886.707777,-222.061783
5702.386700,1184.329507,-8580.269578,-74.020594
5702.387025,888.247130,-9499.584175,0.000000
5702.387349,888.247130,-9039.926876,0.000000
5702.387673,740.205942,-8886.707777,-222.061783
5702.387997,0.000000,-8810.098227,-814.226536
5702.388322,-148.041188,-8427.050478,-962.267725
5702.388646,-592.164754,-8580.269578,-740.205942
5702.388970,-370.102971,-8273.831378,-888.247130
5702.389295,-296.082377,-8120.612279,-592.164754
5702.389619,74.020594,-8273.831378,-518.144159
5702.389943,740.205942,-8350.440928,-222.061783
5702.390268,962.267725,-8656.879127,0.000000
5702.390592,1480.411884,-8733.488677,148.041188
5702.390916,1406.391290,-8963.317327,148.041188
5702.391240,962.267725,-9422.974625,0.000000
5702.391565,148.041188,-8963.317327,148.041188
5702.391889,296.082377,-8273.831378,-370.102971
5702.392213,296.082377,-9269.755526,-370.102971
5702.392538,0.000000,-8120.612279,-148.041188
5702.392862,0.000000,-8350.440928,-444.123565
5702.393186,-296.082377,-8120.612279,-814.226536
5702.393510,148.041188,-8350.440928,-370.102971
5702.393835,592.164754,-8120.612279,-222.061783
5702.394159,1110.308913,-8733.488677,0.000000
5702.394483,1184.329507,-8197.221829,74.020594
5702.394808,1406.391290,-8733.488677,74.020594
5702.395132,814.226536,-8886.707777,0.000000
5702.395456,1036.288319,-8886.707777,-296.082377
5702.395780,518.144159,-8963.317327,-518.144159
5702.396105,74.020594,-8350.440928,-740.205942
5702.396429,-592.164754,-8656.879127,0.000000
5702.396753,-518.144159,-8044.002729,-814.226536
5702.397078,0.000000,-8120.612279,-518.144159
5702.397402,148.041188,-8197.221829,-370.102971
5702.397726,518.144159,-8427.050478,0.000000
5702.398051,888.247130,-8350.440928,0.000000
5702.398375,1480.411884,-8503.660028,0.000000
5702.398699,1184.329507,-8656.879127,296.082377
5702.399023,1036.288319,-9193.145976,0.000000
5702.399348,1110.308913,-9193.145976,0.000000
5702.399672,592.164754,-8580.269578,-518.144159
5702.399996,-222.061783,-8733.488677,-740.205942
5702.400321,-370.102971,-8656.879127,-740.205942
5702.400645,-296.082377,-8503.660028,-666.185348
5702.400969,74.020594,-8350.440928,-740.205942
5702.401293,222.061783,-8197.221829,-666.185348
5702.401618,444.123565,-8580.269578,0.000000
5702.401942,814.226536,-8963.317327,-740.205942
5702.402266,814.226536,-8656.879127,-370.102971
5702.402591,592.164754,-9346.365076,-148.041188
5702.402915,666.185348,-8963.317327,-370.102971
5702.403239,740.205942,-8886.707777,-592.164754
5702.403563,222.061783,-8810.098227,-592.164754
5702.403888,0.000000,-8656.879127,-1184.329507
5702.404212,-444.123565,-8733.488677,-1110.308913
5702.404536,-444.123565,-8503.660028,-1332.370696
5702.404861,0.000000,-7507.735880,-148.041188
5702.405185,222.061783,-8503.660028,-666.185348
5702.405509,296.082377,-8427.050478,-592.164754
5702.405833,962.267725,-8886.707777,-296.082377
5702.406158,1110.308913,-9039.926876,-222.061783
5702.406482,1184.329507,-8733.488677,0.000000
5702.406806,814.226536,-9116.536426,-222.061783
5702.407131,592.164754,-9116.536426,-370.102971
5702.407455,444.123565,-8733.488677,-518.144159
5702.407779,148.041188,-8120.612279,-518.144159
5702.408104,0.000000,-8350.440928,-666.185348
5702.408428,74.020594,-8427.050478,-814.226536
5702.408752,-296.082377,-8044.002729,-888.247130
5702.409076,0.000000,-8427.050478,0.000000
5702.409401,592.164754,-8503.660028,-148.041188
5702.409725,1036.288319,-8503.660028,148.041188
5702.410049,1184.329507,-8503.660028,296.082377
5702.410374,1110.308913,-8810.098227,0.000000
5702.410698,888.247130,-8733.488677,-222.061783
5702.411022,1036.288319,-8503.660028,-148.041188
5702.411346,666.185348,-8503.660028,-444.123565
5702.411671,74.020594,-8580.269578,-666.185348
5702.411995,-370.102971,-8120.612279,-1110.308913
5702.412319,-370.102971,-8120.612279,-740.205942
5702.412644,-370.102971,-8197.221829,-592.164754
5702.412968,-148.041188,-8350.440928,-740.205942
5702.413292,740.205942,-7967.393179,0.000000
5702.413616,962.267725,-8733.488677,-148.041188
5702.413941,1332.370696,-8886.707777,0.000000
5702.414265,1184.329507,-8810.098227,74.020594
5702.414589,1332.370696,-8656.879127,148.041188
5702.414914,1110.308913,-8733.488677,74.020594
5702.415238,518.144159,-9039.926876,-296.082377
5702.415562,0.000000,-8656.879127,-518.144159
5702.415887,-666.185348,-8350.440928,-222.061783
5702.416211,0.000000,-8963.317327,-518.144159
5702.416535,-370.102971,-8580.269578,-666.185348
5702.416859,222.061783,-8273.831378,0.000000
5702.417184,296.082377,-8120.612279,0.000000
5702.417508,666.185348,-8427.050478,222.061783
5702.417832,814.226536,-8273.831378,0.000000
5702.418157,740.205942,-8810.098227,148.041188
5702.418481,1110.308913,-9269.755526,74.020594
5702.418805,740.205942,-8886.707777,148.041188
5702.419129,666.185348,-8886.707777,0.000000
5702.419454,-296.082377,-8350.440928,-592.164754
5702.419778,-296.082377,-8733.488677,-740.205942
5702.420102,-370.102971,-8427.050478,-1036.288319
5702.420427,-148.041188,-7584.345430,-888.247130
5702.420751,0.000000,-7967.393179,-740.205942
5702.421075,370.102971,-8350.440928,-666.185348
5702.421399,814.226536,-8350.440928,-296.082377
5702.421724,1184.329507,-8810.098227,-148.041188
5702.422048,1480.411884,-9039.926876,0.000000
5702.422372,1110.308913,-8810.098227,0.000000
5702.422697,1258.350101,-8886.707777,-296.082377
5702.423021,518.144159,-8733.488677,-444.123565
5702.423345,518.144159,-8350.440928,-666.185348
5702.423670,-222.061783,-8503.660028,-370.102971
5702.423994,-370.102971,-8886.707777,-518.144159
5702.424318,-666.185348,-8350.440928,-592.164754
5702.424642,0.000000,-8963.317327,-592.164754
5702.424967,222.061783,-8350.440928,-296.082377
5702.425291,666.185348,-8503.660028,-222.061783
5702.425615,888.247130,-8580.269578,0.000000
5702.425940,1184.329507,-8886.707777,222.061783
5702.426264,962.267725,-9039.926876,-148.041188
5702.426588,1110.308913,-9039.926876,-222.061783
5702.426912,592.164754,-8963.317327,-518.144159
5702.427237,222.061783,-8580.269578,-592.164754
5702.427561,-666.185348,-8886.707777,-370.102971
5702.427885,-444.123565,-8427.050478,-666.185348
5702.428210,-296.082377,-8350.440928,-740.205942
5702.428534,148.041188,-8044.002729,-666.185348
5702.428858,370.102971,-9193.145976,-518.144159
5702.429182,740.205942,-8733.488677,0.000000
5702.429507,1332.370696,-8580.269578,0.000000
5702.429831,1332.370696,-8656.879127,74.020594
5702.430155,1480.411884,-8963.317327,-296.082377
5702.430480,962.267725,-9116.536426,0.000000
5702.430804,666.185348,-8580.269578,-296.082377
5702.431128,148.041188,-8503.660028,-518.144159
5702.431453,0.000000,-8810.098227,-518.144159
5702.431777,-74.020594,-8120.612279,-740.205942
5702.432101,-370.102971,-8273.831378,-518.144159
5702.432425,0.000000,-8197.221829,-518.144159
5702.432750,0.000000,-8350.440928,0.000000
5702.433074,962.267725,-8733.488677,0.000000
5702.433398,814.226536,-8350.440928,0.000000
5702.433723,888.247130,-8810.098227,0.000000
5702.434047,1406.391290,-8886.707777,148.041188
5702.434371,888.247130,-8886.707777,74.020594
5702.434695,740.205942,-9193.145976,-592.164754
5702.435020,0.000000,-8427.050478,-296.082377
5702.435344,-148.041188,-8503.660028,-740.205942
5702.435668,-592.164754,-8503.660028,-740.205942
5702.435993,-370.102971,-8580.269578,-518.144159
5702.436317,0.000000,-8350.440928,-222.061783
5702.436641,74.020594,-8120.612279,-222.061783
5702.436965,592.164754,-8503.660028,-222.061783
5702.437290,814.226536,-8963.317327,-148.041188
5702.437614,1110.308913,-8503.660028,74.020594
5702.437938,888.247130,-8810.098227,0.000000
5702.438263,1036.288319,-8886.707777,-222.061783
5702.438587,518.144159,-8963.317327,-370.102971
5702.438911,0.000000,-8810.098227,-296.082377
5702.439235,-518.144159,-8656.879127,-518.144159
5702.439560,-518.144159,-8427.050478,-370.102971
5702.439884,-370.102971,-8197.221829,-592.164754
5702.440208,-148.041188,-8503.660028,0.000000
5702.440533,296.082377,-8580.269578,-222.061783
5702.440857,814.226536,-8503.660028,-222.061783
5702.441181,1184.329507,-8656.879127,0.000000
5702.441506,962.267725,-8503.660028,-296.082377
5702.441830,1184.329507,-8886.707777,0.000000
5702.442154,814.226536,-8810.098227,-148.041188
5702.442478,740.205942,-9039.926876,-222.061783
5702.442803,444.123565,-8273.831378,-518.144159
5702.443127,74.020594,-8733.488677,-518.144159
5702.443451,0.000000,-7967.393179,-962.267725
5702.443776,148.041188,-8273.831378,-740.205942
5702.444100,518.144159,-8273.831378,-888.247130
5702.444424,740.205942,-9116.536426,0.000000
5702.444748,740.205942,-8197.221829,0.000000
5702.445073,1036.288319,-8733.488677,0.000000
5702.445397,1480.411884,-8656.879127,0.000000
5702.445721,1184.329507,-9116.536426,74.020594
5702.446046,1036.288319,-9116.536426,-222.061783
5702.446370,592.164754,-9116.536426,0.000000
5702.446694,444.123565,-8656.879127,-370.102971
5702.447018,0.000000,-8656.879127,-666.185348
5702.447343,-296.082377,-7814.174080,-592.164754
5702.447667,0.000000,-8120.612279,-814.226536
5702.447991,296.082377,-8120.612279,-666.185348
5702.448316,296.082377,-8656.879127,-148.041188
5702.448640,592.164754,-8197.221829,148.041188
5702.448964,814.226536,-8886.707777,0.000000
5702.449289,888.247130,-8656.879127,-296.082377
5702.449613,814.226536,-9116.536426,0.000000
5702.449937,740.205942,-8963.317327,-296.082377
5702.450261,444.123565,-8963.317327,-296.082377
5702.450586,0.000000,-8503.660028,-518.144159
5702.450910,-222.061783,-8503.660028,-740.205942
5702.451234,-296.082377,-8427.050478,-740.205942
5702.451559,296.082377,-8427.050478,-814.226536
5702.451883,0.000000,-8427.050478,-592.164754
5702.452207,74.020594,-8350.440928,-518.144159
5702.452531,518.144159,-8350.440928,-148.041188
5702.452856,888.247130,-8733.488677,-296.082377
5702.453180,1036.288319,-8810.098227,74.020594
5702.453504,962.267725,-9116.536426,74.020594
5702.453829,814.226536,-8963.317327,-296.082377
5702.454153,444.123565,-8886.707777,-370.102971
5702.454477,296.082377,-8580.269578,-740.205942
5702.454802,74.020594,-8503.660028,-592.164754
5702.455126,-296.082377,-8197.221829,-740.205942
5702.455450,0.000000,-8350.440928,-1036.288319
5702.455775,0.000000,-7737.564530,-592.164754
5702.456099,370.102971,-8350.440928,-444.123565
5702.456423,740.205942,-8503.660028,-296.082377
5702.456748,888.247130,-8963.317327,0.000000
5702.457072,1110.308913,-8810.098227,-148.041188
5702.457396,1110.308913,-8886.707777,74.020594
5702.457721,666.185348,-8656.879127,-370.102971
5702.458045,518.144159,-9193.145976,-592.164754
5702.458369,370.102971,-8427.050478,-740.205942
5702.458694,-296.082377,-8350.440928,-740.205942
5702.459018,-148.041188,-8503.660028,-666.185348
5702.459342,0.000000,-8350.440928,-296.082377
5702.459667,666.185348,-8197.221829,-444.123565
5702.459991,740.205942,-7890.783629,0.000000
5702.460315,814.226536,-8580.269578,0.000000
5702.460640,814.226536,-8503.660028,0.000000
5702.460964,1258.350101,-8810.098227,222.061783
5702.461288,740.205942,-8886.707777,-296.082377
5702.461613,518.144159,-8886.707777,0.000000
5702.461937,666.185348,-8810.098227,0.000000
5702.462261,148.041188,-8580.269578,-444.123565
5702.462586,74.020594,-8580.269578,-592.164754
5702.462910,370.102971,-8273.831378,-1036.288319
5702.463234,74.020594,-8503.660028,-814.226536
5702.463559,222.061783,-8197.221829,-370.102971
5702.463883,222.061783,-8580.269578,0.000000
5702.464207,962.267725,-8886.707777,0.000000
5702.464532,888.247130,-8580.269578,0.000000
5702.464856,814.226536,-8886.707777,-296.082377
5702.465181,666.185348,-9116.536426,0.000000
5702.465505,740.205942,-8503.660028,0.000000
5702.465829,592.164754,-8580.269578,-370.102971
5702.466154,222.061783,-8656.879127,-444.123565
5702.466478,74.020594,-8580.269578,-370.102971
5702.466802,-444.123565,-8427.050478,-740.205942
5702.467127,0.000000,-8656.879127,-444.123565
5702.467451,74.020594,-8427.050478,-518.144159
5702.467775,370.102971,-8733.488677,-222.061783
5702.468100,444.123565,-8580.269578,-296.082377
5702.468424,888.247130,-9499.584175,0.000000
5702.468748,1036.288319,-8656.879127,0.000000
5702.469073,1036.288319,-8963.317327,0.000000
5702.469397,814.226536,-9116.536426,-222.061783
5702.469721,444.123565,-8580.269578,-370.102971
5702.470046,370.102971,-8810.098227,-666.185348
5702.470370,0.000000,-8427.050478,-666.185348
5702.470694,0.000000,-8273.831378,-666.185348
5702.471019,0.000000,-8503.660028,-740.205942
5702.471343,296.082377,-8350.440928,-148.041188
5702.471667,222.061783,-8044.002729,-592.164754
5702.471992,666.185348,-8503.660028,-296.082377
5702.472316,888.247130,-8580.269578,0.000000
5702.472640,518.144159,-8963.317327,0.000000
5702.472965,666.185348,-8810.098227,-148.041188
5702.473289,814.226536,-8580.269578,-296.082377
5702.473613,666.185348,-8656.879127,-370.102971
5702.473938,296.082377,-8810.098227,-518.144159
