#time,accel_x,accel_y,accel_z
4520.185118,592.164754,-8197.221829,-592.164754
4520.185443,296.082377,-8580.269578,0.000000
4520.185767,148.041188,-8503.660028,0.000000
4520.186092,518.144159,-8656.879127,-296.082377
4520.186416,888.247130,-8810.098227,0.000000
4520.186741,518.144159,-8580.269578,-296.082377
4520.187065,518.144159,-8733.488677,444.123565
4520.187390,518.144159,-8503.660028,222.061783
4520.187714,814.226536,-8503.660028,148.041188
4520.188039,444.123565,-8427.050478,148.041188
4520.188364,296.082377,-8503.660028,148.041188
4520.188688,444.123565,-8656.879127,148.041188
4520.189008,74.020594,-8503.660028,740.205942
4520.189333,370.102971,-8733.488677,444.123565
4520.189657,222.061783,-8273.831378,888.247130
4520.189982,444.123565,-8273.831378,740.205942
4520.190306,444.123565,-8733.488677,518.144159
4520.190630,444.123565,-8503.660028,1554.432478
4520.190955,444.123565,-8656.879127,518.144159
4520.191279,518.144159,-8810.098227,666.185348
4520.191604,296.082377,-8350.440928,814.226536
4520.191928,518.144159,-8580.269578,814.226536
4520.192253,0.000000,-8427.050478,666.185348
4520.192577,222.061783,-8580.269578,444.123565
4520.192901,74.020594,-8886.707777,666.185348
4520.193226,0.000000,-8656.879127,296.082377
4520.193550,592.164754,-8886.707777,592.164754
4520.193875,518.144159,-8503.660028,592.164754
4520.194199,592.164754,-8350.440928,518.144159
4520.194523,222.061783,-8503.660028,222.061783
4520.194848,888.247130,-9116.536426,74.020594
4520.195172,370.102971,-8273.831378,222.061783
4520.195497,740.205942,-8886.707777,74.020594
4520.195821,518.144159,-8350.440928,148.041188
4520.196146,222.061783,-9116.536426,74.020594
4520.196470,592.164754,-8810.098227,0.000000
4520.196794,518.144159,-8580.269578,-296.082377
4520.197119,444.123565,-8886.707777,-222.061783
4520.197443,444.123565,-8656.879127,-148.041188
4520.197768,444.123565,-8733.488677,296.082377
4520.198092,592.164754,-8810.098227,0.000000
4520.198417,666.185348,-8733.488677,-148.041188
4520.198741,666.185348,-8733.488677,-148.041188
4520.199065,222.061783,-9039.926876,74.020594
4520.199390,296.082377,-8963.317327,-518.144159
4520.199714,518.144159,-8427.050478,-444.123565
4520.200039,518.144159,-8656.879127,-666.185348
4520.200363,148.041188,-8580.269578,-518.144159
4520.200687,370.102971,-8810.098227,-666.185348
4520.201012,370.102971,-8273.831378,-666.185348
4520.201336,370.102971,-8273.831378,-592.164754
4520.201661,296.082377,-8197.221829,-814.226536
4520.201985,222.061783,-8120.612279,-370.102971
4520.202310,666.185348,-8427.050478,-888.247130
4520.202634,666.185348,-8503.660028,-1036.288319
4520.202958,666.185348,-8580.269578,-888.247130
4520.203283,592.164754,-8656.879127,-666.185348
4520.203607,370.102971,-8580.269578,-1036.288319
4520.203932,222.061783,-8580.269578,-1258.350101
4520.204256,444.123565,-8810.098227,-1036.288319
4520.204580,74.020594,-8350.440928,-962.267725
4520.204905,296.082377,-8963.317327,-666.185348
4520.205229,444.123565,-8503.660028,-1332.370696
4520.205554,518.144159,-8810.098227,-1184.329507
4520.205878,814.226536,-8350.440928,-1332.370696
4520.206203,592.164754,-8810.098227,-222.061783
4520.206527,518.144159,-8503.660028,-1036.288319
4520.206851,814.226536,-9116.536426,-1184.329507
4520.207176,740.205942,-8503.660028,-1258.350101
4520.207500,370.102971,-8886.707777,-518.144159
4520.207825,740.205942,-8810.098227,-1036.288319
4520.208149,444.123565,-8427.050478,-740.205942
4520.208474,444.123565,-8810.098227,-888.247130
4520.208798,148.041188,-8810.098227,-888.247130
4520.209122,592.164754,-8963.317327,-1110.308913
4520.209447,444.123565,-9116.536426,-814.226536
4520.209771,148.041188,-8810.098227,-592.164754
4520.210096,592.164754,-8886.707777,-814.226536
4520.210420,592.164754,-8656.879127,-666.185348
4520.210744,444.123565,-8580.269578,-962.267725
4520.211069,74.020594,-8656.879127,-814.226536
4520.211393,444.123565,-8886.707777,-814.226536
4520.211718,370.102971,-7737.564530,-1036.288319
4520.212042,0.000000,-8886.707777,-518.144159
4520.212367,148.041188,-8580.269578,-666.185348
4520.212691,296.082377,-8810.098227,-814.226536
4520.213015,296.082377,-8810.098227,-888.247130
4520.213340,74.020594,-8580.269578,-444.123565
4520.213664,370.102971,-8350.440928,-592.164754
4520.213989,444.123565,-8886.707777,-518.144159
4520.214313,222.061783,-8580.269578,-814.226536
4520.214637,592.164754,-8350.440928,-518.144159
4520.214962,370.102971,-8656.879127,-518.144159
4520.215286,296.082377,-8350.440928,-370.102971
4520.215611,222.061783,-8733.488677,-296.082377
4520.215935,518.144159,-8580.269578,-296.082377
4520.216260,518.144159,-8503.660028,-222.061783
4520.216584,518.144159,-8810.098227,0.000000
4520.216908,666.185348,-8810.098227,74.020594
4520.217233,740.205942,-8580.269578,296.082377
4520.217557,296.082377,-8350.440928,0.000000
4520.217882,740.205942,-8810.098227,148.041188
4520.218206,666.185348,-8580.269578,222.061783
4520.218530,888.247130,-8656.879127,444.123565
4520.218855,740.205942,-8350.440928,444.123565
4520.219179,888.247130,-8580.269578,814.226536
4520.219504,814.226536,-8503.660028,518.144159
4520.219828,1110.308913,-8733.488677,222.061783
4520.220153,518.144159,-8733.488677,370.102971
4520.220477,666.185348,-8886.707777,444.123565
4520.220801,370.102971,-8350.440928,444.123565
4520.221126,518.144159,-8580.269578,592.164754
4520.221450,370.102971,-8427.050478,370.102971
4520.221775,888.247130,-8733.488677,888.247130
4520.222099,518.144159,-8503.660028,444.123565
4520.222424,518.144159,-8503.660028,666.185348
4520.222748,666.185348,-8503.660028,814.226536
4520.223072,1036.288319,-8503.660028,444.123565
4520.223397,962.267725,-8810.098227,444.123565
4520.223721,592.164754,-8273.831378,592.164754
4520.224046,666.185348,-8503.660028,592.164754
4520.224370,444.123565,-8580.269578,740.205942
4520.224694,518.144159,-8733.488677,666.185348
4520.225019,148.041188,-8810.098227,740.205942
4520.225343,74.020594,-8044.002729,1036.288319
4520.225668,0.000000,-8503.660028,814.226536
4520.225992,370.102971,-8810.098227,592.164754
4520.226317,222.061783,-8120.612279,518.144159
4520.226641,222.061783,-8427.050478,518.144159
4520.226965,222.061783,-8427.050478,444.123565
4520.227290,148.041188,-8427.050478,592.164754
4520.227614,296.082377,-8197.221829,740.205942
4520.227939,296.082377,-8273.831378,518.144159
4520.228263,444.123565,-8503.660028,296.082377
4520.228587,222.061783,-8580.269578,444.123565
4520.228912,148.041188,-8427.050478,518.144159
4520.229236,370.102971,-8427.050478,74.020594
4520.229561,222.061783,-8427.050478,148.041188
4520.229885,814.226536,-8350.440928,222.061783
4520.230210,666.185348,-8580.269578,296.082377
4520.230534,222.061783,-8427.050478,296.082377
4520.230858,0.000000,-8273.831378,222.061783
4520.231183,444.123565,-8656.879127,148.041188
4520.231507,296.082377,-8503.660028,74.020594
4520.231832,444.123565,-8733.488677,0.000000
4520.232156,296.082377,-8656.879127,0.000000
4520.232481,370.102971,-8733.488677,148.041188
4520.232805,592.164754,-8580.269578,-148.041188
4520.233129,592.164754,-9116.536426,148.041188
4520.233454,592.164754,-8656.879127,0.000000
4520.233778,370.102971,-8886.707777,0.000000
4520.234103,370.102971,-8656.879127,0.000000
4520.234427,296.082377,-9576.193725,518.144159
4520.234751,296.082377,-8580.269578,0.000000
4520.235076,370.102971,-8656.879127,0.000000
4520.235400,370.102971,-8810.098227,0.000000
4520.235725,370.102971,-8503.660028,74.020594
4520.236049,148.041188,-8350.440928,-296.082377
4520.236374,296.082377,-8810.098227,-296.082377
4520.236698,370.102971,-8503.660028,0.000000
4520.237022,740.205942,-8580.269578,-296.082377
4520.237347,222.061783,-8350.440928,-222.061783
4520.237671,222.061783,-8427.050478,74.020594
4520.237996,222.061783,-8580.269578,-74.020594
4520.238320,222.061783,-8427.050478,0.000000
4520.238644,444.123565,-8427.050478,-296.082377
4520.238969,296.082377,-8580.269578,-148.041188
4520.239293,222.061783,-7890.783629,-222.061783
4520.239618,296.082377,-8427.050478,-222.061783
4520.239942,444.123565,-8733.488677,-148.041188
4520.240267,296.082377,-8503.660028,-148.041188
4520.240591,518.144159,-8733.488677,-444.123565
4520.240915,296.082377,-8656.879127,0.000000
4520.241240,296.082377,-8580.269578,-148.041188
4520.241564,370.102971,-8503.660028,0.000000
4520.241889,296.082377,-8503.660028,0.000000
4520.242213,518.144159,-8810.098227,-148.041188
4520.242537,518.144159,-8503.660028,-222.061783
4520.242862,444.123565,-8810.098227,0.000000
4520.243186,296.082377,-8656.879127,74.020594
4520.243511,370.102971,-8273.831378,370.102971
4520.243835,222.061783,-8273.831378,74.020594
4520.244160,222.061783,-8656.879127,296.082377
4520.244484,0.000000,-8503.660028,444.123565
4520.244808,74.020594,-8963.317327,148.041188
4520.245133,148.041188,-8503.660028,296.082377
4520.245457,592.164754,-8350.440928,74.020594
4520.245782,370.102971,-8963.317327,444.123565
4520.246106,518.144159,-8197.221829,444.123565
4520.246431,222.061783,-8197.221829,148.041188
4520.246755,296.082377,-8427.050478,74.020594
4520.247079,592.164754,-9039.926876,222.061783
4520.247404,0.000000,-8273.831378,0.000000
4520.247728,444.123565,-8350.440928,0.000000
4520.248053,222.061783,-8273.831378,-296.082377
4520.248377,518.144159,-8810.098227,0.000000
4520.248701,444.123565,-8273.831378,-518.144159
4520.249026,518.144159,-8580.269578,-592.164754
4520.249350,592.164754,-8580.269578,-740.205942
4520.249675,518.144159,-8120.612279,-370.102971
4520.249999,74.020594,-9039.926876,0.000000
4520.250324,148.041188,-8427.050478,-518.144159
4520.250648,222.061783,-8656.879127,-592.164754
4520.250972,148.041188,-8503.660028,-740.205942
4520.251297,444.123565,-8656.879127,-518.144159
4520.251621,222.061783,-8427.050478,-814.226536
4520.251946,370.102971,-8580.269578,-666.185348
4520.252270,296.082377,-8350.440928,-518.144159
4520.252594,444.123565,-8810.098227,-740.205942
4520.252919,888.247130,-8044.002729,-962.267725
4520.253243,222.061783,-8503.660028,-666.185348
4520.253568,222.061783,-8810.098227,-592.164754
4520.253892,444.123565,-8656.879127,-888.247130
4520.254217,296.082377,-8503.660028,-666.185348
4520.254541,370.102971,-8886.707777,-962.267725
4520.254865,296.082377,-8733.488677,-962.267725
4520.255190,222.061783,-8580.269578,-888.247130
4520.255514,222.061783,-8427.050478,-888.247130
4520.255839,222.061783,-8580.269578,-888.247130
4520.256163,296.082377,-8733.488677,-814.226536
4520.256488,296.082377,-8580.269578,-962.267725
4520.256812,0.000000,-8503.660028,-1036.288319
4520.257136,0.000000,-8197.221829,-518.144159
4520.257461,148.041188,-8427.050478,-1110.308913
4520.257785,370.102971,-8427.050478,-1036.288319
4520.258110,370.102971,-8656.879127,-1110.308913
4520.258434,296.082377,-8656.879127,-592.164754
4520.258758,148.041188,-8580.269578,-962.267725
4520.259083,370.102971,-8580.269578,-1036.288319
4520.259407,296.082377,-8656.879127,-1110.308913
4520.259732,444.123565,-8886.707777,-888.247130
4520.260056,370.102971,-8273.831378,-444.123565
4520.260381,222.061783,-8580.269578,-592.164754
4520.260705,222.061783,-8503.660028,-666.185348
4520.261029,296.082377,-8427.050478,-666.185348
4520.261354,666.185348,-8273.831378,-962.267725
4520.261678,518.144159,-8427.050478,-592.164754
4520.262003,370.102971,-8197.221829,-444.123565
4520.262327,444.123565,-8427.050478,-592.164754
4520.262651,518.144159,-8427.050478,0.000000
4520.262976,444.123565,-8810.098227,-592.164754
4520.263300,666.185348,-8427.050478,-740.205942
4520.263625,740.205942,-8503.660028,-518.144159
4520.263949,370.102971,-8810.098227,-740.205942
4520.264274,814.226536,-8580.269578,-518.144159
4520.264598,888.247130,-8350.440928,-740.205942
4520.264922,592.164754,-8656.879127,-370.102971
4520.265247,518.144159,-8733.488677,-444.123565
4520.265571,518.144159,-8044.002729,-148.041188
4520.265896,370.102971,-8580.269578,-370.102971
4520.266220,592.164754,-8273.831378,-370.102971
4520.266545,740.205942,-8810.098227,-518.144159
4520.266869,814.226536,-8503.660028,-370.102971
4520.267193,370.102971,-8580.269578,-592.164754
4520.267518,518.144159,-9039.926876,-370.102971
4520.267842,592.164754,-8580.269578,-666.185348
4520.268167,592.164754,-8656.879127,-296.082377
4520.268491,592.164754,-8886.707777,-222.061783
4520.268815,666.185348,-8503.660028,0.000000
4520.269140,814.226536,-8733.488677,0.000000
4520.269464,518.144159,-8733.488677,0.000000
4520.269789,518.144159,-8733.488677,148.041188
4520.270113,592.164754,-8810.098227,-296.082377
4520.270438,814.226536,-8656.879127,0.000000
4520.270762,518.144159,-8503.660028,-148.041188
4520.271086,444.123565,-8963.317327,0.000000
4520.271411,740.205942,-8580.269578,-148.041188
4520.271735,666.185348,-8656.879127,-296.082377
4520.272060,666.185348,-8656.879127,0.000000
4520.272384,592.164754,-8733.488677,-296.082377
4520.272708,962.267725,-8350.440928,-740.205942
4520.273033,592.164754,-8733.488677,-592.164754
4520.273357,814.226536,-8886.707777,-518.144159
4520.273682,1036.288319,-8963.317327,-592.164754
4520.274006,1036.288319,-8810.098227,-888.247130
4520.274331,814.226536,-8886.707777,-888.247130
4520.274655,740.205942,-8656.879127,-1036.288319
4520.274979,518.144159,-8810.098227,-962.267725
4520.275304,296.082377,-8886.707777,-962.267725
4520.275628,592.164754,-8656.879127,-740.205942
4520.275953,148.041188,-8503.660028,-814.226536
4520.276277,296.082377,-8886.707777,-1036.288319
4520.276601,222.061783,-8656.879127,-888.247130
4520.276926,444.123565,-9346.365076,-740.205942
4520.277250,888.247130,-8580.269578,-962.267725
4520.277575,222.061783,-8886.707777,-666.185348
4520.277899,444.123565,-8963.317327,-1184.329507
4520.278224,592.164754,-8733.488677,-888.247130
4520.278548,444.123565,-8733.488677,-1036.288319
4520.278872,370.102971,-8733.488677,-814.226536
4520.279197,444.123565,-8580.269578,-1110.308913
4520.279521,148.041188,-8580.269578,-1110.308913
4520.279846,518.144159,-8733.488677,-1036.288319
4520.280170,666.185348,-8733.488677,-1332.370696
4520.280495,518.144159,-8810.098227,-1480.411884
4520.280819,666.185348,-8503.660028,-1258.350101
4520.281143,740.205942,-9193.145976,-814.226536
4520.281468,222.061783,-8427.050478,-1554.432478
4520.281792,666.185348,-8503.660028,-1332.370696
4520.282117,666.185348,-8580.269578,-1776.494261
4520.282441,444.123565,-9116.536426,-1554.432478
4520.282765,74.020594,-8273.831378,-1554.432478
4520.283090,148.041188,-8656.879127,-1332.370696
4520.283414,370.102971,-8273.831378,-1480.411884
4520.283739,444.123565,-8656.879127,-1258.350101
4520.284063,0.000000,-8044.002729,-962.267725
4520.284388,444.123565,-8427.050478,-962.267725
4520.284712,148.041188,-8120.612279,-1406.391290
4520.285036,222.061783,-8503.660028,-1184.329507
4520.285361,666.185348,-8503.660028,-962.267725
4520.285685,444.123565,-8733.488677,-1332.370696
4520.286010,222.061783,-8427.050478,-1110.308913
4520.286334,148.041188,-8656.879127,-888.247130
4520.286658,296.082377,-8656.879127,-1036.288319
4520.286983,518.144159,-8350.440928,-740.205942
4520.287307,444.123565,-8656.879127,-666.185348
4520.287632,740.205942,-8273.831378,-666.185348
4520.287956,518.144159,-8350.440928,-814.226536
4520.288281,666.185348,-9422.974625,-888.247130
4520.288605,666.185348,-8580.269578,-888.247130
4520.288929,296.082377,-8656.879127,-592.164754
4520.289254,370.102971,-8427.050478,-444.123565
4520.289578,222.061783,-9193.145976,-148.041188
4520.289903,518.144159,-8656.879127,-592.164754
4520.290227,222.061783,-8503.660028,-592.164754
4520.290552,296.082377,-8656.879127,-370.102971
4520.290876,222.061783,-8656.879127,-444.123565
4520.291200,518.144159,-8733.488677,-666.185348
4520.291525,296.082377,-8656.879127,-592.164754
4520.291849,296.082377,-8963.317327,-444.123565
4520.292174,222.061783,-8656.879127,-296.082377
4520.292498,666.185348,-9116.536426,-370.102971
4520.292822,296.082377,-8733.488677,0.000000
4520.293147,444.123565,-8656.879127,0.000000
4520.293471,370.102971,-8503.660028,-370.102971
4520.293795,592.164754,-8656.879127,0.000000
4520.294119,740.205942,-8503.660028,-148.041188
4520.294444,740.205942,-8580.269578,-74.020594
4520.294768,592.164754,-8273.831378,0.000000
4520.295092,592.164754,-8810.098227,-222.061783
4520.295416,592.164754,-8886.707777,0.000000
4520.295741,296.082377,-8886.707777,0.000000
4520.296065,740.205942,-8963.317327,-148.041188
4520.296389,518.144159,-8427.050478,0.000000
4520.296714,888.247130,-9269.755526,518.144159
4520.297038,888.247130,-8810.098227,0.000000
4520.297362,592.164754,-8350.440928,-296.082377
4520.297686,518.144159,-8656.879127,74.020594
4520.298011,666.185348,-8503.660028,0.000000
4520.298335,740.205942,-8427.050478,296.082377
4520.298659,296.082377,-8656.879127,74.020594
4520.298983,296.082377,-8656.879127,296.082377
4520.299308,444.123565,-8273.831378,-222.061783
4520.299632,518.144159,-8810.098227,148.041188
4520.299956,296.082377,-8580.269578,0.000000
4520.300281,370.102971,-8810.098227,148.041188
4520.300605,222.061783,-8580.269578,0.000000
4520.300929,518.144159,-8503.660028,-222.061783
4520.301253,222.061783,-8503.660028,-444.123565
4520.301578,518.144159,-8427.050478,-296.082377
4520.301902,296.082377,-8427.050478,-148.041188
4520.302226,370.102971,-8810.098227,-148.041188
4520.302550,370.102971,-8273.831378,-518.144159
4520.302875,444.123565,-8580.269578,-148.041188
4520.303199,296.082377,-8503.660028,-370.102971
4520.303523,444.123565,-8656.879127,-222.061783
4520.303848,148.041188,-8810.098227,-518.144159
4520.304172,444.123565,-8427.050478,-666.185348
4520.304496,370.102971,-8656.879127,-814.226536
4520.304820,518.144159,-8580.269578,-962.267725
4520.305145,296.082377,-8503.660028,-444.123565
4520.305469,370.102971,-8886.707777,-740.205942
4520.305793,0.000000,-8733.488677,-740.205942
4520.306117,222.061783,-8427.050478,-666.185348
4520.306442,222.061783,-8963.317327,-888.247130
4520.306766,370.102971,-9193.145976,-814.226536
4520.307090,148.041188,-8427.050478,-962.267725
4520.307415,148.041188,-8503.660028,-962.267725
4520.307739,370.102971,-8273.831378,-740.205942
4520.308063,592.164754,-9039.926876,-518.144159
4520.308387,666.185348,-8427.050478,-888.247130
4520.308712,518.144159,-8503.660028,-592.164754
4520.309036,444.123565,-8580.269578,-962.267725
4520.309360,592.164754,-8733.488677,-592.164754
4520.309684,444.123565,-8350.440928,-1036.288319
4520.310009,666.185348,-8733.488677,-888.247130
4520.310333,444.123565,-8580.269578,-814.226536
4520.310657,666.185348,-8427.050478,-666.185348
4520.310982,518.144159,-8427.050478,-592.164754
4520.311306,444.123565,-8503.660028,-666.185348
4520.311630,666.185348,-8580.269578,-888.247130
4520.311954,888.247130,-8120.612279,-296.082377
4520.312279,814.226536,-8656.879127,-666.185348
4520.312603,518.144159,-8503.660028,-370.102971
4520.312927,444.123565,-8044.002729,-370.102971
4520.313251,814.226536,-8503.660028,-296.082377
4520.313576,444.123565,-9039.926876,-518.144159
4520.313900,592.164754,-8503.660028,-444.123565
4520.314224,296.082377,-8656.879127,-222.061783
4520.314548,222.061783,-8503.660028,0.000000
4520.314873,518.144159,-8580.269578,-296.082377
4520.315197,666.185348,-8656.879127,74.020594
4520.315521,666.185348,-8273.831378,0.000000
4520.315846,666.185348,-8656.879127,0.000000
4520.316170,888.247130,-8580.269578,-148.041188
4520.316494,814.226536,-8580.269578,74.020594
4520.316818,666.185348,-8656.879127,-148.041188
4520.317143,444.123565,-8350.440928,296.082377
4520.317467,222.061783,-8733.488677,296.082377
4520.317791,370.102971,-8656.879127,148.041188
4520.318115,222.061783,-8656.879127,0.000000
4520.318440,444.123565,-8580.269578,74.020594
4520.318764,518.144159,-8733.488677,0.000000
4520.319088,518.144159,-8503.660028,296.082377
4520.319413,444.123565,-8886.707777,222.061783
4520.319737,296.082377,-8733.488677,370.102971
4520.320061,222.061783,-8733.488677,296.082377
4520.320385,296.082377,-8580.269578,0.000000
4520.320710,888.247130,-8503.660028,222.061783
4520.321034,370.102971,-8656.879127,74.020594
4520.321358,370.102971,-8810.098227,148.041188
4520.321682,370.102971,-8503.660028,74.020594
4520.322007,370.102971,-8886.707777,74.020594
4520.322331,296.082377,-8580.269578,74.020594
4520.322655,444.123565,-8733.488677,0.000000
4520.322980,222.061783,-8810.098227,0.000000
4520.323304,518.144159,-8810.098227,0.000000
4520.323628,518.144159,-8963.317327,0.000000
4520.323952,518.144159,-8810.098227,0.000000
4520.324277,222.061783,-8656.879127,0.000000
4520.324601,370.102971,-8810.098227,-148.041188
4520.324925,592.164754,-8886.707777,-222.061783
4520.325249,370.102971,-8733.488677,0.000000
4520.325574,444.123565,-8656.879127,0.000000
4520.325898,518.144159,-8273.831378,74.020594
4520.326222,592.164754,-8733.488677,0.000000
4520.326547,370.102971,-8503.660028,148.041188
4520.326871,592.164754,-8427.050478,0.000000
4520.327195,518.144159,-8963.317327,0.000000
4520.327519,518.144159,-8656.879127,0.000000
4520.327844,370.102971,-8273.831378,74.020594
4520.328168,296.082377,-8427.050478,0.000000
4520.328492,148.041188,-8733.488677,-148.041188
4520.328816,518.144159,-8810.098227,-296.082377
4520.329141,592.164754,-8656.879127,370.102971
4520.329465,740.205942,-8503.660028,0.000000
4520.329789,592.164754,-8503.660028,-222.061783
4520.330114,518.144159,-8503.660028,-296.082377
4520.330438,518.144159,-8580.269578,-222.061783
4520.330762,444.123565,-8350.440928,-148.041188
4520.331086,518.144159,-8656.879127,-148.041188
4520.331411,296.082377,-8427.050478,-518.144159
4520.331735,148.041188,-8810.098227,-296.082377
4520.332059,592.164754,-8810.098227,-444.123565
4520.332383,444.123565,-8580.269578,-148.041188
4520.332708,518.144159,-8733.488677,-222.061783
4520.333032,592.164754,-8197.221829,-296.082377
4520.333356,518.144159,-8733.488677,-370.102971
4520.333681,370.102971,-8580.269578,-518.144159
4520.334005,296.082377,-8580.269578,0.000000
4520.334329,370.102971,-8810.098227,0.000000
4520.334653,222.061783,-8427.050478,0.000000
4520.334978,370.102971,-8503.660028,0.000000
4520.335302,296.082377,-8273.831378,0.000000
4520.335626,370.102971,-8580.269578,-222.061783
4520.335950,370.102971,-8656.879127,-296.082377
4520.336275,814.226536,-8427.050478,0.000000
4520.336599,296.082377,-8733.488677,0.000000
4520.336923,74.020594,-8656.879127,-222.061783
4520.337248,148.041188,-8503.660028,-222.061783
4520.337572,296.082377,-8580.269578,-222.061783
4520.337896,296.082377,-8427.050478,0.000000
4520.338220,296.082377,-8656.879127,148.041188
4520.338545,296.082377,-8580.269578,0.000000
4520.338869,444.123565,-8580.269578,74.020594
4520.339193,814.226536,-8580.269578,-444.123565
4520.339517,740.205942,-8580.269578,0.000000
4520.339842,444.123565,-8197.221829,0.000000
4520.340166,296.082377,-8963.317327,74.020594
4520.340490,666.185348,-8810.098227,-296.082377
4520.340815,518.144159,-8656.879127,0.000000
4520.341139,296.082377,-8427.050478,-370.102971
4520.341463,222.061783,-8733.488677,0.000000
4520.341787,296.082377,-8580.269578,518.144159
4520.342112,0.000000,-8733.488677,518.144159
4520.342436,444.123565,-8427.050478,74.020594
4520.342760,518.144159,-8810.098227,148.041188
4520.343084,444.123565,-8810.098227,148.041188
4520.343409,444.123565,-8427.050478,222.061783
4520.343733,148.041188,-8963.317327,0.000000
4520.344057,296.082377,-8886.707777,0.000000
4520.344381,222.061783,-8503.660028,0.000000
4520.344706,222.061783,-8580.269578,148.041188
4520.345030,222.061783,-8427.050478,370.102971
4520.345354,592.164754,-8810.098227,222.061783
4520.345679,370.102971,-8886.707777,0.000000
4520.346003,518.144159,-8427.050478,0.000000
4520.346327,592.164754,-8886.707777,-296.082377
4520.346651,518.144159,-8656.879127,0.000000
4520.346976,444.123565,-8503.660028,0.000000
4520.347300,0.000000,-8963.317327,0.000000
4520.347624,370.102971,-9499.584175,222.061783
4520.347948,0.000000,-8580.269578,0.000000
4520.348273,0.000000,-8886.707777,-148.041188
4520.348597,222.061783,-8656.879127,74.020594
4520.348921,518.144159,-8810.098227,0.000000
4520.349246,444.123565,-8733.488677,-296.082377
4520.349570,444.123565,-8656.879127,-370.102971
4520.349894,296.082377,-8810.098227,-370.102971
4520.350218,370.102971,-8503.660028,-370.102971
4520.350543,370.102971,-8963.317327,-370.102971
4520.350867,222.061783,-8580.269578,-518.144159
4520.351191,148.041188,-8810.098227,0.000000
4520.351515,222.061783,-8427.050478,-518.144159
4520.351840,222.061783,-9576.193725,-518.144159
4520.352164,518.144159,-8580.269578,-222.061783
4520.352488,222.061783,-8580.269578,-296.082377
4520.352813,370.102971,-8733.488677,-222.061783
4520.353137,222.061783,-8733.488677,-296.082377
4520.353461,370.102971,-8580.269578,-296.082377
4520.353785,518.144159,-8273.831378,-444.123565
4520.354110,0.000000,-8503.660028,-370.102971
4520.354434,148.041188,-8656.879127,-370.102971
4520.354758,592.164754,-8963.317327,-740.205942
4520.355082,296.082377,-8886.707777,-666.185348
4520.355407,-148.041188,-8656.879127,-370.102971
4520.355731,370.102971,-8810.098227,-666.185348
4520.356055,148.041188,-8810.098227,-444.123565
4520.356380,74.020594,-8580.269578,-370.102971
4520.356704,222.061783,-8656.879127,-740.205942
4520.357028,592.164754,-8350.440928,-296.082377
4520.357352,444.123565,-8427.050478,-592.164754
4520.357677,148.041188,-8810.098227,-444.123565
4520.358001,74.020594,-8810.098227,-518.144159
4520.358325,222.061783,-8580.269578,-666.185348
4520.358649,444.123565,-8810.098227,-666.185348
4520.358974,666.185348,-8886.707777,-222.061783
4520.359298,296.082377,-8656.879127,-444.123565
4520.359622,296.082377,-8350.440928,-740.205942
4520.359947,444.123565,-8810.098227,-370.102971
4520.360271,666.185348,-8427.050478,-962.267725
4520.360595,814.226536,-8427.050478,-370.102971
4520.360919,592.164754,-8273.831378,-740.205942
4520.361244,740.205942,-8580.269578,-444.123565
4520.361568,814.226536,-8427.050478,-592.164754
4520.361892,814.226536,-8886.707777,-370.102971
4520.362216,518.144159,-8503.660028,-296.082377
4520.362541,370.102971,-8810.098227,0.000000
4520.362865,370.102971,-8350.440928,0.000000
4520.363189,370.102971,-8810.098227,444.123565
4520.363514,666.185348,-8656.879127,-296.082377
4520.363838,740.205942,-8427.050478,-444.123565
4520.364162,814.226536,-8273.831378,-444.123565
4520.364486,592.164754,-9346.365076,-222.061783
4520.364811,740.205942,-8197.221829,-444.123565
4520.365135,666.185348,-8656.879127,-148.041188
4520.365459,444.123565,-8733.488677,-296.082377
4520.365783,444.123565,-8656.879127,-222.061783
4520.366108,592.164754,-8350.440928,-370.102971
4520.366432,592.164754,-8503.660028,-148.041188
4520.366756,666.185348,-8427.050478,-148.041188
4520.367081,740.205942,-8580.269578,-222.061783
4520.367405,962.267725,-8427.050478,-296.082377
4520.367729,888.247130,-8580.269578,-222.061783
4520.368053,592.164754,-8350.440928,-370.102971
4520.368378,518.144159,-8656.879127,0.000000
4520.368702,592.164754,-9269.755526,-222.061783
4520.369026,444.123565,-9039.926876,-296.082377
4520.369350,222.061783,-8503.660028,-148.041188
4520.369675,222.061783,-8580.269578,0.000000
4520.369999,222.061783,-8733.488677,-222.061783
4520.370323,666.185348,-8963.317327,-370.102971
4520.370648,370.102971,-8733.488677,-370.102971
4520.370972,518.144159,-8580.269578,0.000000
4520.371296,74.020594,-8810.098227,0.000000
4520.371620,444.123565,-9039.926876,74.020594
4520.371945,518.144159,-8580.269578,-444.123565
4520.372269,370.102971,-8580.269578,-444.123565
4520.372593,222.061783,-9039.926876,0.000000
4520.372917,296.082377,-8580.269578,-444.123565
4520.373242,444.123565,-8963.317327,-518.144159
4520.373566,370.102971,-8580.269578,-592.164754
4520.373890,222.061783,-8656.879127,-740.205942
4520.374214,592.164754,-8656.879127,-888.247130
4520.374539,444.123565,-8580.269578,-222.061783
4520.374863,444.123565,-8733.488677,-740.205942
4520.375187,296.082377,-8427.050478,-592.164754
4520.375512,444.123565,-8580.269578,-518.144159
4520.375836,666.185348,-8963.317327,-370.102971
4520.376160,666.185348,-8350.440928,-592.164754
4520.376484,296.082377,-8427.050478,-740.205942
4520.376809,444.123565,-8733.488677,-518.144159
4520.377133,444.123565,-8350.440928,-666.185348
4520.377457,592.164754,-8963.317327,-888.247130
4520.377781,444.123565,-8580.269578,-666.185348
4520.378106,148.041188,-8656.879127,-370.102971
4520.378430,370.102971,-8580.269578,-814.226536
4520.378754,1110.308913,-7890.783629,-592.164754
4520.379079,666.185348,-8656.879127,-444.123565
4520.379403,888.247130,-8733.488677,-592.164754
4520.379727,740.205942,-8580.269578,-518.144159
4520.380051,740.205942,-8733.488677,-222.061783
4520.380376,740.205942,-8427.050478,-1036.288319
4520.380700,888.247130,-8273.831378,-740.205942
4520.381024,814.226536,-8503.660028,-740.205942
4520.381348,962.267725,-8120.612279,-666.185348
4520.381673,666.185348,-8580.269578,-444.123565
4520.381997,370.102971,-8580.269578,-888.247130
4520.382321,592.164754,-8656.879127,-888.247130
4520.382646,444.123565,-8503.660028,-962.267725
4520.382970,1036.288319,-8427.050478,-666.185348
4520.383294,370.102971,-8273.831378,-814.226536
4520.383618,444.123565,-8580.269578,-962.267725
4520.383943,444.123565,-8350.440928,-666.185348
4520.384267,518.144159,-8886.707777,-888.247130
4520.384591,444.123565,-8580.269578,-592.164754
4520.384915,370.102971,-8120.612279,-666.185348
4520.385240,370.102971,-8580.269578,-518.144159
4520.385564,296.082377,-8350.440928,-814.226536
4520.385888,1036.288319,-8197.221829,-518.144159
4520.386213,592.164754,-8503.660028,-888.247130
4520.386537,444.123565,-8810.098227,-444.123565
4520.386861,666.185348,-9039.926876,-740.205942
4520.387185,962.267725,-7890.783629,-370.102971
4520.387510,592.164754,-8427.050478,-296.082377
4520.387834,518.144159,-8733.488677,-814.226536
4520.388158,740.205942,-8886.707777,-444.123565
4520.388482,444.123565,-8580.269578,-592.164754
4520.388807,0.000000,-9193.145976,-518.144159
4520.389131,296.082377,-8810.098227,-666.185348
4520.389455,148.041188,-8733.488677,-592.164754
4520.389780,370.102971,-8963.317327,-592.164754
4520.390104,0.000000,-7967.393179,0.000000
4520.390428,222.061783,-8733.488677,-444.123565
4520.390752,74.020594,-8503.660028,-592.164754
4520.391077,222.061783,-8810.098227,-592.164754
4520.391401,148.041188,-9039.926876,-370.102971
4520.391725,518.144159,-8427.050478,-592.164754
4520.392050,296.082377,-8273.831378,-814.226536
4520.392374,148.041188,-8886.707777,-444.123565
4520.392698,370.102971,-8656.879127,-518.144159
4520.393023,444.123565,-8350.440928,-296.082377
4520.393347,370.102971,-8503.660028,-296.082377
4520.393671,592.164754,-8503.660028,-222.061783
4520.393996,518.144159,-8503.660028,-592.164754
4520.394320,370.102971,-8503.660028,148.041188
4520.394644,518.144159,-8273.831378,-518.144159
4520.394968,666.185348,-8656.879127,-296.082377
4520.395293,518.144159,-8197.221829,-370.102971
4520.395617,592.164754,-8963.317327,0.000000
4520.395941,296.082377,-8273.831378,-518.144159
4520.396266,296.082377,-8503.660028,-444.123565
4520.396590,370.102971,-8427.050478,-592.164754
4520.396914,518.144159,-8350.440928,-148.041188
4520.397239,888.247130,-8427.050478,-296.082377
4520.397563,296.082377,-8733.488677,0.000000
4520.397887,518.144159,-8120.612279,-444.123565
4520.398212,740.205942,-8427.050478,-666.185348
4520.398536,888.247130,-8503.660028,-370.102971
4520.398860,444.123565,-8197.221829,0.000000
4520.399184,222.061783,-8580.269578,-222.061783
4520.399509,444.123565,-8427.050478,-518.144159
4520.399833,444.123565,-7584.345430,-518.144159
4520.400157,296.082377,-8656.879127,-296.082377
4520.400482,518.144159,-8733.488677,-222.061783
4520.400806,370.102971,-8810.098227,-740.205942
4520.401130,518.144159,-8656.879127,-592.164754
4520.401455,518.144159,-8580.269578,-518.144159
4520.401779,666.185348,-8886.707777,-666.185348
4520.402103,740.205942,-8733.488677,-444.123565
4520.402428,666.185348,-8503.660028,-592.164754
4520.402752,74.020594,-8733.488677,-148.041188
4520.403076,296.082377,-8656.879127,-740.205942
4520.403400,222.061783,-8733.488677,-222.061783
4520.403725,296.082377,-8350.440928,-444.123565
4520.404049,370.102971,-8733.488677,-296.082377
4520.404373,444.123565,-8427.050478,-666.185348
4520.404698,444.123565,-8810.098227,-148.041188
4520.405022,740.205942,-8656.879127,-888.247130
4520.405346,592.164754,-9116.536426,-962.267725
4520.405671,518.144159,-8427.050478,-888.247130
4520.405995,222.061783,-8656.879127,-666.185348
4520.406319,74.020594,-8656.879127,-740.205942
4520.406644,296.082377,-8733.488677,-1110.308913
4520.406968,444.123565,-8427.050478,-592.164754
4520.407292,296.082377,-8733.488677,-592.164754
4520.407616,296.082377,-8733.488677,-888.247130
4520.407941,666.185348,-8886.707777,-962.267725
4520.408265,444.123565,-8427.050478,-888.247130
4520.408589,592.164754,-8656.879127,-888.247130
4520.408914,666.185348,-8350.440928,-740.205942
4520.409238,518.144159,-8427.050478,-296.082377
4520.409562,296.082377,-8580.269578,-666.185348
4520.409887,518.144159,-8963.317327,-592.164754
4520.410211,518.144159,-8427.050478,-666.185348
4520.410535,518.144159,-8580.269578,-592.164754
4520.410860,296.082377,-8580.269578,-518.144159
4520.411184,740.205942,-8733.488677,-296.082377
4520.411508,666.185348,-8427.050478,-370.102971
4520.411832,740.205942,-8656.879127,-518.144159
4520.412157,592.164754,-8580.269578,-666.185348
4520.412481,962.267725,-8580.269578,-370.102971
4520.412805,592.164754,-8580.269578,-370.102971
4520.413130,518.144159,-8580.269578,-592.164754
4520.413454,740.205942,-8427.050478,-740.205942
4520.413778,666.185348,-8656.879127,-666.185348
4520.414103,740.205942,-8810.098227,-740.205942
4520.414427,592.164754,-8733.488677,-296.082377
4520.414751,518.144159,-8580.269578,-444.123565
4520.415076,592.164754,-8580.269578,-518.144159
4520.415400,370.102971,-8810.098227,-296.082377
4520.415724,518.144159,-8656.879127,-592.164754
4520.416048,740.205942,-8503.660028,-592.164754
4520.416373,444.123565,-8580.269578,-444.123565
4520.416697,370.102971,-8733.488677,-592.164754
4520.417021,0.000000,-8503.660028,0.000000
4520.417346,370.102971,-8503.660028,-222.061783
4520.417670,370.102971,-8427.050478,0.000000
4520.417994,518.144159,-8503.660028,-296.082377
4520.418319,592.164754,-9193.145976,74.020594
4520.418643,518.144159,-8427.050478,-518.144159
4520.418967,518.144159,-8810.098227,-518.144159
4520.419292,518.144159,-8656.879127,-666.185348
4520.419616,592.164754,-8350.440928,-74.020594
4520.419940,444.123565,-8580.269578,-296.082377
4520.420264,370.102971,-8733.488677,-296.082377
4520.420589,518.144159,-8503.660028,-592.164754
4520.420913,592.164754,-8733.488677,-296.082377
4520.421237,740.205942,-9039.926876,-592.164754
4520.421562,666.185348,-8273.831378,-444.123565
4520.421886,518.144159,-8503.660028,-296.082377
4520.422210,370.102971,-8273.831378,-444.123565
4520.422535,592.164754,-9576.193725,-74.020594
4520.422859,592.164754,-8273.831378,-370.102971
4520.423183,444.123565,-8580.269578,0.000000
4520.423508,222.061783,-8733.488677,-518.144159
4520.423832,74.020594,-8810.098227,-370.102971
4520.424156,296.082377,-8427.050478,-296.082377
4520.424480,592.164754,-8886.707777,0.000000
4520.424805,222.061783,-8427.050478,0.000000
4520.425129,370.102971,-8656.879127,0.000000
4520.425453,222.061783,-8656.879127,0.000000
4520.425778,296.082377,-8656.879127,-222.061783
4520.426102,148.041188,-8733.488677,-296.082377
4520.426426,592.164754,-8273.831378,0.000000
4520.426751,148.041188,-8427.050478,148.041188
4520.427075,592.164754,-8810.098227,-296.082377
4520.427399,444.123565,-8580.269578,0.000000
4520.427724,444.123565,-8810.098227,0.000000
4520.428048,370.102971,-8810.098227,0.000000
4520.428372,296.082377,-8656.879127,0.000000
4520.428696,222.061783,-8810.098227,0.000000
4520.429021,296.082377,-8427.050478,0.000000
4520.429345,518.144159,-8580.269578,0.000000
4520.429669,296.082377,-8350.440928,-296.082377
4520.429994,592.164754,-8197.221829,0.000000
4520.430318,370.102971,-8580.269578,0.000000
4520.430642,222.061783,-8427.050478,-370.102971
4520.430967,444.123565,-8427.050478,148.041188
4520.431291,222.061783,-8503.660028,-148.041188
4520.431615,518.144159,-8503.660028,-148.041188
4520.431940,148.041188,-8044.002729,-370.102971
4520.432264,222.061783,-8503.660028,74.020594
4520.432588,296.082377,-8427.050478,-296.082377
4520.432912,370.102971,-8886.707777,-370.102971
4520.433237,370.102971,-8503.660028,-296.082377
4520.433561,370.102971,-8503.660028,0.000000
4520.433885,370.102971,-8963.317327,0.000000
4520.434210,296.082377,-8580.269578,0.000000
4520.434534,296.082377,-8656.879127,-222.061783
4520.434858,0.000000,-8656.879127,-296.082377
4520.435183,222.061783,-9116.536426,-148.041188
4520.435507,222.061783,-8810.098227,0.000000
4520.435831,148.041188,-8427.050478,-148.041188
4520.436156,148.041188,-8350.440928,-222.061783
4520.436480,296.082377,-8886.707777,0.000000
4520.436804,592.164754,-8273.831378,0.000000
4520.437129,296.082377,-8503.660028,0.000000
4520.437453,0.000000,-8656.879127,0.000000
4520.437777,222.061783,-8733.488677,0.000000
4520.438101,444.123565,-9039.926876,0.000000
4520.438426,74.020594,-8733.488677,0.000000
4520.438750,444.123565,-8273.831378,-296.082377
4520.439074,222.061783,-8733.488677,-296.082377
4520.439399,222.061783,-8886.707777,-296.082377
4520.439723,296.082377,-8580.269578,-444.123565
4520.440047,370.102971,-8886.707777,-148.041188
4520.440372,296.082377,-8197.221829,0.000000
4520.440696,370.102971,-8886.707777,0.000000
4520.441020,296.082377,-9193.145976,0.000000
4520.441345,370.102971,-8580.269578,-148.041188
4520.441669,370.102971,-8656.879127,-222.061783
4520.441993,148.041188,-8810.098227,-296.082377
4520.442317,0.000000,-8733.488677,0.000000
4520.442642,74.020594,-8656.879127,-222.061783
4520.442966,148.041188,-8503.660028,-296.082377
4520.443290,444.123565,-8580.269578,-444.123565
4520.443615,592.164754,-8580.269578,-222.061783
4520.443939,666.185348,-8503.660028,-148.041188
4520.444263,518.144159,-8503.660028,-444.123565
4520.444588,740.205942,-8656.879127,0.000000
4520.444912,814.226536,-8427.050478,-222.061783
4520.445236,888.247130,-8350.440928,0.000000
4520.445561,444.123565,-8273.831378,0.000000
4520.445885,222.061783,-8580.269578,0.000000
4520.446209,370.102971,-8580.269578,0.000000
4520.446533,296.082377,-9039.926876,148.041188
4520.446858,518.144159,-9116.536426,0.000000
4520.447182,444.123565,-8580.269578,222.061783
4520.447506,370.102971,-8503.660028,0.000000
4520.447831,370.102971,-9039.926876,222.061783
4520.448155,444.123565,-8503.660028,148.041188
4520.448479,370.102971,-8810.098227,0.000000
4520.448804,296.082377,-8273.831378,0.000000
4520.449128,296.082377,-8656.879127,222.061783
4520.449452,222.061783,-8580.269578,444.123565
4520.449777,370.102971,-8733.488677,74.020594
4520.450101,222.061783,-8427.050478,-148.041188
4520.450425,592.164754,-9039.926876,0.000000
4520.450749,518.144159,-8273.831378,296.082377
4520.451074,370.102971,-8427.050478,74.020594
4520.451398,370.102971,-8580.269578,0.000000
4520.451722,518.144159,-8733.488677,-296.082377
4520.452047,592.164754,-8427.050478,-370.102971
4520.452371,592.164754,-8580.269578,0.000000
4520.452695,222.061783,-8350.440928,-222.061783
4520.453020,370.102971,-8580.269578,-222.061783
4520.453344,518.144159,-8427.050478,-222.061783
4520.453668,888.247130,-8810.098227,-296.082377
4520.453993,518.144159,-8656.879127,-148.041188
4520.454317,444.123565,-8580.269578,74.020594
4520.454641,74.020594,-8810.098227,0.000000
4520.454965,148.041188,-8656.879127,0.000000
4520.455290,222.061783,-8733.488677,-296.082377
4520.455614,0.000000,-8733.488677,0.000000
4520.455938,222.061783,-8810.098227,0.000000
4520.456263,296.082377,-8427.050478,-370.102971
4520.456587,592.164754,-8656.879127,0.000000
4520.456911,222.061783,-8350.440928,0.000000
4520.457236,74.020594,-8810.098227,0.000000
4520.457560,296.082377,-8197.221829,0.000000
4520.457884,592.164754,-8273.831378,0.000000
4520.458209,148.041188,-8503.660028,-222.061783
4520.458533,370.102971,-8580.269578,-444.123565
4520.458857,518.144159,-8580.269578,-444.123565
4520.459181,370.102971,-9039.926876,-296.082377
4520.459506,592.164754,-8810.098227,0.000000
4520.459830,222.061783,-8656.879127,-296.082377
4520.460154,148.041188,-8810.098227,-148.041188
4520.460479,444.123565,-8580.269578,-444.123565
4520.460803,814.226536,-8810.098227,-370.102971
4520.461127,296.082377,-8197.221829,-222.061783
4520.461452,370.102971,-8810.098227,-444.123565
4520.461776,370.102971,-8886.707777,-444.123565
4520.462100,666.185348,-7584.345430,0.000000
4520.462425,666.185348,-8656.879127,-296.082377
4520.462749,444.123565,-8503.660028,74.020594
4520.463073,370.102971,-8350.440928,0.000000
4520.463397,740.205942,-8656.879127,0.000000
4520.463722,444.123565,-8427.050478,0.000000
4520.464046,444.123565,-8580.269578,-222.061783
4520.464370,444.123565,-8656.879127,0.000000
4520.464695,518.144159,-8350.440928,0.000000
4520.465019,370.102971,-8273.831378,0.000000
4520.465343,518.144159,-8656.879127,-296.082377
4520.465668,592.164754,-8733.488677,0.000000
4520.465992,518.144159,-8810.098227,-222.061783
4520.466316,740.205942,-8810.098227,-148.041188
4520.466641,592.164754,-8273.831378,-222.061783
4520.466965,370.102971,-8886.707777,0.000000
4520.467289,370.102971,-8197.221829,-148.041188
4520.467613,296.082377,-8810.098227,0.000000
4520.467938,518.144159,-8273.831378,-370.102971
4520.468262,518.144159,-8503.660028,-296.082377
4520.468586,148.041188,-8350.440928,-296.082377
4520.468911,592.164754,-8656.879127,-296.082377
4520.469235,814.226536,-8886.707777,-444.123565
4520.469559,518.144159,-8810.098227,0.000000
4520.469884,370.102971,-8503.660028,0.000000
4520.470208,592.164754,-8886.707777,0.000000
4520.470532,296.082377,-8273.831378,-222.061783
4520.470857,518.144159,-8810.098227,0.000000
4520.471181,222.061783,-8580.269578,-296.082377
4520.471505,518.144159,-8503.660028,-148.041188
4520.471829,222.061783,-8273.831378,-296.082377
4520.472154,592.164754,-8810.098227,-444.123565
4520.472478,444.123565,-8656.879127,-148.041188
4520.472802,370.102971,-8580.269578,0.000000
4520.473127,518.144159,-8503.660028,-370.102971
4520.473451,814.226536,-9116.536426,0.000000
4520.473775,296.082377,-8733.488677,-222.061783
4520.474100,518.144159,-8656.879127,-370.102971
4520.474424,592.164754,-8427.050478,-518.144159
4520.474748,592.164754,-8733.488677,-296.082377
4520.475073,592.164754,-8120.612279,0.000000
4520.475397,444.123565,-8580.269578,-296.082377
4520.475721,592.164754,-8273.831378,-444.123565
4520.476045,518.144159,-8503.660028,-296.082377
4520.476370,814.226536,-8427.050478,-518.144159
4520.476694,592.164754,-8503.660028,0.000000
4520.477018,444.123565,-8656.879127,-296.082377
4520.477343,370.102971,-8886.707777,-444.123565
4520.477667,518.144159,-9269.755526,-518.144159
4520.477991,592.164754,-8580.269578,-518.144159
4520.478316,666.185348,-8580.269578,-518.144159
4520.478640,666.185348,-8503.660028,-518.144159
4520.478964,444.123565,-8810.098227,-740.205942
4520.479289,518.144159,-8810.098227,-592.164754
4520.479613,518.144159,-8580.269578,-814.226536
4520.479937,370.102971,-8656.879127,-740.205942
4520.480261,370.102971,-8733.488677,-518.144159
4520.480586,148.041188,-9269.755526,-148.041188
4520.480910,444.123565,-8886.707777,-518.144159
4520.481234,370.102971,-8120.612279,-666.185348
4520.481559,592.164754,-8427.050478,-740.205942
4520.481883,592.164754,-8886.707777,-518.144159
4520.482207,666.185348,-8503.660028,-666.185348
4520.482532,518.144159,-8886.707777,-888.247130
4520.482856,444.123565,-8580.269578,-962.267725
4520.483180,370.102971,-8886.707777,-814.226536
4520.483505,0.000000,-8656.879127,-814.226536
4520.483829,222.061783,-8733.488677,-740.205942
4520.484153,74.020594,-8503.660028,-666.185348
4520.484477,74.020594,-8656.879127,-666.185348
4520.484802,370.102971,-8963.317327,-814.226536
4520.485126,444.123565,-9039.926876,-666.185348
4520.485450,518.144159,-8273.831378,-888.247130
4520.485775,296.082377,-8580.269578,-296.082377
4520.486099,444.123565,-8503.660028,-740.205942
4520.486423,296.082377,-8273.831378,-592.164754
4520.486748,592.164754,-8656.879127,-962.267725
4520.487072,518.144159,-8656.879127,-592.164754
4520.487396,518.144159,-8810.098227,-740.205942
4520.487721,592.164754,-9116.536426,-740.205942
4520.488045,592.164754,-8350.440928,-740.205942
4520.488369,592.164754,-8580.269578,-740.205942
4520.488693,666.185348,-8733.488677,-740.205942
4520.489018,888.247130,-8580.269578,-592.164754
4520.489342,888.247130,-8810.098227,-592.164754
4520.489666,518.144159,-8656.879127,-666.185348
4520.489991,370.102971,-8733.488677,-888.247130
4520.490315,444.123565,-8656.879127,-740.205942
4520.490639,518.144159,-8810.098227,-370.102971
4520.490964,592.164754,-8503.660028,-296.082377
4520.491288,444.123565,-8503.660028,-518.144159
4520.491612,592.164754,-8503.660028,-518.144159
4520.491937,888.247130,-9116.536426,-592.164754
4520.492261,592.164754,-8656.879127,-518.144159
4520.492585,444.123565,-8427.050478,-444.123565
4520.492909,444.123565,-8503.660028,-222.061783
4520.493234,370.102971,-8886.707777,-666.185348
4520.493558,518.144159,-8580.269578,-740.205942
4520.493882,370.102971,-8810.098227,-222.061783
4520.494207,222.061783,-8503.660028,0.000000
4520.494531,592.164754,-8580.269578,-296.082377
4520.494855,296.082377,-8503.660028,-370.102971
4520.495179,296.082377,-8580.269578,-148.041188
4520.495504,592.164754,-8503.660028,-370.102971
4520.495828,296.082377,-8350.440928,0.000000
4520.496152,518.144159,-8810.098227,0.000000
4520.496476,444.123565,-8810.098227,0.000000
4520.496800,296.082377,-8350.440928,-518.144159
4520.497125,592.164754,-8503.660028,-370.102971
4520.497449,518.144159,-9116.536426,296.082377
4520.497773,296.082377,-8656.879127,-296.082377
4520.498097,222.061783,-8503.660028,-370.102971
4520.498422,296.082377,-8427.050478,-370.102971
4520.498746,444.123565,-8580.269578,-296.082377
4520.499070,888.247130,-8350.440928,-666.185348
4520.499394,518.144159,-8580.269578,0.000000
4520.499719,370.102971,-8656.879127,-666.185348
4520.500043,370.102971,-8656.879127,-444.123565
4520.500367,444.123565,-8580.269578,-518.144159
4520.500691,592.164754,-8580.269578,-518.144159
4520.501016,370.102971,-8656.879127,-444.123565
4520.501340,296.082377,-8810.098227,-814.226536
4520.501664,518.144159,-9039.926876,-370.102971
4520.501988,444.123565,-8580.269578,-518.144159
4520.502312,592.164754,-9039.926876,-888.247130
4520.502637,518.144159,-8350.440928,-592.164754
4520.502961,296.082377,-8503.660028,-518.144159
4520.503285,592.164754,-8656.879127,-370.102971
4520.503609,296.082377,-8503.660028,-592.164754
4520.503934,370.102971,-8733.488677,-592.164754
4520.504258,370.102971,-8810.098227,-518.144159
4520.504582,222.061783,-8580.269578,0.000000
4520.504906,222.061783,-8810.098227,-370.102971
4520.505231,518.144159,-8350.440928,-592.164754
4520.505555,370.102971,-8580.269578,-592.164754
4520.505879,518.144159,-8733.488677,-740.205942
4520.506203,296.082377,-8427.050478,-518.144159
4520.506528,296.082377,-8503.660028,-370.102971
4520.506852,222.061783,-8580.269578,-666.185348
4520.507176,74.020594,-8656.879127,-592.164754
4520.507500,296.082377,-8580.269578,-444.123565
4520.507824,370.102971,-8886.707777,-592.164754
4520.508149,148.041188,-8733.488677,-592.164754
4520.508473,222.061783,-8427.050478,-296.082377
4520.508797,814.226536,-8273.831378,-296.082377
4520.509121,222.061783,-8503.660028,-592.164754
4520.509446,222.061783,-8580.269578,-148.041188
4520.509770,222.061783,-8350.440928,-370.102971
4520.510094,444.123565,-8656.879127,-592.164754
4520.510418,222.061783,-8503.660028,-740.205942
4520.510743,592.164754,-8503.660028,-740.205942
4520.511067,592.164754,-8580.269578,-592.164754
4520.511391,444.123565,-8810.098227,-518.144159
4520.511715,518.144159,-8963.317327,-296.082377
4520.512040,444.123565,-8580.269578,-666.185348
4520.512364,444.123565,-8503.660028,-592.164754
4520.512688,518.144159,-8810.098227,-740.205942
4520.513012,814.226536,-8503.660028,-814.226536
4520.513336,444.123565,-8580.269578,-444.123565
4520.513661,296.082377,-8427.050478,-814.226536
4520.513985,518.144159,-8580.269578,-592.164754
4520.514309,592.164754,-8427.050478,-592.164754
4520.514633,444.123565,-9039.926876,-296.082377
4520.514958,518.144159,-8656.879127,-666.185348
4520.515282,444.123565,-8886.707777,-444.123565
4520.515606,518.144159,-8427.050478,-518.144159
4520.515930,814.226536,-8273.831378,0.000000
4520.516255,148.041188,-8810.098227,-518.144159
4520.516579,518.144159,-8503.660028,-222.061783
4520.516903,592.164754,-8503.660028,-444.123565
4520.517227,370.102971,-8886.707777,0.000000
4520.517552,370.102971,-8503.660028,-296.082377
4520.517876,370.102971,-8886.707777,-444.123565
4520.518200,518.144159,-8503.660028,-222.061783
4520.518524,222.061783,-8886.707777,-592.164754
4520.518849,222.061783,-8656.879127,-370.102971
4520.519173,518.144159,-8580.269578,-740.205942
4520.519497,222.061783,-8810.098227,-666.185348
4520.519821,518.144159,-8733.488677,-666.185348
4520.520145,740.205942,-8120.612279,-148.041188
4520.520470,518.144159,-8733.488677,-740.205942
4520.520794,370.102971,-8733.488677,-444.123565
4520.521118,444.123565,-8273.831378,-592.164754
4520.521442,518.144159,-8886.707777,0.000000
4520.521767,296.082377,-8503.660028,-296.082377
4520.522091,148.041188,-8580.269578,-296.082377
4520.522415,518.144159,-8503.660028,-296.082377
4520.522739,148.041188,-8427.050478,-296.082377
4520.523064,518.144159,-8427.050478,-444.123565
4520.523388,592.164754,-8580.269578,-444.123565
4520.523712,518.144159,-8733.488677,0.000000
4520.524036,518.144159,-8580.269578,-370.102971
4520.524361,740.205942,-8350.440928,-592.164754
4520.524685,444.123565,-8427.050478,-222.061783
4520.525009,666.185348,-8810.098227,-222.061783
4520.525333,148.041188,-8580.269578,0.000000
4520.525657,222.061783,-8656.879127,-148.041188
4520.525982,444.123565,-8350.440928,-592.164754
4520.526306,148.041188,-8427.050478,-444.123565
4520.526630,444.123565,-8656.879127,-740.205942
4520.526954,666.185348,-8197.221829,0.000000
4520.527279,740.205942,-8273.831378,-814.226536
4520.527603,222.061783,-8963.317327,-74.020594
4520.527927,370.102971,-8503.660028,-296.082377
4520.528251,148.041188,-8656.879127,-296.082377
4520.528576,370.102971,-8120.612279,0.000000
4520.528900,222.061783,-8580.269578,-370.102971
4520.529224,592.164754,-8656.879127,-444.123565
4520.529548,296.082377,-8350.440928,-370.102971
4520.529873,444.123565,-8733.488677,-296.082377
4520.530197,740.205942,-8580.269578,-518.144159
4520.530521,370.102971,-8120.612279,148.041188
4520.530845,370.102971,-8503.660028,-370.102971
4520.531169,222.061783,-8580.269578,-444.123565
4520.531494,518.144159,-8044.002729,-222.061783
4520.531818,444.123565,-8503.660028,-148.041188
4520.532142,370.102971,-8733.488677,-296.082377
4520.532466,370.102971,-8580.269578,-370.102971
4520.532791,296.082377,-8120.612279,-148.041188
4520.533115,592.164754,-8503.660028,-370.102971
4520.533439,370.102971,-8427.050478,-370.102971
4520.533763,518.144159,-8503.660028,-148.041188
4520.534088,370.102971,-8503.660028,148.041188
4520.534412,222.061783,-8580.269578,-444.123565
4520.534736,0.000000,-8656.879127,-296.082377
4520.535060,444.123565,-8273.831378,-296.082377
4520.535385,370.102971,-8656.879127,-148.041188
4520.535709,296.082377,-8044.002729,-518.144159
4520.536033,518.144159,-8427.050478,0.000000
4520.536357,222.061783,-8273.831378,0.000000
4520.536681,666.185348,-8656.879127,0.000000
4520.537006,592.164754,-7737.564530,222.061783
4520.537330,666.185348,-8733.488677,0.000000
4520.537654,148.041188,-8503.660028,0.000000
4520.537978,296.082377,-8733.488677,-148.041188
4520.538303,518.144159,-8656.879127,0.000000
4520.538627,296.082377,-8503.660028,-370.102971
4520.538951,370.102971,-8733.488677,-296.082377
4520.539275,222.061783,-8963.317327,0.000000
4520.539600,370.102971,-8810.098227,0.000000
4520.539924,518.144159,-8350.440928,74.020594
4520.540248,444.123565,-8350.440928,-296.082377
4520.540572,666.185348,-8656.879127,-222.061783
4520.540897,370.102971,-8350.440928,0.000000
4520.541221,222.061783,-8503.660028,0.000000
4520.541545,296.082377,-8733.488677,-370.102971
4520.541869,444.123565,-8427.050478,0.000000
4520.542193,518.144159,-8580.269578,-444.123565
4520.542518,444.123565,-8733.488677,-296.082377
4520.542842,74.020594,-8503.660028,0.000000
4520.543166,518.144159,-8963.317327,0.000000
4520.543490,592.164754,-8427.050478,-222.061783
4520.543815,296.082377,-8656.879127,-296.082377
4520.544139,518.144159,-8656.879127,-74.020594
4520.544463,444.123565,-8273.831378,-296.082377
4520.544787,296.082377,-8886.707777,-74.020594
4520.545112,370.102971,-8427.050478,-74.020594
4520.545436,296.082377,-8427.050478,0.000000
4520.545760,518.144159,-8810.098227,0.000000
4520.546084,592.164754,-8580.269578,0.000000
4520.546409,444.123565,-8580.269578,0.000000
4520.546733,518.144159,-8810.098227,0.000000
4520.547057,0.000000,-8503.660028,74.020594
4520.547381,518.144159,-8886.707777,-370.102971
4520.547706,592.164754,-8733.488677,-148.041188
4520.548030,296.082377,-8656.879127,-222.061783
4520.548354,222.061783,-8886.707777,-296.082377
4520.548678,296.082377,-8350.440928,0.000000
4520.549002,444.123565,-8656.879127,-518.144159
4520.549327,444.123565,-8810.098227,-370.102971
4520.549651,444.123565,-8733.488677,-296.082377
4520.549975,0.000000,-8197.221829,0.000000
4520.550299,444.123565,-8963.317327,-666.185348
4520.550624,148.041188,-8580.269578,-370.102971
4520.550948,592.164754,-9269.755526,-518.144159
4520.551272,666.185348,-8963.317327,-296.082377
4520.551596,370.102971,-8810.098227,-444.123565
4520.551921,0.000000,-8733.488677,-740.205942
4520.552245,222.061783,-8656.879127,-370.102971
4520.552569,444.123565,-8580.269578,-518.144159
4520.552893,74.020594,-8503.660028,-370.102971
4520.553218,370.102971,-8580.269578,-444.123565
4520.553542,296.082377,-8656.879127,-296.082377
4520.553866,222.061783,-8503.660028,-592.164754
4520.554190,444.123565,-8656.879127,-518.144159
4520.554514,518.144159,-8580.269578,-222.061783
4520.554839,444.123565,-8427.050478,-222.061783
4520.555163,370.102971,-8197.221829,-444.123565
4520.555487,148.041188,-9346.365076,-370.102971
4520.555811,370.102971,-8350.440928,-148.041188
4520.556136,444.123565,-8656.879127,-370.102971
4520.556460,296.082377,-8656.879127,0.000000
4520.556784,444.123565,-8503.660028,-518.144159
4520.557108,740.205942,-8810.098227,-296.082377
4520.557433,666.185348,-8580.269578,-222.061783
4520.557757,518.144159,-8810.098227,-74.020594
4520.558081,962.267725,-8656.879127,-74.020594
4520.558405,518.144159,-8810.098227,-370.102971
4520.558730,444.123565,-9039.926876,-296.082377
4520.559054,296.082377,-8733.488677,-296.082377
4520.559378,592.164754,-8656.879127,0.000000
4520.559702,592.164754,-9346.365076,148.041188
4520.560026,592.164754,-8503.660028,0.000000
4520.560351,370.102971,-8503.660028,0.000000
4520.560675,518.144159,-8810.098227,0.000000
4520.560999,592.164754,-8733.488677,-74.020594
4520.561323,592.164754,-8886.707777,0.000000
4520.561648,518.144159,-8350.440928,0.000000
4520.561972,444.123565,-8350.440928,0.000000
4520.562296,74.020594,-8810.098227,0.000000
4520.562620,74.020594,-9039.926876,0.000000
4520.562945,74.020594,-8580.269578,0.000000
4520.563269,222.061783,-8580.269578,148.041188
4520.563593,222.061783,-8273.831378,296.082377
4520.563917,370.102971,-7967.393179,296.082377
4520.564242,444.123565,-8580.269578,148.041188
4520.564566,518.144159,-8580.269578,0.000000
4520.564890,444.123565,-8886.707777,0.000000
4520.565214,518.144159,-8350.440928,0.000000
4520.565538,444.123565,-8733.488677,-296.082377
4520.565863,148.041188,-8503.660028,0.000000
4520.566187,518.144159,-8197.221829,-222.061783
4520.566511,592.164754,-8656.879127,0.000000
4520.566835,592.164754,-8580.269578,-370.102971
4520.567160,370.102971,-8427.050478,0.000000
4520.567484,592.164754,-8197.221829,-74.020594
4520.567808,518.144159,-8197.221829,0.000000
4520.568132,740.205942,-8273.831378,-222.061783
4520.568457,666.185348,-8503.660028,-222.061783
4520.568781,518.144159,-8273.831378,-370.102971
4520.569105,296.082377,-8656.879127,-222.061783
4520.569429,222.061783,-8580.269578,-370.102971
4520.569754,592.164754,-8656.879127,-296.082377
4520.570078,370.102971,-8580.269578,-444.123565
4520.570402,518.144159,-8733.488677,0.000000
4520.570726,370.102971,-8503.660028,-222.061783
4520.571051,888.247130,-8503.660028,0.000000
4520.571375,222.061783,-8580.269578,-222.061783
4520.571699,518.144159,-8580.269578,-370.102971
4520.572023,444.123565,-8197.221829,0.000000
4520.572347,444.123565,-8810.098227,-222.061783
4520.572672,518.144159,-8886.707777,-222.061783
4520.572996,518.144159,-8503.660028,0.000000
4520.573320,592.164754,-8810.098227,-370.102971
4520.573644,370.102971,-8656.879127,-444.123565
4520.573969,518.144159,-8886.707777,0.000000
4520.574293,370.102971,-8810.098227,-296.082377
4520.574617,444.123565,-8733.488677,-296.082377
4520.574941,444.123565,-8656.879127,-592.164754
4520.575266,592.164754,-9116.536426,0.000000
4520.575590,444.123565,-8503.660028,-222.061783
4520.575914,296.082377,-8197.221829,-518.144159
4520.576238,296.082377,-8733.488677,-370.102971
4520.576563,444.123565,-8503.660028,-370.102971
4520.576887,222.061783,-8733.488677,-518.144159
4520.577211,222.061783,-8503.660028,-666.185348
4520.577535,222.061783,-8656.879127,-370.102971
4520.577859,370.102971,-8503.660028,-444.123565
4520.578184,666.185348,-8427.050478,-962.267725
4520.578508,444.123565,-8656.879127,-592.164754
4520.578832,296.082377,-8886.707777,-296.082377
4520.579156,370.102971,-8427.050478,-370.102971
4520.579481,740.205942,-8810.098227,-296.082377
4520.579805,370.102971,-8273.831378,-444.123565
4520.580129,370.102971,-8810.098227,-296.082377
4520.580453,222.061783,-8580.269578,-740.205942
4520.580778,370.102971,-8580.269578,0.000000
4520.581102,370.102971,-8197.221829,-370.102971
4520.581426,444.123565,-8656.879127,-370.102971
4520.581750,518.144159,-8503.660028,-370.102971
4520.582075,592.164754,-8656.879127,0.000000
4520.582399,1184.329507,-7967.393179,-296.082377
4520.582723,444.123565,-8427.050478,-444.123565
4520.583047,370.102971,-8580.269578,-518.144159
4520.583371,148.041188,-8427.050478,-148.041188
4520.583696,592.164754,-8503.660028,-370.102971
4520.584020,592.164754,-8503.660028,-370.102971
4520.584344,518.144159,-8503.660028,-370.102971
4520.584668,592.164754,-8656.879127,-296.082377
4520.584993,592.164754,-8580.269578,-444.123565
4520.585317,666.185348,-8580.269578,-592.164754
4520.585641,592.164754,-8503.660028,-370.102971
4520.585965,222.061783,-8427.050478,74.020594
4520.586290,74.020594,-8656.879127,-444.123565
4520.586614,592.164754,-8273.831378,74.020594
4520.586938,518.144159,-8427.050478,-370.102971
4520.587262,518.144159,-8963.317327,-370.102971
4520.587587,222.061783,-8427.050478,-296.082377
4520.587911,444.123565,-9039.926876,222.061783
4520.588235,666.185348,-8733.488677,-296.082377
4520.588559,148.041188,-8503.660028,-148.041188
4520.588883,518.144159,-8656.879127,-592.164754
4520.589208,518.144159,-8197.221829,-222.061783
4520.589532,222.061783,-8044.002729,-222.061783
4520.589856,296.082377,-8580.269578,-444.123565
4520.590180,296.082377,-8350.440928,-444.123565
4520.590505,222.061783,-8503.660028,-518.144159
4520.590829,444.123565,-8120.612279,-296.082377
4520.591153,666.185348,-8503.660028,-370.102971
4520.591477,666.185348,-8580.269578,-740.205942
4520.591802,370.102971,-8810.098227,-444.123565
4520.592126,222.061783,-8580.269578,-518.144159
4520.592450,592.164754,-8580.269578,-444.123565
4520.592774,370.102971,-8503.660028,-666.185348
4520.593099,296.082377,-8503.660028,-592.164754
4520.593423,222.061783,-8733.488677,-962.267725
4520.593747,370.102971,-8273.831378,-444.123565
4520.594071,222.061783,-8427.050478,-1036.288319
4520.594396,370.102971,-8886.707777,-518.144159
4520.594720,444.123565,-8197.221829,-962.267725
4520.595044,814.226536,-8656.879127,-370.102971
4520.595369,444.123565,-8044.002729,-962.267725
4520.595693,666.185348,-8656.879127,-222.061783
4520.596017,444.123565,-8580.269578,-666.185348
4520.596342,518.144159,-8427.050478,-444.123565
4520.596666,518.144159,-8503.660028,-814.226536
4520.596990,222.061783,-8886.707777,-592.164754
4520.597315,592.164754,-8503.660028,-962.267725
4520.597639,592.164754,-8503.660028,-814.226536
4520.597963,1036.288319,-9116.536426,-962.267725
4520.598288,666.185348,-8810.098227,-444.123565
4520.598612,518.144159,-8580.269578,-592.164754
4520.598936,666.185348,-8580.269578,-518.144159
4520.599261,444.123565,-8656.879127,-518.144159
4520.599585,296.082377,-8580.269578,-74.020594
4520.599909,518.144159,-8044.002729,-370.102971
4520.600233,296.082377,-8503.660028,-296.082377
4520.600558,222.061783,-8503.660028,-444.123565
4520.600882,740.205942,-8580.269578,-518.144159
4520.601206,444.123565,-8350.440928,-444.123565
4520.601531,222.061783,-8733.488677,-296.082377
4520.601855,444.123565,-8350.440928,-592.164754
4520.602179,444.123565,-8580.269578,0.000000
4520.602504,444.123565,-8503.660028,-518.144159
4520.602828,444.123565,-8733.488677,-444.123565
4520.603152,296.082377,-8427.050478,-444.123565
4520.603477,518.144159,-8580.269578,74.020594
4520.603801,444.123565,-8350.440928,-518.144159
4520.604125,222.061783,-8580.269578,-444.123565
4520.604450,592.164754,-8503.660028,-592.164754
4520.604774,370.102971,-8427.050478,-222.061783
4520.605098,296.082377,-8656.879127,-148.041188
4520.605423,222.061783,-8427.050478,-222.061783
4520.605747,444.123565,-8733.488677,-296.082377
4520.606071,518.144159,-8427.050478,-296.082377
4520.606396,814.226536,-9193.145976,-296.082377
4520.606720,296.082377,-8350.440928,0.000000
4520.607044,370.102971,-8733.488677,0.000000
4520.607369,222.061783,-8810.098227,-222.061783
4520.607693,444.123565,-8733.488677,0.000000
4520.608017,222.061783,-8656.879127,0.000000
4520.608342,222.061783,-8656.879127,-148.041188
4520.608666,296.082377,-8810.098227,-444.123565
4520.608990,370.102971,-8350.440928,-296.082377
4520.609315,592.164754,-8273.831378,-370.102971
4520.609639,592.164754,-8427.050478,-296.082377
4520.609963,592.164754,-8580.269578,-296.082377
4520.610288,592.164754,-8350.440928,0.000000
4520.610612,370.102971,-8273.831378,-222.061783
4520.610936,444.123565,-8580.269578,-296.082377
4520.611261,666.185348,-8656.879127,-444.123565
4520.611585,518.144159,-8733.488677,-518.144159
4520.611909,666.185348,-8733.488677,-592.164754
4520.612234,370.102971,-8656.879127,-222.061783
4520.612558,370.102971,-8503.660028,-296.082377
4520.612882,370.102971,-8580.269578,-296.082377
4520.613207,444.123565,-8656.879127,-740.205942
4520.613531,518.144159,-8273.831378,-592.164754
4520.613855,592.164754,-8273.831378,-592.164754
4520.614180,740.205942,-8810.098227,-296.082377
4520.614504,370.102971,-8733.488677,-592.164754
4520.614828,888.247130,-8427.050478,0.000000
4520.615153,518.144159,-8503.660028,-518.144159
4520.615477,370.102971,-8733.488677,-222.061783
4520.615801,518.144159,-8427.050478,-592.164754
4520.616126,444.123565,-8810.098227,-592.164754
4520.616450,222.061783,-8197.221829,-888.247130
4520.616774,222.061783,-8810.098227,-518.144159
4520.617098,518.144159,-8580.269578,-666.185348
4520.617423,444.123565,-8580.269578,-666.185348
4520.617747,814.226536,-8810.098227,-740.205942
4520.618071,296.082377,-8503.660028,-666.185348
4520.618396,444.123565,-8503.660028,-888.247130
4520.618720,370.102971,-8503.660028,-518.144159
4520.619044,370.102971,-8733.488677,-444.123565
4520.619369,148.041188,-8733.488677,-444.123565
4520.619693,222.061783,-8503.660028,-592.164754
4520.620017,0.000000,-8656.879127,-666.185348
4520.620342,444.123565,-8733.488677,-888.247130
4520.620666,444.123565,-8503.660028,-740.205942
4520.620990,370.102971,-8656.879127,-888.247130
4520.621315,814.226536,-8656.879127,-962.267725
4520.621639,222.061783,-8656.879127,-518.144159
4520.621963,740.205942,-8886.707777,-962.267725
4520.622288,74.020594,-8427.050478,-666.185348
4520.622612,148.041188,-8580.269578,-222.061783
4520.622936,592.164754,-8580.269578,-740.205942
4520.623261,444.123565,-8503.660028,-740.205942
4520.623585,222.061783,-8427.050478,-444.123565
4520.623909,444.123565,-8656.879127,-814.226536
4520.624234,518.144159,-8350.440928,-740.205942
4520.624558,444.123565,-8427.050478,-592.164754
4520.624882,148.041188,-8580.269578,-962.267725
4520.625207,296.082377,-8503.660028,-592.164754
4520.625531,148.041188,-8427.050478,-592.164754
4520.625855,370.102971,-8810.098227,-518.144159
4520.626180,74.020594,-8503.660028,-888.247130
4520.626504,296.082377,-8580.269578,-444.123565
4520.626828,296.082377,-8503.660028,-444.123565
4520.627153,296.082377,-8733.488677,-592.164754
4520.627477,518.144159,-8427.050478,-296.082377
4520.627801,666.185348,-8197.221829,-370.102971
4520.628126,518.144159,-8503.660028,-518.144159
4520.628450,518.144159,-8427.050478,-518.144159
4520.628774,444.123565,-8580.269578,-370.102971
4520.629099,222.061783,-8580.269578,-666.185348
4520.629423,296.082377,-8580.269578,-296.082377
4520.629747,222.061783,-8733.488677,-370.102971
4520.630072,592.164754,-8503.660028,0.000000
4520.630396,444.123565,-9346.365076,0.000000
4520.630720,666.185348,-8733.488677,-296.082377
4520.631045,518.144159,-8427.050478,0.000000
4520.631369,296.082377,-8273.831378,0.000000
4520.631693,370.102971,-8427.050478,-222.061783
4520.632018,222.061783,-8197.221829,0.000000
4520.632342,222.061783,-8580.269578,-148.041188
4520.632666,296.082377,-8580.269578,0.000000
4520.632991,296.082377,-8656.879127,0.000000
4520.633315,0.000000,-8350.440928,148.041188
4520.633639,592.164754,-8733.488677,0.000000
4520.633963,296.082377,-8656.879127,0.000000
4520.634288,518.144159,-8810.098227,0.000000
4520.634612,592.164754,-8656.879127,-370.102971
4520.634936,518.144159,-8810.098227,-148.041188
4520.635261,518.144159,-8580.269578,-370.102971
4520.635585,740.205942,-8350.440928,-592.164754
4520.635909,444.123565,-9039.926876,-370.102971
4520.636234,74.020594,-8503.660028,-148.041188
4520.636558,222.061783,-8733.488677,-148.041188
4520.636882,296.082377,-8580.269578,-148.041188
4520.637207,370.102971,-8503.660028,0.000000
4520.637531,370.102971,-8963.317327,-222.061783
4520.637855,740.205942,-8656.879127,74.020594
4520.638180,592.164754,-8427.050478,0.000000
4520.638504,370.102971,-8963.317327,-296.082377
4520.638828,370.102971,-8733.488677,0.000000
4520.639153,296.082377,-8427.050478,-296.082377
4520.639477,222.061783,-8733.488677,-148.041188
4520.639801,296.082377,-8733.488677,0.000000
4520.640126,296.082377,-8656.879127,-148.041188
4520.640450,518.144159,-8810.098227,-222.061783
4520.640774,518.144159,-8273.831378,-444.123565
4520.641099,296.082377,-8656.879127,-296.082377
4520.641423,444.123565,-8197.221829,-74.020594
4520.641747,74.020594,-8886.707777,296.082377
4520.642072,370.102971,-8503.660028,-592.164754
4520.642396,518.144159,-8503.660028,-518.144159
4520.642720,296.082377,-8656.879127,-666.185348
4520.643045,370.102971,-8733.488677,-222.061783
4520.643369,296.082377,-8503.660028,-370.102971
4520.643693,444.123565,-8580.269578,-592.164754
4520.644018,222.061783,-8273.831378,-518.144159
4520.644342,296.082377,-8656.879127,-444.123565
4520.644666,444.123565,-8656.879127,-222.061783
4520.644991,518.144159,-8273.831378,-296.082377
4520.645315,296.082377,-8273.831378,-296.082377
4520.645639,296.082377,-8427.050478,-296.082377
4520.645964,0.000000,-8810.098227,74.020594
4520.646288,666.185348,-8656.879127,0.000000
4520.646612,518.144159,-8580.269578,0.000000
4520.646937,370.102971,-8580.269578,0.000000
4520.647261,444.123565,-8503.660028,-296.082377
4520.647585,518.144159,-8427.050478,-296.082377
4520.647910,592.164754,-8733.488677,-444.123565
4520.648234,444.123565,-8580.269578,-148.041188
4520.648558,518.144159,-8120.612279,-296.082377
4520.648883,148.041188,-8810.098227,222.061783
4520.649207,518.144159,-8580.269578,-222.061783
4520.649531,222.061783,-8580.269578,-148.041188
4520.649856,222.061783,-8580.269578,0.000000
4520.650180,296.082377,-8810.098227,444.123565
4520.650504,222.061783,-8580.269578,0.000000
4520.650829,296.082377,-8656.879127,0.000000
4520.651153,148.041188,-8427.050478,-370.102971
4520.651477,518.144159,-8886.707777,-296.082377
4520.651801,296.082377,-8197.221829,-370.102971
4520.652126,518.144159,-8656.879127,-74.020594
4520.652450,148.041188,-8810.098227,-222.061783
4520.652774,222.061783,-8580.269578,0.000000
4520.653099,148.041188,-8273.831378,-222.061783
4520.653423,74.020594,-8963.317327,0.000000
4520.653747,296.082377,-8733.488677,0.000000
4520.654072,222.061783,-8810.098227,-222.061783
4520.654396,222.061783,-8580.269578,-222.061783
4520.654720,148.041188,-8273.831378,-518.144159
4520.655045,518.144159,-8656.879127,-444.123565
4520.655369,148.041188,-8427.050478,0.000000
4520.655693,222.061783,-8656.879127,-370.102971
4520.656018,666.185348,-8503.660028,-148.041188
4520.656342,222.061783,-8656.879127,-296.082377
4520.656666,740.205942,-9039.926876,-74.020594
4520.656991,370.102971,-8886.707777,-296.082377
4520.657315,666.185348,-8810.098227,74.020594
4520.657639,444.123565,-8656.879127,-148.041188
4520.657964,444.123565,-8656.879127,-222.061783
4520.658288,444.123565,-8810.098227,-444.123565
4520.658612,444.123565,-8503.660028,0.000000
4520.658937,518.144159,-8580.269578,0.000000
4520.659261,296.082377,-8580.269578,-74.020594
4520.659585,370.102971,-8350.440928,-370.102971
4520.659910,740.205942,-8580.269578,-296.082377
4520.660234,1258.350101,-8656.879127,-740.205942
4520.660558,740.205942,-8656.879127,-370.102971
4520.660883,518.144159,-8580.269578,-518.144159
4520.661207,518.144159,-8733.488677,-444.123565
4520.661531,518.144159,-8503.660028,-444.123565
4520.661856,518.144159,-9116.536426,-444.123565
4520.662180,592.164754,-8350.440928,-370.102971
4520.662504,518.144159,-8350.440928,-518.144159
4520.662829,444.123565,-8503.660028,-740.205942
4520.663153,370.102971,-8580.269578,-518.144159
4520.663477,370.102971,-8273.831378,-592.164754
4520.663802,814.226536,-8580.269578,-296.082377
4520.664126,592.164754,-8197.221829,-296.082377
4520.664450,370.102971,-8427.050478,222.061783
4520.664775,222.061783,-8580.269578,-518.144159
4520.665099,296.082377,-8886.707777,-296.082377
4520.665423,296.082377,-8580.269578,-592.164754
4520.665748,444.123565,-8656.879127,148.041188
4520.666072,0.000000,-8580.269578,-222.061783
4520.666396,444.123565,-8580.269578,-592.164754
4520.666721,0.000000,-8197.221829,0.000000
4520.667045,370.102971,-8733.488677,-222.061783
4520.667369,444.123565,-8273.831378,-222.061783
4520.667694,222.061783,-8580.269578,0.000000
4520.668018,444.123565,-8350.440928,-222.061783
4520.668342,444.123565,-8120.612279,-296.082377
4520.668666,222.061783,-8350.440928,0.000000
4520.668991,444.123565,-8503.660028,-370.102971
4520.669315,370.102971,-8197.221829,-222.061783
4520.669639,370.102971,-8656.879127,-296.082377
4520.669964,518.144159,-8656.879127,-222.061783
4520.670288,444.123565,-8503.660028,-222.061783
4520.670612,296.082377,-8273.831378,-370.102971
4520.670937,296.082377,-8656.879127,-222.061783
4520.671261,444.123565,-8197.221829,-148.041188
4520.671585,74.020594,-8733.488677,222.061783
4520.671910,444.123565,-8580.269578,-444.123565
4520.672234,370.102971,-9193.145976,-222.061783
4520.672558,296.082377,-8273.831378,-148.041188
4520.672883,0.000000,-8350.440928,518.144159
4520.673207,296.082377,-8733.488677,0.000000
4520.673531,296.082377,-8350.440928,0.000000
4520.673856,592.164754,-8350.440928,0.000000
4520.674180,444.123565,-8656.879127,0.000000
4520.674504,518.144159,-8427.050478,0.000000
4520.674829,518.144159,-8656.879127,148.041188
4520.675153,444.123565,-8580.269578,0.000000
4520.675477,148.041188,-8503.660028,0.000000
4520.675802,888.247130,-8350.440928,148.041188
4520.676126,518.144159,-8427.050478,0.000000
4520.676450,444.123565,-8350.440928,0.000000
4520.676775,444.123565,-8733.488677,0.000000
4520.677099,1036.288319,-8656.879127,-296.082377
4520.677423,666.185348,-8350.440928,-296.082377
4520.677748,296.082377,-8427.050478,0.000000
4520.678072,592.164754,-8350.440928,0.000000
4520.678396,740.205942,-8427.050478,-370.102971
4520.678721,370.102971,-8886.707777,-222.061783
4520.679045,370.102971,-8503.660028,-296.082377
4520.679369,444.123565,-8656.879127,-222.061783
4520.679694,518.144159,-8580.269578,-148.041188
4520.680018,518.144159,-9346.365076,74.020594
4520.680342,148.041188,-8656.879127,0.000000
4520.680667,444.123565,-8656.879127,0.000000
4520.680991,518.144159,-8580.269578,-444.123565
4520.681315,518.144159,-8733.488677,0.000000
4520.681640,148.041188,-8656.879127,-296.082377
4520.681964,370.102971,-8733.488677,0.000000
4520.682288,222.061783,-8197.221829,-592.164754
4520.682613,444.123565,-8963.317327,-148.041188
4520.682937,518.144159,-8273.831378,74.020594
4520.683261,370.102971,-8656.879127,296.082377
4520.683586,444.123565,-8656.879127,-222.061783
4520.683910,740.205942,-8656.879127,-296.082377
4520.684234,518.144159,-8273.831378,-148.041188
4520.684559,518.144159,-8733.488677,-370.102971
4520.684883,370.102971,-8810.098227,0.000000
4520.685207,148.041188,-8810.098227,-222.061783
4520.685531,0.000000,-8886.707777,0.000000
4520.685856,148.041188,-8273.831378,-296.082377
4520.686180,222.061783,-8733.488677,-148.041188
4520.686504,444.123565,-8273.831378,-148.041188
4520.686829,518.144159,-8580.269578,-370.102971
4520.687153,444.123565,-8427.050478,-370.102971
4520.687477,518.144159,-8580.269578,-296.082377
4520.687802,222.061783,-8580.269578,-518.144159
4520.688126,222.061783,-8350.440928,-444.123565
4520.688450,370.102971,-8350.440928,-1036.288319
4520.688775,148.041188,-8580.269578,-518.144159
4520.689099,370.102971,-8273.831378,-740.205942
4520.689423,370.102971,-8886.707777,-592.164754
4520.689748,296.082377,-8197.221829,-518.144159
4520.690072,444.123565,-8503.660028,-666.185348
4520.690396,518.144159,-8580.269578,-518.144159
4520.690721,740.205942,-8580.269578,-888.247130
4520.691045,592.164754,-8350.440928,-888.247130
4520.691369,814.226536,-8273.831378,-814.226536
4520.691694,444.123565,-8197.221829,-444.123565
4520.692018,370.102971,-8427.050478,-370.102971
4520.692342,444.123565,-8580.269578,-444.123565
4520.692667,814.226536,-8810.098227,-518.144159
4520.692991,296.082377,-8580.269578,-666.185348
4520.693315,814.226536,-8580.269578,-592.164754
4520.693640,592.164754,-8427.050478,-296.082377
4520.693964,444.123565,-8350.440928,-666.185348
4520.694288,592.164754,-8580.269578,-666.185348
4520.694613,222.061783,-8350.440928,-592.164754
4520.694937,518.144159,-8656.879127,-888.247130
4520.695261,296.082377,-8733.488677,-444.123565
4520.695586,0.000000,-8580.269578,-370.102971
4520.695910,222.061783,-8580.269578,-444.123565
4520.696234,296.082377,-8733.488677,-592.164754
4520.696559,370.102971,-8810.098227,-888.247130
4520.696883,444.123565,-8656.879127,-370.102971
4520.697207,222.061783,-8197.221829,-148.041188
4520.697531,518.144159,-8733.488677,-814.226536
4520.697856,592.164754,-9039.926876,-740.205942
4520.698180,296.082377,-8810.098227,-666.185348
4520.698504,666.185348,-8656.879127,-666.185348
4520.698829,370.102971,-8580.269578,-296.082377
4520.699153,148.041188,-8656.879127,-592.164754
4520.699477,296.082377,-8733.488677,-296.082377
4520.699802,888.247130,-8733.488677,-740.205942
4520.700126,740.205942,-8886.707777,-370.102971
4520.700450,592.164754,-8503.660028,-518.144159
4520.700775,370.102971,-8503.660028,-444.123565
4520.701099,148.041188,-9116.536426,-888.247130
4520.701423,666.185348,-8810.098227,-370.102971
4520.701748,296.082377,-8427.050478,-444.123565
4520.702072,296.082377,-8733.488677,-222.061783
4520.702396,444.123565,-8580.269578,-444.123565
4520.702721,444.123565,-8656.879127,0.000000
4520.703045,518.144159,-8733.488677,-148.041188
4520.703369,370.102971,-8656.879127,-444.123565
4520.703693,592.164754,-8810.098227,0.000000
4520.704018,148.041188,-8656.879127,518.144159
4520.704342,148.041188,-8810.098227,74.020594
4520.704666,444.123565,-8503.660028,-222.061783
4520.704991,444.123565,-8350.440928,74.020594
4520.705315,592.164754,-9269.755526,74.020594
4520.705639,296.082377,-8427.050478,0.000000
4520.705964,370.102971,-8580.269578,-74.020594
4520.706288,296.082377,-8427.050478,0.000000
4520.706612,444.123565,-8886.707777,-222.061783
4520.706937,370.102971,-8733.488677,-370.102971
4520.707261,592.164754,-8580.269578,-148.041188
4520.707585,370.102971,-8427.050478,-222.061783
4520.707910,666.185348,-8886.707777,-148.041188
4520.708234,222.061783,-8580.269578,-444.123565
4520.708558,666.185348,-8810.098227,-296.082377
4520.708882,444.123565,-8503.660028,-518.144159
4520.709207,444.123565,-8503.660028,-370.102971
4520.709531,666.185348,-8503.660028,-444.123565
4520.709855,148.041188,-8427.050478,-444.123565
4520.710180,370.102971,-8656.879127,-444.123565
4520.710504,370.102971,-8580.269578,-518.144159
4520.710828,370.102971,-8580.269578,-296.082377
4520.711153,740.205942,-8120.612279,-518.144159
4520.711477,0.000000,-8656.879127,-518.144159
4520.711801,296.082377,-8503.660028,-518.144159
4520.712126,444.123565,-8733.488677,-296.082377
4520.712450,370.102971,-9193.145976,-740.205942
4520.712774,518.144159,-8733.488677,-592.164754
4520.713099,296.082377,-8350.440928,-222.061783
4520.713423,370.102971,-8503.660028,-296.082377
4520.713747,296.082377,-8427.050478,-444.123565
4520.714071,592.164754,-9039.926876,-296.082377
4520.714396,222.061783,-7890.783629,-370.102971
4520.714720,370.102971,-8273.831378,-518.144159
4520.715044,518.144159,-8733.488677,-592.164754
4520.715369,666.185348,-8503.660028,-296.082377
4520.715693,592.164754,-8733.488677,-740.205942
4520.716017,518.144159,-8503.660028,-740.205942
4520.716342,592.164754,-8733.488677,-592.164754
4520.716666,740.205942,-9116.536426,-518.144159
4520.716990,444.123565,-8580.269578,-518.144159
4520.717315,444.123565,-8733.488677,-814.226536
4520.717639,222.061783,-8733.488677,-518.144159
4520.717963,222.061783,-8273.831378,-666.185348
4520.718288,148.041188,-8810.098227,-518.144159
4520.718612,444.123565,-8580.269578,-444.123565
4520.718936,592.164754,-8656.879127,-148.041188
4520.719261,370.102971,-8503.660028,-444.123565
4520.719585,1110.308913,-8963.317327,-74.020594
4520.719909,370.102971,-8427.050478,-222.061783
4520.720233,444.123565,-8810.098227,-370.102971
4520.720558,296.082377,-8656.879127,-444.123565
4520.720882,518.144159,-8810.098227,-296.082377
4520.721206,518.144159,-8503.660028,-370.102971
4520.721531,370.102971,-8503.660028,-370.102971
4520.721855,222.061783,-8656.879127,-370.102971
4520.722179,518.144159,-8503.660028,-296.082377
4520.722504,666.185348,-8503.660028,0.000000
4520.722828,296.082377,-8503.660028,-370.102971
4520.723152,296.082377,-8810.098227,-296.082377
4520.723477,592.164754,-8503.660028,-370.102971
4520.723801,296.082377,-8197.221829,148.041188
4520.724125,666.185348,-8580.269578,-518.144159
4520.724450,518.144159,-8656.879127,-222.061783
4520.724774,740.205942,-8580.269578,-518.144159
4520.725098,444.123565,-8733.488677,-148.041188
4520.725422,666.185348,-8580.269578,-370.102971
4520.725747,1110.308913,-8427.050478,-592.164754
4520.726071,814.226536,-8656.879127,-518.144159
4520.726395,444.123565,-8886.707777,-222.061783
4520.726720,222.061783,-8273.831378,0.000000
4520.727044,444.123565,-8503.660028,-222.061783
4520.727368,444.123565,-8733.488677,-518.144159
4520.727693,296.082377,-8733.488677,-296.082377
4520.728017,814.226536,-8963.317327,-592.164754
4520.728341,666.185348,-8503.660028,-296.082377
4520.728666,444.123565,-8503.660028,0.000000
4520.728990,296.082377,-8656.879127,148.041188
4520.729314,518.144159,-8580.269578,-444.123565
4520.729639,370.102971,-8810.098227,-444.123565
4520.729963,296.082377,-8580.269578,-444.123565
4520.730287,222.061783,-8733.488677,-222.061783
4520.730612,518.144159,-8733.488677,-518.144159
4520.730936,296.082377,-8656.879127,-740.205942
4520.731260,592.164754,-8580.269578,-740.205942
4520.731584,666.185348,-8656.879127,-222.061783
4520.731909,74.020594,-8733.488677,-222.061783
4520.732233,444.123565,-8733.488677,-592.164754
4520.732557,222.061783,-8197.221829,-444.123565
4520.732882,444.123565,-8350.440928,-518.144159
4520.733206,370.102971,-8350.440928,-666.185348
4520.733530,592.164754,-8580.269578,-518.144159
4520.733855,1036.288319,-8810.098227,-814.226536
4520.734179,296.082377,-8580.269578,-814.226536
4520.734503,518.144159,-8810.098227,-740.205942
4520.734828,518.144159,-8733.488677,-666.185348
4520.735152,740.205942,-8580.269578,-592.164754
4520.735476,296.082377,-8503.660028,-740.205942
4520.735801,296.082377,-8810.098227,-592.164754
4520.736125,222.061783,-8427.050478,-370.102971
4520.736449,148.041188,-8197.221829,-592.164754
4520.736773,518.144159,-8656.879127,-296.082377
4520.737098,222.061783,-8197.221829,-518.144159
4520.737422,518.144159,-8503.660028,-222.061783
4520.737746,518.144159,-8350.440928,-222.061783
4520.738071,518.144159,-8580.269578,-296.082377
4520.738395,666.185348,-8733.488677,-370.102971
4520.738719,740.205942,-8656.879127,-666.185348
4520.739044,296.082377,-8810.098227,-666.185348
4520.739368,592.164754,-8963.317327,-148.041188
4520.739692,592.164754,-8886.707777,-444.123565
4520.740017,444.123565,-8503.660028,-666.185348
4520.740341,740.205942,-8273.831378,-296.082377
4520.740665,592.164754,-8580.269578,-296.082377
4520.740990,444.123565,-8350.440928,-370.102971
4520.741314,444.123565,-8120.612279,-148.041188
4520.741638,666.185348,-8733.488677,-222.061783
4520.741963,592.164754,-8350.440928,-370.102971
4520.742287,222.061783,-8886.707777,0.000000
4520.742611,370.102971,-8503.660028,-222.061783
4520.742935,592.164754,-8733.488677,0.000000
4520.743260,666.185348,-8350.440928,-296.082377
4520.743584,0.000000,-8963.317327,0.000000
4520.743908,148.041188,-8350.440928,0.000000
4520.744233,370.102971,-8580.269578,74.020594
4520.744557,444.123565,-8273.831378,-222.061783
4520.744881,592.164754,-8350.440928,-296.082377
4520.745206,370.102971,-8656.879127,-444.123565
4520.745530,518.144159,-8503.660028,-148.041188
4520.745854,444.123565,-8810.098227,-518.144159
4520.746179,222.061783,-8503.660028,-148.041188
4520.746503,666.185348,-7967.393179,0.000000
4520.746827,518.144159,-8503.660028,-444.123565
4520.747152,444.123565,-8810.098227,0.000000
4520.747476,296.082377,-8656.879127,0.000000
4520.747800,592.164754,-8656.879127,-370.102971
4520.748124,296.082377,-8656.879127,-296.082377
4520.748449,296.082377,-8656.879127,-370.102971
4520.748773,444.123565,-8656.879127,-148.041188
4520.749097,592.164754,-8427.050478,-444.123565
4520.749422,518.144159,-8963.317327,-370.102971
4520.749746,74.020594,-8733.488677,0.000000
4520.750070,222.061783,-8503.660028,0.000000
4520.750395,222.061783,-8733.488677,-222.061783
4520.750719,592.164754,-8656.879127,0.000000
4520.751043,296.082377,-8580.269578,0.000000
4520.751368,444.123565,-8580.269578,-222.061783
4520.751692,370.102971,-8580.269578,-370.102971
4520.752016,518.144159,-9193.145976,148.041188
4520.752341,370.102971,-8350.440928,-296.082377
4520.752665,222.061783,-8886.707777,-370.102971
4520.752989,296.082377,-8733.488677,-370.102971
4520.753314,222.061783,-8810.098227,-148.041188
4520.753638,518.144159,-8503.660028,-666.185348
4520.753962,518.144159,-8656.879127,-518.144159
4520.754286,518.144159,-8810.098227,0.000000
4520.754611,444.123565,-8350.440928,0.000000
4520.754935,370.102971,-7737.564530,0.000000
4520.755259,518.144159,-8503.660028,-222.061783
4520.755584,814.226536,-8580.269578,-370.102971
4520.755908,666.185348,-8427.050478,0.000000
4520.756232,222.061783,-8197.221829,0.000000
4520.756557,518.144159,-9039.926876,0.000000
4520.756881,370.102971,-8427.050478,-222.061783
4520.757205,592.164754,-9039.926876,-296.082377
4520.757530,444.123565,-8656.879127,-370.102971
4520.757854,444.123565,-8503.660028,-296.082377
4520.758178,296.082377,-8350.440928,-222.061783
4520.758503,222.061783,-8810.098227,0.000000
4520.758827,296.082377,-8427.050478,-518.144159
4520.759151,1036.288319,-8656.879127,-370.102971
4520.759475,296.082377,-8044.002729,-222.061783
4520.759800,296.082377,-8427.050478,-444.123565
4520.760124,592.164754,-8273.831378,-592.164754
4520.760448,666.185348,-8350.440928,0.000000
4520.760773,222.061783,-8427.050478,-148.041188
4520.761097,814.226536,-8656.879127,-296.082377
4520.761421,296.082377,-8656.879127,-444.123565
4520.761746,592.164754,-8580.269578,-666.185348
4520.762070,148.041188,-8273.831378,-518.144159
4520.762394,666.185348,-8886.707777,-444.123565
4520.762719,296.082377,-8350.440928,-592.164754
4520.763043,518.144159,-8733.488677,-296.082377
4520.763367,370.102971,-8273.831378,-518.144159
4520.763692,592.164754,-8886.707777,-518.144159
4520.764016,444.123565,-8656.879127,-666.185348
4520.764340,370.102971,-8886.707777,-666.185348
4520.764665,444.123565,-8810.098227,-296.082377
4520.764989,148.041188,-8580.269578,0.000000
4520.765313,296.082377,-8656.879127,0.000000
4520.765637,222.061783,-8580.269578,-296.082377
4520.765962,222.061783,-8810.098227,-444.123565
4520.766286,814.226536,-8810.098227,-296.082377
4520.766610,222.061783,-8656.879127,-148.041188
4520.766935,148.041188,-9116.536426,-518.144159
4520.767259,518.144159,-8350.440928,-518.144159
4520.767583,962.267725,-8963.317327,-518.144159
4520.767908,222.061783,-8350.440928,-592.164754
4520.768232,296.082377,-8580.269578,-222.061783
4520.768556,296.082377,-8503.660028,-518.144159
4520.768881,370.102971,-8580.269578,-370.102971
4520.769205,592.164754,-8197.221829,-814.226536
4520.769529,592.164754,-8197.221829,-444.123565
4520.769854,666.185348,-8427.050478,-296.082377
4520.770178,444.123565,-8733.488677,-444.123565
4520.770502,666.185348,-8656.879127,-370.102971
4520.770826,666.185348,-8580.269578,-296.082377
4520.771151,444.123565,-8656.879127,-370.102971
4520.771475,592.164754,-8886.707777,-148.041188
4520.771799,666.185348,-8733.488677,222.061783
4520.772124,296.082377,-8733.488677,370.102971
4520.772448,296.082377,-8810.098227,148.041188
4520.772772,518.144159,-8503.660028,0.000000
4520.773097,518.144159,-8810.098227,0.000000
4520.773421,296.082377,-8273.831378,296.082377
4520.773745,296.082377,-8580.269578,222.061783
4520.774070,444.123565,-8656.879127,0.000000
4520.774394,370.102971,-8656.879127,148.041188
4520.774718,740.205942,-9193.145976,-296.082377
4520.775043,296.082377,-8656.879127,74.020594
4520.775367,370.102971,-8580.269578,0.000000
4520.775691,444.123565,-8963.317327,0.000000
4520.776016,148.041188,-8886.707777,-296.082377
4520.776340,296.082377,-8886.707777,0.000000
4520.776664,518.144159,-8273.831378,-148.041188
4520.776988,370.102971,-8503.660028,-148.041188
4520.777313,74.020594,-8810.098227,0.000000
4520.777637,148.041188,-8503.660028,0.000000
4520.777961,296.082377,-8503.660028,0.000000
4520.778286,370.102971,-8350.440928,-222.061783
4520.778610,296.082377,-8427.050478,-296.082377
4520.778934,592.164754,-9269.755526,-222.061783
4520.779259,0.000000,-8580.269578,-148.041188
4520.779583,222.061783,-8886.707777,-370.102971
4520.779907,296.082377,-8886.707777,-518.144159
4520.780232,370.102971,-8503.660028,-222.061783
4520.780556,222.061783,-8350.440928,-370.102971
4520.780880,148.041188,-8656.879127,-518.144159
4520.781205,370.102971,-8273.831378,-370.102971
4520.781529,444.123565,-8580.269578,-518.144159
4520.781853,740.205942,-8273.831378,-518.144159
4520.782177,444.123565,-8427.050478,-518.144159
4520.782502,296.082377,-8656.879127,-592.164754
4520.782826,518.144159,-8656.879127,-666.185348
4520.783150,518.144159,-8733.488677,-962.267725
4520.783475,666.185348,-8580.269578,-370.102971
4520.783799,444.123565,-8044.002729,-222.061783
4520.784123,666.185348,-8886.707777,-444.123565
4520.784448,518.144159,-8273.831378,-592.164754
4520.784772,592.164754,-8503.660028,-666.185348
4520.785096,518.144159,-8503.660028,-888.247130
4520.785421,296.082377,-8580.269578,-444.123565
4520.785745,370.102971,-8886.707777,-370.102971
4520.786069,148.041188,-8886.707777,0.000000
4520.786394,222.061783,-8580.269578,-148.041188
4520.786718,518.144159,-8503.660028,-518.144159
4520.787042,666.185348,-8350.440928,-222.061783
4520.787367,444.123565,-8886.707777,0.000000
4520.787691,518.144159,-8580.269578,-296.082377
4520.788015,740.205942,-8656.879127,-444.123565
4520.788339,370.102971,-8427.050478,-444.123565
4520.788664,592.164754,-8656.879127,-296.082377
4520.788988,296.082377,-8963.317327,-296.082377
4520.789312,592.164754,-8733.488677,-222.061783
4520.789637,666.185348,-8656.879127,-370.102971
4520.789961,222.061783,-8656.879127,0.000000
4520.790285,148.041188,-8810.098227,-296.082377
4520.790610,222.061783,-8120.612279,-222.061783
4520.790934,444.123565,-8427.050478,-296.082377
4520.791258,148.041188,-8503.660028,-370.102971
4520.791583,444.123565,-8886.707777,-296.082377
4520.791907,444.123565,-8656.879127,-296.082377
4520.792231,444.123565,-8503.660028,-370.102971
4520.792556,296.082377,-8503.660028,-222.061783
4520.792880,296.082377,-8503.660028,-296.082377
4520.793204,296.082377,-8503.660028,-222.061783
4520.793528,370.102971,-8886.707777,-444.123565
4520.793853,444.123565,-8580.269578,-518.144159
4520.794177,518.144159,-8580.269578,0.000000
4520.794501,888.247130,-8810.098227,-592.164754
4520.794826,592.164754,-8886.707777,-370.102971
4520.795150,444.123565,-8656.879127,-370.102971
4520.795474,296.082377,-8733.488677,-222.061783
4520.795799,296.082377,-9193.145976,-148.041188
4520.796123,370.102971,-8656.879127,0.000000
4520.796447,444.123565,-8427.050478,0.000000
4520.796772,518.144159,-8197.221829,0.000000
4520.797096,592.164754,-8656.879127,-222.061783
4520.797420,740.205942,-8963.317327,-148.041188
4520.797745,444.123565,-8427.050478,-148.041188
4520.798069,148.041188,-8427.050478,-370.102971
4520.798393,222.061783,-8886.707777,-370.102971
4520.798718,740.205942,-9269.755526,-222.061783
4520.799042,592.164754,-8656.879127,-296.082377
4520.799366,222.061783,-8503.660028,-444.123565
4520.799691,370.102971,-8810.098227,-296.082377
4520.800015,222.061783,-8503.660028,-222.061783
4520.800339,296.082377,-8656.879127,-222.061783
4520.800664,518.144159,-8580.269578,-740.205942
4520.800988,888.247130,-8580.269578,-444.123565
4520.801312,222.061783,-8350.440928,-370.102971
4520.801637,148.041188,-8197.221829,-592.164754
4520.801961,0.000000,-8427.050478,-370.102971
4520.802285,518.144159,-8580.269578,-222.061783
4520.802610,296.082377,-8886.707777,-296.082377
4520.802934,296.082377,-8810.098227,-814.226536
4520.803258,444.123565,-8580.269578,-592.164754
4520.803583,666.185348,-8810.098227,-518.144159
4520.803907,740.205942,-8656.879127,-740.205942
4520.804231,592.164754,-8810.098227,-444.123565
4520.804556,740.205942,-8503.660028,-518.144159
4520.804880,296.082377,-8503.660028,-222.061783
4520.805204,444.123565,-8656.879127,-444.123565
4520.805529,148.041188,-8197.221829,-444.123565
4520.805853,592.164754,-9039.926876,0.000000
4520.806177,370.102971,-8503.660028,-444.123565
4520.806502,296.082377,-8580.269578,-370.102971
4520.806826,370.102971,-8427.050478,-444.123565
4520.807150,444.123565,-8810.098227,-518.144159
4520.807475,222.061783,-8810.098227,-740.205942
4520.807799,518.144159,-8503.660028,-518.144159
4520.808123,518.144159,-8427.050478,-592.164754
4520.808448,222.061783,-8350.440928,-666.185348
4520.808772,518.144159,-8580.269578,-592.164754
4520.809096,148.041188,-8503.660028,-370.102971
4520.809420,444.123565,-8580.269578,-592.164754
4520.809745,740.205942,-8580.269578,-370.102971
4520.810069,1110.308913,-8503.660028,-888.247130
4520.810393,444.123565,-8580.269578,-148.041188
4520.810718,518.144159,-8427.050478,-444.123565
4520.811042,296.082377,-8580.269578,-370.102971
4520.811366,518.144159,-8273.831378,0.000000
4520.811691,148.041188,-8580.269578,-148.041188
4520.812015,222.061783,-8810.098227,-222.061783
4520.812339,222.061783,-8427.050478,-370.102971
4520.812664,518.144159,-8733.488677,0.000000
4520.812988,296.082377,-8733.488677,-222.061783
4520.813312,296.082377,-8810.098227,222.061783
4520.813637,444.123565,-8733.488677,-222.061783
4520.813961,370.102971,-8503.660028,-148.041188
4520.814285,740.205942,-8503.660028,-444.123565
4520.814610,444.123565,-8427.050478,-296.082377
4520.814934,370.102971,-8197.221829,-222.061783
4520.815258,222.061783,-8733.488677,-296.082377
4520.815583,518.144159,-8580.269578,-592.164754
4520.815907,444.123565,-8427.050478,-370.102971
4520.816231,370.102971,-8503.660028,-518.144159
4520.816556,444.123565,-8580.269578,-296.082377
4520.816880,592.164754,-8580.269578,-592.164754
4520.817204,444.123565,-8120.612279,0.000000
4520.817529,296.082377,-8044.002729,-666.185348
4520.817853,222.061783,-8810.098227,-592.164754
4520.818177,444.123565,-8580.269578,-592.164754
4520.818502,444.123565,-8886.707777,0.000000
4520.818826,370.102971,-8810.098227,-666.185348
4520.819150,370.102971,-8427.050478,-592.164754
4520.819475,370.102971,-8427.050478,-296.082377
4520.819799,666.185348,-8580.269578,-370.102971
4520.820123,888.247130,-8580.269578,-222.061783
4520.820448,444.123565,-8810.098227,-148.041188
4520.820772,370.102971,-8733.488677,-296.082377
4520.821096,370.102971,-8733.488677,-444.123565
4520.821421,666.185348,-8656.879127,-518.144159
4520.821745,444.123565,-8733.488677,0.000000
4520.822069,296.082377,-8656.879127,-592.164754
4520.822394,444.123565,-9039.926876,-222.061783
4520.822718,518.144159,-7814.174080,-222.061783
4520.823042,592.164754,-8427.050478,-370.102971
4520.823367,444.123565,-8350.440928,-518.144159
4520.823691,222.061783,-8503.660028,-222.061783
4520.824015,222.061783,-8503.660028,-370.102971
4520.824340,74.020594,-8197.221829,-296.082377
4520.824664,444.123565,-8580.269578,-444.123565
4520.824988,296.082377,-8810.098227,-296.082377
4520.825313,666.185348,-8120.612279,-444.123565
4520.825637,444.123565,-8733.488677,-148.041188
4520.825961,0.000000,-8350.440928,-370.102971
4520.826286,518.144159,-8427.050478,-222.061783
4520.826610,444.123565,-8580.269578,-518.144159
4520.826934,444.123565,-8197.221829,-444.123565
4520.827259,518.144159,-8656.879127,-518.144159
4520.827583,370.102971,-8733.488677,-444.123565
4520.827907,444.123565,-8273.831378,-518.144159
4520.828232,814.226536,-8580.269578,-740.205942
4520.828556,888.247130,-8733.488677,-444.123565
4520.828880,518.144159,-8427.050478,0.000000
4520.829205,296.082377,-8733.488677,-296.082377
4520.829529,518.144159,-8656.879127,-296.082377
4520.829853,666.185348,-8044.002729,-518.144159
4520.830177,592.164754,-8656.879127,-666.185348
4520.830502,296.082377,-8810.098227,-444.123565
4520.830826,296.082377,-8580.269578,-444.123565
4520.831150,370.102971,-8580.269578,-518.144159
4520.831475,370.102971,-8503.660028,-222.061783
4520.831799,444.123565,-8810.098227,-444.123565
4520.832123,518.144159,-8350.440928,-370.102971
4520.832448,444.123565,-8427.050478,-74.020594
4520.832772,518.144159,-8580.269578,-592.164754
4520.833096,370.102971,-8733.488677,-296.082377
4520.833421,296.082377,-8580.269578,-444.123565
4520.833745,222.061783,-8733.488677,-518.144159
4520.834069,222.061783,-9039.926876,-740.205942
4520.834394,518.144159,-8580.269578,-444.123565
4520.834718,444.123565,-8580.269578,-370.102971
4520.835042,370.102971,-8503.660028,-296.082377
4520.835367,518.144159,-8656.879127,-370.102971
4520.835691,592.164754,-8350.440928,-370.102971
4520.836015,592.164754,-8656.879127,-296.082377
4520.836340,444.123565,-8810.098227,-518.144159
4520.836664,666.185348,-8733.488677,-592.164754
4520.836988,0.000000,-8963.317327,-592.164754
4520.837313,518.144159,-8427.050478,-444.123565
4520.837637,518.144159,-8656.879127,-592.164754
4520.837961,666.185348,-8656.879127,-296.082377
4520.838286,296.082377,-8963.317327,-148.041188
4520.838610,370.102971,-8503.660028,-296.082377
4520.838934,666.185348,-8580.269578,-370.102971
4520.839259,814.226536,-8503.660028,-296.082377
4520.839583,518.144159,-8733.488677,-296.082377
4520.839907,222.061783,-8197.221829,-222.061783
4520.840232,518.144159,-8580.269578,-222.061783
4520.840556,444.123565,-8580.269578,-370.102971
4520.840880,370.102971,-8733.488677,0.000000
4520.841205,74.020594,-8427.050478,-148.041188
4520.841529,296.082377,-8580.269578,-222.061783
4520.841853,444.123565,-8273.831378,-370.102971
4520.842178,518.144159,-8886.707777,-222.061783
4520.842502,444.123565,-8656.879127,-444.123565
4520.842826,370.102971,-8503.660028,-296.082377
4520.843151,592.164754,-8810.098227,-74.020594
4520.843475,740.205942,-8810.098227,-592.164754
4520.843799,296.082377,-8580.269578,-518.144159
4520.844124,444.123565,-8733.488677,-370.102971
4520.844448,444.123565,-8963.317327,-148.041188
4520.844772,222.061783,-8886.707777,-370.102971
4520.845097,444.123565,-8810.098227,-148.041188
4520.845421,0.000000,-8656.879127,-592.164754
4520.845745,444.123565,-8810.098227,-222.061783
4520.846070,370.102971,-8503.660028,-370.102971
4520.846394,370.102971,-8580.269578,0.000000
4520.846718,148.041188,-8503.660028,-222.061783
4520.847043,518.144159,-8656.879127,-222.061783
4520.847367,592.164754,-8580.269578,-370.102971
4520.847691,148.041188,-8580.269578,0.000000
4520.848016,74.020594,-8580.269578,-222.061783
4520.848340,148.041188,-8733.488677,0.000000
4520.848664,222.061783,-8503.660028,-370.102971
4520.848989,296.082377,-8886.707777,-518.144159
4520.849313,592.164754,-8427.050478,-666.185348
4520.849637,740.205942,-8886.707777,148.041188
4520.849962,296.082377,-8350.440928,-370.102971
4520.850286,444.123565,-8580.269578,-222.061783
4520.850610,740.205942,-8273.831378,-666.185348
4520.850934,592.164754,-8503.660028,-740.205942
4520.851259,444.123565,-8273.831378,-444.123565
4520.851583,444.123565,-8350.440928,-74.020594
4520.851907,444.123565,-8427.050478,-444.123565
4520.852232,518.144159,-8273.831378,-518.144159
4520.852556,1110.308913,-8656.879127,-444.123565
4520.852880,592.164754,-8656.879127,-518.144159
4520.853205,444.123565,-8044.002729,-518.144159
4520.853529,222.061783,-8580.269578,-296.082377
4520.853853,592.164754,-8733.488677,296.082377
4520.854178,592.164754,-8350.440928,-222.061783
4520.854502,370.102971,-8656.879127,-222.061783
4520.854826,296.082377,-8733.488677,-148.041188
4520.855151,518.144159,-8656.879127,-222.061783
4520.855475,444.123565,-8733.488677,-370.102971
4520.855799,444.123565,-8503.660028,-518.144159
4520.856124,592.164754,-8503.660028,-296.082377
4520.856448,444.123565,-8580.269578,0.000000
4520.856772,222.061783,-8273.831378,74.020594
4520.857097,296.082377,-8656.879127,-444.123565
4520.857421,444.123565,-8503.660028,-370.102971
4520.857745,444.123565,-8427.050478,-518.144159
4520.858070,518.144159,-8810.098227,0.000000
4520.858394,74.020594,-8656.879127,-296.082377
4520.858718,296.082377,-8503.660028,-444.123565
4520.859043,296.082377,-8656.879127,-370.102971
4520.859367,444.123565,-8503.660028,-518.144159
4520.859691,444.123565,-8886.707777,-296.082377
4520.860016,444.123565,-8120.612279,-148.041188
4520.860340,296.082377,-8580.269578,-592.164754
4520.860664,518.144159,-8427.050478,-444.123565
4520.860989,592.164754,-8656.879127,-296.082377
4520.861313,296.082377,-8350.440928,-518.144159
4520.861637,518.144159,-8810.098227,-518.144159
4520.861962,296.082377,-8580.269578,-370.102971
4520.862286,370.102971,-8963.317327,-370.102971
4520.862610,148.041188,-8580.269578,-370.102971
4520.862935,740.205942,-9116.536426,-444.123565
4520.863259,666.185348,-8656.879127,-518.144159
4520.863583,814.226536,-8503.660028,-370.102971
4520.863908,296.082377,-8427.050478,-518.144159
4520.864232,592.164754,-8580.269578,-222.061783
4520.864556,370.102971,-8656.879127,-592.164754
4520.864881,370.102971,-8733.488677,-518.144159
4520.865205,666.185348,-8350.440928,-222.061783
4520.865529,370.102971,-8503.660028,-222.061783
4520.865854,296.082377,-8733.488677,-148.041188
4520.866178,370.102971,-8580.269578,0.000000
4520.866502,444.123565,-8886.707777,-296.082377
4520.866827,666.185348,-8427.050478,-370.102971
4520.867151,296.082377,-8580.269578,-148.041188
4520.867475,222.061783,-8810.098227,-148.041188
4520.867800,444.123565,-8503.660028,0.000000
4520.868124,148.041188,-8580.269578,-296.082377
4520.868448,296.082377,-8733.488677,0.000000
4520.868773,222.061783,-8427.050478,-148.041188
4520.869097,296.082377,-8810.098227,0.000000
4520.869421,222.061783,-7814.174080,148.041188
4520.869746,444.123565,-8503.660028,0.000000
4520.870070,518.144159,-8350.440928,-296.082377
4520.870394,296.082377,-8120.612279,74.020594
4520.870719,444.123565,-8733.488677,-518.144159
4520.871043,296.082377,-8197.221829,-370.102971
4520.871367,592.164754,-9039.926876,-444.123565
4520.871692,296.082377,-8733.488677,-518.144159
4520.872016,444.123565,-8733.488677,-370.102971
4520.872340,222.061783,-8197.221829,-370.102971
4520.872664,370.102971,-8580.269578,-222.061783
4520.872989,296.082377,-8503.660028,-148.041188
4520.873313,370.102971,-8656.879127,-148.041188
4520.873637,444.123565,-7890.783629,0.000000
4520.873962,222.061783,-8656.879127,-370.102971
4520.874286,222.061783,-8350.440928,-148.041188
4520.874610,370.102971,-8427.050478,-222.061783
4520.874935,518.144159,-8427.050478,-222.061783
4520.875259,296.082377,-8503.660028,-518.144159
4520.875583,444.123565,-8580.269578,-222.061783
4520.875908,148.041188,-8427.050478,-370.102971
4520.876232,296.082377,-8886.707777,-370.102971
4520.876556,222.061783,-8427.050478,-666.185348
4520.876881,444.123565,-8656.879127,-592.164754
4520.877205,444.123565,-8733.488677,-518.144159
4520.877529,296.082377,-8350.440928,-222.061783
4520.877854,296.082377,-8273.831378,-222.061783
4520.878178,666.185348,-8427.050478,-666.185348
4520.878502,740.205942,-8427.050478,-592.164754
4520.878827,592.164754,-8733.488677,-148.041188
4520.879151,740.205942,-8503.660028,-148.041188
4520.879475,740.205942,-8197.221829,-370.102971
4520.879800,592.164754,-8656.879127,-518.144159
4520.880124,444.123565,-8656.879127,-370.102971
4520.880448,518.144159,-8733.488677,-148.041188
4520.880773,666.185348,-8503.660028,-962.267725
4520.881097,370.102971,-8503.660028,0.000000
4520.881421,222.061783,-8656.879127,-148.041188
4520.881746,518.144159,-8810.098227,-222.061783
4520.882070,370.102971,-8733.488677,-148.041188
4520.882394,592.164754,-8810.098227,0.000000
4520.882719,296.082377,-8503.660028,-148.041188
4520.883043,296.082377,-8427.050478,-222.061783
4520.883367,444.123565,-8580.269578,0.000000
4520.883692,370.102971,-8503.660028,74.020594
4520.884016,518.144159,-8580.269578,0.000000
4520.884340,148.041188,-8350.440928,0.000000
4520.884665,444.123565,-8656.879127,0.000000
4520.884989,518.144159,-8580.269578,-370.102971
4520.885313,666.185348,-8427.050478,-666.185348
4520.885638,518.144159,-8886.707777,-518.144159
4520.885962,296.082377,-8350.440928,-222.061783
4520.886286,444.123565,-8580.269578,-370.102971
4520.886611,370.102971,-8580.269578,-444.123565
4520.886935,148.041188,-8656.879127,-370.102971
4520.887259,296.082377,-8963.317327,-444.123565
4520.887584,296.082377,-8580.269578,-370.102971
4520.887908,666.185348,-8580.269578,-296.082377
4520.888232,222.061783,-8733.488677,-148.041188
4520.888557,370.102971,-8427.050478,-370.102971
4520.888881,592.164754,-8733.488677,-74.020594
4520.889205,518.144159,-8886.707777,-666.185348
4520.889530,370.102971,-9116.536426,-148.041188
4520.889854,370.102971,-8580.269578,-296.082377
4520.890178,222.061783,-8886.707777,-148.041188
4520.890503,222.061783,-8656.879127,-370.102971
4520.890827,370.102971,-9116.536426,-296.082377
4520.891151,444.123565,-8273.831378,-296.082377
4520.891476,370.102971,-8733.488677,-74.020594
4520.891800,370.102971,-8656.879127,-740.205942
4520.892124,814.226536,-9193.145976,0.000000
4520.892449,740.205942,-8580.269578,-888.247130
4520.892773,592.164754,-8580.269578,-222.061783
4520.893097,518.144159,-8350.440928,-370.102971
4520.893421,666.185348,-9422.974625,0.000000
4520.893746,296.082377,-8350.440928,-444.123565
4520.894070,148.041188,-8810.098227,-444.123565
4520.894394,296.082377,-8427.050478,-666.185348
4520.894719,740.205942,-8427.050478,-222.061783
4520.895043,222.061783,-8273.831378,-444.123565
4520.895367,518.144159,-8656.879127,-444.123565
4520.895692,592.164754,-8427.050478,-592.164754
4520.896016,518.144159,-8656.879127,-296.082377
4520.896341,444.123565,-8273.831378,-962.267725
4520.896665,370.102971,-8580.269578,0.000000
4520.896989,444.123565,-8656.879127,-592.164754
4520.897314,518.144159,-8580.269578,-296.082377
4520.897638,666.185348,-8503.660028,0.000000
4520.897963,814.226536,-8503.660028,-222.061783
4520.898287,814.226536,-8350.440928,-74.020594
4520.898611,518.144159,-9269.755526,-296.082377
4520.898936,592.164754,-8733.488677,-444.123565
4520.899260,888.247130,-8656.879127,-518.144159
4520.899585,370.102971,-8580.269578,-518.144159
4520.899909,222.061783,-8656.879127,-296.082377
4520.900233,148.041188,-8656.879127,-444.123565
4520.900558,370.102971,-9193.145976,-666.185348
4520.900882,296.082377,-8810.098227,-592.164754
4520.901207,370.102971,-9039.926876,-592.164754
4520.901531,518.144159,-8656.879127,-296.082377
4520.901855,444.123565,-8733.488677,-296.082377
4520.902180,296.082377,-8963.317327,-222.061783
4520.902504,0.000000,-8503.660028,-148.041188
4520.902829,222.061783,-8810.098227,-296.082377
4520.903153,222.061783,-8656.879127,-370.102971
4520.903477,592.164754,-8810.098227,-444.123565
4520.903802,296.082377,-8810.098227,-518.144159
4520.904126,296.082377,-8580.269578,-518.144159
4520.904451,518.144159,-8810.098227,-592.164754
4520.904775,444.123565,-9039.926876,148.041188
4520.905100,444.123565,-8503.660028,0.000000
4520.905424,296.082377,-8273.831378,-370.102971
4520.905748,222.061783,-8656.879127,-370.102971
4520.906073,148.041188,-8427.050478,-370.102971
4520.906397,370.102971,-8427.050478,-296.082377
4520.906722,296.082377,-8273.831378,-370.102971
4520.907046,370.102971,-8656.879127,0.000000
4520.907370,296.082377,-8427.050478,0.000000
4520.907695,962.267725,-8656.879127,-296.082377
4520.908019,518.144159,-8503.660028,-444.123565
4520.908344,666.185348,-8580.269578,-370.102971
4520.908668,740.205942,-8350.440928,-222.061783
4520.908992,740.205942,-7890.783629,0.000000
4520.909317,148.041188,-8350.440928,-296.082377
4520.909641,666.185348,-8733.488677,-296.082377
4520.909966,370.102971,-8427.050478,-222.061783
4520.910290,592.164754,-8656.879127,-222.061783
4520.910614,740.205942,-8120.612279,0.000000
4520.910939,518.144159,-8197.221829,0.000000
4520.911263,518.144159,-8350.440928,0.000000
4520.911588,518.144159,-8503.660028,-222.061783
4520.911912,518.144159,-8427.050478,296.082377
4520.912236,222.061783,-8503.660028,0.000000
4520.912561,444.123565,-8810.098227,-296.082377
4520.912885,370.102971,-8580.269578,-444.123565
4520.913210,518.144159,-9116.536426,-148.041188
4520.913534,370.102971,-8810.098227,-370.102971
4520.913858,444.123565,-8810.098227,0.000000
4520.914183,370.102971,-8886.707777,-296.082377
4520.914507,296.082377,-8580.269578,-370.102971
4520.914832,296.082377,-8273.831378,-296.082377
4520.915156,370.102971,-8810.098227,-370.102971
4520.915480,444.123565,-8427.050478,0.000000
4520.915805,296.082377,-8810.098227,-222.061783
4520.916129,592.164754,-8580.269578,-296.082377
4520.916454,296.082377,-8656.879127,-444.123565
4520.916778,370.102971,-8733.488677,-518.144159
4520.917102,222.061783,-8733.488677,-666.185348
4520.917427,296.082377,-8733.488677,-666.185348
4520.917751,222.061783,-8810.098227,-666.185348
4520.918076,222.061783,-8503.660028,-444.123565
4520.918400,222.061783,-9116.536426,-666.185348
4520.918724,296.082377,-8656.879127,-592.164754
4520.919049,148.041188,-8273.831378,-592.164754
4520.919373,222.061783,-8733.488677,-888.247130
4520.919698,370.102971,-8350.440928,-962.267725
4520.920022,592.164754,-8427.050478,-518.144159
4520.920347,592.164754,-8810.098227,-518.144159
4520.920671,444.123565,-8503.660028,-370.102971
4520.920995,222.061783,-8503.660028,-444.123565
4520.921320,444.123565,-8810.098227,-518.144159
4520.921644,370.102971,-8350.440928,-814.226536
4520.921969,518.144159,-8733.488677,-666.185348
4520.922293,814.226536,-8503.660028,-740.205942
4520.922617,592.164754,-8656.879127,-296.082377
4520.922942,222.061783,-8810.098227,-444.123565
4520.923266,592.164754,-8273.831378,-518.144159
4520.923591,592.164754,-8733.488677,-444.123565
4520.923915,296.082377,-8503.660028,-518.144159
4520.924239,592.164754,-8427.050478,-296.082377
4520.924564,222.061783,-8044.002729,0.000000
4520.924888,444.123565,-8350.440928,-222.061783
4520.925213,666.185348,-8427.050478,-370.102971
4520.925537,592.164754,-8733.488677,-296.082377
4520.925861,518.144159,-8580.269578,0.000000
4520.926186,444.123565,-8580.269578,-444.123565
4520.926510,222.061783,-8656.879127,-222.061783
4520.926835,518.144159,-8427.050478,-296.082377
4520.927159,444.123565,-8197.221829,-370.102971
4520.927483,666.185348,-8656.879127,-592.164754
4520.927808,370.102971,-8580.269578,-74.020594
4520.928132,444.123565,-8733.488677,-592.164754
4520.928457,518.144159,-8427.050478,-444.123565
4520.928781,592.164754,-9039.926876,-592.164754
4520.929105,666.185348,-8350.440928,-296.082377
4520.929430,444.123565,-8044.002729,-296.082377
4520.929754,592.164754,-8580.269578,-148.041188
4520.930079,518.144159,-8273.831378,-666.185348
4520.930403,296.082377,-8580.269578,-148.041188
4520.930727,222.061783,-8810.098227,-296.082377
4520.931052,444.123565,-8580.269578,-370.102971
4520.931376,370.102971,-8656.879127,-148.041188
4520.931701,148.041188,-8197.221829,-370.102971
4520.932025,444.123565,-8580.269578,-296.082377
4520.932349,148.041188,-8656.879127,-518.144159
4520.932674,444.123565,-8503.660028,0.000000
4520.932998,296.082377,-8273.831378,-296.082377
4520.933323,148.041188,-8733.488677,-370.102971
4520.933647,222.061783,-8503.660028,-296.082377
4520.933971,518.144159,-8580.269578,-148.041188
4520.934296,444.123565,-8273.831378,-444.123565
4520.934620,814.226536,-8810.098227,-370.102971
4520.934945,444.123565,-8656.879127,-296.082377
4520.935269,444.123565,-8733.488677,-444.123565
4520.935594,222.061783,-8963.317327,-592.164754
4520.935918,444.123565,-9116.536426,-518.144159
4520.936242,518.144159,-8580.269578,-222.061783
4520.936567,370.102971,-9193.145976,-444.123565
4520.936891,222.061783,-8810.098227,-370.102971
4520.937216,222.061783,-8733.488677,-296.082377
4520.937540,518.144159,-8580.269578,-666.185348
4520.937864,296.082377,-8886.707777,-518.144159
4520.938189,296.082377,-8733.488677,-296.082377
4520.938513,444.123565,-8580.269578,-222.061783
4520.938838,888.247130,-9039.926876,-444.123565
4520.939162,444.123565,-8503.660028,-370.102971
4520.939486,888.247130,-8963.317327,-370.102971
4520.939811,370.102971,-8503.660028,-444.123565
4520.940135,0.000000,-9116.536426,-222.061783
4520.940460,592.164754,-8886.707777,-444.123565
4520.940784,444.123565,-8427.050478,-444.123565
4520.941108,444.123565,-9193.145976,-296.082377
4520.941433,296.082377,-8580.269578,-370.102971
4520.941757,148.041188,-8656.879127,-222.061783
4520.942082,296.082377,-8350.440928,-222.061783
4520.942406,370.102971,-8733.488677,-370.102971
4520.942730,222.061783,-8580.269578,-370.102971
4520.943055,370.102971,-8120.612279,0.000000
4520.943379,296.082377,-8273.831378,-296.082377
4520.943704,518.144159,-8810.098227,-444.123565
4520.944028,296.082377,-8503.660028,-370.102971
4520.944352,518.144159,-8810.098227,0.000000
4520.944677,296.082377,-8656.879127,-740.205942
4520.945001,296.082377,-8427.050478,-518.144159
4520.945326,444.123565,-8273.831378,-296.082377
4520.945650,444.123565,-8350.440928,-370.102971
4520.945974,74.020594,-8273.831378,-296.082377
4520.946299,444.123565,-8503.660028,-888.247130
4520.946623,592.164754,-8427.050478,-740.205942
4520.946948,222.061783,-8273.831378,-592.164754
4520.947272,222.061783,-8503.660028,0.000000
4520.947596,666.185348,-8273.831378,-592.164754
4520.947921,444.123565,-8580.269578,-444.123565
4520.948245,370.102971,-8963.317327,-592.164754
4520.948570,370.102971,-8503.660028,-296.082377
4520.948894,296.082377,-8733.488677,-518.144159
4520.949218,370.102971,-8503.660028,-666.185348
4520.949543,222.061783,-8503.660028,-222.061783
4520.949867,592.164754,-8350.440928,-370.102971
4520.950192,888.247130,-8197.221829,0.000000
4520.950516,370.102971,-8503.660028,-444.123565
4520.950841,222.061783,-8963.317327,148.041188
4520.951165,370.102971,-8427.050478,-370.102971
4520.951489,814.226536,-9652.803275,0.000000
4520.951814,370.102971,-8503.660028,-296.082377
4520.952138,222.061783,-8810.098227,-74.020594
4520.952463,148.041188,-8656.879127,0.000000
4520.952787,148.041188,-9116.536426,-148.041188
4520.953111,518.144159,-9039.926876,-666.185348
4520.953436,592.164754,-8810.098227,-296.082377
4520.953760,444.123565,-8580.269578,-296.082377
4520.954085,666.185348,-9193.145976,-518.144159
4520.954409,592.164754,-8810.098227,0.000000
4520.954733,444.123565,-8810.098227,-370.102971
4520.955058,518.144159,-8733.488677,-666.185348
4520.955382,222.061783,-8656.879127,-518.144159
4520.955707,666.185348,-9116.536426,-814.226536
4520.956031,148.041188,-9039.926876,-518.144159
4520.956355,444.123565,-8427.050478,-592.164754
4520.956680,444.123565,-8886.707777,0.000000
4520.957004,740.205942,-8580.269578,-370.102971
4520.957329,518.144159,-8963.317327,-222.061783
4520.957653,444.123565,-8810.098227,-444.123565
4520.957977,518.144159,-8580.269578,0.000000
4520.958302,444.123565,-8810.098227,-518.144159
4520.958626,666.185348,-9039.926876,0.000000
4520.958951,296.082377,-8350.440928,-222.061783
4520.959275,444.123565,-8733.488677,0.000000
4520.959599,222.061783,-8503.660028,-296.082377
4520.959924,518.144159,-9193.145976,0.000000
4520.960248,518.144159,-8503.660028,0.000000
4520.960573,666.185348,-8503.660028,0.000000
4520.960897,592.164754,-8350.440928,-370.102971
4520.961221,740.205942,-8656.879127,-148.041188
4520.961546,666.185348,-8120.612279,-370.102971
4520.961870,518.144159,-8733.488677,-148.041188
4520.962195,296.082377,-8273.831378,0.000000
4520.962519,444.123565,-8656.879127,-148.041188
4520.962843,1036.288319,-8656.879127,-296.082377
4520.963168,444.123565,-8580.269578,0.000000
4520.963492,370.102971,-8273.831378,-222.061783
4520.963817,666.185348,-8656.879127,-222.061783
4520.964141,518.144159,-8350.440928,0.000000
4520.964465,148.041188,-8810.098227,-148.041188
4520.964790,74.020594,-8427.050478,-148.041188
4520.965114,222.061783,-8580.269578,0.000000
4520.965439,370.102971,-8503.660028,-370.102971
4520.965763,740.205942,-8733.488677,0.000000
4520.966088,296.082377,-8580.269578,0.000000
4520.966412,444.123565,-8350.440928,0.000000
4520.966736,74.020594,-8350.440928,-222.061783
4520.967061,888.247130,-8733.488677,-222.061783
4520.967385,222.061783,-8580.269578,-518.144159
4520.967710,74.020594,-8503.660028,-518.144159
4520.968034,0.000000,-8503.660028,-148.041188
4520.968358,370.102971,-8656.879127,-296.082377
4520.968683,444.123565,-8427.050478,-592.164754
4520.969007,0.000000,-8503.660028,-370.102971
4520.969332,592.164754,-8503.660028,-518.144159
4520.969656,222.061783,-8503.660028,-740.205942
4520.969980,296.082377,-8197.221829,-666.185348
4520.970305,370.102971,-8580.269578,-592.164754
4520.970629,518.144159,-8656.879127,-592.164754
4520.970954,370.102971,-8350.440928,-592.164754
4520.971278,222.061783,-7890.783629,-222.061783
4520.971602,0.000000,-8886.707777,-666.185348
4520.971927,222.061783,-8503.660028,-740.205942
4520.972251,666.185348,-8810.098227,-666.185348
4520.972576,518.144159,-8580.269578,-518.144159
4520.972900,592.164754,-8810.098227,-370.102971
4520.973224,444.123565,-8503.660028,-444.123565
4520.973549,296.082377,-8503.660028,-370.102971
4520.973873,888.247130,-8733.488677,-592.164754
4520.974198,962.267725,-8656.879127,-296.082377
4520.974522,370.102971,-8427.050478,-370.102971
4520.974846,518.144159,-8733.488677,-296.082377
4520.975171,518.144159,-8580.269578,-222.061783
4520.975495,888.247130,-8810.098227,-222.061783
4520.975820,444.123565,-8580.269578,-370.102971
4520.976144,518.144159,-8656.879127,-148.041188
4520.976468,592.164754,-8503.660028,-296.082377
4520.976793,666.185348,-8580.269578,-592.164754
4520.977117,666.185348,-8427.050478,-444.123565
4520.977442,592.164754,-8580.269578,-444.123565
4520.977766,740.205942,-8886.707777,-444.123565
4520.978090,740.205942,-8733.488677,-444.123565
4520.978415,444.123565,-8656.879127,-222.061783
4520.978739,370.102971,-8656.879127,-148.041188
4520.979064,444.123565,-8580.269578,-444.123565
4520.979388,518.144159,-8503.660028,-296.082377
4520.979712,296.082377,-8273.831378,0.000000
4520.980037,888.247130,-8120.612279,-222.061783
4520.980361,370.102971,-8427.050478,-222.061783
4520.980686,518.144159,-8503.660028,-222.061783
4520.981010,296.082377,-8656.879127,-444.123565
4520.981334,592.164754,-8427.050478,-592.164754
4520.981659,518.144159,-8656.879127,-370.102971
4520.981983,222.061783,-8656.879127,-148.041188
4520.982308,518.144159,-8503.660028,-222.061783
4520.982632,592.164754,-9499.584175,-592.164754
4520.982957,518.144159,-8733.488677,-666.185348
4520.983281,444.123565,-8656.879127,-296.082377
4520.983605,370.102971,-8580.269578,-666.185348
4520.983930,222.061783,-8886.707777,0.000000
4520.984254,74.020594,-8120.612279,0.000000
4520.984579,296.082377,-8810.098227,0.000000
4520.984903,222.061783,-8350.440928,-148.041188
4520.985227,222.061783,-8886.707777,0.000000
4520.985552,148.041188,-8810.098227,-148.041188
4520.985876,222.061783,-8427.050478,0.000000
4520.986201,222.061783,-8503.660028,-148.041188
4520.986525,444.123565,-8733.488677,0.000000
4520.986849,222.061783,-9116.536426,-222.061783
4520.987174,0.000000,-8810.098227,74.020594
4520.987498,74.020594,-8427.050478,0.000000
4520.987823,444.123565,-8656.879127,-296.082377
4520.988147,370.102971,-8350.440928,0.000000
4520.988471,74.020594,-8197.221829,148.041188
4520.988796,222.061783,-8503.660028,0.000000
4520.989120,444.123565,-8427.050478,0.000000
4520.989445,666.185348,-8427.050478,-148.041188
4520.989769,444.123565,-8580.269578,0.000000
4520.990093,444.123565,-8810.098227,-148.041188
4520.990418,666.185348,-8580.269578,-296.082377
4520.990742,666.185348,-8427.050478,-444.123565
4520.991067,740.205942,-8503.660028,0.000000
4520.991391,592.164754,-8273.831378,-370.102971
4520.991715,666.185348,-8427.050478,0.000000
4520.992040,296.082377,-8427.050478,-74.020594
4520.992364,370.102971,-8733.488677,0.000000
4520.992689,296.082377,-8503.660028,0.000000
4520.993013,370.102971,-8580.269578,-296.082377
4520.993337,370.102971,-8580.269578,0.000000
4520.993662,370.102971,-8503.660028,0.000000
4520.993986,148.041188,-8427.050478,-222.061783
4520.994311,444.123565,-8503.660028,-592.164754
4520.994635,592.164754,-8580.269578,-518.144159
4520.994959,370.102971,-8656.879127,-518.144159
4520.995284,666.185348,-8810.098227,0.000000
4520.995608,222.061783,-8350.440928,-148.041188
4520.995933,148.041188,-8810.098227,-666.185348
4520.996257,666.185348,-8580.269578,-666.185348
4520.996581,296.082377,-8733.488677,-370.102971
4520.996906,296.082377,-8427.050478,-444.123565
4520.997230,370.102971,-8580.269578,-592.164754
4520.997555,444.123565,-8427.050478,-518.144159
4520.997879,518.144159,-8350.440928,-740.205942
4520.998203,592.164754,-8044.002729,-444.123565
4520.998528,444.123565,-8810.098227,-666.185348
4520.998852,444.123565,-8273.831378,-592.164754
4520.999176,518.144159,-8886.707777,-740.205942
4520.999501,74.020594,-9729.412825,-592.164754
4520.999825,296.082377,-8580.269578,-740.205942
4521.000149,444.123565,-8810.098227,-370.102971
4521.000474,518.144159,-8580.269578,-518.144159
4521.000798,370.102971,-8580.269578,-518.144159
4521.001123,370.102971,-8427.050478,-296.082377
4521.001447,370.102971,-8503.660028,-444.123565
4521.001771,444.123565,-8733.488677,-814.226536
4521.002096,666.185348,-8580.269578,-592.164754
4521.002420,0.000000,-8810.098227,-370.102971
4521.002744,370.102971,-8963.317327,-296.082377
4521.003069,148.041188,-8656.879127,-592.164754
4521.003393,444.123565,-8810.098227,-370.102971
4521.003717,444.123565,-8656.879127,-444.123565
4521.004042,370.102971,-8503.660028,-370.102971
4521.004366,296.082377,-8810.098227,-370.102971
4521.004691,592.164754,-8656.879127,-296.082377
4521.005015,296.082377,-8656.879127,-592.164754
4521.005339,592.164754,-8350.440928,-296.082377
4521.005664,222.061783,-8503.660028,-148.041188
4521.005988,74.020594,-8273.831378,-296.082377
