#time,accel_x,accel_y,accel_z
4252.112055,444.123565,-8810.098227,-222.061783
4252.112380,444.123565,-8810.098227,-444.123565
4252.112704,518.144159,-8810.098227,-296.082377
4252.113029,148.041188,-8503.660028,-296.082377
4252.113354,148.041188,-8580.269578,-444.123565
4252.113678,148.041188,-8733.488677,-296.082377
4252.114003,592.164754,-9039.926876,-296.082377
4252.114327,370.102971,-8580.269578,-370.102971
4252.114652,370.102971,-8810.098227,-592.164754
4252.114977,296.082377,-8273.831378,-222.061783
4252.115301,592.164754,-9499.584175,-444.123565
4252.115626,518.144159,-8503.660028,-666.185348
4252.115951,444.123565,-8503.660028,0.000000
4252.116275,296.082377,-8733.488677,-370.102971
4252.116600,296.082377,-8580.269578,-370.102971
4252.116925,444.123565,-8580.269578,-444.123565
4252.117249,592.164754,-8810.098227,-370.102971
4252.117574,444.123565,-8273.831378,-518.144159
4252.117899,222.061783,-8810.098227,0.000000
4252.118223,518.144159,-8656.879127,-888.247130
4252.118548,518.144159,-8273.831378,-370.102971
4252.118873,518.144159,-8810.098227,-296.082377
4252.119197,222.061783,-8503.660028,-296.082377
4252.119522,740.205942,-8963.317327,-518.144159
4252.119847,370.102971,-8963.317327,-148.041188
4252.120171,296.082377,-8350.440928,0.000000
4252.120496,222.061783,-8427.050478,-592.164754
4252.120821,666.185348,-8733.488677,0.000000
4252.121145,222.061783,-8197.221829,-370.102971
4252.121470,0.000000,-8810.098227,-370.102971
4252.121795,-666.185348,-8503.660028,-666.185348
4252.122119,-1036.288319,-8733.488677,0.000000
4252.122444,-1480.411884,-8120.612279,-962.267725
4252.122769,-2146.597232,-8733.488677,-222.061783
4252.123093,-1998.556043,-8197.221829,-296.082377
4252.123418,-2146.597232,-8503.660028,-222.061783
4252.123743,-1628.453072,-7584.345430,-518.144159
4252.124067,-962.267725,-8503.660028,0.000000
4252.124392,-740.205942,-8427.050478,-296.082377
4252.124717,-1332.370696,-8580.269578,-444.123565
4252.125041,-1554.432478,-8963.317327,-444.123565
4252.125366,-2146.597232,-8963.317327,-444.123565
4252.125691,-2664.741391,-8656.879127,-518.144159
4252.126015,-3330.926739,-8886.707777,-444.123565
4252.126340,-3478.967927,-8656.879127,0.000000
4252.126665,-3478.967927,-8733.488677,-444.123565
4252.126989,-2516.700203,-8733.488677,-518.144159
4252.127314,-2368.659014,-8273.831378,-518.144159
4252.127639,-1924.535449,-8810.098227,-148.041188
4252.127963,-1924.535449,-8503.660028,-148.041188
4252.128288,-2072.576638,-8656.879127,-296.082377
4252.128613,-2220.617826,-8733.488677,-518.144159
4252.128937,-2664.741391,-8656.879127,-296.082377
4252.129262,-2960.823768,-8963.317327,-222.061783
4252.129587,-3034.844362,-8656.879127,0.000000
4252.129911,-3478.967927,-8886.707777,-370.102971
4252.130236,-3404.947333,-8810.098227,0.000000
4252.130561,-3034.844362,-8886.707777,-296.082377
4252.130885,-2590.720797,-8580.269578,-518.144159
4252.131210,-1924.535449,-8886.707777,0.000000
4252.131535,-1998.556043,-7967.393179,-296.082377
4252.131859,-1850.514855,-8350.440928,-296.082377
4252.132184,-1924.535449,-8503.660028,-518.144159
4252.132508,-1702.473667,-8580.269578,-148.041188
4252.132833,-2368.659014,-8503.660028,-370.102971
4252.133158,-1702.473667,-8810.098227,0.000000
4252.133482,-2368.659014,-8350.440928,-222.061783
4252.133807,-1702.473667,-9116.536426,-222.061783
4252.134132,-1480.411884,-8273.831378,-814.226536
4252.134456,-1850.514855,-8503.660028,-518.144159
4252.134781,-1702.473667,-8120.612279,-370.102971
4252.135106,-1406.391290,-8044.002729,-666.185348
4252.135430,-2072.576638,-8044.002729,-962.267725
4252.135755,-2368.659014,-8273.831378,-444.123565
4252.136080,-2146.597232,-7814.174080,-666.185348
4252.136404,-2368.659014,-8044.002729,-592.164754
4252.136729,-1776.494261,-7890.783629,-740.205942
4252.137054,-1406.391290,-8427.050478,-370.102971
4252.137378,-1110.308913,-8503.660028,-740.205942
4252.137703,-518.144159,-8427.050478,-962.267725
4252.138028,0.000000,-8427.050478,-1110.308913
4252.138352,0.000000,-8580.269578,-666.185348
4252.138677,-148.041188,-8656.879127,-666.185348
4252.139002,-222.061783,-9269.755526,-1036.288319
4252.139326,-592.164754,-8197.221829,-666.185348
4252.139651,-296.082377,-8810.098227,-592.164754
4252.139976,-370.102971,-8810.098227,-740.205942
4252.140300,0.000000,-9193.145976,0.000000
4252.140625,888.247130,-8810.098227,-666.185348
4252.140950,888.247130,-8503.660028,-962.267725
4252.141274,1554.432478,-9269.755526,-518.144159
4252.141599,1628.453072,-8963.317327,-1036.288319
4252.141924,888.247130,-9422.974625,0.000000
4252.142248,0.000000,-8427.050478,-1628.453072
4252.142573,-1184.329507,-9806.022374,-296.082377
4252.142898,-2220.617826,-8733.488677,-666.185348
4252.143222,-3034.844362,-9729.412825,0.000000
4252.143547,-3552.988522,-8120.612279,-666.185348
4252.143872,-3627.009116,-8810.098227,0.000000
4252.144196,-2960.823768,-7737.564530,-888.247130
4252.144521,-2220.617826,-8273.831378,-222.061783
4252.144846,-1184.329507,-8044.002729,-888.247130
4252.145170,-740.205942,-8350.440928,-666.185348
4252.145495,-666.185348,-8120.612279,-296.082377
4252.145820,-1110.308913,-8503.660028,-666.185348
4252.146144,-1628.453072,-9116.536426,-444.123565
4252.146469,-2664.741391,-9039.926876,-444.123565
4252.146794,-2220.617826,-9346.365076,444.123565
4252.147118,-3108.864956,-8733.488677,0.000000
4252.147443,-2146.597232,-9346.365076,0.000000
4252.147768,-1332.370696,-8273.831378,-370.102971
4252.148092,-148.041188,-8273.831378,-222.061783
4252.148417,0.000000,-8273.831378,-444.123565
4252.148742,296.082377,-8197.221829,-518.144159
4252.149066,-740.205942,-8733.488677,0.000000
4252.149391,-2146.597232,-8350.440928,-222.061783
4252.149716,-3182.885551,-8810.098227,-148.041188
4252.150040,-4441.235652,-8963.317327,222.061783
4252.150365,-4959.379811,-9039.926876,592.164754
4252.150689,-4589.276840,-9039.926876,518.144159
4252.151014,-4589.276840,-8427.050478,370.102971
4252.151339,-3330.926739,-8656.879127,592.164754
4252.151663,-1924.535449,-8044.002729,-222.061783
4252.151988,-1184.329507,-8350.440928,-222.061783
4252.152313,444.123565,-7737.564530,444.123565
4252.152637,-888.247130,-7967.393179,74.020594
4252.152962,-666.185348,-8886.707777,-296.082377
4252.153287,-1628.453072,-9269.755526,296.082377
4252.153611,-2812.782580,-9193.145976,74.020594
4252.153936,-4293.194464,-9193.145976,0.000000
4252.154261,-5995.668130,-9729.412825,0.000000
4252.154585,-5773.606348,-8733.488677,-518.144159
4252.154910,-4441.235652,-9729.412825,0.000000
4252.155235,-4589.276840,-7660.954980,-1406.391290
4252.155559,-2368.659014,-8197.221829,0.000000
4252.155884,-1110.308913,-6358.592633,-592.164754
4252.156209,1406.391290,-8120.612279,-148.041188
4252.156533,2812.782580,-7201.297681,-592.164754
4252.156858,3627.009116,-7660.954980,0.000000
4252.157183,3552.988522,-8810.098227,370.102971
4252.157507,2146.597232,-8350.440928,-740.205942
4252.157832,740.205942,-9039.926876,-296.082377
4252.158157,-962.267725,-8810.098227,-740.205942
4252.158481,-3108.864956,-9806.022374,-1110.308913
4252.158806,-4589.276840,-8886.707777,-2294.638420
4252.159131,-5773.606348,-8273.831378,-2072.576638
4252.159455,-5477.523971,-7890.783629,-2146.597232
4252.159780,-3997.112087,-8197.221829,-1554.432478
4252.160105,-2220.617826,-8044.002729,-1258.350101
4252.160429,518.144159,-8120.612279,0.000000
4252.160754,2664.741391,-7124.688131,-814.226536
4252.161079,4737.318029,-8273.831378,-222.061783
4252.161403,5625.565159,-8810.098227,-222.061783
4252.161728,3701.029710,-10495.508323,0.000000
4252.162053,962.267725,-10035.851024,-1406.391290
4252.162377,-2368.659014,-10878.556072,-740.205942
4252.162702,-5107.421000,-10112.460574,-962.267725
4252.163027,-7624.121203,-9499.584175,-1110.308913
4252.163351,-7179.997637,-9039.926876,-962.267725
4252.163676,-5773.606348,-7354.516781,-370.102971
4252.164001,-2960.823768,-6894.859482,-740.205942
4252.164325,2368.659014,-7431.126331,-592.164754
4252.164650,5107.421000,-6894.859482,-592.164754
4252.164975,7179.997637,-7967.393179,222.061783
4252.165299,6513.812290,-8120.612279,-888.247130
4252.165624,4515.256246,-10112.460574,-666.185348
4252.165949,1258.350101,-10495.508323,-444.123565
4252.166273,-3997.112087,-11184.994271,-1258.350101
4252.166598,-9696.697840,-11414.822920,-814.226536
4252.166923,-11621.233289,-10572.117872,-814.226536
4252.167247,-12583.501014,-9269.755526,-370.102971
4252.167572,-8956.491898,-7660.954980,-222.061783
4252.167896,-3923.091493,-6741.640382,0.000000
4252.168221,222.061783,-5209.449386,-296.082377
4252.168546,5625.565159,-5439.278036,148.041188
4252.168870,9030.512492,-6281.983084,592.164754
4252.169195,8808.450710,-8427.050478,370.102971
4252.169519,5551.544565,-8810.098227,518.144159
4252.169844,-518.144159,-10342.289223,814.226536
4252.170169,-5329.482782,-12334.137518,148.041188
4252.170493,-9770.718434,-11414.822920,962.267725
4252.170818,-11917.315666,-12180.918418,888.247130
4252.171142,-11103.089130,-9806.022374,-222.061783
4252.171467,-7698.141797,-8886.707777,0.000000
4252.171791,-2220.617826,-6665.030833,-740.205942
4252.172116,1554.432478,-6281.983084,-74.020594
4252.172441,4515.256246,-5439.278036,-666.185348
4252.172765,4959.379811,-6052.154434,-518.144159
4252.173090,3404.947333,-5898.935335,-222.061783
4252.173414,148.041188,-8044.002729,1184.329507
4252.173739,-3775.050304,-9193.145976,0.000000
4252.174064,-6883.915261,-10725.336972,1998.556043
4252.174388,-7994.224174,-10112.460574,-222.061783
4252.174713,-7402.059420,-10265.679673,962.267725
4252.175037,-4737.318029,-9806.022374,-370.102971
4252.175362,-1702.473667,-8886.707777,-444.123565
4252.175686,-222.061783,-7048.078582,-2294.638420
4252.176011,2072.576638,-7737.564530,-1258.350101
4252.176336,2812.782580,-6205.373534,-518.144159
4252.176660,1480.411884,-6205.373534,1332.370696
4252.176985,1036.288319,-6971.469032,222.061783
4252.177309,814.226536,-7660.954980,222.061783
4252.177634,444.123565,-10878.556072,1332.370696
4252.177958,-2368.659014,-9959.241474,-1924.535449
4252.178283,-4367.215058,-11261.603821,-962.267725
4252.178608,-4959.379811,-10648.727422,-2220.617826
4252.178932,-4737.318029,-10418.898773,-1480.411884
4252.179257,-3478.967927,-8963.317327,-1406.391290
4252.179581,-2442.679609,-7660.954980,-1332.370696
4252.179906,0.000000,-7201.297681,-444.123565
4252.180231,3997.112087,-6588.421283,1036.288319
4252.180555,4811.338623,-8120.612279,-370.102971
4252.180880,2516.700203,-6435.202183,74.020594
4252.181204,1702.473667,-7507.735880,370.102971
4252.181529,-370.102971,-8350.440928,-2146.597232
4252.181853,-814.226536,-10265.679673,-370.102971
4252.182178,-3701.029710,-9729.412825,-3182.885551
4252.182503,-2886.803174,-11338.213370,-1332.370696
4252.182827,-4293.194464,-9576.193725,-2886.803174
4252.183152,-2886.803174,-11951.089769,-1702.473667
4252.183476,-4589.276840,-8427.050478,-1332.370696
4252.183801,-1776.494261,-8273.831378,-1110.308913
4252.184126,-2960.823768,-8427.050478,-518.144159
4252.184450,-1258.350101,-6894.859482,-888.247130
4252.184775,1850.514855,-8197.221829,1258.350101
4252.185099,1702.473667,-6588.421283,-444.123565
4252.185424,1702.473667,-8580.269578,0.000000
4252.185748,1776.494261,-7507.735880,-740.205942
4252.186073,962.267725,-9959.241474,-1332.370696
4252.186398,-1480.411884,-7967.393179,-2442.679609
4252.186722,-3627.009116,-11797.870669,444.123565
4252.187047,-4959.379811,-8350.440928,-962.267725
4252.187371,-5181.441594,-10648.727422,1628.453072
4252.187696,-3923.091493,-6818.249932,222.061783
4252.188021,0.000000,-8580.269578,1184.329507
4252.188345,-1110.308913,-7354.516781,-148.041188
4252.188670,-222.061783,-7660.954980,148.041188
4252.188994,-888.247130,-7201.297681,518.144159
4252.189319,-2368.659014,-5975.544884,-1258.350101
4252.189643,-1184.329507,-9039.926876,74.020594
4252.189968,666.185348,-9116.536426,-888.247130
4252.190293,-592.164754,-11644.651570,1480.411884
4252.190617,-1184.329507,-8810.098227,222.061783
4252.190942,-2146.597232,-11261.603821,666.185348
4252.191266,-2738.761985,-9499.584175,1258.350101
4252.191591,0.000000,-8350.440928,1554.432478
4252.191916,-518.144159,-8656.879127,2072.576638
4252.192240,74.020594,-6052.154434,1110.308913
4252.192565,740.205942,-7354.516781,74.020594
4252.192889,-888.247130,-6665.030833,-2368.659014
4252.193214,1628.453072,-8580.269578,-518.144159
4252.193538,814.226536,-7431.126331,-1480.411884
4252.193863,1850.514855,-9729.412825,-148.041188
4252.194188,370.102971,-7737.564530,888.247130
4252.194512,0.000000,-9806.022374,0.000000
4252.194837,2294.638420,-9806.022374,148.041188
4252.195161,2072.576638,-9422.974625,1110.308913
4252.195486,1702.473667,-9882.631924,444.123565
4252.195810,2516.700203,-7967.393179,-444.123565
4252.196135,1554.432478,-8273.831378,444.123565
4252.196460,3404.947333,-7277.907231,-1332.370696
4252.196784,3182.885551,-6971.469032,-1554.432478
4252.197109,2072.576638,-6894.859482,-2220.617826
4252.197433,3034.844362,-7584.345430,-1406.391290
4252.197758,-1628.453072,-8350.440928,-592.164754
4252.198083,-1036.288319,-9422.974625,-1184.329507
4252.198407,-1184.329507,-9346.365076,-222.061783
4252.198732,-1406.391290,-8963.317327,-814.226536
4252.199056,1776.494261,-9806.022374,0.000000
4252.199381,2960.823768,-9576.193725,-888.247130
4252.199705,4515.256246,-11031.775171,888.247130
4252.200030,5477.523971,-7507.735880,-1332.370696
4252.200355,4811.338623,-9499.584175,-740.205942
4252.200679,3478.967927,-7890.783629,-1924.535449
4252.201004,3997.112087,-7967.393179,-2072.576638
4252.201328,1258.350101,-8427.050478,0.000000
4252.201653,1924.535449,-7737.564530,-666.185348
4252.201978,-592.164754,-8963.317327,444.123565
4252.202302,-962.267725,-8886.707777,-1036.288319
4252.202627,-1850.514855,-9806.022374,-370.102971
4252.202951,-370.102971,-8886.707777,-1924.535449
4252.203276,-1036.288319,-9652.803275,-296.082377
4252.203600,666.185348,-8656.879127,-370.102971
4252.203925,-1702.473667,-8120.612279,-1332.370696
4252.204250,6069.688724,-9882.631924,370.102971
4252.204574,2812.782580,-8350.440928,-888.247130
4252.204899,1036.288319,-9806.022374,222.061783
4252.205223,-962.267725,-7660.954980,-1184.329507
4252.205548,-1998.556043,-9729.412825,1110.308913
4252.205873,-2294.638420,-7967.393179,0.000000
4252.206197,-2516.700203,-8810.098227,1184.329507
4252.206522,-2738.761985,-8044.002729,962.267725
4252.206846,-2590.720797,-8197.221829,-444.123565
4252.207171,-3478.967927,-9346.365076,-518.144159
4252.207495,0.000000,-8886.707777,-1554.432478
4252.207820,-2146.597232,-6971.469032,-370.102971
4252.208145,-1850.514855,-7890.783629,1628.453072
4252.208469,814.226536,-7814.174080,0.000000
4252.208794,740.205942,-7737.564530,1258.350101
4252.209118,1702.473667,-8044.002729,-222.061783
4252.209443,1628.453072,-9346.365076,1554.432478
4252.209768,-370.102971,-8350.440928,74.020594
4252.210092,-370.102971,-9806.022374,222.061783
4252.210417,-1702.473667,-6971.469032,-222.061783
4252.210741,-3701.029710,-9652.803275,1258.350101
4252.211066,-2368.659014,-7584.345430,-370.102971
4252.211390,-1110.308913,-8810.098227,-296.082377
4252.211715,0.000000,-8120.612279,-1406.391290
4252.212040,-1110.308913,-7354.516781,-1184.329507
4252.212364,148.041188,-8733.488677,296.082377
4252.212689,0.000000,-6665.030833,-1184.329507
4252.213013,2146.597232,-8810.098227,2368.659014
4252.213338,1776.494261,-6435.202183,-1332.370696
4252.213662,2886.803174,-9576.193725,962.267725
4252.213987,2294.638420,-7277.907231,-814.226536
4252.214312,1406.391290,-9959.241474,-296.082377
4252.214636,1554.432478,-9499.584175,-740.205942
4252.214961,-740.205942,-9039.926876,-1036.288319
4252.215285,-1332.370696,-9422.974625,-592.164754
4252.215610,814.226536,-7431.126331,-296.082377
4252.215935,2368.659014,-9039.926876,-1036.288319
4252.216259,1184.329507,-7660.954980,-1036.288319
4252.216584,2516.700203,-8886.707777,-888.247130
4252.216908,2368.659014,-9193.145976,-2294.638420
4252.217233,0.000000,-8197.221829,-2072.576638
4252.217557,888.247130,-8886.707777,0.000000
4252.217882,1776.494261,-8120.612279,-74.020594
4252.218207,518.144159,-9116.536426,-814.226536
4252.218531,2738.761985,-9959.241474,-1036.288319
4252.218856,2664.741391,-10342.289223,-370.102971
4252.219180,3552.988522,-8963.317327,-1850.514855
4252.219505,3701.029710,-10342.289223,-1850.514855
4252.219830,1924.535449,-9499.584175,74.020594
4252.220154,814.226536,-7967.393179,-666.185348
4252.220479,1554.432478,-9269.755526,74.020594
4252.220803,962.267725,-8120.612279,-1258.350101
4252.221128,1258.350101,-9116.536426,-1110.308913
4252.221452,444.123565,-8733.488677,-1850.514855
4252.221777,1184.329507,-8810.098227,-1258.350101
4252.222102,-1850.514855,-7660.954980,-2072.576638
4252.222426,592.164754,-9269.755526,444.123565
4252.222751,-222.061783,-7584.345430,-148.041188
4252.223075,2368.659014,-9959.241474,222.061783
4252.223400,2294.638420,-9039.926876,518.144159
4252.223725,2368.659014,-9193.145976,-592.164754
4252.224049,740.205942,-9729.412825,740.205942
4252.224374,1776.494261,-8886.707777,370.102971
4252.224698,0.000000,-9193.145976,1258.350101
4252.225023,0.000000,-8044.002729,74.020594
4252.225347,-370.102971,-7660.954980,592.164754
4252.225672,-518.144159,-7354.516781,-370.102971
4252.225997,-2738.761985,-7584.345430,444.123565
4252.226321,-2368.659014,-8044.002729,148.041188
4252.226646,-2442.679609,-7660.954980,-518.144159
4252.226970,-1850.514855,-7967.393179,-222.061783
4252.227295,-1110.308913,-9193.145976,-148.041188
4252.227620,0.000000,-8273.831378,592.164754
4252.227944,1924.535449,-8273.831378,1110.308913
4252.228269,592.164754,-8733.488677,1332.370696
4252.228593,1924.535449,-9959.241474,222.061783
4252.228918,-296.082377,-8963.317327,-296.082377
4252.229242,74.020594,-8656.879127,-370.102971
4252.229567,-740.205942,-7431.126331,0.000000
4252.229892,-962.267725,-8273.831378,592.164754
4252.230216,-1184.329507,-8044.002729,148.041188
4252.230541,-2220.617826,-7354.516781,74.020594
4252.230865,666.185348,-8197.221829,888.247130
4252.231190,1628.453072,-8044.002729,-3108.864956
4252.231515,-1258.350101,-8886.707777,592.164754
4252.231839,74.020594,-7967.393179,74.020594
4252.232164,444.123565,-8120.612279,1332.370696
4252.232488,962.267725,-8427.050478,-222.061783
4252.232813,2590.720797,-10955.165621,-962.267725
4252.233137,1628.453072,-9269.755526,-1184.329507
4252.233462,1406.391290,-9882.631924,-2368.659014
4252.233787,-2220.617826,-9806.022374,-296.082377
4252.234111,-2294.638420,-8273.831378,74.020594
4252.234436,-2368.659014,-8580.269578,-296.082377
4252.234760,-962.267725,-8656.879127,-444.123565
4252.235085,592.164754,-7890.783629,-740.205942
4252.235409,-296.082377,-8580.269578,-1184.329507
4252.235734,2812.782580,-9039.926876,-1776.494261
4252.236059,1850.514855,-7584.345430,-1628.453072
4252.236383,-1184.329507,-7354.516781,-1258.350101
4252.236708,1628.453072,-8733.488677,370.102971
4252.237032,1702.473667,-7967.393179,-1184.329507
4252.237357,4071.132681,-9193.145976,-148.041188
4252.237682,4219.173869,-8273.831378,-1850.514855
4252.238006,2368.659014,-10112.460574,-1480.411884
4252.238331,1406.391290,-8580.269578,-2368.659014
4252.238655,2146.597232,-9959.241474,370.102971
4252.238980,2146.597232,-8427.050478,-962.267725
4252.239304,740.205942,-8886.707777,222.061783
4252.239629,592.164754,-8273.831378,-1924.535449
4252.239954,222.061783,-9116.536426,-1110.308913
4252.240278,0.000000,-8886.707777,-2072.576638
4252.240603,-148.041188,-8656.879127,-1776.494261
4252.240927,370.102971,-8503.660028,-1554.432478
4252.241252,-296.082377,-8427.050478,-518.144159
4252.241577,740.205942,-6894.859482,-148.041188
4252.241901,3478.967927,-9882.631924,296.082377
4252.242226,4885.359217,-8350.440928,-962.267725
4252.242550,3034.844362,-9576.193725,296.082377
4252.242875,2664.741391,-9039.926876,-1332.370696
4252.243199,-518.144159,-9652.803275,0.000000
4252.243524,-666.185348,-8197.221829,592.164754
4252.243849,-444.123565,-8963.317327,74.020594
4252.244173,-2072.576638,-7354.516781,0.000000
4252.244498,222.061783,-8886.707777,-148.041188
4252.244822,-1924.535449,-8120.612279,-962.267725
4252.245147,-962.267725,-9116.536426,-296.082377
4252.245472,-1036.288319,-7737.564530,-444.123565
4252.245796,-296.082377,-7967.393179,740.205942
4252.246121,222.061783,-6741.640382,0.000000
4252.246445,1332.370696,-7814.174080,74.020594
4252.246770,1850.514855,-9422.974625,888.247130
4252.247094,2812.782580,-9499.584175,370.102971
4252.247419,1850.514855,-9193.145976,296.082377
4252.247744,-740.205942,-8273.831378,148.041188
4252.248068,-740.205942,-9116.536426,740.205942
4252.248393,-296.082377,-8120.612279,74.020594
4252.248717,-1036.288319,-7967.393179,518.144159
4252.249042,-1406.391290,-7201.297681,222.061783
4252.249367,-2072.576638,-8810.098227,518.144159
4252.249691,-2072.576638,-7967.393179,-370.102971
4252.250016,74.020594,-9269.755526,-740.205942
4252.250340,-1480.411884,-7354.516781,-222.061783
4252.250665,-1480.411884,-8044.002729,0.000000
4252.250989,2516.700203,-8273.831378,0.000000
4252.251314,518.144159,-8197.221829,-518.144159
4252.251639,1628.453072,-9039.926876,1110.308913
4252.251963,1258.350101,-9652.803275,-1110.308913
4252.252288,1776.494261,-10189.070123,-1036.288319
4252.252612,0.000000,-9116.536426,-1332.370696
4252.252937,-3849.070898,-9499.584175,518.144159
4252.253261,-2812.782580,-7737.564530,222.061783
4252.253586,-1332.370696,-8120.612279,444.123565
4252.253911,74.020594,-8427.050478,-1628.453072
4252.254235,-962.267725,-8350.440928,-962.267725
4252.254560,1184.329507,-8350.440928,-1776.494261
4252.254884,444.123565,-8350.440928,-1036.288319
4252.255209,1332.370696,-7354.516781,-962.267725
4252.255534,1850.514855,-9806.022374,740.205942
4252.255858,1480.411884,-7737.564530,-1110.308913
4252.256183,3552.988522,-10189.070123,-296.082377
4252.256507,1924.535449,-9422.974625,-1036.288319
4252.256832,1924.535449,-10418.898773,0.000000
4252.257156,1258.350101,-9346.365076,-1480.411884
4252.257481,-888.247130,-9422.974625,-666.185348
4252.257806,-1480.411884,-8197.221829,740.205942
4252.258130,814.226536,-7431.126331,0.000000
4252.258455,1110.308913,-8580.269578,-888.247130
4252.258779,444.123565,-8427.050478,-2368.659014
4252.259104,2516.700203,-8886.707777,-1628.453072
4252.259429,-592.164754,-8273.831378,-1702.473667
4252.259753,-370.102971,-7814.174080,-370.102971
4252.260078,1554.432478,-8733.488677,1036.288319
4252.260402,518.144159,-7584.345430,0.000000
4252.260727,2368.659014,-10112.460574,148.041188
4252.261051,3404.947333,-8886.707777,-592.164754
4252.261376,1184.329507,-8886.707777,-1332.370696
4252.261701,2294.638420,-9576.193725,-1184.329507
4252.262025,74.020594,-9193.145976,74.020594
4252.262350,-962.267725,-9039.926876,370.102971
4252.262674,-1924.535449,-8044.002729,-370.102971
4252.262999,-1332.370696,-8044.002729,444.123565
4252.263324,1258.350101,-8503.660028,-888.247130
4252.263648,222.061783,-8197.221829,-962.267725
4252.263973,1036.288319,-8197.221829,-1776.494261
4252.264297,-444.123565,-8733.488677,-222.061783
4252.264622,-1776.494261,-7737.564530,-518.144159
4252.264946,0.000000,-9039.926876,814.226536
4252.265271,0.000000,-8120.612279,0.000000
4252.265596,-370.102971,-8963.317327,-962.267725
4252.265920,4737.318029,-8810.098227,-962.267725
4252.266245,1480.411884,-9346.365076,0.000000
4252.266569,2886.803174,-9039.926876,-740.205942
4252.266894,444.123565,-8580.269578,666.185348
4252.267219,1406.391290,-8350.440928,-148.041188
4252.267543,-1110.308913,-7967.393179,-592.164754
4252.267868,-444.123565,-8044.002729,0.000000
4252.268192,-592.164754,-10572.117872,-666.185348
4252.268516,-1258.350101,-9499.584175,-1184.329507
4252.268841,-1924.535449,-8810.098227,-1480.411884
4252.269165,-3330.926739,-8120.612279,74.020594
4252.269489,-3108.864956,-8656.879127,74.020594
4252.269813,-1776.494261,-8197.221829,592.164754
4252.270137,740.205942,-9729.412825,0.000000
4252.270462,2442.679609,-7507.735880,-592.164754
4252.270786,1628.453072,-10572.117872,74.020594
4252.271110,1776.494261,-9499.584175,-1998.556043
4252.271434,-518.144159,-9959.241474,0.000000
4252.271758,222.061783,-7507.735880,0.000000
4252.272083,0.000000,-8656.879127,1554.432478
4252.272407,1332.370696,-7507.735880,74.020594
4252.272731,-1110.308913,-9269.755526,74.020594
4252.273055,-888.247130,-9039.926876,-1184.329507
4252.273379,-2220.617826,-8733.488677,-1406.391290
4252.273704,-296.082377,-9193.145976,-1184.329507
4252.274028,-1258.350101,-8273.831378,-222.061783
4252.274352,2368.659014,-8197.221829,962.267725
4252.274676,-296.082377,-6818.249932,444.123565
4252.275000,1628.453072,-8197.221829,0.000000
4252.275325,2664.741391,-8810.098227,0.000000
4252.275649,2664.741391,-9422.974625,-814.226536
4252.275973,2664.741391,-8886.707777,-962.267725
4252.276297,2368.659014,-10572.117872,888.247130
4252.276621,-222.061783,-6052.154434,1480.411884
4252.276945,1332.370696,-8273.831378,-740.205942
4252.277270,888.247130,-9729.412825,0.000000
4252.277594,-962.267725,-9346.365076,-1480.411884
4252.277918,1480.411884,-8656.879127,-370.102971
4252.278242,-3330.926739,-6358.592633,-1628.453072
4252.278566,-1850.514855,-8580.269578,0.000000
4252.278891,-740.205942,-6128.763984,0.000000
4252.279215,1702.473667,-9039.926876,222.061783
4252.279539,1480.411884,-8810.098227,518.144159
4252.279863,5625.565159,-8350.440928,-1036.288319
4252.280187,4293.194464,-9193.145976,-814.226536
4252.280512,3330.926739,-9806.022374,-1702.473667
4252.280836,370.102971,-9269.755526,518.144159
4252.281160,-1776.494261,-9576.193725,814.226536
4252.281484,-1480.411884,-8886.707777,74.020594
4252.281808,74.020594,-7737.564530,0.000000
4252.282133,-1480.411884,-8580.269578,-666.185348
4252.282457,666.185348,-9882.631924,-1480.411884
4252.282781,-1184.329507,-8733.488677,-1480.411884
4252.283105,740.205942,-7431.126331,-888.247130
4252.283429,962.267725,-7354.516781,-222.061783
4252.283754,1776.494261,-8273.831378,-814.226536
4252.284078,740.205942,-8427.050478,-222.061783
4252.284402,2960.823768,-8580.269578,-296.082377
4252.284726,1924.535449,-9882.631924,-222.061783
4252.285050,1776.494261,-9499.584175,-1258.350101
4252.285374,2368.659014,-10495.508323,-592.164754
4252.285699,-1776.494261,-9039.926876,-222.061783
4252.286023,-518.144159,-9806.022374,962.267725
4252.286347,-1628.453072,-7814.174080,0.000000
4252.286671,-962.267725,-7124.688131,-888.247130
4252.286995,-1258.350101,-7431.126331,-1110.308913
4252.287320,0.000000,-7660.954980,-1184.329507
4252.287644,296.082377,-8886.707777,-740.205942
4252.287968,-1406.391290,-8044.002729,-1332.370696
4252.288292,-1924.535449,-9729.412825,222.061783
4252.288616,-222.061783,-7660.954980,-962.267725
4252.288941,1110.308913,-9806.022374,222.061783
4252.289265,1036.288319,-8580.269578,222.061783
4252.289589,2590.720797,-10342.289223,148.041188
4252.289913,1628.453072,-9422.974625,-888.247130
4252.290237,-518.144159,-9116.536426,-296.082377
4252.290562,-962.267725,-8197.221829,444.123565
4252.290886,888.247130,-8886.707777,1332.370696
4252.291210,-666.185348,-6128.763984,518.144159
4252.291534,-2146.597232,-8350.440928,814.226536
4252.291858,222.061783,-7890.783629,-592.164754
4252.292183,-1702.473667,-8580.269578,-1850.514855
4252.292507,-1480.411884,-7890.783629,-1406.391290
4252.292831,-444.123565,-8810.098227,444.123565
4252.293155,296.082377,-8427.050478,1480.411884
4252.293479,518.144159,-7814.174080,222.061783
4252.293804,3108.864956,-9959.241474,0.000000
4252.294128,2072.576638,-8044.002729,-888.247130
4252.294452,2146.597232,-9729.412825,0.000000
4252.294776,2664.741391,-8886.707777,-1036.288319
4252.295100,1110.308913,-10648.727422,370.102971
4252.295424,-1110.308913,-7507.735880,666.185348
4252.295749,1036.288319,-7507.735880,962.267725
4252.296073,-444.123565,-7660.954980,518.144159
4252.296397,-1110.308913,-8580.269578,-888.247130
4252.296721,370.102971,-9116.536426,-1332.370696
4252.297045,-1258.350101,-8963.317327,-1924.535449
4252.297370,-666.185348,-8886.707777,-888.247130
4252.297694,-370.102971,-8350.440928,148.041188
4252.298018,888.247130,-7814.174080,1184.329507
4252.298342,1184.329507,-9576.193725,-1406.391290
4252.298666,4145.153275,-9806.022374,-148.041188
4252.298991,3108.864956,-8503.660028,-666.185348
4252.299315,3108.864956,-9499.584175,-1480.411884
4252.299639,2368.659014,-8350.440928,0.000000
4252.299963,740.205942,-8580.269578,74.020594
4252.300287,370.102971,-9193.145976,666.185348
4252.300612,-222.061783,-7277.907231,-370.102971
4252.300936,592.164754,-9806.022374,-1110.308913
4252.301260,-1110.308913,-7354.516781,-1406.391290
4252.301584,-518.144159,-8810.098227,-1702.473667
4252.301908,74.020594,-8350.440928,-1258.350101
4252.302233,-444.123565,-7737.564530,0.000000
4252.302557,518.144159,-8273.831378,74.020594
4252.302881,2368.659014,-9039.926876,370.102971
4252.303205,3256.906145,-7584.345430,-370.102971
4252.303529,4589.276840,-10418.898773,-1480.411884
4252.303853,3182.885551,-7814.174080,-1480.411884
4252.304178,2516.700203,-9576.193725,-444.123565
4252.304502,296.082377,-8120.612279,-2072.576638
4252.304826,-1776.494261,-8656.879127,1702.473667
4252.305150,-3108.864956,-7890.783629,370.102971
4252.305474,-1258.350101,-9269.755526,-148.041188
4252.305799,-2294.638420,-9729.412825,-1110.308913
4252.306123,-3108.864956,-8580.269578,-1776.494261
4252.306447,-3108.864956,-9422.974625,-666.185348
4252.306771,-2886.803174,-8427.050478,-1036.288319
4252.307095,-2146.597232,-9193.145976,666.185348
4252.307420,814.226536,-7354.516781,-370.102971
4252.307744,2738.761985,-9193.145976,222.061783
4252.308068,5255.462188,-7890.783629,0.000000
4252.308392,4145.153275,-8733.488677,0.000000
4252.308716,3849.070898,-9422.974625,-888.247130
4252.309041,518.144159,-8886.707777,0.000000
4252.309365,518.144159,-7967.393179,888.247130
4252.309689,-1998.556043,-9346.365076,1628.453072
4252.310013,-370.102971,-8886.707777,592.164754
4252.310337,-2368.659014,-8273.831378,0.000000
4252.310662,-1406.391290,-8733.488677,-1036.288319
4252.310986,-3034.844362,-7660.954980,-518.144159
4252.311310,-3849.070898,-8044.002729,-1184.329507
4252.311634,148.041188,-8273.831378,-370.102971
4252.311958,2368.659014,-7354.516781,1184.329507
4252.312283,1776.494261,-7814.174080,0.000000
4252.312607,3330.926739,-9039.926876,518.144159
4252.312931,3775.050304,-7277.907231,222.061783
4252.313255,2368.659014,-11108.384721,148.041188
4252.313579,2368.659014,-7814.174080,-1480.411884
4252.313903,-518.144159,-9959.241474,2664.741391
4252.314228,-2368.659014,-6971.469032,74.020594
4252.314552,74.020594,-8656.879127,962.267725
4252.314876,444.123565,-8120.612279,-370.102971
4252.315200,0.000000,-8120.612279,-666.185348
4252.315524,0.000000,-7967.393179,-518.144159
4252.315849,-2146.597232,-8503.660028,-1406.391290
4252.316173,-296.082377,-7124.688131,-740.205942
4252.316497,-370.102971,-8273.831378,-296.082377
4252.316821,1924.535449,-9116.536426,0.000000
4252.317145,2664.741391,-8963.317327,0.000000
4252.317470,1480.411884,-8656.879127,-814.226536
4252.317794,3775.050304,-10035.851024,-518.144159
4252.318118,4515.256246,-8120.612279,-740.205942
4252.318442,1480.411884,-8350.440928,-666.185348
4252.318766,1184.329507,-7507.735880,1184.329507
4252.319091,1554.432478,-9193.145976,1332.370696
4252.319415,814.226536,-7584.345430,-1480.411884
4252.319739,1258.350101,-9729.412825,740.205942
4252.320063,-1776.494261,-5669.106685,-2960.823768
4252.320387,0.000000,-9882.631924,-814.226536
4252.320712,-518.144159,-7814.174080,-962.267725
4252.321036,2442.679609,-9269.755526,-1110.308913
4252.321360,814.226536,-7354.516781,-296.082377
4252.321684,-444.123565,-8963.317327,-592.164754
4252.322008,2220.617826,-10112.460574,-2072.576638
4252.322332,3701.029710,-9806.022374,-740.205942
4252.322657,2516.700203,-10112.460574,-740.205942
4252.322981,2664.741391,-9039.926876,-2442.679609
4252.323305,-3775.050304,-9346.365076,0.000000
4252.323629,-962.267725,-8656.879127,148.041188
4252.323953,-888.247130,-8350.440928,666.185348
4252.324278,-222.061783,-8427.050478,-1850.514855
4252.324602,962.267725,-9039.926876,-814.226536
4252.324926,-592.164754,-9193.145976,-2220.617826
4252.325250,-1036.288319,-8120.612279,-2590.720797
4252.325574,-888.247130,-8350.440928,-962.267725
4252.325899,-666.185348,-7814.174080,1036.288319
4252.326223,1702.473667,-8350.440928,0.000000
4252.326547,296.082377,-8733.488677,296.082377
4252.326871,3108.864956,-10342.289223,814.226536
4252.327195,1258.350101,-7048.078582,-1850.514855
4252.327520,1924.535449,-10342.289223,-222.061783
4252.327844,1850.514855,-8350.440928,0.000000
4252.328168,-1258.350101,-9652.803275,1184.329507
4252.328492,-222.061783,-7660.954980,74.020594
4252.328816,-444.123565,-7814.174080,148.041188
4252.329141,-1110.308913,-8197.221829,-444.123565
4252.329465,0.000000,-8273.831378,-1258.350101
4252.329789,-370.102971,-9499.584175,-296.082377
4252.330113,-962.267725,-7890.783629,-1258.350101
4252.330437,-296.082377,-7201.297681,444.123565
4252.330762,-814.226536,-7354.516781,1036.288319
4252.331086,1776.494261,-8503.660028,962.267725
4252.331410,2220.617826,-7584.345430,-518.144159
4252.331734,3775.050304,-10265.679673,1628.453072
4252.332058,3701.029710,-7890.783629,518.144159
4252.332382,2294.638420,-8044.002729,-1850.514855
4252.332707,-222.061783,-9806.022374,370.102971
4252.333031,-1480.411884,-7048.078582,666.185348
4252.333355,-740.205942,-9729.412825,1480.411884
4252.333679,-1406.391290,-7201.297681,-518.144159
4252.334003,-2146.597232,-8886.707777,1628.453072
4252.334328,-1554.432478,-8273.831378,-1554.432478
4252.334652,-592.164754,-9346.365076,-666.185348
4252.334976,-1332.370696,-7890.783629,-1110.308913
4252.335300,-444.123565,-9116.536426,370.102971
4252.335624,814.226536,-7507.735880,740.205942
4252.335949,2368.659014,-9116.536426,-296.082377
4252.336273,3849.070898,-8963.317327,-666.185348
4252.336597,3330.926739,-7507.735880,74.020594
4252.336921,2220.617826,-9882.631924,-814.226536
4252.337245,1702.473667,-7890.783629,-1406.391290
4252.337570,592.164754,-8963.317327,1110.308913
4252.337894,-1702.473667,-8197.221829,-518.144159
4252.338218,518.144159,-8733.488677,1480.411884
4252.338542,-148.041188,-6741.640382,-1332.370696
4252.338866,-962.267725,-9422.974625,-518.144159
4252.339191,-444.123565,-8197.221829,-2960.823768
4252.339515,74.020594,-9499.584175,-2368.659014
4252.339839,0.000000,-7660.954980,-1628.453072
4252.340163,1702.473667,-8963.317327,370.102971
4252.340487,1110.308913,-8810.098227,-370.102971
4252.340811,3923.091493,-9346.365076,-296.082377
4252.341136,2590.720797,-9116.536426,-1628.453072
4252.341460,1850.514855,-9576.193725,-1258.350101
4252.341784,3108.864956,-9193.145976,-1702.473667
4252.342108,0.000000,-9346.365076,-222.061783
4252.342432,-518.144159,-9039.926876,888.247130
4252.342757,-1332.370696,-7967.393179,-296.082377
4252.343081,-2146.597232,-9269.755526,-962.267725
4252.343405,-1924.535449,-8350.440928,-666.185348
4252.343729,-1332.370696,-8810.098227,-2294.638420
4252.344053,-814.226536,-8733.488677,-2368.659014
4252.344378,-962.267725,-8197.221829,-1258.350101
4252.344702,0.000000,-8580.269578,0.000000
4252.345026,2664.741391,-8273.831378,-296.082377
4252.345350,1554.432478,-8886.707777,592.164754
4252.345674,3997.112087,-9729.412825,-962.267725
4252.345999,3923.091493,-8580.269578,-962.267725
4252.346323,2516.700203,-9269.755526,-1702.473667
4252.346647,1702.473667,-9806.022374,-148.041188
4252.346971,740.205942,-8580.269578,1480.411884
4252.347295,-2368.659014,-7967.393179,-370.102971
4252.347620,-1850.514855,-8044.002729,888.247130
4252.347944,-2442.679609,-5898.935335,0.000000
4252.348268,-2368.659014,-9422.974625,-814.226536
4252.348592,0.000000,-7507.735880,-1258.350101
4252.348916,222.061783,-8503.660028,-1554.432478
4252.349241,1850.514855,-9039.926876,-888.247130
4252.349565,-740.205942,-8810.098227,444.123565
4252.349889,1406.391290,-9652.803275,296.082377
4252.350213,1850.514855,-8503.660028,0.000000
4252.350537,6439.791695,-8963.317327,888.247130
4252.350861,3404.947333,-8733.488677,148.041188
4252.351186,3034.844362,-7660.954980,592.164754
4252.351510,0.000000,-9269.755526,296.082377
4252.351834,-1036.288319,-9193.145976,74.020594
4252.352158,-962.267725,-6894.859482,1406.391290
4252.352482,-1850.514855,-7354.516781,-370.102971
4252.352807,-2368.659014,-8580.269578,-222.061783
4252.353131,-1258.350101,-8044.002729,-518.144159
4252.353455,-1036.288319,-8810.098227,-1258.350101
4252.353779,-2146.597232,-7967.393179,-1554.432478
4252.354103,-1554.432478,-8350.440928,740.205942
4252.354428,148.041188,-8273.831378,814.226536
4252.354752,1332.370696,-8350.440928,222.061783
4252.355076,2294.638420,-9882.631924,-296.082377
4252.355400,2812.782580,-9039.926876,-814.226536
4252.355724,3552.988522,-8580.269578,0.000000
4252.356049,1184.329507,-8427.050478,-888.247130
4252.356373,888.247130,-8197.221829,-148.041188
4252.356697,1702.473667,-8120.612279,814.226536
4252.357021,0.000000,-7967.393179,740.205942
4252.357345,-592.164754,-8580.269578,-296.082377
4252.357670,740.205942,-8810.098227,-1184.329507
4252.357994,-1628.453072,-9652.803275,-1702.473667
4252.358318,-296.082377,-9652.803275,-2368.659014
4252.358642,-2294.638420,-8733.488677,-444.123565
4252.358966,-1480.411884,-8810.098227,592.164754
4252.359290,962.267725,-8120.612279,592.164754
4252.359615,2886.803174,-9193.145976,-1480.411884
4252.359939,2960.823768,-9729.412825,-740.205942
4252.360263,3182.885551,-9193.145976,-1184.329507
4252.360587,3849.070898,-8810.098227,-1036.288319
4252.360911,1406.391290,-8886.707777,-74.020594
4252.361236,-1110.308913,-8810.098227,0.000000
4252.361560,148.041188,-8273.831378,296.082377
4252.361884,-1110.308913,-8350.440928,-148.041188
4252.362208,-1110.308913,-8120.612279,-296.082377
4252.362532,-296.082377,-8886.707777,-962.267725
4252.362857,-1998.556043,-8427.050478,-1480.411884
4252.363181,-666.185348,-8733.488677,-1998.556043
4252.363505,148.041188,-9193.145976,-222.061783
4252.363829,962.267725,-8503.660028,-888.247130
4252.364153,2664.741391,-9422.974625,1332.370696
4252.364478,4071.132681,-7201.297681,-1184.329507
4252.364802,2146.597232,-10801.946522,444.123565
4252.365126,2516.700203,-7431.126331,-1998.556043
4252.365450,1702.473667,-10035.851024,222.061783
4252.365774,-666.185348,-7431.126331,-444.123565
4252.366099,222.061783,-8580.269578,1776.494261
4252.366423,-1850.514855,-7660.954980,444.123565
4252.366747,-1036.288319,-8197.221829,-296.082377
4252.367071,-1110.308913,-8350.440928,148.041188
4252.367395,-962.267725,-8886.707777,-888.247130
4252.367720,518.144159,-9039.926876,-1554.432478
4252.368044,-148.041188,-8120.612279,-1998.556043
4252.368368,-740.205942,-9652.803275,740.205942
4252.368692,1184.329507,-7507.735880,0.000000
4252.369016,1480.411884,-9116.536426,1332.370696
4252.369340,3701.029710,-8810.098227,222.061783
4252.369664,2812.782580,-9499.584175,-962.267725
4252.369989,2590.720797,-9193.145976,-1184.329507
4252.370313,-222.061783,-9422.974625,0.000000
4252.370637,-2146.597232,-7354.516781,222.061783
4252.370961,-2368.659014,-8197.221829,1332.370696
4252.371285,148.041188,-8503.660028,-148.041188
4252.371609,-1258.350101,-8810.098227,370.102971
4252.371933,-3108.864956,-7967.393179,-1702.473667
4252.372257,-1554.432478,-9039.926876,-814.226536
4252.372582,-2146.597232,-7124.688131,-962.267725
4252.372906,-814.226536,-8656.879127,296.082377
4252.373230,2516.700203,-8197.221829,592.164754
4252.373554,2812.782580,-8350.440928,370.102971
4252.373878,2516.700203,-7660.954980,74.020594
4252.374202,3849.070898,-9269.755526,-148.041188
4252.374526,3034.844362,-9116.536426,-1924.535449
4252.374851,1332.370696,-10495.508323,296.082377
4252.375175,-444.123565,-7354.516781,-444.123565
4252.375499,-1702.473667,-8886.707777,1332.370696
4252.375823,-2886.803174,-7048.078582,-296.082377
4252.376147,-1110.308913,-8656.879127,148.041188
4252.376471,-1554.432478,-7890.783629,-1776.494261
4252.376795,-962.267725,-9652.803275,-1184.329507
4252.377119,-296.082377,-7967.393179,-2294.638420
4252.377444,962.267725,-8810.098227,-1332.370696
4252.377768,518.144159,-9269.755526,444.123565
4252.378092,2886.803174,-8120.612279,-740.205942
4252.378416,1406.391290,-10189.070123,0.000000
4252.378740,2516.700203,-9499.584175,296.082377
4252.379064,1998.556043,-8886.707777,-888.247130
4252.379388,1702.473667,-9346.365076,-1036.288319
4252.379712,-814.226536,-9422.974625,296.082377
4252.380037,-518.144159,-8503.660028,740.205942
4252.380361,-888.247130,-8350.440928,592.164754
4252.380685,-1258.350101,-7660.954980,0.000000
4252.381009,0.000000,-9269.755526,0.000000
4252.381333,888.247130,-8350.440928,-2368.659014
4252.381657,-962.267725,-9346.365076,-518.144159
4252.381981,-3256.906145,-7737.564530,-2146.597232
4252.382305,444.123565,-9039.926876,888.247130
4252.382630,74.020594,-7814.174080,74.020594
4252.382954,1850.514855,-9806.022374,1184.329507
4252.383278,2220.617826,-9269.755526,-962.267725
4252.383602,2960.823768,-10035.851024,-444.123565
4252.383926,1924.535449,-9882.631924,-1184.329507
4252.384250,1332.370696,-8656.879127,-1110.308913
4252.384574,-1036.288319,-9269.755526,518.144159
4252.384898,-1480.411884,-7584.345430,222.061783
4252.385223,-1628.453072,-8197.221829,1554.432478
4252.385547,-296.082377,-7354.516781,-1258.350101
4252.385871,370.102971,-9806.022374,-740.205942
4252.386195,0.000000,-8044.002729,-1332.370696
4252.386519,222.061783,-8273.831378,-1332.370696
4252.386843,148.041188,-7048.078582,-518.144159
4252.387167,962.267725,-8963.317327,1184.329507
4252.387491,2960.823768,-7890.783629,0.000000
4252.387816,2368.659014,-8350.440928,444.123565
4252.388140,2442.679609,-9116.536426,-148.041188
4252.388464,2368.659014,-8427.050478,-740.205942
4252.388788,2516.700203,-9193.145976,-444.123565
4252.389112,444.123565,-8120.612279,-518.144159
4252.389436,-592.164754,-7814.174080,592.164754
4252.389760,-1332.370696,-8273.831378,888.247130
4252.390084,-1554.432478,-7967.393179,296.082377
4252.390409,-296.082377,-8886.707777,-814.226536
4252.390733,-1184.329507,-7737.564530,-1998.556043
4252.391057,-1184.329507,-9422.974625,-518.144159
4252.391381,-962.267725,-7890.783629,-1850.514855
4252.391705,-148.041188,-9422.974625,74.020594
4252.392029,370.102971,-7890.783629,-888.247130
4252.392353,814.226536,-9193.145976,1036.288319
4252.392678,1036.288319,-7354.516781,-1184.329507
4252.393002,2886.803174,-9346.365076,592.164754
4252.393326,1998.556043,-9193.145976,-666.185348
4252.393650,1998.556043,-9039.926876,-444.123565
4252.393974,814.226536,-8503.660028,0.000000
4252.394298,0.000000,-8120.612279,666.185348
4252.394622,-148.041188,-8656.879127,-148.041188
4252.394946,1258.350101,-8656.879127,592.164754
4252.395271,518.144159,-9116.536426,-592.164754
4252.395595,-296.082377,-8044.002729,-2220.617826
4252.395919,-962.267725,-8580.269578,-2146.597232
4252.396243,-1554.432478,-8350.440928,-666.185348
4252.396567,-740.205942,-7890.783629,296.082377
4252.396891,-740.205942,-7890.783629,-296.082377
4252.397215,740.205942,-9576.193725,-518.144159
4252.397539,2664.741391,-9193.145976,0.000000
4252.397864,2368.659014,-8427.050478,-1258.350101
4252.398188,2738.761985,-8810.098227,-1036.288319
4252.398512,0.000000,-8273.831378,666.185348
4252.398836,814.226536,-8350.440928,370.102971
4252.399160,666.185348,-9269.755526,0.000000
4252.399484,-74.020594,-8656.879127,592.164754
4252.399808,-1036.288319,-7431.126331,-518.144159
4252.400132,-518.144159,-9269.755526,-1036.288319
4252.400457,-1184.329507,-8503.660028,-1554.432478
4252.400781,-1702.473667,-8427.050478,-1628.453072
4252.401105,0.000000,-8273.831378,-222.061783
4252.401429,-740.205942,-8197.221829,74.020594
4252.401753,1924.535449,-8350.440928,0.000000
4252.402077,2590.720797,-8197.221829,444.123565
4252.402401,2368.659014,-9576.193725,-814.226536
4252.402725,3775.050304,-9576.193725,-1184.329507
4252.403050,2072.576638,-8197.221829,-222.061783
4252.403374,-740.205942,-7814.174080,148.041188
4252.403698,2442.679609,-9422.974625,2146.597232
4252.404022,962.267725,-8120.612279,222.061783
4252.404346,-1480.411884,-8886.707777,-222.061783
4252.404670,666.185348,-7201.297681,-1332.370696
4252.404994,-2294.638420,-8580.269578,-740.205942
4252.405318,-1850.514855,-8733.488677,-592.164754
4252.405643,-888.247130,-7814.174080,-370.102971
4252.405967,-1110.308913,-8580.269578,370.102971
4252.406291,-296.082377,-8810.098227,518.144159
4252.406615,2886.803174,-7584.345430,-1110.308913
4252.406939,5403.503377,-10112.460574,-740.205942
4252.407263,3552.988522,-8656.879127,-1258.350101
4252.407587,2960.823768,-9346.365076,-592.164754
4252.407911,1480.411884,-8273.831378,-740.205942
4252.408236,-296.082377,-8810.098227,1036.288319
4252.408560,-518.144159,-7277.907231,444.123565
4252.408884,-222.061783,-8733.488677,0.000000
4252.409208,-518.144159,-8197.221829,-518.144159
4252.409532,-2368.659014,-8120.612279,-1850.514855
4252.409856,-2516.700203,-8810.098227,-1184.329507
4252.410180,-1258.350101,-7354.516781,-1258.350101
4252.410504,74.020594,-7584.345430,0.000000
4252.410829,814.226536,-9039.926876,-296.082377
4252.411153,3478.967927,-9039.926876,-296.082377
4252.411477,2442.679609,-9499.584175,-444.123565
4252.411801,2516.700203,-8886.707777,-370.102971
4252.412125,2960.823768,-8656.879127,-1628.453072
4252.412449,1110.308913,-9729.412825,222.061783
4252.412773,1258.350101,-8810.098227,-370.102971
4252.413098,-592.164754,-9269.755526,-666.185348
4252.413422,-370.102971,-9652.803275,-444.123565
4252.413746,-1998.556043,-7507.735880,-814.226536
4252.414070,-1702.473667,-8963.317327,222.061783
4252.414394,-1480.411884,-7584.345430,-1998.556043
4252.414718,-444.123565,-8963.317327,-1036.288319
4252.415042,-814.226536,-7277.907231,-518.144159
4252.415366,-814.226536,-9039.926876,1776.494261
4252.415691,3108.864956,-7277.907231,-370.102971
4252.416015,4589.276840,-9499.584175,518.144159
4252.416339,4663.297435,-8886.707777,-296.082377
4252.416663,4145.153275,-10342.289223,-370.102971
4252.416987,1628.453072,-9729.412825,-592.164754
4252.417311,-592.164754,-8886.707777,-444.123565
4252.417635,-1406.391290,-8120.612279,592.164754
4252.417959,-2516.700203,-8656.879127,222.061783
4252.418284,-3775.050304,-8810.098227,1036.288319
4252.418608,-3330.926739,-7354.516781,0.000000
4252.418932,-3034.844362,-8044.002729,-148.041188
4252.419256,-1184.329507,-7890.783629,-2442.679609
4252.419580,0.000000,-7201.297681,-518.144159
4252.419904,1258.350101,-7890.783629,74.020594
4252.420228,3404.947333,-8963.317327,666.185348
4252.420552,4071.132681,-8503.660028,-444.123565
4252.420877,3256.906145,-9882.631924,814.226536
4252.421201,4737.318029,-8350.440928,-296.082377
4252.421525,518.144159,-8350.440928,-518.144159
4252.421849,1110.308913,-9116.536426,-962.267725
4252.422173,518.144159,-8810.098227,666.185348
4252.422497,-2368.659014,-7737.564530,592.164754
4252.422821,-2220.617826,-6894.859482,296.082377
4252.423145,-444.123565,-7431.126331,444.123565
4252.423470,-1702.473667,-8044.002729,-1110.308913
4252.423794,518.144159,-7660.954980,-740.205942
4252.424118,-962.267725,-7890.783629,-2590.720797
4252.424442,1036.288319,-9193.145976,-296.082377
4252.424766,518.144159,-8580.269578,0.000000
4252.425090,1924.535449,-9806.022374,-814.226536
4252.425414,3256.906145,-9729.412825,74.020594
4252.425738,2294.638420,-9652.803275,-370.102971
4252.426063,3701.029710,-9269.755526,-148.041188
4252.426387,148.041188,-7660.954980,-1258.350101
4252.426711,-1850.514855,-8810.098227,0.000000
4252.427035,-2886.803174,-8503.660028,0.000000
4252.427359,-2072.576638,-7967.393179,1406.391290
4252.427683,0.000000,-7124.688131,-1258.350101
4252.428007,-1554.432478,-10418.898773,74.020594
4252.428331,-2664.741391,-7890.783629,-2442.679609
4252.428656,814.226536,-9346.365076,-888.247130
4252.428980,-1184.329507,-7814.174080,-1924.535449
4252.429304,962.267725,-9193.145976,148.041188
4252.429628,74.020594,-8427.050478,592.164754
4252.429952,1702.473667,-8656.879127,74.020594
4252.430276,2072.576638,-9882.631924,666.185348
4252.430600,2072.576638,-7507.735880,-888.247130
4252.430925,2294.638420,-9269.755526,-222.061783
4252.431249,1702.473667,-8733.488677,-1850.514855
4252.431573,-370.102971,-9269.755526,592.164754
4252.431897,666.185348,-7967.393179,148.041188
4252.432221,-1184.329507,-8350.440928,592.164754
4252.432545,-888.247130,-8503.660028,-888.247130
4252.432869,-1406.391290,-8656.879127,-740.205942
4252.433193,-1480.411884,-8886.707777,-1776.494261
4252.433518,-740.205942,-7814.174080,-1924.535449
4252.433842,444.123565,-8963.317327,0.000000
4252.434166,-148.041188,-8044.002729,74.020594
4252.434490,2960.823768,-9269.755526,518.144159
4252.434814,1924.535449,-9116.536426,0.000000
4252.435138,6217.729913,-9346.365076,296.082377
4252.435462,1776.494261,-8120.612279,-296.082377
4252.435786,2368.659014,-8273.831378,-370.102971
4252.436111,370.102971,-8273.831378,-296.082377
4252.436435,-2146.597232,-9729.412825,1184.329507
4252.436759,-1924.535449,-8120.612279,-444.123565
4252.437083,-888.247130,-8273.831378,1110.308913
4252.437407,-2220.617826,-7660.954980,-1628.453072
4252.437731,-1332.370696,-9499.584175,444.123565
4252.438055,-1110.308913,-7737.564530,-1850.514855
4252.438379,0.000000,-9116.536426,-444.123565
4252.438704,814.226536,-7277.907231,296.082377
4252.439028,1628.453072,-8810.098227,1184.329507
4252.439352,1998.556043,-8503.660028,-370.102971
4252.439676,3182.885551,-9039.926876,0.000000
4252.440000,2146.597232,-9422.974625,888.247130
4252.440324,1776.494261,-8580.269578,-740.205942
4252.440648,1480.411884,-8580.269578,370.102971
4252.440972,-518.144159,-8656.879127,444.123565
4252.441297,0.000000,-8886.707777,1258.350101
4252.441621,0.000000,-8503.660028,296.082377
4252.441945,222.061783,-7967.393179,-1554.432478
4252.442269,-1628.453072,-8810.098227,-222.061783
4252.442593,-1406.391290,-7967.393179,-1406.391290
4252.442917,-1480.411884,-8886.707777,-962.267725
4252.443241,0.000000,-7890.783629,-1850.514855
4252.443565,370.102971,-9269.755526,1184.329507
4252.443890,1110.308913,-7354.516781,74.020594
4252.444214,3108.864956,-8733.488677,0.000000
4252.444538,3997.112087,-9729.412825,-1110.308913
4252.444862,2960.823768,-8886.707777,-444.123565
4252.445186,1776.494261,-9499.584175,222.061783
4252.445510,888.247130,-7277.907231,-1998.556043
4252.445834,666.185348,-8580.269578,1480.411884
4252.446158,296.082377,-8427.050478,-666.185348
4252.446483,-962.267725,-8427.050478,74.020594
4252.446807,-1924.535449,-7354.516781,-1776.494261
4252.447131,-2146.597232,-9882.631924,148.041188
4252.447455,-1332.370696,-7584.345430,-2590.720797
4252.447779,-962.267725,-9422.974625,-2220.617826
4252.448103,-1110.308913,-9346.365076,-296.082377
4252.448427,814.226536,-8963.317327,-666.185348
4252.448751,2220.617826,-9269.755526,-666.185348
4252.449076,2146.597232,-8810.098227,-296.082377
4252.449400,2590.720797,-9576.193725,222.061783
4252.449724,1110.308913,-8120.612279,-1406.391290
4252.450048,2368.659014,-9269.755526,296.082377
4252.450372,888.247130,-8120.612279,-592.164754
4252.450696,518.144159,-9652.803275,222.061783
4252.451020,74.020594,-8273.831378,148.041188
4252.451345,1480.411884,-8503.660028,222.061783
4252.451669,-814.226536,-7967.393179,-1850.514855
4252.451993,-962.267725,-10265.679673,-148.041188
4252.452317,-888.247130,-7890.783629,-2368.659014
4252.452641,-1628.453072,-9039.926876,-444.123565
4252.452965,-1258.350101,-8044.002729,-444.123565
4252.453289,0.000000,-8273.831378,1406.391290
4252.453613,1998.556043,-7890.783629,-222.061783
4252.453938,2146.597232,-9346.365076,-444.123565
4252.454262,3849.070898,-8963.317327,666.185348
4252.454586,1480.411884,-8197.221829,0.000000
4252.454910,2220.617826,-9269.755526,-592.164754
4252.455234,444.123565,-8350.440928,888.247130
4252.455558,444.123565,-9116.536426,1332.370696
4252.455882,0.000000,-7890.783629,-962.267725
4252.456206,666.185348,-8886.707777,518.144159
4252.456531,-4219.173869,-7507.735880,0.000000
4252.456855,-1480.411884,-7814.174080,-1258.350101
4252.457179,-4219.173869,-8044.002729,-1924.535449
4252.457503,-1184.329507,-8427.050478,1036.288319
4252.457827,1036.288319,-8503.660028,0.000000
4252.458151,2590.720797,-8273.831378,296.082377
4252.458475,1406.391290,-8427.050478,592.164754
4252.458799,5033.400406,-7890.783629,-962.267725
4252.459124,3034.844362,-9499.584175,-518.144159
4252.459448,3923.091493,-9422.974625,296.082377
4252.459772,1702.473667,-8963.317327,-444.123565
4252.460096,0.000000,-8197.221829,814.226536
4252.460420,-1924.535449,-8120.612279,592.164754
4252.460744,148.041188,-8427.050478,-888.247130
4252.461068,-740.205942,-8197.221829,0.000000
4252.461392,-666.185348,-8733.488677,-1554.432478
4252.461717,-666.185348,-7890.783629,-1554.432478
4252.462041,-1702.473667,-5362.668486,-518.144159
4252.462365,1258.350101,-9116.536426,666.185348
4252.462689,2812.782580,-8810.098227,-296.082377
4252.463013,4589.276840,-8273.831378,-888.247130
4252.463337,4071.132681,-10418.898773,-962.267725
4252.463661,3478.967927,-9116.536426,296.082377
4252.463985,2072.576638,-9116.536426,-1110.308913
4252.464310,3034.844362,-11108.384721,-444.123565
4252.464634,-2146.597232,-7354.516781,-888.247130
4252.464958,-1850.514855,-10418.898773,1776.494261
4252.465282,-3923.091493,-7737.564530,-962.267725
4252.465606,-814.226536,-9039.926876,-296.082377
4252.465930,-2590.720797,-8503.660028,-1480.411884
4252.466254,-1184.329507,-8427.050478,-592.164754
4252.466578,-888.247130,-6818.249932,-2590.720797
4252.466903,1628.453072,-8503.660028,666.185348
4252.467227,1554.432478,-8503.660028,0.000000
4252.467551,3775.050304,-10265.679673,-814.226536
4252.467875,4737.318029,-9652.803275,-740.205942
4252.468199,1776.494261,-8503.660028,222.061783
4252.468523,1998.556043,-9959.241474,-518.144159
4252.468847,-148.041188,-8120.612279,-1480.411884
4252.469172,-148.041188,-9959.241474,1184.329507
4252.469496,-3552.988522,-8120.612279,148.041188
4252.469820,-2146.597232,-8810.098227,444.123565
4252.470144,-814.226536,-7048.078582,-1554.432478
4252.470469,888.247130,-9422.974625,0.000000
4252.470793,-518.144159,-7737.564530,-2590.720797
4252.471117,888.247130,-8656.879127,-962.267725
4252.471441,1258.350101,-7277.907231,-740.205942
4252.471766,518.144159,-7814.174080,-370.102971
4252.472090,2664.741391,-9193.145976,740.205942
4252.472414,1110.308913,-8197.221829,-222.061783
4252.472739,3404.947333,-10955.165621,-518.144159
4252.473063,2072.576638,-9422.974625,-962.267725
4252.473387,1332.370696,-9806.022374,296.082377
4252.473711,-2886.803174,-7584.345430,-370.102971
4252.474036,-1554.432478,-8350.440928,1036.288319
4252.474360,-1406.391290,-7507.735880,740.205942
4252.474684,666.185348,-8810.098227,1776.494261
4252.475008,222.061783,-6818.249932,-1480.411884
4252.475333,-296.082377,-9422.974625,-1184.329507
4252.475657,-1406.391290,-8197.221829,-1628.453072
4252.475981,0.000000,-8044.002729,-814.226536
4252.476306,1406.391290,-7967.393179,-296.082377
4252.476630,962.267725,-8656.879127,1776.494261
4252.476954,1628.453072,-7814.174080,0.000000
4252.477278,666.185348,-8963.317327,74.020594
4252.477603,3256.906145,-9193.145976,148.041188
4252.477927,1850.514855,-9806.022374,296.082377
4252.478251,1036.288319,-9193.145976,-1554.432478
4252.478576,1258.350101,-7507.735880,518.144159
4252.478900,1258.350101,-8120.612279,1702.473667
4252.479224,-518.144159,-7814.174080,444.123565
4252.479548,1110.308913,-7967.393179,-592.164754
4252.479873,148.041188,-9116.536426,-1110.308913
4252.480197,-1850.514855,-8350.440928,-2368.659014
4252.480521,-1554.432478,-8350.440928,-666.185348
4252.480845,-1110.308913,-7431.126331,-370.102971
4252.481170,-1258.350101,-8963.317327,1036.288319
4252.481494,1924.535449,-7431.126331,-814.226536
4252.481818,740.205942,-8427.050478,1332.370696
4252.482143,1702.473667,-8197.221829,-1850.514855
4252.482467,2220.617826,-9116.536426,222.061783
4252.482791,3552.988522,-9729.412825,-740.205942
4252.483115,1110.308913,-8733.488677,-814.226536
4252.483440,592.164754,-9193.145976,888.247130
4252.483764,888.247130,-8886.707777,-592.164754
4252.484088,0.000000,-9576.193725,666.185348
4252.484412,-1258.350101,-7814.174080,-1776.494261
4252.484737,-888.247130,-9806.022374,518.144159
4252.485061,-3034.844362,-6971.469032,-1554.432478
4252.485385,-814.226536,-8963.317327,0.000000
4252.485710,-370.102971,-7584.345430,-1554.432478
4252.486034,1110.308913,-9729.412825,1110.308913
4252.486358,2072.576638,-8197.221829,-1036.288319
4252.486682,2886.803174,-10035.851024,-296.082377
4252.487007,1702.473667,-9576.193725,-666.185348
4252.487331,2516.700203,-10035.851024,-740.205942
4252.487655,1998.556043,-9576.193725,-1258.350101
4252.487980,-296.082377,-8810.098227,222.061783
4252.488304,-1406.391290,-9193.145976,1184.329507
4252.488628,-296.082377,-8580.269578,0.000000
4252.488952,2294.638420,-8886.707777,0.000000
4252.489277,-1036.288319,-7967.393179,-814.226536
4252.489601,-2220.617826,-8503.660028,-740.205942
4252.489925,-1924.535449,-6894.859482,-814.226536
4252.490249,296.082377,-9652.803275,74.020594
4252.490574,222.061783,-7048.078582,-1036.288319
4252.490898,3182.885551,-9576.193725,1332.370696
4252.491222,1406.391290,-7507.735880,-148.041188
4252.491547,2368.659014,-10495.508323,-444.123565
4252.491871,1258.350101,-9729.412825,-740.205942
4252.492195,1406.391290,-9576.193725,-518.144159
4252.492519,-1332.370696,-7814.174080,-1480.411884
4252.492844,-370.102971,-8963.317327,1554.432478
4252.493168,814.226536,-7584.345430,1480.411884
4252.493492,222.061783,-7814.174080,-740.205942
4252.493816,-296.082377,-7584.345430,-518.144159
4252.494141,0.000000,-7890.783629,-444.123565
4252.494465,-222.061783,-7354.516781,-962.267725
4252.494789,-1036.288319,-7584.345430,-1332.370696
4252.495114,0.000000,-8273.831378,-222.061783
4252.495438,1184.329507,-8656.879127,814.226536
4252.495762,1776.494261,-8656.879127,-222.061783
4252.496086,4811.338623,-8427.050478,0.000000
4252.496411,1628.453072,-8733.488677,-814.226536
4252.496735,814.226536,-9499.584175,-148.041188
4252.497059,666.185348,-8503.660028,-962.267725
4252.497384,-962.267725,-8886.707777,-148.041188
4252.497708,-1998.556043,-9499.584175,888.247130
4252.498032,-2738.761985,-7354.516781,-370.102971
4252.498356,-222.061783,-9652.803275,-296.082377
4252.498681,-2738.761985,-7584.345430,-1628.453072
4252.499005,-1406.391290,-9576.193725,-222.061783
4252.499329,-148.041188,-7277.907231,-1480.411884
4252.499653,-1406.391290,-8656.879127,-888.247130
4252.499978,1110.308913,-8580.269578,-1110.308913
4252.500302,2368.659014,-9652.803275,1110.308913
4252.500626,1998.556043,-7737.564530,-222.061783
4252.500951,5847.626942,-9116.536426,-370.102971
4252.501275,962.267725,-9039.926876,444.123565
4252.501599,222.061783,-8350.440928,-148.041188
4252.501923,2368.659014,-8810.098227,74.020594
4252.502248,-1406.391290,-7890.783629,370.102971
4252.502572,888.247130,-8273.831378,1036.288319
4252.502896,1628.453072,-7201.297681,-222.061783
4252.503220,-1998.556043,-7737.564530,-296.082377
4252.503545,444.123565,-8963.317327,-740.205942
4252.503869,0.000000,-7507.735880,-2738.761985
4252.504193,-296.082377,-8656.879127,-296.082377
4252.504518,-1702.473667,-8273.831378,-1480.411884
4252.504842,888.247130,-9422.974625,740.205942
4252.505166,2368.659014,-8197.221829,-444.123565
4252.505490,1628.453072,-9269.755526,-444.123565
4252.505815,1776.494261,-10112.460574,370.102971
4252.506139,1480.411884,-8810.098227,-592.164754
4252.506463,1258.350101,-9346.365076,-370.102971
4252.506788,518.144159,-8044.002729,-962.267725
4252.507112,-666.185348,-9806.022374,296.082377
4252.507436,-666.185348,-8427.050478,444.123565
4252.507760,888.247130,-9039.926876,-592.164754
4252.508085,-1110.308913,-8273.831378,-962.267725
4252.508409,-2220.617826,-7660.954980,-666.185348
4252.508733,74.020594,-8733.488677,-1258.350101
4252.509057,-222.061783,-7967.393179,-740.205942
4252.509382,-518.144159,-7967.393179,0.000000
4252.509706,2442.679609,-9193.145976,0.000000
4252.510030,1110.308913,-9422.974625,148.041188
4252.510355,1998.556043,-9116.536426,-518.144159
4252.510679,2590.720797,-9806.022374,740.205942
4252.511003,1332.370696,-7507.735880,-370.102971
4252.511327,2072.576638,-9269.755526,0.000000
4252.511652,-1628.453072,-9346.365076,74.020594
4252.511976,-1036.288319,-9039.926876,888.247130
4252.512300,-2516.700203,-8350.440928,0.000000
4252.512625,-1036.288319,-7967.393179,-1036.288319
4252.512949,814.226536,-8810.098227,148.041188
4252.513273,0.000000,-7814.174080,-1406.391290
4252.513597,-296.082377,-8044.002729,-666.185348
4252.513922,-296.082377,-6971.469032,740.205942
4252.514246,2590.720797,-9193.145976,814.226536
4252.514570,1480.411884,-7890.783629,0.000000
4252.514894,1776.494261,-8810.098227,0.000000
4252.515219,2590.720797,-8963.317327,370.102971
4252.515543,2146.597232,-8733.488677,-962.267725
4252.515867,-1110.308913,-9499.584175,-370.102971
4252.516192,592.164754,-9269.755526,0.000000
4252.516516,-1776.494261,-8427.050478,740.205942
4252.516840,-1258.350101,-7967.393179,0.000000
4252.517164,-296.082377,-6818.249932,370.102971
4252.517489,-444.123565,-8810.098227,0.000000
4252.517813,-1924.535449,-7660.954980,-2368.659014
4252.518137,0.000000,-8886.707777,-444.123565
4252.518461,-370.102971,-7431.126331,-2294.638420
4252.518786,1406.391290,-8427.050478,1184.329507
4252.519110,666.185348,-7277.907231,-296.082377
4252.519434,2368.659014,-8733.488677,740.205942
4252.519759,2368.659014,-9346.365076,-740.205942
4252.520083,1406.391290,-8044.002729,222.061783
4252.520407,3997.112087,-9116.536426,-222.061783
4252.520731,74.020594,-8197.221829,-2442.679609
4252.521056,1036.288319,-10878.556072,2368.659014
4252.521380,518.144159,-7124.688131,-1776.494261
4252.521704,-962.267725,-10035.851024,1480.411884
4252.522029,-2442.679609,-6435.202183,-1554.432478
4252.522353,0.000000,-8273.831378,-296.082377
4252.522677,-1480.411884,-7584.345430,-2072.576638
4252.523001,-518.144159,-7890.783629,-1036.288319
4252.523326,-222.061783,-8886.707777,-962.267725
4252.523650,888.247130,-8350.440928,-444.123565
4252.523974,2738.761985,-9346.365076,-148.041188
4252.524298,1184.329507,-9729.412825,-1258.350101
4252.524623,2368.659014,-9729.412825,0.000000
4252.524947,148.041188,-8503.660028,-888.247130
4252.525271,2146.597232,-10801.946522,-740.205942
4252.525596,-1258.350101,-8427.050478,-1110.308913
4252.525920,-2886.803174,-10265.679673,1036.288319
4252.526244,-1924.535449,-7048.078582,-1406.391290
4252.526568,-222.061783,-9806.022374,518.144159
4252.526893,-814.226536,-7354.516781,-740.205942
4252.527217,0.000000,-8886.707777,-814.226536
4252.527541,222.061783,-7048.078582,-1998.556043
4252.527865,592.164754,-9039.926876,-814.226536
4252.528190,1850.514855,-7124.688131,-592.164754
4252.528514,3627.009116,-9116.536426,592.164754
4252.528838,2368.659014,-7890.783629,-1184.329507
4252.529163,2738.761985,-11108.384721,296.082377
4252.529487,1110.308913,-8273.831378,-1184.329507
4252.529811,1776.494261,-10725.336972,592.164754
4252.530135,-740.205942,-7584.345430,-1184.329507
4252.530460,-1702.473667,-9193.145976,1554.432478
4252.530784,-296.082377,-7660.954980,-888.247130
4252.531108,888.247130,-9729.412825,222.061783
4252.531433,-740.205942,-7967.393179,-2294.638420
4252.531757,-1628.453072,-9422.974625,296.082377
4252.532081,-148.041188,-8273.831378,-2294.638420
4252.532405,-444.123565,-8044.002729,-518.144159
4252.532730,444.123565,-8886.707777,-592.164754
4252.533054,-222.061783,-8810.098227,148.041188
4252.533378,888.247130,-9499.584175,370.102971
4252.533702,0.000000,-8273.831378,-666.185348
4252.534027,2220.617826,-10648.727422,1850.514855
4252.534351,0.000000,-6818.249932,-1480.411884
4252.534675,1258.350101,-10418.898773,444.123565
4252.535000,888.247130,-7124.688131,-1332.370696
4252.535324,-592.164754,-9116.536426,888.247130
4252.535648,444.123565,-8427.050478,444.123565
4252.535972,148.041188,-8044.002729,0.000000
4252.536297,0.000000,-9652.803275,-296.082377
4252.536621,-1406.391290,-7507.735880,-1480.411884
4252.536945,74.020594,-9269.755526,74.020594
4252.537269,-518.144159,-6894.859482,-1110.308913
4252.537594,518.144159,-8503.660028,0.000000
4252.537918,-148.041188,-8810.098227,1554.432478
4252.538242,1998.556043,-9039.926876,0.000000
4252.538567,3701.029710,-8733.488677,-814.226536
4252.538891,1850.514855,-8810.098227,-296.082377
4252.539215,2368.659014,-8963.317327,-814.226536
4252.539539,1480.411884,-8733.488677,-740.205942
4252.539864,1036.288319,-9116.536426,296.082377
4252.540188,-296.082377,-8886.707777,-296.082377
4252.540512,-1184.329507,-7890.783629,-592.164754
4252.540837,-1184.329507,-8197.221829,296.082377
4252.541161,-222.061783,-7737.564530,-1406.391290
4252.541485,-1850.514855,-8427.050478,-888.247130
4252.541809,444.123565,-8580.269578,-888.247130
4252.542134,-370.102971,-7277.907231,-592.164754
4252.542458,0.000000,-8503.660028,0.000000
4252.542782,666.185348,-7201.297681,0.000000
4252.543106,5033.400406,-10725.336972,0.000000
4252.543431,2368.659014,-8656.879127,-1406.391290
4252.543755,1406.391290,-9576.193725,-370.102971
4252.544079,2516.700203,-9806.022374,-592.164754
4252.544404,-1850.514855,-9039.926876,-1554.432478
4252.544728,-666.185348,-10265.679673,74.020594
4252.545052,-1480.411884,-7584.345430,-814.226536
4252.545376,-814.226536,-9806.022374,370.102971
4252.545701,-518.144159,-7277.907231,-666.185348
4252.546025,0.000000,-8197.221829,-370.102971
4252.546349,-592.164754,-8197.221829,-1480.411884
4252.546673,-962.267725,-9346.365076,-1480.411884
4252.546998,2590.720797,-8580.269578,-1406.391290
4252.547322,1776.494261,-9652.803275,-296.082377
4252.547646,444.123565,-8503.660028,74.020594
4252.547971,2072.576638,-8503.660028,296.082377
4252.548295,2516.700203,-8733.488677,-1036.288319
4252.548619,1258.350101,-9806.022374,-518.144159
4252.548943,666.185348,-7890.783629,-1036.288319
4252.549268,148.041188,-8580.269578,888.247130
4252.549592,-370.102971,-8120.612279,0.000000
4252.549916,-962.267725,-8656.879127,0.000000
4252.550241,1776.494261,-8427.050478,74.020594
4252.550565,0.000000,-7277.907231,-592.164754
4252.550889,-740.205942,-8810.098227,-1702.473667
4252.551213,-1702.473667,-7431.126331,-1776.494261
4252.551538,-814.226536,-8197.221829,148.041188
4252.551862,-1480.411884,-8963.317327,-1036.288319
4252.552186,370.102971,-8733.488677,370.102971
4252.552510,1332.370696,-9499.584175,-518.144159
4252.552835,3404.947333,-8733.488677,222.061783
4252.553159,2368.659014,-8273.831378,-962.267725
4252.553483,1554.432478,-7737.564530,-444.123565
4252.553808,1702.473667,-8810.098227,666.185348
4252.554132,592.164754,-8733.488677,962.267725
4252.554456,148.041188,-8733.488677,-888.247130
4252.554780,-814.226536,-7737.564530,222.061783
4252.555105,0.000000,-8810.098227,-666.185348
4252.555429,-1480.411884,-9193.145976,-518.144159
4252.555753,-1110.308913,-7967.393179,-1776.494261
4252.556078,-666.185348,-9193.145976,296.082377
4252.556402,-888.247130,-7201.297681,0.000000
4252.556726,222.061783,-9882.631924,1480.411884
4252.557050,2072.576638,-9346.365076,370.102971
4252.557375,4663.297435,-8273.831378,-296.082377
4252.557699,-888.247130,-8197.221829,-370.102971
4252.558023,5847.626942,-10035.851024,-888.247130
4252.558347,-1776.494261,-6665.030833,-1776.494261
4252.558672,1406.391290,-11568.042020,2590.720797
4252.558996,-1554.432478,-7048.078582,-1258.350101
4252.559320,-962.267725,-10878.556072,1554.432478
4252.559645,-1480.411884,-6894.859482,-888.247130
4252.559969,-814.226536,-9882.631924,-666.185348
4252.560293,-2146.597232,-7737.564530,-1776.494261
4252.560617,-888.247130,-8580.269578,-222.061783
4252.560942,0.000000,-7507.735880,-962.267725
4252.561266,444.123565,-8350.440928,74.020594
4252.561590,1850.514855,-8273.831378,666.185348
4252.561914,3552.988522,-8044.002729,-1110.308913
4252.562239,3256.906145,-10112.460574,-296.082377
4252.562563,2146.597232,-8656.879127,-1554.432478
4252.562887,3034.844362,-10342.289223,-1776.494261
4252.563212,888.247130,-9039.926876,-518.144159
4252.563536,-148.041188,-9959.241474,666.185348
4252.563860,-1850.514855,-7507.735880,-666.185348
4252.564184,-1258.350101,-8963.317327,518.144159
4252.564509,-2146.597232,-7201.297681,-1406.391290
4252.564833,-666.185348,-8580.269578,74.020594
4252.565157,0.000000,-6665.030833,-2220.617826
4252.565482,-1258.350101,-8350.440928,0.000000
4252.565806,518.144159,-6971.469032,-1332.370696
4252.566130,4145.153275,-8963.317327,1110.308913
4252.566454,2146.597232,-8120.612279,-1036.288319
4252.566779,4145.153275,-9652.803275,740.205942
4252.567103,2664.741391,-8963.317327,-814.226536
4252.567427,962.267725,-10725.336972,-1036.288319
4252.567751,666.185348,-9116.536426,-1924.535449
4252.568076,-370.102971,-9346.365076,666.185348
4252.568400,-1850.514855,-8810.098227,0.000000
4252.568724,-3182.885551,-8044.002729,296.082377
4252.569049,-1406.391290,-9499.584175,-1036.288319
4252.569373,-1924.535449,-7660.954980,-666.185348
4252.569697,-888.247130,-9422.974625,-1036.288319
4252.570021,-962.267725,-7354.516781,-1924.535449
4252.570346,814.226536,-9193.145976,-296.082377
4252.570670,-666.185348,-7584.345430,-592.164754
4252.570994,2294.638420,-9193.145976,370.102971
4252.571318,2738.761985,-7354.516781,-296.082377
4252.571642,2886.803174,-9729.412825,1110.308913
4252.571967,2294.638420,-8044.002729,-1406.391290
4252.572291,5847.626942,-9882.631924,518.144159
4252.572615,0.000000,-8120.612279,-296.082377
4252.572939,-296.082377,-8810.098227,-74.020594
4252.573264,0.000000,-8963.317327,1332.370696
4252.573588,-3108.864956,-8580.269578,518.144159
4252.573912,-814.226536,-6588.421283,-962.267725
4252.574236,-740.205942,-8810.098227,-1258.350101
4252.574560,-1332.370696,-9193.145976,-1036.288319
4252.574885,-1554.432478,-7201.297681,-148.041188
4252.575209,1110.308913,-8273.831378,-518.144159
4252.575533,2294.638420,-9193.145976,0.000000
4252.575857,1480.411884,-8503.660028,0.000000
4252.576181,3108.864956,-8810.098227,814.226536
4252.576506,3997.112087,-8810.098227,-740.205942
4252.576830,1850.514855,-9499.584175,-814.226536
4252.577154,888.247130,-9806.022374,-888.247130
4252.577478,-1332.370696,-8197.221829,444.123565
4252.577803,-1850.514855,-8656.879127,222.061783
4252.578127,-2146.597232,-8273.831378,0.000000
4252.578451,-1924.535449,-7507.735880,-148.041188
4252.578775,-1998.556043,-7507.735880,-740.205942
4252.579099,-2146.597232,-9193.145976,-518.144159
4252.579424,1776.494261,-7660.954980,-1850.514855
4252.579748,296.082377,-7814.174080,-1110.308913
4252.580072,1258.350101,-8273.831378,222.061783
4252.580396,2886.803174,-8656.879127,1036.288319
4252.580721,3108.864956,-8350.440928,-1702.473667
4252.581045,5107.421000,-10189.070123,666.185348
4252.581369,1628.453072,-9193.145976,-1480.411884
4252.581693,962.267725,-9346.365076,-444.123565
4252.582017,222.061783,-8427.050478,148.041188
4252.582342,-1776.494261,-9193.145976,296.082377
4252.582666,-1110.308913,-9269.755526,592.164754
4252.582990,-2442.679609,-7507.735880,222.061783
4252.583314,-740.205942,-9346.365076,-148.041188
4252.583639,-740.205942,-7431.126331,-1480.411884
4252.583963,-444.123565,-9116.536426,-740.205942
4252.584287,0.000000,-7277.907231,-1776.494261
4252.584611,1702.473667,-10265.679673,74.020594
4252.584935,2368.659014,-8427.050478,-148.041188
4252.585260,2146.597232,-8044.002729,1258.350101
4252.585584,3627.009116,-8427.050478,814.226536
4252.585908,666.185348,-9959.241474,-1332.370696
4252.586232,3256.906145,-10418.898773,-2516.700203
4252.586557,-1258.350101,-10725.336972,-1110.308913
4252.586881,-5329.482782,-8273.831378,962.267725
4252.587205,-1258.350101,-6894.859482,-1554.432478
4252.587529,-1850.514855,-10418.898773,1036.288319
4252.587853,-444.123565,-8580.269578,-888.247130
4252.588178,-592.164754,-7277.907231,-370.102971
4252.588502,-2146.597232,-7814.174080,-1036.288319
4252.588826,962.267725,-8120.612279,-1406.391290
4252.589150,888.247130,-7967.393179,-1258.350101
4252.589474,814.226536,-9806.022374,296.082377
4252.589799,0.000000,-8044.002729,0.000000
4252.590123,2442.679609,-9806.022374,-296.082377
4252.590447,1924.535449,-9039.926876,-1258.350101
4252.590771,2590.720797,-9652.803275,-222.061783
4252.591096,0.000000,-7890.783629,-1850.514855
4252.591420,-1554.432478,-8580.269578,1332.370696
4252.591744,-370.102971,-8044.002729,1036.288319
4252.592068,-888.247130,-8580.269578,592.164754
4252.592392,-666.185348,-7201.297681,444.123565
4252.592717,296.082377,-8503.660028,-962.267725
4252.593041,1628.453072,-8120.612279,-962.267725
4252.593365,518.144159,-8044.002729,-888.247130
4252.593689,222.061783,-7354.516781,-296.082377
4252.594014,0.000000,-9193.145976,0.000000
4252.594338,1628.453072,-8886.707777,222.061783
4252.594662,1332.370696,-8273.831378,1258.350101
4252.594986,1702.473667,-8427.050478,-148.041188
4252.595310,1924.535449,-9499.584175,0.000000
4252.595635,2960.823768,-8733.488677,-222.061783
4252.595959,-962.267725,-8120.612279,-1110.308913
4252.596283,-888.247130,-9193.145976,1702.473667
4252.596607,296.082377,-6971.469032,0.000000
4252.596932,-1776.494261,-9422.974625,666.185348
4252.597256,2886.803174,-9346.365076,-1776.494261
4252.597580,-2220.617826,-7431.126331,-1332.370696
4252.597904,-740.205942,-10189.070123,370.102971
4252.598228,-370.102971,-6818.249932,-3330.926739
4252.598553,0.000000,-9116.536426,888.247130
4252.598877,-592.164754,-8197.221829,0.000000
4252.599201,740.205942,-8963.317327,1110.308913
4252.599525,1110.308913,-8656.879127,-1776.494261
4252.599850,3701.029710,-9116.536426,814.226536
4252.600174,2072.576638,-8120.612279,-1554.432478
4252.600498,2368.659014,-9882.631924,-1554.432478
4252.600822,1702.473667,-7967.393179,-296.082377
4252.601146,-2072.576638,-9576.193725,444.123565
4252.601471,296.082377,-9193.145976,-444.123565
4252.601795,-518.144159,-8656.879127,222.061783
4252.602119,74.020594,-8044.002729,-888.247130
4252.602443,740.205942,-8197.221829,-370.102971
4252.602767,-148.041188,-7814.174080,-2664.741391
4252.603092,-370.102971,-9116.536426,148.041188
4252.603416,2516.700203,-8197.221829,-1480.411884
4252.603740,148.041188,-9806.022374,592.164754
4252.604064,592.164754,-8197.221829,-2294.638420
4252.604389,962.267725,-9576.193725,1332.370696
4252.604713,2368.659014,-8580.269578,-962.267725
4252.605037,1406.391290,-9652.803275,-592.164754
4252.605361,0.000000,-9499.584175,-740.205942
4252.605685,-1776.494261,-8273.831378,0.000000
4252.606010,-148.041188,-9499.584175,148.041188
4252.606334,-444.123565,-7737.564530,666.185348
4252.606658,740.205942,-8810.098227,-148.041188
4252.606982,0.000000,-6894.859482,-740.205942
4252.607307,-518.144159,-9422.974625,-592.164754
4252.607631,-962.267725,-6971.469032,-1998.556043
4252.607955,518.144159,-8886.707777,444.123565
4252.608279,-814.226536,-7277.907231,0.000000
4252.608603,444.123565,-10572.117872,1110.308913
4252.608928,1036.288319,-6894.859482,-740.205942
4252.609252,2590.720797,-10725.336972,888.247130
4252.609576,1776.494261,-7201.297681,-962.267725
4252.609900,296.082377,-9116.536426,-370.102971
4252.610225,2886.803174,-8656.879127,0.000000
4252.610549,962.267725,-7967.393179,814.226536
4252.610873,1406.391290,-7584.345430,-740.205942
4252.611197,518.144159,-8963.317327,74.020594
4252.611521,0.000000,-8044.002729,0.000000
4252.611846,-1406.391290,-8580.269578,-370.102971
4252.612170,-888.247130,-7890.783629,-888.247130
4252.612494,-2220.617826,-8197.221829,740.205942
4252.612818,-888.247130,-7277.907231,-888.247130
4252.613143,962.267725,-9499.584175,0.000000
4252.613467,2442.679609,-8273.831378,-740.205942
4252.613791,3775.050304,-7890.783629,370.102971
4252.614115,2220.617826,-7890.783629,-370.102971
4252.614439,1628.453072,-9806.022374,0.000000
4252.614764,740.205942,-7354.516781,0.000000
4252.615088,-1036.288319,-9269.755526,74.020594
4252.615412,-444.123565,-8963.317327,-518.144159
4252.615736,-1998.556043,-7814.174080,-666.185348
4252.616060,-1554.432478,-9729.412825,-296.082377
4252.616385,-962.267725,-8120.612279,-592.164754
4252.616709,-1702.473667,-9269.755526,74.020594
4252.617033,-3034.844362,-7507.735880,-1702.473667
4252.617357,74.020594,-8120.612279,0.000000
4252.617682,-814.226536,-7737.564530,-1554.432478
4252.618006,2590.720797,-9652.803275,296.082377
4252.618330,4219.173869,-8350.440928,-592.164754
4252.618654,3330.926739,-9576.193725,0.000000
4252.618978,2960.823768,-9116.536426,-444.123565
4252.619303,1554.432478,-8886.707777,-148.041188
4252.619627,1036.288319,-9806.022374,-592.164754
4252.619951,-518.144159,-7584.345430,-370.102971
4252.620275,0.000000,-10112.460574,74.020594
4252.620600,-666.185348,-7737.564530,0.000000
4252.620924,0.000000,-8580.269578,518.144159
4252.621248,-1480.411884,-7814.174080,-1480.411884
4252.621572,-1110.308913,-8810.098227,-1776.494261
4252.621896,-962.267725,-7814.174080,-666.185348
4252.622221,444.123565,-8733.488677,-518.144159
4252.622545,2072.576638,-9269.755526,0.000000
4252.622869,2516.700203,-8886.707777,-1110.308913
4252.623193,2590.720797,-8503.660028,222.061783
4252.623518,4367.215058,-9193.145976,296.082377
4252.623842,1776.494261,-8733.488677,-1332.370696
4252.624166,1110.308913,-8273.831378,-444.123565
4252.624490,-1850.514855,-7967.393179,296.082377
4252.624814,-666.185348,-10418.898773,592.164754
4252.625139,-1850.514855,-6588.421283,0.000000
4252.625463,-1332.370696,-9806.022374,444.123565
4252.625787,-2072.576638,-7814.174080,-1480.411884
4252.626111,74.020594,-9039.926876,-1110.308913
4252.626436,-1110.308913,-7660.954980,-1480.411884
4252.626760,-518.144159,-7660.954980,0.000000
4252.627084,1776.494261,-7584.345430,-74.020594
4252.627408,4367.215058,-8580.269578,814.226536
4252.627732,4071.132681,-8580.269578,74.020594
4252.628057,4441.235652,-9959.241474,-444.123565
4252.628381,1332.370696,-8886.707777,74.020594
4252.628705,2590.720797,-9039.926876,-814.226536
4252.629029,74.020594,-8580.269578,148.041188
4252.629353,-2072.576638,-8503.660028,1258.350101
4252.629678,-1480.411884,-7431.126331,296.082377
4252.630002,-518.144159,-7814.174080,148.041188
4252.630326,-888.247130,-7584.345430,-222.061783
4252.630650,814.226536,-8580.269578,-888.247130
4252.630975,592.164754,-8810.098227,-518.144159
4252.631299,-962.267725,-8273.831378,0.000000
4252.631623,1110.308913,-8963.317327,-444.123565
4252.631947,666.185348,-8963.317327,666.185348
4252.632271,2294.638420,-9116.536426,-740.205942
4252.632596,518.144159,-8580.269578,-518.144159
4252.632920,1702.473667,-9806.022374,-740.205942
4252.633244,1332.370696,-8886.707777,-1110.308913
4252.633568,592.164754,-8963.317327,296.082377
4252.633893,-1480.411884,-7507.735880,148.041188
4252.634217,1406.391290,-8580.269578,444.123565
4252.634541,-148.041188,-7967.393179,-1406.391290
4252.634865,1258.350101,-9269.755526,-444.123565
4252.635189,740.205942,-7890.783629,-518.144159
4252.635514,-2072.576638,-9039.926876,-1184.329507
4252.635838,-1924.535449,-8733.488677,-1480.411884
4252.636162,-370.102971,-8197.221829,0.000000
4252.636486,-518.144159,-9422.974625,-370.102971
4252.636811,0.000000,-8044.002729,-1036.288319
4252.637135,1776.494261,-9806.022374,-444.123565
4252.637459,1924.535449,-8503.660028,-888.247130
4252.637783,2886.803174,-9576.193725,0.000000
4252.638107,3923.091493,-8733.488677,-666.185348
4252.638432,1480.411884,-9729.412825,-666.185348
4252.638756,-1184.329507,-7124.688131,-518.144159
4252.639080,888.247130,-8886.707777,0.000000
4252.639404,370.102971,-8427.050478,-518.144159
4252.639729,-1110.308913,-9269.755526,-222.061783
4252.640053,-1258.350101,-8350.440928,-518.144159
4252.640377,-1776.494261,-8810.098227,-1480.411884
4252.640701,-1850.514855,-8580.269578,-740.205942
4252.641025,-2146.597232,-8733.488677,-740.205942
4252.641350,222.061783,-8810.098227,-370.102971
4252.641674,296.082377,-9116.536426,-296.082377
4252.641998,666.185348,-8963.317327,-814.226536
4252.642322,3849.070898,-9806.022374,148.041188
4252.642646,3849.070898,-8886.707777,-888.247130
4252.642971,2368.659014,-9576.193725,-370.102971
4252.643295,2294.638420,-8273.831378,-296.082377
4252.643619,1110.308913,-9269.755526,1110.308913
4252.643943,-666.185348,-7584.345430,222.061783
4252.644268,-1036.288319,-9116.536426,0.000000
4252.644592,-1924.535449,-8273.831378,-1110.308913
4252.644916,-2886.803174,-9039.926876,444.123565
4252.645240,-3701.029710,-7354.516781,-2886.803174
4252.645564,-518.144159,-9576.193725,1406.391290
4252.645889,-1554.432478,-5132.839837,-592.164754
4252.646213,1850.514855,-8886.707777,1184.329507
4252.646537,4071.132681,-7814.174080,-814.226536
4252.646861,3034.844362,-9576.193725,666.185348
4252.647186,4293.194464,-9346.365076,-1184.329507
4252.647510,2886.803174,-9039.926876,-1702.473667
4252.647834,4071.132681,-9576.193725,1184.329507
4252.648158,-6439.791695,-7201.297681,0.000000
4252.648482,0.000000,-10035.851024,1184.329507
4252.648807,-5255.462188,-5056.230287,-962.267725
4252.649131,-370.102971,-10955.165621,1406.391290
4252.649455,-3108.864956,-6741.640382,-666.185348
4252.649779,-2072.576638,-9499.584175,-1184.329507
4252.650104,-962.267725,-8197.221829,-962.267725
4252.650428,888.247130,-7507.735880,-296.082377
4252.650752,2590.720797,-9116.536426,1110.308913
4252.651076,3775.050304,-7354.516781,-296.082377
4252.651400,3552.988522,-9882.631924,-370.102971
4252.651725,3701.029710,-8886.707777,-148.041188
4252.652049,3997.112087,-9193.145976,444.123565
4252.652373,1998.556043,-8656.879127,-148.041188
4252.652697,-740.205942,-8503.660028,148.041188
4252.653022,-2368.659014,-8350.440928,222.061783
4252.653346,-6143.709319,-8733.488677,-1184.329507
4252.653670,-1406.391290,-9269.755526,592.164754
4252.653994,-4219.173869,-6894.859482,-814.226536
4252.654318,-2146.597232,-9882.631924,-370.102971
4252.654643,-740.205942,-7660.954980,-666.185348
4252.654967,1184.329507,-9346.365076,-1924.535449
4252.655291,2146.597232,-8273.831378,-666.185348
4252.655615,2812.782580,-7967.393179,-370.102971
4252.655939,5255.462188,-9576.193725,1184.329507
4252.656264,4071.132681,-7967.393179,-2146.597232
4252.656588,3701.029710,-11644.651570,-592.164754
4252.656912,888.247130,-8427.050478,-1110.308913
4252.657236,-296.082377,-9269.755526,444.123565
4252.657561,-148.041188,-8963.317327,-518.144159
4252.657885,-3404.947333,-8503.660028,-296.082377
4252.658209,-3330.926739,-8733.488677,-814.226536
4252.658533,-3108.864956,-7660.954980,-444.123565
4252.658857,-1110.308913,-8273.831378,518.144159
4252.659182,-1850.514855,-7431.126331,-1776.494261
4252.659506,1998.556043,-8120.612279,-1554.432478
4252.659830,0.000000,-9116.536426,-2812.782580
4252.660154,1480.411884,-8580.269578,888.247130
4252.660479,4663.297435,-8350.440928,-222.061783
4252.660803,2368.659014,-9806.022374,0.000000
4252.661127,2294.638420,-11414.822920,-962.267725
4252.661451,740.205942,-8580.269578,-1036.288319
4252.661775,-148.041188,-10342.289223,-1332.370696
4252.662100,-592.164754,-7354.516781,-740.205942
4252.662424,814.226536,-9576.193725,1110.308913
4252.662748,-3552.988522,-5898.935335,-666.185348
4252.663072,222.061783,-8656.879127,814.226536
4252.663397,-1406.391290,-7201.297681,-1036.288319
4252.663721,814.226536,-10035.851024,0.000000
4252.664045,-296.082377,-6435.202183,-2146.597232
4252.664369,888.247130,-9576.193725,1110.308913
4252.664693,2590.720797,-7277.907231,-592.164754
4252.665018,3849.070898,-9499.584175,888.247130
4252.665342,2812.782580,-9269.755526,-518.144159
4252.665666,1924.535449,-10189.070123,962.267725
4252.665990,2368.659014,-8656.879127,-518.144159
4252.666315,1184.329507,-9422.974625,-296.082377
4252.666639,222.061783,-8733.488677,-296.082377
4252.666963,-1184.329507,-8580.269578,518.144159
4252.667287,-1998.556043,-8044.002729,444.123565
4252.667611,-740.205942,-7814.174080,740.205942
4252.667936,-666.185348,-7507.735880,-444.123565
4252.668260,0.000000,-8503.660028,222.061783
4252.668584,2072.576638,-8044.002729,-2294.638420
4252.668908,370.102971,-8120.612279,-740.205942
4252.669232,1258.350101,-8810.098227,-592.164754
4252.669557,1406.391290,-8963.317327,0.000000
4252.669881,1036.288319,-8427.050478,-444.123565
4252.670205,518.144159,-8810.098227,-222.061783
4252.670529,2886.803174,-9269.755526,592.164754
4252.670854,296.082377,-7967.393179,-666.185348
4252.671178,444.123565,-9116.536426,-296.082377
4252.671502,-148.041188,-7277.907231,-296.082377
4252.671826,-1258.350101,-8273.831378,1480.411884
4252.672151,0.000000,-7201.297681,-1036.288319
4252.672475,1406.391290,-9576.193725,-148.041188
4252.672799,148.041188,-7814.174080,-370.102971
4252.673123,666.185348,-9039.926876,-962.267725
4252.673448,592.164754,-8273.831378,-1924.535449
4252.673772,888.247130,-8733.488677,-666.185348
4252.674096,-888.247130,-8120.612279,-888.247130
4252.674420,666.185348,-10342.289223,592.164754
4252.674745,1628.453072,-8503.660028,-740.205942
4252.675069,1924.535449,-8963.317327,74.020594
4252.675393,1036.288319,-7814.174080,-814.226536
4252.675717,1110.308913,-9806.022374,-962.267725
4252.676042,-888.247130,-8044.002729,-888.247130
4252.676366,148.041188,-7967.393179,1258.350101
4252.676690,-1036.288319,-8580.269578,0.000000
4252.677014,-518.144159,-7967.393179,370.102971
4252.677338,370.102971,-9346.365076,-1036.288319
4252.677663,296.082377,-8810.098227,-1036.288319
4252.677987,518.144159,-8656.879127,-592.164754
4252.678311,-1998.556043,-7967.393179,-2294.638420
4252.678635,-666.185348,-8963.317327,222.061783
4252.678960,1776.494261,-7431.126331,-370.102971
4252.679284,1924.535449,-9806.022374,0.000000
4252.679608,1110.308913,-8273.831378,-296.082377
4252.679932,444.123565,-8810.098227,962.267725
4252.680257,740.205942,-9116.536426,-148.041188
4252.680581,1554.432478,-9269.755526,-1258.350101
4252.680905,1110.308913,-8733.488677,0.000000
4252.681229,-296.082377,-7431.126331,296.082377
4252.681554,-518.144159,-8656.879127,0.000000
4252.681878,0.000000,-8427.050478,-962.267725
4252.682202,444.123565,-9039.926876,-148.041188
4252.682526,-1776.494261,-8197.221829,-962.267725
4252.682851,-962.267725,-8120.612279,-1110.308913
4252.683175,-370.102971,-7890.783629,-888.247130
4252.683499,444.123565,-6971.469032,592.164754
4252.683823,592.164754,-8427.050478,962.267725
4252.684148,1702.473667,-8120.612279,-740.205942
4252.684472,2072.576638,-9269.755526,0.000000
4252.684796,3404.947333,-8427.050478,74.020594
4252.685120,3256.906145,-10265.679673,296.082377
4252.685445,222.061783,-8197.221829,-444.123565
4252.685769,370.102971,-8503.660028,518.144159
4252.686093,-222.061783,-7354.516781,-444.123565
4252.686417,-1110.308913,-8733.488677,222.061783
4252.686742,-1184.329507,-7584.345430,-1184.329507
4252.687066,-1628.453072,-8886.707777,-296.082377
4252.687390,-2886.803174,-8350.440928,-888.247130
4252.687714,-1998.556043,-8580.269578,-592.164754
4252.688038,444.123565,-7814.174080,-1406.391290
4252.688363,1332.370696,-8810.098227,1702.473667
4252.688687,370.102971,-8427.050478,-1850.514855
4252.689011,4071.132681,-10725.336972,0.000000
4252.689335,3108.864956,-8963.317327,0.000000
4252.689660,1554.432478,-10418.898773,-148.041188
4252.689984,2072.576638,-8886.707777,-2146.597232
4252.690308,296.082377,-9499.584175,962.267725
4252.690632,-1036.288319,-7584.345430,-296.082377
4252.690957,740.205942,-8656.879127,-592.164754
4252.691281,-444.123565,-8044.002729,0.000000
4252.691605,-222.061783,-8886.707777,222.061783
4252.691929,-3775.050304,-7890.783629,-1332.370696
4252.692254,-1554.432478,-8733.488677,-370.102971
4252.692578,-888.247130,-9039.926876,-1036.288319
4252.692902,-296.082377,-8350.440928,-1184.329507
4252.693226,1406.391290,-10189.070123,444.123565
4252.693551,2294.638420,-8886.707777,-1184.329507
4252.693875,2812.782580,-10265.679673,-222.061783
4252.694199,3108.864956,-8503.660028,-740.205942
4252.694523,3182.885551,-10648.727422,0.000000
4252.694848,148.041188,-8580.269578,-888.247130
4252.695172,-1258.350101,-9729.412825,-592.164754
4252.695496,296.082377,-7660.954980,148.041188
4252.695820,-4145.153275,-7967.393179,222.061783
4252.696145,-1554.432478,-7431.126331,-592.164754
4252.696469,-1776.494261,-8580.269578,-814.226536
4252.696793,-1776.494261,-8503.660028,-1702.473667
4252.697117,-148.041188,-8963.317327,444.123565
4252.697442,-296.082377,-7201.297681,-1776.494261
4252.697766,1258.350101,-9882.631924,1628.453072
4252.698090,3552.988522,-6588.421283,-888.247130
4252.698414,4219.173869,-10418.898773,518.144159
4252.698738,3330.926739,-7354.516781,-1258.350101
4252.699063,3701.029710,-11031.775171,814.226536
4252.699387,962.267725,-7814.174080,-1332.370696
4252.699711,1036.288319,-9116.536426,1332.370696
4252.700035,962.267725,-6741.640382,-592.164754
4252.700360,-1998.556043,-8580.269578,148.041188
4252.700684,518.144159,-7354.516781,148.041188
4252.701008,-2072.576638,-7814.174080,222.061783
4252.701332,-2072.576638,-7737.564530,-1702.473667
4252.701657,0.000000,-8503.660028,444.123565
4252.701981,148.041188,-7354.516781,-1776.494261
4252.702305,962.267725,-9882.631924,962.267725
4252.702629,2516.700203,-7737.564530,0.000000
4252.702954,1924.535449,-9806.022374,666.185348
4252.703278,3256.906145,-8580.269578,-666.185348
4252.703602,2442.679609,-8963.317327,0.000000
4252.703926,2220.617826,-9269.755526,-888.247130
4252.704251,370.102971,-8580.269578,-370.102971
4252.704575,-444.123565,-8810.098227,-518.144159
4252.704899,-1850.514855,-8350.440928,-518.144159
4252.705223,-2590.720797,-8886.707777,0.000000
4252.705548,-1554.432478,-8044.002729,-222.061783
4252.705872,-1776.494261,-8273.831378,-148.041188
4252.706196,-1110.308913,-8656.879127,-962.267725
4252.706520,0.000000,-8427.050478,-1258.350101
4252.706845,1036.288319,-7890.783629,-1258.350101
4252.707169,1554.432478,-8656.879127,444.123565
4252.707493,3330.926739,-8503.660028,148.041188
4252.707817,2886.803174,-9193.145976,-740.205942
4252.708142,3775.050304,-10572.117872,-222.061783
4252.708466,1480.411884,-8580.269578,-1850.514855
4252.708790,1258.350101,-10342.289223,-666.185348
4252.709114,-1110.308913,-7584.345430,-518.144159
4252.709438,-1480.411884,-8963.317327,814.226536
4252.709763,-962.267725,-7967.393179,-296.082377
4252.710087,-1332.370696,-7814.174080,-888.247130
4252.710411,-1110.308913,-8273.831378,-296.082377
4252.710735,-444.123565,-7967.393179,-1332.370696
4252.711060,740.205942,-8503.660028,-1406.391290
4252.711384,888.247130,-8427.050478,-740.205942
4252.711708,2516.700203,-7890.783629,0.000000
4252.712032,3256.906145,-8580.269578,1036.288319
4252.712357,1998.556043,-8733.488677,-1258.350101
4252.712681,1924.535449,-10035.851024,-592.164754
4252.713005,1554.432478,-9576.193725,444.123565
4252.713329,-296.082377,-9576.193725,-444.123565
4252.713654,-2516.700203,-8197.221829,-1184.329507
4252.713978,-444.123565,-8427.050478,148.041188
4252.714302,1258.350101,-8350.440928,-370.102971
4252.714626,444.123565,-7814.174080,-592.164754
4252.714951,888.247130,-7507.735880,74.020594
4252.715275,-888.247130,-7354.516781,-666.185348
4252.715599,148.041188,-9116.536426,-814.226536
4252.715923,-518.144159,-8197.221829,-1258.350101
4252.716248,888.247130,-10112.460574,814.226536
4252.716572,-222.061783,-7277.907231,-1036.288319
4252.716896,370.102971,-9269.755526,74.020594
4252.717220,1332.370696,-8044.002729,0.000000
4252.717545,1110.308913,-9806.022374,296.082377
4252.717869,-1702.473667,-8197.221829,-1110.308913
4252.718193,1702.473667,-9116.536426,444.123565
4252.718517,0.000000,-7354.516781,-370.102971
4252.718842,1924.535449,-9116.536426,888.247130
4252.719166,888.247130,-8044.002729,-370.102971
4252.719490,0.000000,-7507.735880,296.082377
4252.719814,1332.370696,-8963.317327,222.061783
4252.720138,518.144159,-9039.926876,-1850.514855
4252.720463,148.041188,-9652.803275,148.041188
4252.720787,-592.164754,-5898.935335,-1776.494261
4252.721111,148.041188,-10112.460574,1184.329507
4252.721435,444.123565,-7584.345430,-1480.411884
4252.721760,1332.370696,-9346.365076,1184.329507
4252.722084,74.020594,-8810.098227,-740.205942
4252.722408,1480.411884,-9346.365076,814.226536
4252.722732,2294.638420,-8427.050478,-1258.350101
4252.723057,1702.473667,-8886.707777,-740.205942
4252.723381,1924.535449,-8733.488677,0.000000
4252.723705,0.000000,-8273.831378,148.041188
4252.724029,-518.144159,-8656.879127,0.000000
4252.724354,222.061783,-8273.831378,-1554.432478
4252.724678,-296.082377,-8810.098227,-370.102971
4252.725002,-2294.638420,-8044.002729,-592.164754
4252.725326,-2590.720797,-8503.660028,-666.185348
4252.725651,-740.205942,-8656.879127,-814.226536
4252.725975,-296.082377,-7507.735880,-296.082377
4252.726299,2590.720797,-8886.707777,-370.102971
4252.726623,3256.906145,-9039.926876,-592.164754
4252.726948,2220.617826,-9422.974625,518.144159
4252.727272,1998.556043,-8120.612279,-592.164754
4252.727596,3404.947333,-9422.974625,0.000000
4252.727920,2664.741391,-9729.412825,-1998.556043
4252.728245,1184.329507,-10189.070123,222.061783
4252.728569,962.267725,-6818.249932,-666.185348
4252.728893,-1036.288319,-8580.269578,1184.329507
4252.729217,-518.144159,-7507.735880,-1702.473667
4252.729542,-1110.308913,-8044.002729,0.000000
4252.729866,-2146.597232,-7584.345430,-2294.638420
4252.730190,-296.082377,-9039.926876,-444.123565
4252.730514,1406.391290,-8350.440928,-814.226536
4252.730838,-296.082377,-8656.879127,-444.123565
4252.731163,2442.679609,-9806.022374,518.144159
4252.731487,2368.659014,-7967.393179,-1184.329507
4252.731811,3108.864956,-11414.822920,222.061783
4252.732135,2738.761985,-8197.221829,-2738.761985
4252.732460,1702.473667,-9959.241474,0.000000
4252.732784,-1258.350101,-8120.612279,74.020594
4252.733108,-2220.617826,-8580.269578,-222.061783
4252.733432,444.123565,-8810.098227,296.082377
4252.733757,-2146.597232,-8044.002729,-666.185348
4252.734081,-2146.597232,-8350.440928,-592.164754
4252.734405,-3478.967927,-7354.516781,0.000000
4252.734729,-2590.720797,-8273.831378,-666.185348
4252.735054,592.164754,-8120.612279,296.082377
4252.735378,1036.288319,-8427.050478,-148.041188
4252.735702,2220.617826,-8886.707777,0.000000
4252.736026,2738.761985,-8427.050478,-370.102971
4252.736351,2738.761985,-10648.727422,0.000000
4252.736675,4219.173869,-9193.145976,148.041188
4252.736999,1776.494261,-8350.440928,74.020594
4252.737323,0.000000,-8733.488677,0.000000
4252.737648,-592.164754,-8733.488677,-518.144159
4252.737972,-518.144159,-8580.269578,148.041188
4252.738296,-1480.411884,-7660.954980,0.000000
4252.738620,-2368.659014,-7048.078582,962.267725
4252.738945,-518.144159,-8350.440928,-1110.308913
4252.739269,0.000000,-8963.317327,-666.185348
4252.739593,-888.247130,-8197.221829,-296.082377
4252.739917,296.082377,-8197.221829,-370.102971
4252.740242,1998.556043,-9269.755526,888.247130
4252.740566,2590.720797,-7967.393179,-592.164754
4252.740890,4145.153275,-9576.193725,222.061783
4252.741214,3182.885551,-8503.660028,0.000000
4252.741538,2294.638420,-9193.145976,-888.247130
4252.741863,1332.370696,-8503.660028,-444.123565
4252.742187,962.267725,-8580.269578,0.000000
4252.742511,-444.123565,-8886.707777,-296.082377
4252.742835,-2368.659014,-7507.735880,-444.123565
4252.743160,-1628.453072,-8503.660028,814.226536
4252.743484,-1110.308913,-8350.440928,0.000000
4252.743808,-2664.741391,-8273.831378,-1110.308913
4252.744132,-2442.679609,-8350.440928,-1184.329507
4252.744457,592.164754,-7431.126331,-1110.308913
4252.744781,2294.638420,-8886.707777,0.000000
4252.745105,3552.988522,-8580.269578,296.082377
4252.745429,4589.276840,-9193.145976,0.000000
4252.745754,1776.494261,-8197.221829,-1406.391290
4252.746078,3108.864956,-9729.412825,518.144159
4252.746402,2072.576638,-7737.564530,-1184.329507
4252.746726,222.061783,-9422.974625,-1110.308913
4252.747051,74.020594,-8733.488677,-814.226536
4252.747375,-3034.844362,-9806.022374,-1184.329507
4252.747699,-3182.885551,-9499.584175,888.247130
4252.748023,-296.082377,-6971.469032,-1776.494261
4252.748348,-3701.029710,-10955.165621,0.000000
4252.748672,-1776.494261,-7048.078582,-1406.391290
4252.748996,1628.453072,-9729.412825,-518.144159
4252.749320,3182.885551,-7967.393179,-2738.761985
4252.749645,3182.885551,-10342.289223,888.247130
4252.749969,3552.988522,-6894.859482,-962.267725
4252.750293,2812.782580,-9959.241474,1702.473667
4252.750617,3256.906145,-8350.440928,-2516.700203
4252.750942,2146.597232,-10955.165621,370.102971
4252.751266,-1110.308913,-7431.126331,-1110.308913
4252.751590,-3627.009116,-8810.098227,296.082377
4252.751914,-2294.638420,-8197.221829,0.000000
4252.752238,-1628.453072,-8963.317327,740.205942
4252.752563,-2590.720797,-7660.954980,-592.164754
4252.752887,-2368.659014,-9882.631924,-1036.288319
4252.753211,-2738.761985,-8886.707777,-1258.350101
4252.753535,222.061783,-7354.516781,-1628.453072
4252.753860,1998.556043,-8733.488677,888.247130
4252.754184,3552.988522,-8503.660028,-888.247130
4252.754508,3182.885551,-9729.412825,296.082377
4252.754832,4219.173869,-7967.393179,-1110.308913
4252.755157,3627.009116,-10265.679673,1036.288319
4252.755481,1184.329507,-8120.612279,-1036.288319
4252.755805,1554.432478,-9039.926876,148.041188
4252.756129,-740.205942,-7507.735880,-814.226536
4252.756454,-1998.556043,-8503.660028,74.020594
4252.756778,-2294.638420,-6741.640382,222.061783
4252.757102,-1406.391290,-8580.269578,592.164754
4252.757426,-888.247130,-8656.879127,-148.041188
4252.757751,-592.164754,-7814.174080,-296.082377
4252.758075,444.123565,-8733.488677,-148.041188
4252.758399,-2590.720797,-7737.564530,-740.205942
4252.758723,3997.112087,-8044.002729,-888.247130
4252.759048,2220.617826,-8656.879127,-962.267725
4252.759372,3330.926739,-9882.631924,0.000000
4252.759696,518.144159,-9193.145976,148.041188
4252.760020,1480.411884,-9959.241474,-888.247130
4252.760345,888.247130,-10189.070123,518.144159
4252.760669,518.144159,-7584.345430,-1406.391290
4252.760993,-592.164754,-8810.098227,1110.308913
4252.761317,1628.453072,-7967.393179,-888.247130
4252.761642,-444.123565,-8503.660028,0.000000
4252.761966,-296.082377,-6741.640382,-444.123565
4252.762290,-5921.647536,-7354.516781,0.000000
4252.762614,814.226536,-10112.460574,-1480.411884
4252.762938,-814.226536,-7354.516781,-1406.391290
4252.763263,1406.391290,-10495.508323,370.102971
4252.763587,1702.473667,-8810.098227,-1924.535449
4252.763911,-296.082377,-9039.926876,-1480.411884
4252.764235,2590.720797,-9039.926876,74.020594
4252.764560,1110.308913,-8120.612279,0.000000
4252.764884,1184.329507,-9882.631924,-296.082377
4252.765208,3330.926739,-9193.145976,-1184.329507
4252.765532,888.247130,-8044.002729,-1702.473667
4252.765857,370.102971,-9652.803275,740.205942
4252.766181,148.041188,-6971.469032,-888.247130
4252.766505,-962.267725,-9116.536426,0.000000
4252.766829,-1184.329507,-8503.660028,-296.082377
4252.767154,-1554.432478,-8733.488677,-814.226536
4252.767478,-888.247130,-7967.393179,-2368.659014
4252.767802,0.000000,-10265.679673,888.247130
4252.768126,0.000000,-7354.516781,-1258.350101
4252.768451,1998.556043,-10035.851024,1036.288319
4252.768775,2368.659014,-7814.174080,-1110.308913
4252.769099,1036.288319,-8273.831378,740.205942
4252.769423,2516.700203,-8197.221829,-1258.350101
4252.769748,2442.679609,-9729.412825,-962.267725
4252.770072,296.082377,-9652.803275,-740.205942
4252.770396,-1702.473667,-7507.735880,-148.041188
4252.770720,0.000000,-9116.536426,592.164754
4252.771046,-1184.329507,-7354.516781,-592.164754
4252.771370,-370.102971,-10418.898773,592.164754
4252.771694,-1110.308913,-7660.954980,-740.205942
4252.772019,-2072.576638,-9039.926876,-1110.308913
4252.772343,0.000000,-7584.345430,-666.185348
4252.772667,814.226536,-8273.831378,0.000000
4252.772991,1184.329507,-7277.907231,-592.164754
4252.773316,2442.679609,-8886.707777,814.226536
4252.773640,1850.514855,-7277.907231,-1628.453072
4252.773964,2368.659014,-10801.946522,1480.411884
4252.774289,2960.823768,-7354.516781,-1628.453072
4252.774613,1184.329507,-9806.022374,740.205942
4252.774937,592.164754,-7277.907231,-1406.391290
4252.775261,-444.123565,-8120.612279,740.205942
4252.775586,-1184.329507,-8273.831378,-666.185348
4252.775910,-1110.308913,-8427.050478,1184.329507
4252.776234,-2072.576638,-7737.564530,-370.102971
4252.776558,-2886.803174,-8810.098227,-740.205942
4252.776883,-1036.288319,-8580.269578,-740.205942
4252.777207,-518.144159,-8503.660028,-370.102971
4252.777531,-962.267725,-8427.050478,-740.205942
4252.777856,888.247130,-9576.193725,-148.041188
4252.778180,2368.659014,-8044.002729,-222.061783
4252.778504,3034.844362,-10189.070123,222.061783
4252.778828,2368.659014,-10572.117872,-666.185348
4252.779153,3182.885551,-9806.022374,148.041188
4252.779477,1628.453072,-8044.002729,-370.102971
4252.779801,370.102971,-8656.879127,0.000000
4252.780126,-740.205942,-7737.564530,-1480.411884
4252.780450,-1480.411884,-8273.831378,74.020594
4252.780774,-1184.329507,-7354.516781,-296.082377
4252.781098,-2220.617826,-7584.345430,0.000000
4252.781423,-1258.350101,-8886.707777,-592.164754
4252.781747,-148.041188,-9039.926876,-888.247130
4252.782071,0.000000,-9193.145976,-888.247130
4252.782396,1850.514855,-8810.098227,-592.164754
4252.782720,2368.659014,-8044.002729,-222.061783
4252.783044,3775.050304,-9269.755526,-666.185348
4252.783368,2442.679609,-9576.193725,-222.061783
4252.783693,2590.720797,-9806.022374,-592.164754
4252.784017,592.164754,-8886.707777,-1628.453072
4252.784341,-296.082377,-9576.193725,518.144159
4252.784665,-2146.597232,-6971.469032,0.000000
4252.784990,-444.123565,-9116.536426,444.123565
4252.785314,-1036.288319,-7201.297681,-1776.494261
4252.785638,370.102971,-8503.660028,222.061783
4252.785963,-962.267725,-7354.516781,-1184.329507
4252.786287,296.082377,-9116.536426,148.041188
4252.786611,222.061783,-7814.174080,-814.226536
4252.786935,0.000000,-8580.269578,-1332.370696
4252.787260,2590.720797,-10572.117872,-296.082377
4252.787584,0.000000,-8427.050478,-1924.535449
4252.787908,444.123565,-11261.603821,962.267725
4252.788233,1406.391290,-8580.269578,-296.082377
4252.788557,74.020594,-10112.460574,0.000000
4252.788881,0.000000,-8350.440928,296.082377
4252.789205,-1036.288319,-7660.954980,74.020594
4252.789530,0.000000,-9499.584175,-296.082377
4252.789854,-962.267725,-6894.859482,-1924.535449
4252.790178,1184.329507,-10801.946522,1110.308913
4252.790502,-592.164754,-6511.811733,-222.061783
4252.790827,-740.205942,-8886.707777,444.123565
4252.791151,-1036.288319,-7660.954980,-2738.761985
4252.791475,444.123565,-10265.679673,1110.308913
4252.791800,-888.247130,-9269.755526,74.020594
4252.792124,1332.370696,-8044.002729,-1184.329507
4252.792448,1406.391290,-10265.679673,1036.288319
4252.792772,814.226536,-8350.440928,888.247130
4252.793097,1258.350101,-8886.707777,0.000000
4252.793421,74.020594,-6894.859482,-1184.329507
4252.793745,-148.041188,-9499.584175,296.082377
4252.794070,148.041188,-6205.373534,-814.226536
4252.794394,1258.350101,-8273.831378,0.000000
4252.794718,-888.247130,-7660.954980,-1480.411884
4252.795042,1184.329507,-7814.174080,740.205942
4252.795367,0.000000,-8273.831378,0.000000
4252.795691,0.000000,-9499.584175,-962.267725
4252.796015,1036.288319,-9576.193725,-444.123565
4252.796339,-888.247130,-8963.317327,-666.185348
4252.796664,-370.102971,-8580.269578,-518.144159
4252.796988,3552.988522,-8810.098227,-296.082377
4252.797312,2886.803174,-8733.488677,-1776.494261
4252.797637,2442.679609,-8197.221829,-370.102971
4252.797961,1776.494261,-8656.879127,-592.164754
4252.798285,296.082377,-9193.145976,-1036.288319
4252.798609,0.000000,-8350.440928,-518.144159
4252.798934,-592.164754,-8503.660028,814.226536
4252.799258,-592.164754,-8427.050478,-518.144159
4252.799582,-222.061783,-9193.145976,-740.205942
4252.799907,296.082377,-9806.022374,-962.267725
4252.800231,-2294.638420,-8044.002729,-1184.329507
4252.800555,-2368.659014,-8733.488677,-296.082377
4252.800879,888.247130,-9576.193725,-1480.411884
4252.801204,-2072.576638,-9039.926876,-296.082377
4252.801528,2812.782580,-7737.564530,74.020594
4252.801852,518.144159,-8810.098227,-1036.288319
4252.802177,3108.864956,-9576.193725,-592.164754
4252.802501,1406.391290,-8350.440928,-888.247130
4252.802825,1850.514855,-10725.336972,148.041188
4252.803149,-2220.617826,-7354.516781,-1110.308913
4252.803474,962.267725,-10265.679673,0.000000
4252.803798,3552.988522,-8733.488677,-740.205942
4252.804122,-370.102971,-7431.126331,1702.473667
4252.804446,2294.638420,-7277.907231,-2294.638420
4252.804771,0.000000,-9116.536426,-444.123565
4252.805095,-296.082377,-7814.174080,-1702.473667
4252.805419,-2146.597232,-7660.954980,296.082377
4252.805744,-666.185348,-8503.660028,-518.144159
4252.806068,444.123565,-9576.193725,740.205942
4252.806392,1036.288319,-9116.536426,-1554.432478
4252.806716,2590.720797,-9422.974625,0.000000
4252.807041,1924.535449,-10495.508323,222.061783
4252.807365,592.164754,-7814.174080,0.000000
4252.807689,666.185348,-10572.117872,296.082377
4252.808014,-148.041188,-6665.030833,-370.102971
4252.808338,1332.370696,-10035.851024,1184.329507
4252.808662,-2146.597232,-5592.497135,-1258.350101
4252.808986,0.000000,-10035.851024,1776.494261
4252.809311,0.000000,-6741.640382,-1554.432478
4252.809635,-1702.473667,-9499.584175,0.000000
4252.809959,-518.144159,-7124.688131,-666.185348
4252.810283,-1110.308913,-8656.879127,74.020594
4252.810608,-518.144159,-7507.735880,-148.041188
4252.810932,3775.050304,-8197.221829,888.247130
4252.811256,3404.947333,-8427.050478,-1480.411884
4252.811581,2738.761985,-9806.022374,370.102971
4252.811905,2294.638420,-8427.050478,-666.185348
4252.812229,2294.638420,-9499.584175,666.185348
4252.812553,2368.659014,-7048.078582,1036.288319
4252.812878,-4515.256246,-8197.221829,-592.164754
4252.813202,-296.082377,-7967.393179,-740.205942
4252.813526,-1258.350101,-7048.078582,444.123565
4252.813851,-592.164754,-8963.317327,-740.205942
4252.814175,-1480.411884,-6818.249932,0.000000
4252.814499,-1480.411884,-9806.022374,-296.082377
4252.814823,-2516.700203,-7660.954980,-1110.308913
4252.815148,2664.741391,-9193.145976,-2072.576638
4252.815472,1480.411884,-9959.241474,-296.082377
4252.815796,1702.473667,-8273.831378,-370.102971
4252.816121,3034.844362,-9806.022374,592.164754
4252.816445,740.205942,-10112.460574,-740.205942
4252.816769,0.000000,-9499.584175,0.000000
4252.817093,2072.576638,-9346.365076,-518.144159
4252.817418,-1184.329507,-8503.660028,0.000000
4252.817742,-222.061783,-8350.440928,-444.123565
4252.818066,-592.164754,-6971.469032,-1258.350101
4252.818390,-518.144159,-7660.954980,740.205942
4252.818715,74.020594,-6894.859482,-148.041188
4252.819039,-814.226536,-8886.707777,-592.164754
4252.819363,-370.102971,-8197.221829,-2146.597232
4252.819688,1184.329507,-9959.241474,148.041188
4252.820012,962.267725,-7967.393179,-1924.535449
4252.820336,3182.885551,-9882.631924,962.267725
4252.820660,2220.617826,-8503.660028,-1480.411884
4252.820985,1628.453072,-10955.165621,592.164754
4252.821309,814.226536,-8580.269578,-1776.494261
4252.821633,2146.597232,-10342.289223,0.000000
4252.821958,-222.061783,-7277.907231,-1406.391290
4252.822282,-740.205942,-7890.783629,222.061783
4252.822606,-444.123565,-8197.221829,-666.185348
4252.822930,1332.370696,-6894.859482,518.144159
4252.823255,0.000000,-8427.050478,0.000000
4252.823579,222.061783,-8350.440928,-1332.370696
4252.823903,1628.453072,-10189.070123,518.144159
4252.824227,-1332.370696,-8044.002729,-2368.659014
4252.824552,1480.411884,-10342.289223,-296.082377
4252.824876,-444.123565,-7967.393179,-592.164754
4252.825200,888.247130,-9422.974625,0.000000
4252.825525,1406.391290,-8350.440928,-296.082377
4252.825849,1776.494261,-9959.241474,666.185348
4252.826173,296.082377,-8503.660028,-1184.329507
4252.826497,2664.741391,-8350.440928,74.020594
4252.826822,1110.308913,-7890.783629,740.205942
4252.827146,888.247130,-8427.050478,0.000000
4252.827470,740.205942,-8427.050478,0.000000
4252.827795,740.205942,-7814.174080,222.061783
4252.828119,-962.267725,-8427.050478,0.000000
4252.828443,-222.061783,-7967.393179,-1036.288319
4252.828767,-1332.370696,-8273.831378,0.000000
4252.829092,592.164754,-7660.954980,0.000000
4252.829416,888.247130,-8350.440928,962.267725
4252.829740,1924.535449,-7660.954980,74.020594
4252.830064,3701.029710,-8810.098227,592.164754
4252.830389,2590.720797,-7967.393179,-222.061783
4252.830713,1628.453072,-9039.926876,-148.041188
4252.831037,1628.453072,-8656.879127,-666.185348
4252.831362,222.061783,-7354.516781,-962.267725
4252.831686,1776.494261,-8810.098227,1554.432478
4252.832010,666.185348,-7814.174080,-1036.288319
4252.832334,370.102971,-9422.974625,148.041188
4252.832659,74.020594,-8503.660028,-962.267725
4252.832983,-1184.329507,-8427.050478,370.102971
4252.833307,-2368.659014,-8197.221829,-1406.391290
4252.833632,-1406.391290,-8197.221829,-148.041188
4252.833956,0.000000,-7890.783629,-1332.370696
4252.834280,740.205942,-9039.926876,1110.308913
4252.834604,1850.514855,-8963.317327,-962.267725
4252.834929,2442.679609,-8350.440928,-814.226536
4252.835253,3108.864956,-9806.022374,222.061783
4252.835577,1036.288319,-9422.974625,-814.226536
4252.835902,74.020594,-9422.974625,-592.164754
4252.836226,1924.535449,-9039.926876,148.041188
4252.836550,-814.226536,-8427.050478,-1406.391290
4252.836874,-296.082377,-9039.926876,-222.061783
4252.837199,-1406.391290,-8120.612279,-888.247130
4252.837523,-2368.659014,-9116.536426,0.000000
4252.837847,-592.164754,-8120.612279,-1406.391290
4252.838171,-1332.370696,-8886.707777,0.000000
4252.838496,1850.514855,-8273.831378,-1332.370696
4252.838820,1184.329507,-8273.831378,-1110.308913
4252.839144,1924.535449,-9346.365076,-370.102971
4252.839469,1332.370696,-8656.879127,0.000000
4252.839793,3923.091493,-9346.365076,-222.061783
4252.840117,1554.432478,-9346.365076,-888.247130
4252.840441,2220.617826,-8656.879127,-740.205942
4252.840766,-518.144159,-8580.269578,592.164754
4252.841090,-222.061783,-7890.783629,148.041188
4252.841414,0.000000,-6281.983084,-1110.308913
4252.841739,-3034.844362,-8580.269578,296.082377
4252.842063,74.020594,-7737.564530,1036.288319
4252.842387,-1480.411884,-7048.078582,-1258.350101
4252.842711,-222.061783,-10572.117872,666.185348
4252.843036,-592.164754,-7507.735880,-1332.370696
4252.843360,296.082377,-9193.145976,-1998.556043
4252.843684,148.041188,-10265.679673,-1036.288319
4252.844008,1850.514855,-8503.660028,74.020594
4252.844333,370.102971,-8963.317327,0.000000
4252.844657,2294.638420,-8810.098227,962.267725
4252.844981,1184.329507,-8886.707777,-518.144159
4252.845306,1776.494261,-8120.612279,-666.185348
4252.845630,962.267725,-7814.174080,222.061783
4252.845954,888.247130,-8273.831378,-740.205942
4252.846278,-148.041188,-7507.735880,0.000000
4252.846603,0.000000,-8273.831378,518.144159
4252.846927,-518.144159,-8044.002729,-592.164754
4252.847251,-444.123565,-8963.317327,0.000000
4252.847576,74.020594,-8580.269578,0.000000
4252.847900,-148.041188,-8810.098227,0.000000
4252.848224,888.247130,-7660.954980,148.041188
4252.848548,740.205942,-8886.707777,0.000000
4252.848873,1110.308913,-7890.783629,-1480.411884
4252.849197,3108.864956,-10112.460574,740.205942
4252.849521,2368.659014,-8733.488677,-148.041188
4252.849846,1184.329507,-9193.145976,-962.267725
4252.850170,1628.453072,-7737.564530,370.102971
4252.850494,-296.082377,-8810.098227,148.041188
4252.850818,222.061783,-9039.926876,-592.164754
4252.851143,-1258.350101,-7507.735880,740.205942
4252.851467,-1406.391290,-8580.269578,-518.144159
4252.851791,666.185348,-8886.707777,-1036.288319
4252.852115,-1554.432478,-8197.221829,-962.267725
4252.852440,-2368.659014,-8350.440928,-222.061783
4252.852764,-148.041188,-8197.221829,-1702.473667
4252.853088,1036.288319,-9806.022374,1110.308913
4252.853413,1554.432478,-8350.440928,-1776.494261
4252.853737,4145.153275,-10418.898773,296.082377
4252.854061,2072.576638,-9422.974625,-962.267725
4252.854385,2294.638420,-9116.536426,-962.267725
4252.854710,1406.391290,-7814.174080,-370.102971
4252.855034,370.102971,-8810.098227,222.061783
4252.855358,-666.185348,-8503.660028,-296.082377
4252.855683,666.185348,-7507.735880,148.041188
4252.856007,-592.164754,-8886.707777,-740.205942
4252.856331,-222.061783,-8427.050478,-666.185348
4252.856655,-370.102971,-8044.002729,-518.144159
4252.856980,-2072.576638,-9576.193725,-888.247130
4252.857304,-444.123565,-7967.393179,-814.226536
4252.857628,-296.082377,-8963.317327,-370.102971
4252.857952,2812.782580,-8733.488677,-222.061783
4252.858277,2960.823768,-8656.879127,0.000000
4252.858601,3552.988522,-8350.440928,-1036.288319
4252.858925,814.226536,-9346.365076,148.041188
4252.859250,2146.597232,-9576.193725,-888.247130
4252.859574,1332.370696,-8427.050478,-666.185348
4252.859898,-1184.329507,-8427.050478,0.000000
4252.860222,518.144159,-8886.707777,592.164754
4252.860547,-2590.720797,-9193.145976,-2072.576638
4252.860871,1480.411884,-9499.584175,74.020594
4252.861195,-2294.638420,-8197.221829,-1036.288319
4252.861520,-2516.700203,-9269.755526,-370.102971
4252.861844,-1924.535449,-7431.126331,0.000000
4252.862168,-1036.288319,-8656.879127,0.000000
4252.862492,1184.329507,-8963.317327,0.000000
4252.862817,2442.679609,-8120.612279,-666.185348
4252.863141,2664.741391,-8427.050478,148.041188
4252.863465,2072.576638,-9116.536426,-74.020594
4252.863789,3256.906145,-8197.221829,814.226536
4252.864114,148.041188,-8886.707777,-370.102971
4252.864438,592.164754,-8120.612279,-296.082377
4252.864762,-740.205942,-7737.564530,518.144159
4252.865087,-1924.535449,-8273.831378,296.082377
4252.865411,-1184.329507,-8044.002729,518.144159
4252.865735,-888.247130,-8810.098227,0.000000
4252.866059,-2368.659014,-7890.783629,-740.205942
4252.866384,370.102971,-7967.393179,-814.226536
4252.866708,518.144159,-8886.707777,222.061783
4252.867032,296.082377,-7354.516781,-666.185348
4252.867357,2072.576638,-8580.269578,370.102971
4252.867681,6513.812290,-7967.393179,1036.288319
4252.868005,2368.659014,-10035.851024,-2146.597232
4252.868329,962.267725,-8733.488677,-1184.329507
4252.868654,-666.185348,-9806.022374,1258.350101
4252.868978,1702.473667,-7048.078582,-814.226536
4252.869302,-370.102971,-8273.831378,1628.453072
4252.869627,444.123565,-8044.002729,-1036.288319
4252.869951,-1110.308913,-9269.755526,444.123565
4252.870275,296.082377,-6511.811733,0.000000
4252.870599,-592.164754,-9576.193725,0.000000
4252.870924,-74.020594,-7124.688131,-2368.659014
4252.871248,1332.370696,-9499.584175,-1258.350101
4252.871572,-296.082377,-8580.269578,0.000000
4252.871896,1184.329507,-9576.193725,444.123565
4252.872220,1776.494261,-8810.098227,-1480.411884
4252.872544,2442.679609,-10342.289223,-666.185348
4252.872869,1702.473667,-9193.145976,370.102971
4252.873193,0.000000,-7660.954980,-2220.617826
4252.873517,1628.453072,-10495.508323,0.000000
4252.873841,1110.308913,-6894.859482,-740.205942
4252.874165,0.000000,-9422.974625,518.144159
4252.874489,-370.102971,-7737.564530,-1332.370696
4252.874814,222.061783,-9652.803275,666.185348
4252.875138,-740.205942,-7354.516781,-666.185348
4252.875462,444.123565,-8427.050478,-814.226536
4252.875786,-592.164754,-9499.584175,-1850.514855
4252.876110,296.082377,-8503.660028,-148.041188
4252.876434,592.164754,-9652.803275,-222.061783
4252.876758,1332.370696,-8350.440928,-740.205942
4252.877083,1998.556043,-9269.755526,222.061783
4252.877407,2368.659014,-8273.831378,-740.205942
4252.877731,1850.514855,-10035.851024,-666.185348
4252.878055,1036.288319,-8427.050478,-814.226536
4252.878379,1998.556043,-7967.393179,0.000000
4252.878703,148.041188,-7814.174080,-888.247130
4252.879027,592.164754,-8350.440928,-148.041188
4252.879352,-1184.329507,-8733.488677,74.020594
4252.879676,-592.164754,-8733.488677,0.000000
4252.880000,-1850.514855,-7048.078582,-1036.288319
4252.880324,-2368.659014,-10035.851024,444.123565
4252.880648,-296.082377,-7890.783629,-1406.391290
4252.880972,-740.205942,-9882.631924,0.000000
4252.881296,370.102971,-7660.954980,74.020594
4252.881621,1036.288319,-8273.831378,-444.123565
4252.881945,2368.659014,-8273.831378,0.000000
4252.882269,2368.659014,-9576.193725,0.000000
4252.882593,2516.700203,-8810.098227,-1110.308913
4252.882917,0.000000,-8580.269578,518.144159
4252.883241,888.247130,-9422.974625,-296.082377
4252.883565,0.000000,-8273.831378,296.082377
4252.883890,1702.473667,-7967.393179,-1406.391290
4252.884214,148.041188,-9422.974625,370.102971
4252.884538,-1480.411884,-6435.202183,0.000000
4252.884862,-296.082377,-9116.536426,888.247130
4252.885186,740.205942,-7431.126331,-444.123565
4252.885510,0.000000,-8733.488677,444.123565
4252.885834,518.144159,-7814.174080,0.000000
4252.886159,2072.576638,-8120.612279,592.164754
4252.886483,2368.659014,-8427.050478,-518.144159
4252.886807,1406.391290,-9193.145976,-740.205942
4252.887131,2220.617826,-9193.145976,296.082377
4252.887455,148.041188,-9116.536426,-740.205942
4252.887779,1850.514855,-7967.393179,-592.164754
4252.888104,-296.082377,-8273.831378,74.020594
4252.888428,0.000000,-8886.707777,-888.247130
4252.888752,222.061783,-8273.831378,-222.061783
4252.889076,-1480.411884,-7507.735880,-296.082377
4252.889400,-592.164754,-9499.584175,0.000000
4252.889724,-2590.720797,-7354.516781,-1924.535449
4252.890048,-1036.288319,-10189.070123,592.164754
4252.890373,518.144159,-7431.126331,-1628.453072
4252.890697,518.144159,-10955.165621,-370.102971
4252.891021,666.185348,-7814.174080,-1258.350101
4252.891345,1924.535449,-8197.221829,370.102971
4252.891669,2590.720797,-8350.440928,-814.226536
4252.891993,1776.494261,-9959.241474,-740.205942
4252.892317,1998.556043,-8810.098227,-1110.308913
4252.892642,2220.617826,-8886.707777,-518.144159
4252.892966,-370.102971,-8580.269578,-444.123565
4252.893290,148.041188,-8733.488677,-962.267725
4252.893614,-592.164754,-8733.488677,222.061783
4252.893938,-2812.782580,-7967.393179,-222.061783
4252.894262,-296.082377,-8963.317327,-148.041188
4252.894586,-888.247130,-8810.098227,-296.082377
4252.894911,148.041188,-9193.145976,222.061783
4252.895235,1036.288319,-7967.393179,-1776.494261
4252.895559,2516.700203,-9422.974625,296.082377
4252.895883,1184.329507,-7354.516781,-74.020594
4252.896207,2738.761985,-9652.803275,-962.267725
4252.896531,2368.659014,-10572.117872,-1406.391290
4252.896855,74.020594,-8733.488677,-666.185348
4252.897180,-444.123565,-9116.536426,148.041188
4252.897504,-1258.350101,-8044.002729,-1036.288319
4252.897828,-1850.514855,-9499.584175,592.164754
4252.898152,-2072.576638,-7890.783629,-888.247130
4252.898476,222.061783,-9499.584175,1332.370696
4252.898800,-1184.329507,-7124.688131,-962.267725
4252.899124,0.000000,-9039.926876,148.041188
4252.899449,-518.144159,-7354.516781,-1110.308913
4252.899773,1702.473667,-9193.145976,888.247130
4252.900097,3404.947333,-7967.393179,-444.123565
4252.900421,814.226536,-8503.660028,-444.123565
4252.900745,2516.700203,-7967.393179,0.000000
4252.901069,444.123565,-8044.002729,-222.061783
4252.901393,1480.411884,-9652.803275,222.061783
4252.901718,0.000000,-7354.516781,-1480.411884
4252.902042,0.000000,-8197.221829,888.247130
4252.902366,-1036.288319,-7431.126331,0.000000
4252.902690,-888.247130,-8350.440928,592.164754
4252.903014,-666.185348,-7354.516781,296.082377
4252.903338,2886.803174,-8503.660028,296.082377
4252.903663,1554.432478,-8044.002729,0.000000
4252.903987,296.082377,-8503.660028,-1110.308913
4252.904311,1036.288319,-9193.145976,296.082377
4252.904635,222.061783,-9269.755526,-592.164754
4252.904959,814.226536,-8273.831378,222.061783
4252.905283,1924.535449,-7507.735880,-222.061783
4252.905607,222.061783,-9039.926876,-814.226536
4252.905932,444.123565,-9729.412825,-1184.329507
4252.906256,-222.061783,-9346.365076,-222.061783
4252.906580,888.247130,-7967.393179,0.000000
4252.906904,0.000000,-7814.174080,222.061783
4252.907228,666.185348,-9193.145976,-962.267725
4252.907552,1332.370696,-9116.536426,518.144159
4252.907876,1554.432478,-8120.612279,-444.123565
4252.908201,1776.494261,-9576.193725,-1480.411884
4252.908525,370.102971,-8350.440928,-1036.288319
4252.908849,-1480.411884,-9422.974625,-148.041188
4252.909173,-296.082377,-9652.803275,-1184.329507
4252.909497,518.144159,-9576.193725,-666.185348
4252.909821,-518.144159,-7737.564530,-962.267725
4252.910145,814.226536,-8810.098227,74.020594
4252.910470,1258.350101,-8427.050478,-1554.432478
4252.910794,592.164754,-9806.022374,-666.185348
4252.911118,1480.411884,-8503.660028,-296.082377
4252.911442,0.000000,-8350.440928,-222.061783
4252.911766,666.185348,-9806.022374,-2072.576638
4252.912090,1554.432478,-8656.879127,-148.041188
