#time,accel_x,accel_y,accel_z
4074.759515,-518.144159,-9729.412825,-962.267725
4074.759839,-1036.288319,-9729.412825,-444.123565
4074.760164,-1184.329507,-9422.974625,-1258.350101
4074.760488,-1480.411884,-9193.145976,-888.247130
4074.760812,-1258.350101,-9269.755526,-962.267725
4074.761137,-1184.329507,-8503.660028,-1036.288319
4074.761461,-1110.308913,-8733.488677,-1036.288319
4074.761785,-814.226536,-8963.317327,-1554.432478
4074.762110,-518.144159,-8963.317327,-1702.473667
4074.762434,-666.185348,-9039.926876,-1776.494261
4074.762758,-1036.288319,-9422.974625,-1332.370696
4074.763083,-1554.432478,-8963.317327,-1628.453072
4074.763407,-2146.597232,-10112.460574,-1258.350101
4074.763731,-2368.659014,-9652.803275,-1480.411884
4074.764056,-3034.844362,-9652.803275,-1110.308913
4074.764380,-2960.823768,-9882.631924,-1628.453072
4074.764704,-3256.906145,-8886.707777,-740.205942
4074.765029,-2664.741391,-8656.879127,-1332.370696
4074.765353,-2368.659014,-8733.488677,-1332.370696
4074.765677,-1850.514855,-8733.488677,-962.267725
4074.766002,-2146.597232,-8656.879127,-814.226536
4074.766326,-1850.514855,-8886.707777,-592.164754
4074.766650,-2812.782580,-8503.660028,-370.102971
4074.766975,-2960.823768,-8963.317327,0.000000
4074.767299,-3997.112087,-9039.926876,740.205942
4074.767623,-3849.070898,-9193.145976,148.041188
4074.767948,-3923.091493,-8886.707777,0.000000
4074.768272,-3552.988522,-8810.098227,740.205942
4074.768596,-3256.906145,-8963.317327,370.102971
4074.768921,-3034.844362,-8273.831378,666.185348
4074.769245,-2516.700203,-7890.783629,296.082377
4074.769569,-2442.679609,-7890.783629,444.123565
4074.769894,-2738.761985,-8273.831378,444.123565
4074.770218,-3627.009116,-8044.002729,814.226536
4074.770542,-3404.947333,-8273.831378,740.205942
4074.770867,-3627.009116,-7890.783629,740.205942
4074.771191,-3108.864956,-8427.050478,1110.308913
4074.771515,-3108.864956,-8580.269578,962.267725
4074.771840,-2220.617826,-8120.612279,1258.350101
4074.772164,-2072.576638,-7890.783629,444.123565
4074.772488,-1480.411884,-8120.612279,666.185348
4074.772813,-666.185348,-7431.126331,518.144159
4074.773137,-666.185348,-7814.174080,518.144159
4074.773461,-1406.391290,-7737.564530,74.020594
4074.773785,-1332.370696,-8120.612279,518.144159
4074.774110,-1628.453072,-8044.002729,518.144159
4074.774434,-1628.453072,-7890.783629,74.020594
4074.774758,-1332.370696,-8503.660028,148.041188
4074.775083,-1332.370696,-8427.050478,222.061783
4074.775407,-1036.288319,-8656.879127,0.000000
4074.775731,-518.144159,-8580.269578,-740.205942
4074.776056,-296.082377,-8427.050478,-888.247130
4074.776380,-518.144159,-8197.221829,-444.123565
4074.776704,-444.123565,-8733.488677,-962.267725
4074.777029,-814.226536,-8273.831378,-740.205942
4074.777353,-370.102971,-8656.879127,-888.247130
4074.777677,-666.185348,-8427.050478,-962.267725
4074.778002,-444.123565,-8810.098227,-1036.288319
4074.778326,74.020594,-9116.536426,-1110.308913
4074.778650,0.000000,-8580.269578,-740.205942
4074.778974,222.061783,-9039.926876,-1702.473667
4074.779299,444.123565,-9499.584175,-1258.350101
4074.779623,1036.288319,-9269.755526,-1776.494261
4074.779947,148.041188,-9346.365076,-1554.432478
4074.780272,296.082377,-8963.317327,-1850.514855
4074.780596,-888.247130,-9269.755526,-1480.411884
4074.780920,-1258.350101,-9193.145976,-1776.494261
4074.781245,-2146.597232,-9346.365076,-1628.453072
4074.781569,-2146.597232,-8810.098227,-1702.473667
4074.781893,-2664.741391,-8810.098227,-1480.411884
4074.782218,-1924.535449,-8580.269578,-1702.473667
4074.782542,-1850.514855,-9269.755526,-1628.453072
4074.782866,-1850.514855,-8656.879127,-1554.432478
4074.783191,-1332.370696,-9269.755526,-1480.411884
4074.783515,-1110.308913,-9039.926876,-1332.370696
4074.783839,-1480.411884,-9346.365076,-1184.329507
4074.784164,-1258.350101,-9039.926876,-888.247130
4074.784488,-1036.288319,-9269.755526,-740.205942
4074.784812,-1184.329507,-9116.536426,-592.164754
4074.785136,-888.247130,-9269.755526,-370.102971
4074.785461,-444.123565,-8886.707777,-518.144159
4074.785785,370.102971,-9193.145976,0.000000
4074.786109,296.082377,-8503.660028,-444.123565
4074.786434,962.267725,-8963.317327,-222.061783
4074.786758,1036.288319,-8656.879127,0.000000
4074.787082,148.041188,-8963.317327,370.102971
4074.787407,-666.185348,-8580.269578,0.000000
4074.787731,-1554.432478,-9269.755526,666.185348
4074.788055,-2516.700203,-8733.488677,592.164754
4074.788380,-2738.761985,-8503.660028,1406.391290
4074.788704,-1850.514855,-8733.488677,666.185348
4074.789028,-1998.556043,-7737.564530,962.267725
4074.789353,-888.247130,-7584.345430,1184.329507
4074.789677,370.102971,-7584.345430,740.205942
4074.790001,592.164754,-7354.516781,962.267725
4074.790325,1110.308913,-7354.516781,962.267725
4074.790650,1036.288319,-7584.345430,1184.329507
4074.790974,222.061783,-7507.735880,888.247130
4074.791298,592.164754,-8273.831378,1258.350101
4074.791623,592.164754,-7737.564530,1184.329507
4074.791947,444.123565,-8273.831378,740.205942
4074.792271,1110.308913,-7967.393179,740.205942
4074.792596,1776.494261,-7967.393179,962.267725
4074.792920,2294.638420,-7890.783629,370.102971
4074.793244,2516.700203,-7584.345430,222.061783
4074.793569,2960.823768,-7584.345430,74.020594
4074.793893,2812.782580,-7967.393179,296.082377
4074.794217,2738.761985,-8120.612279,-444.123565
4074.794542,1702.473667,-8197.221829,-222.061783
4074.794866,1184.329507,-8197.221829,0.000000
4074.795190,518.144159,-8580.269578,-148.041188
4074.795515,592.164754,-8044.002729,148.041188
4074.795839,444.123565,-8350.440928,148.041188
4074.796163,740.205942,-8656.879127,-592.164754
4074.796487,1110.308913,-8963.317327,-740.205942
4074.796812,1924.535449,-8733.488677,-1110.308913
4074.797136,2368.659014,-8427.050478,-1332.370696
4074.797460,2590.720797,-8656.879127,-1554.432478
4074.797785,2960.823768,-9116.536426,-1332.370696
4074.798109,2368.659014,-8810.098227,-1406.391290
4074.798433,2072.576638,-9346.365076,-1406.391290
4074.798758,1258.350101,-9499.584175,-1628.453072
4074.799082,1036.288319,-9959.241474,-1554.432478
4074.799406,518.144159,-9652.803275,-1776.494261
4074.799731,740.205942,-10035.851024,-1924.535449
4074.800055,0.000000,-9806.022374,-2368.659014
4074.800379,0.000000,-9806.022374,-1998.556043
4074.800704,-518.144159,-9499.584175,-2072.576638
4074.801028,-740.205942,-9346.365076,-1702.473667
4074.801352,-666.185348,-9039.926876,-1480.411884
4074.801677,-444.123565,-9193.145976,-1110.308913
4074.802001,-370.102971,-8886.707777,-1628.453072
4074.802325,74.020594,-8963.317327,-1036.288319
4074.802649,740.205942,-9729.412825,-1332.370696
4074.802974,666.185348,-8656.879127,-1184.329507
4074.803298,222.061783,-8886.707777,-1110.308913
4074.803622,222.061783,-8810.098227,-962.267725
4074.803947,0.000000,-8503.660028,-1110.308913
4074.804271,-222.061783,-9039.926876,-592.164754
4074.804595,-666.185348,-8963.317327,-592.164754
4074.804920,-1258.350101,-8273.831378,-962.267725
4074.805244,-1332.370696,-8656.879127,-296.082377
4074.805568,-740.205942,-7890.783629,0.000000
4074.805893,74.020594,-8503.660028,-370.102971
4074.806217,814.226536,-8503.660028,-444.123565
4074.806541,888.247130,-8350.440928,222.061783
4074.806866,1258.350101,-8733.488677,-444.123565
4074.807190,814.226536,-8886.707777,518.144159
4074.807514,296.082377,-8120.612279,666.185348
4074.807838,-444.123565,-8580.269578,814.226536
4074.808163,-1480.411884,-8197.221829,814.226536
4074.808487,-2368.659014,-8197.221829,1184.329507
4074.808811,-2368.659014,-7660.954980,1332.370696
4074.809136,-2146.597232,-7354.516781,1480.411884
4074.809460,-740.205942,-7354.516781,1110.308913
4074.809784,518.144159,-7507.735880,1036.288319
4074.810109,962.267725,-7048.078582,888.247130
4074.810433,1332.370696,-7660.954980,1036.288319
4074.810757,1924.535449,-7507.735880,666.185348
4074.811082,1776.494261,-8810.098227,888.247130
4074.811406,1628.453072,-8197.221829,518.144159
4074.811730,814.226536,-8810.098227,962.267725
4074.812055,-148.041188,-9193.145976,814.226536
4074.812379,-518.144159,-8273.831378,518.144159
4074.812703,-222.061783,-8273.831378,518.144159
4074.813028,74.020594,-8273.831378,74.020594
4074.813352,222.061783,-8350.440928,444.123565
4074.813676,1110.308913,-7507.735880,296.082377
4074.814000,888.247130,-7584.345430,0.000000
4074.814325,2072.576638,-7890.783629,-296.082377
4074.814649,2072.576638,-8120.612279,-370.102971
4074.814973,1776.494261,-8580.269578,148.041188
4074.815298,1480.411884,-8810.098227,-296.082377
4074.815622,1406.391290,-9269.755526,148.041188
4074.815946,814.226536,-9116.536426,148.041188
4074.816271,888.247130,-9116.536426,-518.144159
4074.816595,962.267725,-8886.707777,-740.205942
4074.816919,888.247130,-8810.098227,-962.267725
4074.817244,1036.288319,-8886.707777,-1702.473667
4074.817568,888.247130,-8656.879127,-1406.391290
4074.817892,962.267725,-8427.050478,-2220.617826
4074.818217,740.205942,-8963.317327,-1554.432478
4074.818541,1110.308913,-9346.365076,-1924.535449
4074.818865,1184.329507,-9116.536426,-1850.514855
4074.819190,1480.411884,-9729.412825,-1628.453072
4074.819514,1628.453072,-9806.022374,-1850.514855
4074.819838,1850.514855,-9882.631924,-1924.535449
4074.820162,1628.453072,-9576.193725,-1628.453072
4074.820487,1258.350101,-9576.193725,-1776.494261
4074.820811,740.205942,-9193.145976,-1850.514855
4074.821135,74.020594,-9193.145976,-1554.432478
4074.821460,-962.267725,-8733.488677,-1406.391290
4074.821784,-888.247130,-8580.269578,-1184.329507
4074.822108,-1036.288319,-8733.488677,-1110.308913
4074.822433,-740.205942,-8886.707777,-518.144159
4074.822757,-666.185348,-8656.879127,-888.247130
4074.823081,148.041188,-8427.050478,-444.123565
4074.823406,888.247130,-8656.879127,-962.267725
4074.823730,2146.597232,-9346.365076,-370.102971
4074.824054,1702.473667,-9346.365076,-1036.288319
4074.824379,1332.370696,-9729.412825,-444.123565
4074.824703,1184.329507,-9039.926876,-666.185348
4074.825027,518.144159,-9193.145976,-444.123565
4074.825351,222.061783,-8810.098227,-370.102971
4074.825676,-592.164754,-8656.879127,148.041188
4074.826000,-666.185348,-8580.269578,74.020594
4074.826324,-296.082377,-8427.050478,74.020594
4074.826649,0.000000,-8350.440928,222.061783
4074.826973,0.000000,-8197.221829,148.041188
4074.827297,-148.041188,-8044.002729,222.061783
4074.827622,-222.061783,-8044.002729,370.102971
4074.827946,-814.226536,-8273.831378,666.185348
4074.828270,-1110.308913,-8120.612279,888.247130
4074.828595,-1184.329507,-8044.002729,666.185348
4074.828919,-1184.329507,-8350.440928,1554.432478
4074.829243,-962.267725,-7967.393179,1406.391290
4074.829568,-370.102971,-7814.174080,1480.411884
4074.829892,-222.061783,-7584.345430,1036.288319
4074.830216,518.144159,-7507.735880,518.144159
4074.830541,1332.370696,-7890.783629,518.144159
4074.830865,1332.370696,-7890.783629,888.247130
4074.831189,962.267725,-7737.564530,370.102971
4074.831513,592.164754,-7814.174080,592.164754
4074.831838,814.226536,-8427.050478,518.144159
4074.832162,1036.288319,-8120.612279,296.082377
4074.832486,1110.308913,-8427.050478,518.144159
4074.832811,1850.514855,-8427.050478,518.144159
4074.833135,2442.679609,-8273.831378,370.102971
4074.833459,2220.617826,-8427.050478,74.020594
4074.833784,1850.514855,-8044.002729,-444.123565
4074.834108,888.247130,-8197.221829,74.020594
4074.834432,444.123565,-8350.440928,-222.061783
4074.834757,-296.082377,-8580.269578,-740.205942
4074.835081,-2146.597232,-7967.393179,222.061783
4074.835405,-1924.535449,-8656.879127,0.000000
4074.835730,-2146.597232,-8503.660028,0.000000
4074.836054,-1258.350101,-8810.098227,-518.144159
4074.836378,74.020594,-8656.879127,-370.102971
4074.836702,1628.453072,-8503.660028,-740.205942
4074.837027,2368.659014,-8580.269578,-1332.370696
4074.837351,3108.864956,-8963.317327,-1406.391290
4074.837675,3182.885551,-8580.269578,-1332.370696
4074.838000,3034.844362,-9039.926876,-1184.329507
4074.838324,2146.597232,-9422.974625,-1850.514855
4074.838648,1554.432478,-9576.193725,-1332.370696
4074.838973,518.144159,-9422.974625,-1776.494261
4074.839297,148.041188,-9039.926876,-1110.308913
4074.839621,0.000000,-9269.755526,-1702.473667
4074.839946,-148.041188,-9729.412825,-1406.391290
4074.840270,0.000000,-9116.536426,-1702.473667
4074.840594,444.123565,-9039.926876,-1332.370696
4074.840919,740.205942,-9499.584175,-1924.535449
4074.841243,592.164754,-8733.488677,-1554.432478
4074.841567,444.123565,-9116.536426,-1110.308913
4074.841892,-74.020594,-9116.536426,-1258.350101
4074.842216,74.020594,-8963.317327,-666.185348
4074.842540,0.000000,-8810.098227,-666.185348
4074.842864,148.041188,-9116.536426,-518.144159
4074.843189,222.061783,-8580.269578,-740.205942
4074.843513,740.205942,-8963.317327,-518.144159
4074.843837,962.267725,-8503.660028,-888.247130
4074.844162,740.205942,-8656.879127,-666.185348
4074.844486,666.185348,-8656.879127,-740.205942
4074.844810,296.082377,-7967.393179,-666.185348
4074.845135,592.164754,-8350.440928,-592.164754
4074.845459,666.185348,-8044.002729,-370.102971
4074.845783,814.226536,-8427.050478,-222.061783
4074.846108,1036.288319,-8580.269578,0.000000
4074.846432,1258.350101,-8886.707777,0.000000
4074.846756,962.267725,-8503.660028,74.020594
4074.847081,962.267725,-8733.488677,0.000000
4074.847405,0.000000,-8044.002729,0.000000
4074.847729,-592.164754,-8273.831378,148.041188
4074.848054,-1036.288319,-8197.221829,370.102971
4074.848378,-2072.576638,-7967.393179,666.185348
4074.848702,-2368.659014,-7814.174080,1036.288319
4074.849026,-1776.494261,-7507.735880,962.267725
4074.849351,-888.247130,-7967.393179,1110.308913
4074.849675,592.164754,-7660.954980,1406.391290
4074.849999,1036.288319,-7584.345430,740.205942
4074.850324,1998.556043,-7507.735880,592.164754
4074.850648,2590.720797,-9116.536426,888.247130
4074.850972,2294.638420,-8580.269578,296.082377
4074.851297,2368.659014,-8656.879127,370.102971
4074.851621,1628.453072,-8350.440928,518.144159
4074.851945,370.102971,-8656.879127,296.082377
4074.852270,0.000000,-9116.536426,0.000000
4074.852594,-740.205942,-8733.488677,0.000000
4074.852918,-962.267725,-8963.317327,370.102971
4074.853243,-1036.288319,-8197.221829,-444.123565
4074.853567,-296.082377,-8197.221829,0.000000
4074.853891,-296.082377,-8197.221829,-296.082377
4074.854215,-222.061783,-8350.440928,-518.144159
4074.854540,-148.041188,-8350.440928,-814.226536
4074.854864,370.102971,-8733.488677,-370.102971
4074.855188,0.000000,-7890.783629,0.000000
4074.855513,0.000000,-8427.050478,0.000000
4074.855837,370.102971,-8886.707777,-296.082377
4074.856161,592.164754,-8350.440928,0.000000
4074.856486,1702.473667,-9422.974625,-592.164754
4074.856810,1406.391290,-8963.317327,-962.267725
4074.857134,1702.473667,-8503.660028,-962.267725
4074.857459,888.247130,-8580.269578,-962.267725
4074.857783,1332.370696,-8580.269578,-1480.411884
4074.858107,1184.329507,-8580.269578,-1480.411884
4074.858432,518.144159,-8886.707777,-1184.329507
4074.858756,518.144159,-8733.488677,-1406.391290
4074.859080,1036.288319,-9269.755526,-1702.473667
4074.859405,1406.391290,-9499.584175,-1850.514855
4074.859729,1554.432478,-9269.755526,-1406.391290
4074.860053,1332.370696,-9806.022374,-1702.473667
4074.860377,740.205942,-9729.412825,-1406.391290
4074.860702,0.000000,-9269.755526,-1258.350101
4074.861026,-148.041188,-9116.536426,-1332.370696
4074.861350,-888.247130,-8886.707777,-1480.411884
4074.861675,-1480.411884,-8886.707777,-1110.308913
4074.861999,-1332.370696,-9039.926876,-148.041188
4074.862323,-1258.350101,-8197.221829,-740.205942
4074.862648,-666.185348,-8580.269578,-518.144159
4074.862972,148.041188,-8120.612279,-370.102971
4074.863296,1110.308913,-8580.269578,-518.144159
4074.863621,1924.535449,-8886.707777,-592.164754
4074.863945,2072.576638,-8810.098227,-666.185348
4074.864269,2812.782580,-9193.145976,-740.205942
4074.864594,2072.576638,-8810.098227,-888.247130
4074.864918,2368.659014,-9422.974625,-888.247130
4074.865242,1036.288319,-8886.707777,-592.164754
4074.865566,1036.288319,-9039.926876,74.020594
4074.865891,444.123565,-8733.488677,-222.061783
4074.866215,296.082377,-8733.488677,-148.041188
4074.866539,0.000000,-8197.221829,-222.061783
4074.866864,-222.061783,-8350.440928,0.000000
4074.867188,0.000000,-8503.660028,-296.082377
4074.867512,0.000000,-8427.050478,0.000000
4074.867837,-148.041188,-8120.612279,-148.041188
4074.868161,-518.144159,-8273.831378,370.102971
4074.868485,-740.205942,-8197.221829,0.000000
4074.868810,-740.205942,-8580.269578,814.226536
4074.869134,592.164754,-8350.440928,888.247130
4074.869458,74.020594,-8427.050478,814.226536
4074.869783,592.164754,-8350.440928,814.226536
4074.870107,1332.370696,-7890.783629,666.185348
4074.870431,1554.432478,-8810.098227,888.247130
4074.870756,888.247130,-7660.954980,74.020594
4074.871080,888.247130,-7967.393179,222.061783
4074.871404,74.020594,-7737.564530,148.041188
4074.871728,0.000000,-7967.393179,296.082377
4074.872053,0.000000,-8580.269578,296.082377
4074.872377,222.061783,-8503.660028,370.102971
4074.872701,296.082377,-8503.660028,0.000000
4074.873026,814.226536,-8580.269578,0.000000
4074.873350,1110.308913,-7660.954980,296.082377
4074.873674,1184.329507,-8427.050478,-296.082377
4074.873999,962.267725,-8273.831378,0.000000
4074.874323,296.082377,-8427.050478,0.000000
4074.874647,-444.123565,-8656.879127,-296.082377
4074.874972,-1110.308913,-7890.783629,0.000000
4074.875296,-2072.576638,-8427.050478,0.000000
4074.875620,-1702.473667,-8120.612279,-222.061783
4074.875945,-1332.370696,-8273.831378,74.020594
4074.876269,-370.102971,-8580.269578,-222.061783
4074.876593,666.185348,-8120.612279,-296.082377
4074.876917,1776.494261,-8580.269578,-370.102971
4074.877242,2072.576638,-8656.879127,-888.247130
4074.877566,3256.906145,-9652.803275,-1258.350101
4074.877890,2442.679609,-9193.145976,-1258.350101
4074.878215,1850.514855,-9729.412825,-444.123565
4074.878539,740.205942,-9116.536426,-1332.370696
4074.878863,814.226536,-9729.412825,-1110.308913
4074.879188,0.000000,-9576.193725,-1332.370696
4074.879512,-444.123565,-9346.365076,-666.185348
4074.879836,-1184.329507,-9193.145976,-1110.308913
4074.880161,-1184.329507,-9116.536426,-1184.329507
4074.880485,0.000000,-9193.145976,-1332.370696
4074.880809,-296.082377,-8656.879127,-1702.473667
4074.881133,148.041188,-8810.098227,-740.205942
4074.881458,0.000000,-8350.440928,-740.205942
4074.881782,296.082377,-9959.241474,-444.123565
4074.882106,296.082377,-8350.440928,-740.205942
4074.882431,1110.308913,-9269.755526,0.000000
4074.882755,814.226536,-8503.660028,-592.164754
4074.883079,962.267725,-8963.317327,-296.082377
4074.883404,1110.308913,-8273.831378,-592.164754
4074.883728,814.226536,-8733.488677,-518.144159
4074.884052,814.226536,-8427.050478,-740.205942
4074.884377,814.226536,-8656.879127,-740.205942
4074.884701,148.041188,-9499.584175,-740.205942
4074.885025,740.205942,-8656.879127,-814.226536
4074.885350,740.205942,-8810.098227,-518.144159
4074.885674,666.185348,-8273.831378,-518.144159
4074.885998,1406.391290,-8810.098227,-296.082377
4074.886322,1628.453072,-8503.660028,-518.144159
4074.886647,1776.494261,-8810.098227,-444.123565
4074.886971,1332.370696,-8810.098227,-592.164754
4074.887295,666.185348,-8810.098227,-148.041188
4074.887620,444.123565,-8427.050478,-962.267725
4074.887944,-814.226536,-8656.879127,-74.020594
4074.888268,-1776.494261,-8044.002729,0.000000
4074.888593,-2294.638420,-8350.440928,444.123565
4074.888917,-2516.700203,-8273.831378,1036.288319
4074.889241,-1480.411884,-7660.954980,592.164754
4074.889566,-296.082377,-7814.174080,222.061783
4074.889890,814.226536,-7584.345430,148.041188
4074.890214,1628.453072,-8733.488677,222.061783
4074.890538,2368.659014,-8427.050478,222.061783
4074.890863,2886.803174,-8197.221829,0.000000
4074.891187,2590.720797,-8810.098227,-148.041188
4074.891511,2220.617826,-8886.707777,-74.020594
4074.891836,962.267725,-9193.145976,222.061783
4074.892160,592.164754,-8886.707777,-148.041188
4074.892484,-370.102971,-9116.536426,0.000000
4074.892809,-296.082377,-9039.926876,296.082377
4074.893133,-740.205942,-8656.879127,74.020594
4074.893457,-148.041188,-8503.660028,148.041188
4074.893782,-222.061783,-8350.440928,0.000000
4074.894106,74.020594,-8197.221829,-444.123565
4074.894430,0.000000,-8197.221829,-444.123565
4074.894754,148.041188,-8656.879127,74.020594
4074.895079,-370.102971,-8656.879127,222.061783
4074.895403,-444.123565,-8810.098227,444.123565
4074.895727,0.000000,-8886.707777,814.226536
4074.896052,0.000000,-8427.050478,0.000000
4074.896376,1110.308913,-9116.536426,74.020594
4074.896700,1184.329507,-8273.831378,-148.041188
4074.897025,1184.329507,-8350.440928,-296.082377
4074.897349,2072.576638,-8503.660028,-222.061783
4074.897673,1110.308913,-8350.440928,-444.123565
4074.897998,1258.350101,-8656.879127,-962.267725
4074.898322,592.164754,-8273.831378,-888.247130
4074.898646,0.000000,-8963.317327,-592.164754
4074.898971,0.000000,-8580.269578,-1184.329507
4074.899295,962.267725,-8886.707777,-666.185348
4074.899619,666.185348,-8810.098227,-1110.308913
4074.899943,814.226536,-9499.584175,-888.247130
4074.900268,1332.370696,-8886.707777,-370.102971
4074.900592,592.164754,-8427.050478,-888.247130
4074.900916,222.061783,-8963.317327,-962.267725
4074.901241,-444.123565,-8810.098227,-740.205942
4074.901565,-1036.288319,-9116.536426,-296.082377
4074.901889,-962.267725,-8197.221829,-666.185348
4074.902214,-1110.308913,-8350.440928,-444.123565
4074.902538,-814.226536,-8427.050478,0.000000
4074.902862,444.123565,-8427.050478,0.000000
4074.903187,1184.329507,-8273.831378,-148.041188
4074.903511,1998.556043,-8733.488677,-370.102971
4074.903835,2590.720797,-8350.440928,-444.123565
4074.904159,2516.700203,-8810.098227,-1110.308913
4074.904484,2294.638420,-8503.660028,0.000000
4074.904808,1776.494261,-9116.536426,-888.247130
4074.905132,1628.453072,-9422.974625,-1110.308913
4074.905457,370.102971,-9422.974625,-444.123565
4074.905781,-518.144159,-9499.584175,-296.082377
4074.906105,-666.185348,-9116.536426,-148.041188
4074.906430,-592.164754,-8733.488677,-592.164754
4074.906754,-296.082377,-9039.926876,-74.020594
4074.907078,222.061783,-8197.221829,-888.247130
4074.907403,148.041188,-8427.050478,-148.041188
4074.907727,296.082377,-8427.050478,-518.144159
4074.908051,222.061783,-8503.660028,0.000000
4074.908376,222.061783,-8427.050478,0.000000
4074.908700,296.082377,-8044.002729,0.000000
4074.909024,296.082377,-8656.879127,740.205942
4074.909348,444.123565,-7814.174080,592.164754
4074.909673,1184.329507,-8656.879127,888.247130
4074.909997,1184.329507,-7814.174080,296.082377
4074.910321,1850.514855,-8273.831378,0.000000
4074.910646,1480.411884,-8120.612279,0.000000
4074.910970,1184.329507,-8273.831378,0.000000
4074.911294,740.205942,-7967.393179,-370.102971
4074.911619,814.226536,-7967.393179,-222.061783
4074.911943,444.123565,-8120.612279,-518.144159
4074.912267,518.144159,-7967.393179,-518.144159
4074.912592,962.267725,-8810.098227,-148.041188
4074.912916,1258.350101,-9039.926876,-222.061783
4074.913240,1406.391290,-9039.926876,0.000000
4074.913564,888.247130,-8197.221829,-518.144159
4074.913889,1036.288319,-9116.536426,0.000000
4074.914213,0.000000,-8427.050478,-296.082377
4074.914537,-370.102971,-8733.488677,0.000000
4074.914862,-1850.514855,-8427.050478,-296.082377
4074.915186,-1924.535449,-8350.440928,296.082377
4074.915510,-1924.535449,-8044.002729,0.000000
4074.915835,-1332.370696,-8427.050478,740.205942
4074.916159,0.000000,-7967.393179,148.041188
4074.916483,518.144159,-7967.393179,0.000000
4074.916808,1776.494261,-8197.221829,-148.041188
4074.917132,1776.494261,-8503.660028,-370.102971
4074.917456,2590.720797,-9039.926876,-370.102971
4074.917781,1628.453072,-8656.879127,-740.205942
4074.918105,1702.473667,-9193.145976,-814.226536
4074.918429,666.185348,-9116.536426,-888.247130
4074.918753,222.061783,-9422.974625,-666.185348
4074.919078,0.000000,-9422.974625,-888.247130
4074.919402,-296.082377,-9193.145976,-666.185348
4074.919726,-518.144159,-9039.926876,-592.164754
4074.920051,74.020594,-9193.145976,-666.185348
4074.920375,-222.061783,-8733.488677,-592.164754
4074.920699,0.000000,-8427.050478,-1110.308913
4074.921024,518.144159,-8810.098227,-1036.288319
4074.921348,1110.308913,-8350.440928,-1036.288319
4074.921672,370.102971,-8963.317327,-518.144159
4074.921997,0.000000,-8197.221829,-592.164754
4074.922321,0.000000,-8963.317327,296.082377
4074.922645,0.000000,-8580.269578,0.000000
4074.922969,592.164754,-8886.707777,444.123565
4074.923294,962.267725,-8503.660028,-148.041188
4074.923618,1184.329507,-8273.831378,-666.185348
4074.923942,1702.473667,-8503.660028,-740.205942
4074.924267,1110.308913,-9193.145976,-888.247130
4074.924591,1258.350101,-8656.879127,-962.267725
4074.924915,222.061783,-8580.269578,-518.144159
4074.925240,0.000000,-8810.098227,-592.164754
4074.925564,74.020594,-7584.345430,-592.164754
4074.925888,518.144159,-8503.660028,-518.144159
4074.926213,740.205942,-8733.488677,-444.123565
4074.926537,1332.370696,-8580.269578,-370.102971
4074.926861,1480.411884,-8886.707777,0.000000
4074.927186,1776.494261,-8350.440928,-740.205942
4074.927510,888.247130,-8656.879127,0.000000
4074.927834,74.020594,-8427.050478,-444.123565
4074.928158,-296.082377,-8273.831378,74.020594
4074.928483,-1480.411884,-7584.345430,592.164754
4074.928807,-1110.308913,-7890.783629,0.000000
4074.929131,-888.247130,-7660.954980,444.123565
4074.929456,-444.123565,-7814.174080,148.041188
4074.929780,518.144159,-8044.002729,444.123565
4074.930104,1110.308913,-7967.393179,0.000000
4074.930429,666.185348,-8350.440928,148.041188
4074.930753,2072.576638,-8656.879127,-444.123565
4074.931077,2294.638420,-8963.317327,-444.123565
4074.931402,1554.432478,-9346.365076,0.000000
4074.931726,2146.597232,-9193.145976,-666.185348
4074.932050,592.164754,-9499.584175,-222.061783
4074.932374,0.000000,-9269.755526,-444.123565
4074.932699,-666.185348,-9039.926876,0.000000
4074.933023,-814.226536,-8350.440928,-222.061783
4074.933347,-592.164754,-9116.536426,0.000000
4074.933672,-370.102971,-8044.002729,-296.082377
4074.933996,0.000000,-8273.831378,-370.102971
4074.934320,444.123565,-7967.393179,-888.247130
4074.934645,148.041188,-8427.050478,-592.164754
4074.934969,296.082377,-8350.440928,-370.102971
4074.935293,74.020594,-8656.879127,148.041188
4074.935618,-592.164754,-8503.660028,444.123565
4074.935942,0.000000,-8580.269578,592.164754
4074.936266,74.020594,-8810.098227,0.000000
4074.936590,222.061783,-8656.879127,0.000000
4074.936915,740.205942,-8810.098227,148.041188
4074.937239,296.082377,-8733.488677,-592.164754
4074.937563,222.061783,-8427.050478,-814.226536
4074.937888,0.000000,-8044.002729,-888.247130
4074.938212,74.020594,-8810.098227,-888.247130
4074.938536,74.020594,-7814.174080,-1036.288319
4074.938861,740.205942,-8810.098227,-518.144159
4074.939185,814.226536,-8273.831378,-962.267725
4074.939509,1850.514855,-9039.926876,-814.226536
4074.939834,1406.391290,-8733.488677,-1036.288319
4074.940158,1628.453072,-9116.536426,-518.144159
4074.940482,1036.288319,-8810.098227,-740.205942
4074.940807,666.185348,-9116.536426,-518.144159
4074.941131,-518.144159,-9193.145976,-592.164754
4074.941455,-1332.370696,-8273.831378,-518.144159
4074.941779,-2294.638420,-8273.831378,-296.082377
4074.942104,-2146.597232,-8120.612279,74.020594
4074.942428,-1998.556043,-8197.221829,0.000000
4074.942752,-1258.350101,-7737.564530,-518.144159
4074.943077,0.000000,-8044.002729,0.000000
4074.943401,666.185348,-8120.612279,-518.144159
4074.943725,1554.432478,-8580.269578,-444.123565
4074.944050,1702.473667,-8656.879127,-296.082377
4074.944374,2294.638420,-9039.926876,-740.205942
4074.944698,2590.720797,-9422.974625,-888.247130
4074.945023,2072.576638,-9422.974625,-740.205942
4074.945347,1332.370696,-9652.803275,-666.185348
4074.945671,222.061783,-8503.660028,-962.267725
4074.945995,148.041188,-9193.145976,-296.082377
4074.946320,-148.041188,-8427.050478,-296.082377
4074.946644,296.082377,-8273.831378,-740.205942
4074.946968,370.102971,-8120.612279,-740.205942
4074.947293,370.102971,-8733.488677,-444.123565
4074.947617,296.082377,-8197.221829,-592.164754
4074.947941,666.185348,-8427.050478,-370.102971
4074.948266,370.102971,-8733.488677,-296.082377
4074.948590,-222.061783,-8656.879127,-296.082377
4074.948914,0.000000,-8580.269578,370.102971
4074.949239,148.041188,-8580.269578,296.082377
4074.949563,444.123565,-8886.707777,148.041188
4074.949887,444.123565,-8580.269578,148.041188
4074.950212,962.267725,-8273.831378,-296.082377
4074.950536,1036.288319,-8350.440928,-296.082377
4074.950860,1110.308913,-8273.831378,0.000000
4074.951184,592.164754,-8427.050478,-592.164754
4074.951509,666.185348,-8273.831378,-592.164754
4074.951833,370.102971,-8503.660028,-740.205942
4074.952157,740.205942,-8733.488677,-370.102971
4074.952482,1110.308913,-8733.488677,74.020594
4074.952806,1184.329507,-8733.488677,-222.061783
4074.953130,1036.288319,-8733.488677,-370.102971
4074.953455,1702.473667,-8886.707777,-1036.288319
4074.953779,888.247130,-8963.317327,-296.082377
4074.954103,592.164754,-8580.269578,-296.082377
4074.954428,0.000000,-8427.050478,-444.123565
4074.954752,-1184.329507,-8656.879127,0.000000
4074.955076,-1850.514855,-8197.221829,0.000000
4074.955400,-2146.597232,-7584.345430,0.000000
4074.955725,-1850.514855,-8197.221829,74.020594
4074.956049,-814.226536,-7967.393179,296.082377
4074.956373,0.000000,-8503.660028,0.000000
4074.956698,1332.370696,-8197.221829,-370.102971
4074.957022,2368.659014,-8427.050478,-222.061783
4074.957346,2442.679609,-8580.269578,-222.061783
4074.957671,2220.617826,-8733.488677,-296.082377
4074.957995,2368.659014,-9269.755526,-444.123565
4074.958319,1776.494261,-9039.926876,-740.205942
4074.958644,518.144159,-9576.193725,-296.082377
4074.958968,0.000000,-9116.536426,-888.247130
4074.959292,-666.185348,-9193.145976,0.000000
4074.959617,-888.247130,-8503.660028,-1110.308913
4074.959941,-1184.329507,-9116.536426,-666.185348
4074.960265,-518.144159,-8580.269578,-370.102971
4074.960589,-296.082377,-7814.174080,-666.185348
4074.960914,0.000000,-8733.488677,-666.185348
4074.961238,-296.082377,-8273.831378,-370.102971
4074.961562,0.000000,-8427.050478,-148.041188
4074.961887,0.000000,-8273.831378,-370.102971
4074.962211,222.061783,-9039.926876,518.144159
4074.962535,592.164754,-8503.660028,74.020594
4074.962860,592.164754,-8580.269578,296.082377
4074.963184,962.267725,-8503.660028,-296.082377
4074.963508,1110.308913,-8350.440928,0.000000
4074.963833,1480.411884,-7507.735880,-296.082377
4074.964157,1554.432478,-8503.660028,-592.164754
4074.964481,1036.288319,-8273.831378,-814.226536
4074.964805,740.205942,-8273.831378,-518.144159
4074.965130,740.205942,-8656.879127,-666.185348
4074.965454,814.226536,-8503.660028,-296.082377
4074.965778,666.185348,-8197.221829,-888.247130
4074.966103,1110.308913,-8810.098227,-1110.308913
4074.966427,1850.514855,-8656.879127,-518.144159
4074.966751,1406.391290,-8273.831378,-962.267725
4074.967076,1258.350101,-9039.926876,-814.226536
4074.967400,592.164754,-8733.488677,-296.082377
4074.967724,-518.144159,-8656.879127,-666.185348
4074.968049,-592.164754,-8886.707777,0.000000
4074.968373,-1776.494261,-8733.488677,148.041188
4074.968697,-1628.453072,-8580.269578,222.061783
4074.969021,-1776.494261,-8197.221829,0.000000
4074.969346,-296.082377,-8656.879127,74.020594
4074.969670,444.123565,-8427.050478,222.061783
4074.969994,1406.391290,-7890.783629,-296.082377
4074.970319,2368.659014,-8580.269578,-666.185348
4074.970643,2072.576638,-8350.440928,-666.185348
4074.970967,2220.617826,-8810.098227,-740.205942
4074.971292,2072.576638,-8963.317327,-592.164754
4074.971616,1332.370696,-9039.926876,-592.164754
4074.971940,666.185348,-9269.755526,-592.164754
4074.972265,0.000000,-9422.974625,-518.144159
4074.972589,-296.082377,-9269.755526,-518.144159
4074.972913,-666.185348,-8580.269578,-296.082377
4074.973238,-518.144159,-8350.440928,-148.041188
4074.973562,-148.041188,-8503.660028,-296.082377
4074.973887,148.041188,-8503.660028,-444.123565
4074.974211,370.102971,-8273.831378,-962.267725
4074.974536,222.061783,-8350.440928,-296.082377
4074.974860,592.164754,-8656.879127,-148.041188
4074.975185,-222.061783,-8580.269578,-814.226536
4074.975509,74.020594,-8963.317327,592.164754
4074.975834,0.000000,-8197.221829,370.102971
4074.976158,740.205942,-8886.707777,0.000000
4074.976483,962.267725,-7737.564530,0.000000
4074.976807,1332.370696,-8427.050478,74.020594
4074.977132,1406.391290,-8503.660028,-592.164754
4074.977456,666.185348,-8273.831378,0.000000
4074.977781,740.205942,-8350.440928,-148.041188
4074.978105,296.082377,-7584.345430,-962.267725
4074.978430,444.123565,-8733.488677,0.000000
4074.978754,296.082377,-7967.393179,-666.185348
4074.979079,814.226536,-9039.926876,-370.102971
4074.979403,592.164754,-9729.412825,-814.226536
4074.979728,1184.329507,-8810.098227,-370.102971
4074.980052,1110.308913,-8503.660028,-814.226536
4074.980377,1036.288319,-8810.098227,-296.082377
4074.980701,814.226536,-8656.879127,-222.061783
4074.981026,518.144159,-8733.488677,0.000000
4074.981350,0.000000,-8656.879127,-518.144159
4074.981675,-1036.288319,-8503.660028,0.000000
4074.981999,-1110.308913,-8656.879127,296.082377
4074.982324,-1480.411884,-8350.440928,222.061783
4074.982648,-444.123565,-8580.269578,148.041188
4074.982973,0.000000,-8120.612279,296.082377
4074.983297,1184.329507,-8427.050478,-148.041188
4074.983622,1924.535449,-8197.221829,74.020594
4074.983946,2368.659014,-8427.050478,0.000000
4074.984271,2220.617826,-8656.879127,-666.185348
4074.984595,2368.659014,-9346.365076,-592.164754
4074.984920,1628.453072,-8810.098227,-592.164754
4074.985244,814.226536,-8886.707777,-592.164754
4074.985569,148.041188,-9422.974625,-592.164754
4074.985893,0.000000,-9422.974625,-666.185348
4074.986218,-296.082377,-8810.098227,-592.164754
4074.986543,-370.102971,-8273.831378,-962.267725
4074.986867,0.000000,-9039.926876,-666.185348
4074.987192,296.082377,-8350.440928,-666.185348
4074.987516,444.123565,-8733.488677,-740.205942
4074.987841,148.041188,-8044.002729,-814.226536
4074.988165,296.082377,-8350.440928,0.000000
4074.988490,148.041188,-8350.440928,-148.041188
4074.988814,444.123565,-8810.098227,74.020594
4074.989139,222.061783,-8350.440928,-296.082377
4074.989463,888.247130,-8963.317327,0.000000
4074.989788,962.267725,-8503.660028,-370.102971
4074.990112,962.267725,-9039.926876,-148.041188
4074.990437,1110.308913,-8273.831378,-296.082377
4074.990761,888.247130,-8120.612279,-148.041188
4074.991086,222.061783,-8503.660028,-666.185348
4074.991410,-148.041188,-7967.393179,-740.205942
4074.991735,0.000000,-8044.002729,-148.041188
4074.992059,444.123565,-8273.831378,-444.123565
4074.992384,888.247130,-8886.707777,-518.144159
4074.992708,1110.308913,-8273.831378,-740.205942
4074.993033,1480.411884,-8733.488677,-518.144159
4074.993357,2220.617826,-8656.879127,-592.164754
4074.993682,2220.617826,-9193.145976,-518.144159
4074.994006,1628.453072,-9039.926876,-444.123565
4074.994331,518.144159,-8273.831378,-74.020594
4074.994655,-666.185348,-8733.488677,0.000000
4074.994980,-1110.308913,-9039.926876,0.000000
4074.995304,-1776.494261,-8197.221829,296.082377
4074.995629,-2072.576638,-8656.879127,222.061783
4074.995953,-814.226536,-8197.221829,296.082377
4074.996278,-888.247130,-8350.440928,222.061783
4074.996602,518.144159,-8044.002729,0.000000
4074.996927,1184.329507,-8273.831378,222.061783
4074.997251,1702.473667,-8350.440928,-740.205942
4074.997576,2220.617826,-8580.269578,0.000000
4074.997900,2072.576638,-8733.488677,-296.082377
4074.998225,888.247130,-9269.755526,148.041188
4074.998549,222.061783,-8886.707777,-666.185348
4074.998874,222.061783,-9576.193725,0.000000
4074.999198,-296.082377,-9422.974625,-666.185348
4074.999523,0.000000,-8963.317327,-296.082377
4074.999847,-370.102971,-8427.050478,-666.185348
4075.000172,0.000000,-8427.050478,-370.102971
4075.000496,296.082377,-8503.660028,-666.185348
4075.000821,222.061783,-8427.050478,-814.226536
4075.001145,1110.308913,-8273.831378,-370.102971
4075.001470,666.185348,-8427.050478,-148.041188
4075.001794,74.020594,-8810.098227,0.000000
4075.002119,888.247130,-8963.317327,296.082377
4075.002443,518.144159,-8810.098227,296.082377
4075.002768,518.144159,-8963.317327,-222.061783
4075.003092,1110.308913,-9193.145976,0.000000
4075.003417,148.041188,-9269.755526,222.061783
4075.003741,148.041188,-8503.660028,-222.061783
4075.004066,148.041188,-8197.221829,-370.102971
4075.004390,0.000000,-8273.831378,-740.205942
4075.004715,-148.041188,-8044.002729,-592.164754
4075.005039,-222.061783,-8350.440928,-592.164754
4075.005364,444.123565,-8656.879127,-814.226536
4075.005688,814.226536,-8427.050478,-962.267725
4075.006013,1480.411884,-8886.707777,-518.144159
4075.006337,1850.514855,-8350.440928,-222.061783
4075.006662,2590.720797,-8886.707777,-740.205942
4075.006986,1924.535449,-9039.926876,-740.205942
4075.007311,1998.556043,-8886.707777,-444.123565
4075.007635,814.226536,-8963.317327,-444.123565
4075.007960,0.000000,-8886.707777,-222.061783
4075.008284,-1258.350101,-8580.269578,-296.082377
4075.008609,-2294.638420,-8733.488677,-148.041188
4075.008933,-2516.700203,-8427.050478,0.000000
4075.009258,-1628.453072,-8197.221829,296.082377
4075.009582,-370.102971,-8427.050478,74.020594
4075.009907,740.205942,-7737.564530,-296.082377
4075.010232,1850.514855,-8273.831378,0.000000
4075.010556,2368.659014,-8197.221829,-296.082377
4075.010881,2516.700203,-8427.050478,-296.082377
4075.011205,2368.659014,-8963.317327,-592.164754
4075.011530,1998.556043,-9422.974625,-222.061783
4075.011854,592.164754,-9039.926876,0.000000
4075.012179,148.041188,-9422.974625,-370.102971
4075.012503,-444.123565,-8810.098227,-370.102971
4075.012828,-814.226536,-8733.488677,-592.164754
4075.013152,-370.102971,-8350.440928,-666.185348
4075.013477,-814.226536,-7890.783629,-592.164754
4075.013801,-222.061783,-8656.879127,-296.082377
4075.014126,148.041188,-7890.783629,-1110.308913
4075.014450,1036.288319,-8427.050478,-518.144159
4075.014775,370.102971,-7890.783629,0.000000
4075.015099,666.185348,-8350.440928,74.020594
4075.015424,296.082377,-8503.660028,148.041188
4075.015748,370.102971,-8886.707777,370.102971
4075.016073,0.000000,-8350.440928,0.000000
4075.016397,222.061783,-8733.488677,222.061783
4075.016722,0.000000,-8580.269578,0.000000
4075.017046,148.041188,-8273.831378,0.000000
4075.017371,148.041188,-8273.831378,-296.082377
4075.017695,148.041188,-8273.831378,-370.102971
4075.018020,444.123565,-8580.269578,-666.185348
4075.018344,296.082377,-8197.221829,-518.144159
4075.018669,666.185348,-8503.660028,-222.061783
4075.018993,666.185348,-8427.050478,-592.164754
4075.019318,888.247130,-8733.488677,-222.061783
4075.019642,1110.308913,-8656.879127,-666.185348
4075.019967,1776.494261,-8886.707777,-814.226536
4075.020291,1184.329507,-8580.269578,-666.185348
4075.020616,1110.308913,-8503.660028,-148.041188
4075.020940,296.082377,-8503.660028,-444.123565
4075.021265,-592.164754,-8733.488677,-222.061783
4075.021589,-1184.329507,-8350.440928,-592.164754
4075.021914,-1110.308913,-8580.269578,-296.082377
4075.022238,-1850.514855,-7890.783629,0.000000
4075.022563,-1036.288319,-8810.098227,0.000000
4075.022887,0.000000,-8044.002729,0.000000
4075.023212,1184.329507,-8886.707777,-222.061783
4075.023536,1554.432478,-8427.050478,-222.061783
4075.023861,2146.597232,-8427.050478,-370.102971
4075.024185,1776.494261,-8350.440928,-518.144159
4075.024510,2368.659014,-8963.317327,-222.061783
4075.024834,1850.514855,-9039.926876,-814.226536
4075.025159,1184.329507,-9652.803275,-592.164754
4075.025483,0.000000,-8810.098227,-814.226536
4075.025808,0.000000,-9652.803275,-444.123565
4075.026132,-444.123565,-9116.536426,-518.144159
4075.026457,0.000000,-8810.098227,-666.185348
4075.026781,-296.082377,-8963.317327,-888.247130
4075.027106,0.000000,-8810.098227,-592.164754
4075.027430,222.061783,-8580.269578,-592.164754
4075.027755,0.000000,-8503.660028,-518.144159
4075.028079,148.041188,-8656.879127,-296.082377
4075.028404,518.144159,-8656.879127,-296.082377
4075.028728,370.102971,-8656.879127,0.000000
4075.029053,666.185348,-8350.440928,74.020594
4075.029377,518.144159,-8656.879127,0.000000
4075.029702,962.267725,-8886.707777,0.000000
4075.030026,1184.329507,-8273.831378,0.000000
4075.030351,444.123565,-8963.317327,-296.082377
4075.030675,1110.308913,-8733.488677,0.000000
4075.031000,74.020594,-7814.174080,-740.205942
4075.031324,518.144159,-8810.098227,-444.123565
4075.031649,0.000000,-7890.783629,-1258.350101
4075.031973,222.061783,-8733.488677,-740.205942
4075.032298,296.082377,-7967.393179,-666.185348
4075.032622,1110.308913,-8810.098227,-444.123565
4075.032947,888.247130,-8350.440928,-888.247130
4075.033271,1702.473667,-8733.488677,-222.061783
4075.033596,1628.453072,-8503.660028,-888.247130
4075.033920,1406.391290,-8886.707777,-222.061783
4075.034245,370.102971,-8350.440928,-296.082377
4075.034570,222.061783,-8580.269578,222.061783
4075.034894,-1110.308913,-8044.002729,-518.144159
4075.035219,-1406.391290,-8580.269578,222.061783
4075.035543,-2072.576638,-8197.221829,74.020594
4075.035868,-1332.370696,-8350.440928,592.164754
4075.036192,-296.082377,-8044.002729,-296.082377
4075.036517,370.102971,-8427.050478,148.041188
4075.036841,1406.391290,-8656.879127,0.000000
4075.037166,1702.473667,-8350.440928,-444.123565
4075.037490,2146.597232,-9039.926876,-222.061783
4075.037815,1480.411884,-8886.707777,-666.185348
4075.038139,1110.308913,-9269.755526,-148.041188
4075.038464,444.123565,-9116.536426,-666.185348
4075.038788,0.000000,-9576.193725,-592.164754
4075.039113,-666.185348,-8810.098227,-666.185348
4075.039437,-592.164754,-8580.269578,-296.082377
4075.039762,-370.102971,-8350.440928,-1036.288319
4075.040086,0.000000,-8733.488677,-666.185348
4075.040411,518.144159,-8503.660028,-592.164754
4075.040735,666.185348,-8273.831378,-814.226536
4075.041060,518.144159,-8656.879127,-518.144159
4075.041384,518.144159,-8120.612279,-370.102971
4075.041709,444.123565,-8503.660028,148.041188
4075.042033,148.041188,-8656.879127,0.000000
4075.042358,370.102971,-8963.317327,74.020594
4075.042682,0.000000,-8886.707777,-148.041188
4075.043007,148.041188,-8656.879127,148.041188
4075.043331,148.041188,-8503.660028,-518.144159
4075.043656,74.020594,-8580.269578,-222.061783
4075.043980,592.164754,-8273.831378,-444.123565
4075.044305,222.061783,-8580.269578,-666.185348
4075.044629,222.061783,-8120.612279,-1036.288319
4075.044954,74.020594,-8350.440928,-592.164754
4075.045278,148.041188,-8197.221829,-962.267725
4075.045603,592.164754,-8656.879127,-740.205942
4075.045927,1702.473667,-9039.926876,-1184.329507
4075.046252,1776.494261,-8886.707777,-518.144159
4075.046576,1850.514855,-8273.831378,-740.205942
4075.046901,1924.535449,-8656.879127,-370.102971
4075.047225,1850.514855,-8197.221829,-222.061783
4075.047550,1184.329507,-8580.269578,-518.144159
4075.047874,518.144159,-8503.660028,-370.102971
4075.048199,-518.144159,-8580.269578,-296.082377
4075.048523,-1702.473667,-8580.269578,0.000000
4075.048848,-1332.370696,-9039.926876,0.000000
4075.049172,-1554.432478,-8273.831378,-222.061783
4075.049497,-962.267725,-8350.440928,-296.082377
4075.049821,74.020594,-8197.221829,74.020594
4075.050146,1406.391290,-7660.954980,-296.082377
4075.050470,1776.494261,-8427.050478,-370.102971
4075.050795,2516.700203,-8656.879127,-592.164754
4075.051119,1998.556043,-9039.926876,-740.205942
4075.051444,1702.473667,-9193.145976,-444.123565
4075.051768,888.247130,-8656.879127,-444.123565
4075.052093,74.020594,-9193.145976,-592.164754
4075.052417,-740.205942,-8963.317327,-444.123565
4075.052742,-370.102971,-9116.536426,-444.123565
4075.053066,370.102971,-8580.269578,-370.102971
4075.053391,222.061783,-8427.050478,-148.041188
4075.053715,666.185348,-7890.783629,-666.185348
4075.054040,592.164754,-8427.050478,-518.144159
4075.054364,962.267725,-8197.221829,-222.061783
4075.054689,370.102971,-8580.269578,74.020594
4075.055013,74.020594,-8427.050478,0.000000
4075.055338,148.041188,-8733.488677,0.000000
4075.055662,0.000000,-8656.879127,370.102971
4075.055987,370.102971,-8503.660028,74.020594
4075.056311,0.000000,-8810.098227,148.041188
4075.056636,-296.082377,-8427.050478,444.123565
4075.056960,148.041188,-8503.660028,-148.041188
4075.057285,740.205942,-8427.050478,-592.164754
4075.057609,0.000000,-8273.831378,-148.041188
4075.057934,444.123565,-8044.002729,-666.185348
4075.058259,0.000000,-8120.612279,-444.123565
4075.058583,592.164754,-7967.393179,-666.185348
4075.058908,1110.308913,-8503.660028,-740.205942
4075.059232,1184.329507,-8427.050478,-592.164754
4075.059557,1628.453072,-8656.879127,-296.082377
4075.059881,1628.453072,-8427.050478,-962.267725
4075.060206,1924.535449,-8886.707777,-296.082377
4075.060530,1554.432478,-8503.660028,-444.123565
4075.060855,888.247130,-8963.317327,-592.164754
4075.061179,0.000000,-8656.879127,-518.144159
4075.061504,-222.061783,-8963.317327,0.000000
4075.061828,-1628.453072,-8197.221829,0.000000
4075.062153,-1480.411884,-8810.098227,148.041188
4075.062477,-1850.514855,-8273.831378,0.000000
4075.062802,-814.226536,-8580.269578,74.020594
4075.063126,0.000000,-7814.174080,-370.102971
4075.063451,1036.288319,-8810.098227,-444.123565
4075.063775,1480.411884,-8656.879127,-444.123565
4075.064100,2072.576638,-8963.317327,-444.123565
4075.064424,1850.514855,-8656.879127,-962.267725
4075.064749,1998.556043,-8886.707777,-370.102971
4075.065073,1776.494261,-8963.317327,-1036.288319
4075.065398,1184.329507,-9499.584175,-296.082377
4075.065722,296.082377,-8503.660028,-888.247130
4075.066047,222.061783,-9193.145976,-518.144159
4075.066371,-296.082377,-8733.488677,-962.267725
4075.066696,-222.061783,-8427.050478,-592.164754
4075.067020,518.144159,-8350.440928,-814.226536
4075.067345,518.144159,-8580.269578,-888.247130
4075.067669,370.102971,-8733.488677,-370.102971
4075.067994,444.123565,-8733.488677,-962.267725
4075.068318,296.082377,-8580.269578,0.000000
4075.068643,740.205942,-8886.707777,-592.164754
4075.068967,222.061783,-8963.317327,74.020594
4075.069292,148.041188,-8503.660028,0.000000
4075.069616,518.144159,-9039.926876,0.000000
4075.069941,666.185348,-8963.317327,-518.144159
4075.070265,296.082377,-8656.879127,-518.144159
4075.070590,592.164754,-8197.221829,-444.123565
4075.070914,148.041188,-8044.002729,0.000000
4075.071239,0.000000,-8197.221829,-592.164754
4075.071563,-148.041188,-8273.831378,0.000000
4075.071888,592.164754,-7967.393179,-592.164754
4075.072212,962.267725,-8427.050478,-740.205942
4075.072537,1110.308913,-8273.831378,-814.226536
4075.072861,1850.514855,-8886.707777,-370.102971
4075.073186,2072.576638,-8503.660028,-444.123565
4075.073510,1628.453072,-8810.098227,-296.082377
4075.073835,1480.411884,-8656.879127,-222.061783
4075.074159,518.144159,-8733.488677,-148.041188
4075.074483,-148.041188,-8886.707777,-222.061783
4075.074808,-518.144159,-8886.707777,-222.061783
4075.075132,-1554.432478,-8427.050478,0.000000
4075.075456,-1628.453072,-8273.831378,296.082377
4075.075781,-1480.411884,-8044.002729,148.041188
4075.076105,-888.247130,-8350.440928,74.020594
4075.076429,-222.061783,-7967.393179,0.000000
4075.076754,1258.350101,-8810.098227,-148.041188
4075.077078,1628.453072,-8810.098227,296.082377
4075.077403,2590.720797,-8580.269578,-148.041188
4075.077727,2294.638420,-8273.831378,-370.102971
4075.078051,2072.576638,-9116.536426,-148.041188
4075.078376,1258.350101,-9193.145976,0.000000
4075.078700,370.102971,-9652.803275,0.000000
4075.079024,-666.185348,-9039.926876,-518.144159
4075.079349,-814.226536,-8886.707777,0.000000
4075.079673,-888.247130,-8733.488677,-666.185348
4075.079997,-592.164754,-8963.317327,0.000000
4075.080322,0.000000,-8350.440928,-370.102971
4075.080646,444.123565,-8120.612279,-592.164754
4075.080970,962.267725,-8350.440928,-370.102971
4075.081295,962.267725,-8273.831378,-222.061783
4075.081619,1036.288319,-8656.879127,-222.061783
4075.081943,740.205942,-8580.269578,148.041188
4075.082268,444.123565,-8963.317327,0.000000
4075.082592,0.000000,-9576.193725,148.041188
4075.082917,740.205942,-8810.098227,222.061783
4075.083241,0.000000,-8580.269578,0.000000
4075.083565,222.061783,-9116.536426,-222.061783
4075.083890,518.144159,-8503.660028,-740.205942
4075.084214,444.123565,-8580.269578,0.000000
4075.084538,518.144159,-7967.393179,-740.205942
4075.084863,592.164754,-8120.612279,-518.144159
4075.085187,222.061783,-8427.050478,-1036.288319
4075.085511,962.267725,-7890.783629,-666.185348
4075.085836,1258.350101,-8580.269578,-888.247130
4075.086160,1406.391290,-9116.536426,-962.267725
4075.086484,1776.494261,-8656.879127,-592.164754
4075.086809,1406.391290,-9039.926876,-888.247130
4075.087133,1406.391290,-9039.926876,-592.164754
4075.087457,518.144159,-8580.269578,-666.185348
4075.087782,370.102971,-8810.098227,-444.123565
4075.088106,-592.164754,-8427.050478,-296.082377
4075.088430,-1110.308913,-8044.002729,-148.041188
4075.088755,-1850.514855,-8810.098227,148.041188
4075.089079,-1776.494261,-8044.002729,-148.041188
4075.089404,-888.247130,-8197.221829,370.102971
4075.089728,0.000000,-8656.879127,-74.020594
4075.090052,592.164754,-8427.050478,-518.144159
4075.090377,1776.494261,-8656.879127,-444.123565
4075.090701,1332.370696,-7660.954980,-518.144159
4075.091025,2886.803174,-8963.317327,-888.247130
4075.091350,1406.391290,-9269.755526,-518.144159
4075.091674,1184.329507,-8503.660028,-148.041188
4075.091998,444.123565,-8733.488677,-296.082377
4075.092323,-370.102971,-9346.365076,-814.226536
4075.092647,1036.288319,-9652.803275,0.000000
4075.092971,-444.123565,-8273.831378,-666.185348
4075.093296,222.061783,-9039.926876,0.000000
4075.093620,0.000000,-8044.002729,-370.102971
4075.093944,592.164754,-7507.735880,0.000000
4075.094269,888.247130,-7967.393179,-444.123565
4075.094593,1036.288319,-8273.831378,-222.061783
4075.094918,444.123565,-8273.831378,74.020594
4075.095242,-444.123565,-8503.660028,0.000000
4075.095566,-296.082377,-8963.317327,444.123565
4075.095891,-444.123565,-8427.050478,0.000000
4075.096215,0.000000,-8963.317327,740.205942
4075.096539,-148.041188,-8427.050478,0.000000
4075.096864,1036.288319,-9039.926876,0.000000
4075.097188,-1776.494261,-8197.221829,0.000000
4075.097512,222.061783,-8656.879127,222.061783
4075.097837,-370.102971,-7507.735880,-962.267725
4075.098161,814.226536,-8656.879127,370.102971
4075.098485,740.205942,-7431.126331,-1110.308913
4075.098810,518.144159,-8733.488677,-296.082377
4075.099134,740.205942,-8044.002729,-1110.308913
4075.099458,1628.453072,-9039.926876,-888.247130
4075.099783,1480.411884,-8503.660028,-296.082377
4075.100107,1332.370696,-8503.660028,-296.082377
4075.100432,1850.514855,-8427.050478,-518.144159
4075.100756,1110.308913,-8886.707777,-518.144159
4075.101080,666.185348,-9346.365076,-518.144159
4075.101405,-74.020594,-8656.879127,-222.061783
4075.101729,-1850.514855,-8273.831378,-296.082377
4075.102053,-1406.391290,-8350.440928,222.061783
4075.102378,-1184.329507,-8350.440928,0.000000
4075.102702,-740.205942,-8273.831378,0.000000
4075.103026,0.000000,-8427.050478,0.000000
4075.103351,962.267725,-8580.269578,-222.061783
4075.103675,1628.453072,-8656.879127,-444.123565
4075.103999,1036.288319,-8656.879127,0.000000
4075.104324,1998.556043,-8810.098227,-592.164754
4075.104648,1554.432478,-9039.926876,-592.164754
4075.104972,296.082377,-9193.145976,-666.185348
4075.105297,740.205942,-8963.317327,-296.082377
4075.105621,444.123565,-9193.145976,-444.123565
4075.105945,-444.123565,-9422.974625,-666.185348
4075.106270,74.020594,-8810.098227,-740.205942
4075.106594,0.000000,-8580.269578,-296.082377
4075.106919,296.082377,-8503.660028,-666.185348
4075.107243,1406.391290,-8656.879127,-370.102971
4075.107567,962.267725,-8427.050478,-148.041188
4075.107892,1480.411884,-8427.050478,-592.164754
4075.108216,-592.164754,-8810.098227,0.000000
4075.108540,-666.185348,-8733.488677,-222.061783
4075.108865,962.267725,-9269.755526,222.061783
4075.109189,-296.082377,-8503.660028,74.020594
4075.109513,444.123565,-9729.412825,0.000000
4075.109838,-370.102971,-8886.707777,148.041188
4075.110162,296.082377,-8963.317327,-592.164754
4075.110486,666.185348,-8273.831378,-740.205942
4075.110811,0.000000,-8656.879127,0.000000
4075.111135,-296.082377,-8044.002729,-666.185348
4075.111459,592.164754,-8350.440928,-370.102971
4075.111784,592.164754,-8044.002729,-1036.288319
4075.112108,814.226536,-8350.440928,-444.123565
4075.112433,740.205942,-7814.174080,-888.247130
4075.112757,1406.391290,-9116.536426,-370.102971
4075.113081,1924.535449,-8427.050478,-962.267725
4075.113406,2146.597232,-8810.098227,-296.082377
4075.113730,1702.473667,-8733.488677,-1110.308913
4075.114054,962.267725,-8886.707777,-370.102971
4075.114379,74.020594,-9193.145976,-370.102971
4075.114703,-1036.288319,-8580.269578,0.000000
4075.115027,-1480.411884,-8427.050478,0.000000
4075.115352,-1702.473667,-8350.440928,-222.061783
4075.115676,-1850.514855,-7967.393179,592.164754
4075.116000,-1480.411884,-7967.393179,222.061783
4075.116325,296.082377,-8427.050478,222.061783
4075.116649,888.247130,-8427.050478,-666.185348
4075.116973,1480.411884,-8273.831378,-444.123565
4075.117298,2146.597232,-8656.879127,-370.102971
4075.117622,1184.329507,-9269.755526,0.000000
4075.117946,1406.391290,-9039.926876,-592.164754
4075.118271,740.205942,-9346.365076,148.041188
4075.118595,0.000000,-8886.707777,-740.205942
4075.118920,0.000000,-9116.536426,-370.102971
4075.119244,-370.102971,-8733.488677,-222.061783
4075.119568,-148.041188,-8197.221829,-148.041188
4075.119893,0.000000,-8120.612279,-518.144159
4075.120217,444.123565,-8273.831378,-518.144159
4075.120541,962.267725,-8197.221829,-296.082377
4075.120866,888.247130,-8656.879127,-444.123565
4075.121190,740.205942,-8503.660028,-370.102971
4075.121514,222.061783,-8350.440928,0.000000
4075.121839,0.000000,-8733.488677,-74.020594
4075.122163,-296.082377,-8733.488677,74.020594
4075.122487,0.000000,-8733.488677,0.000000
4075.122812,148.041188,-9039.926876,74.020594
4075.123136,0.000000,-8427.050478,74.020594
4075.123460,0.000000,-8886.707777,-296.082377
4075.123785,592.164754,-7814.174080,-666.185348
4075.124109,74.020594,-8656.879127,-592.164754
4075.124434,74.020594,-8350.440928,-888.247130
4075.124758,370.102971,-8580.269578,-444.123565
4075.125082,444.123565,-8503.660028,-740.205942
4075.125407,592.164754,-8810.098227,-592.164754
4075.125731,518.144159,-8503.660028,-888.247130
4075.126055,1406.391290,-9193.145976,-592.164754
4075.126380,1258.350101,-7967.393179,-518.144159
4075.126704,1924.535449,-8733.488677,-296.082377
4075.127028,1628.453072,-8886.707777,-888.247130
4075.127353,1480.411884,-8733.488677,-740.205942
4075.127677,814.226536,-9116.536426,-592.164754
4075.128001,-222.061783,-8503.660028,0.000000
4075.128326,-1110.308913,-8503.660028,0.000000
4075.128650,-1480.411884,-8503.660028,518.144159
4075.128974,-1332.370696,-8427.050478,0.000000
4075.129299,-592.164754,-8963.317327,148.041188
4075.129623,444.123565,-8350.440928,-296.082377
4075.129948,962.267725,-8427.050478,-296.082377
4075.130272,1110.308913,-8350.440928,-222.061783
4075.130596,1110.308913,-8580.269578,0.000000
4075.130921,2368.659014,-8656.879127,-592.164754
4075.131245,2072.576638,-8656.879127,-1110.308913
4075.131569,814.226536,-9193.145976,0.000000
4075.131894,666.185348,-8886.707777,-740.205942
4075.132218,74.020594,-8963.317327,74.020594
4075.132542,-370.102971,-8886.707777,-296.082377
4075.132867,296.082377,-8656.879127,-296.082377
4075.133191,296.082377,-8503.660028,-888.247130
4075.133515,518.144159,-8733.488677,148.041188
4075.133840,814.226536,-8350.440928,-592.164754
4075.134164,592.164754,-7967.393179,-444.123565
4075.134488,740.205942,-8273.831378,-592.164754
4075.134813,296.082377,-8120.612279,-222.061783
4075.135137,0.000000,-8580.269578,148.041188
4075.135461,0.000000,-8273.831378,0.000000
4075.135786,444.123565,-8886.707777,444.123565
4075.136110,74.020594,-8656.879127,0.000000
4075.136435,888.247130,-8580.269578,148.041188
4075.136759,592.164754,-8197.221829,0.000000
4075.137083,296.082377,-8656.879127,0.000000
4075.137408,0.000000,-8503.660028,-444.123565
4075.137732,74.020594,-8656.879127,-666.185348
4075.138056,74.020594,-8273.831378,-814.226536
4075.138381,-370.102971,-8350.440928,-888.247130
4075.138705,-74.020594,-8656.879127,-666.185348
4075.139029,222.061783,-8427.050478,-370.102971
4075.139354,1110.308913,-8656.879127,-666.185348
4075.139678,1332.370696,-8197.221829,-666.185348
4075.140002,2072.576638,-8733.488677,-370.102971
4075.140327,1776.494261,-8273.831378,-444.123565
4075.140651,2294.638420,-8886.707777,-444.123565
4075.140975,1036.288319,-8503.660028,-222.061783
4075.141300,222.061783,-8733.488677,-222.061783
4075.141624,-1480.411884,-8197.221829,-296.082377
4075.141949,-1480.411884,-9422.974625,148.041188
4075.142273,-2442.679609,-7890.783629,-148.041188
4075.142597,-1702.473667,-9116.536426,222.061783
4075.142922,-1036.288319,-7967.393179,-666.185348
4075.143246,444.123565,-8503.660028,0.000000
4075.143570,666.185348,-7967.393179,-148.041188
4075.143895,1998.556043,-8503.660028,0.000000
4075.144219,2146.597232,-8656.879127,-740.205942
4075.144543,1850.514855,-8733.488677,-740.205942
4075.144868,1554.432478,-8503.660028,-814.226536
4075.145192,740.205942,-9116.536426,-592.164754
4075.145516,296.082377,-9346.365076,-592.164754
4075.145841,-814.226536,-8963.317327,-740.205942
4075.146165,-370.102971,-9346.365076,-370.102971
4075.146489,-592.164754,-8197.221829,-518.144159
4075.146814,0.000000,-8733.488677,-296.082377
4075.147138,740.205942,-7814.174080,-444.123565
4075.147462,962.267725,-7890.783629,-592.164754
4075.147787,1480.411884,-7814.174080,-962.267725
4075.148111,1258.350101,-8427.050478,0.000000
4075.148436,1110.308913,-8503.660028,-444.123565
4075.148760,518.144159,-8886.707777,148.041188
4075.149084,370.102971,-8580.269578,74.020594
4075.149409,74.020594,-8963.317327,370.102971
4075.149733,0.000000,-8963.317327,-222.061783
4075.150057,-222.061783,-8580.269578,0.000000
4075.150382,-148.041188,-8580.269578,-296.082377
4075.150706,-222.061783,-8656.879127,0.000000
4075.151030,0.000000,-8350.440928,-740.205942
4075.151355,370.102971,-8044.002729,-518.144159
4075.151679,296.082377,-7967.393179,-888.247130
4075.152003,1184.329507,-8886.707777,-592.164754
4075.152328,1110.308913,-8197.221829,-592.164754
4075.152652,1258.350101,-8733.488677,-74.020594
4075.152976,1554.432478,-8350.440928,-814.226536
4075.153301,1998.556043,-8656.879127,-222.061783
4075.153625,2072.576638,-8273.831378,-740.205942
4075.153950,1480.411884,-9269.755526,0.000000
4075.154274,444.123565,-7967.393179,-296.082377
4075.154598,-222.061783,-9193.145976,74.020594
4075.154923,-1406.391290,-7737.564530,-296.082377
4075.155247,-1554.432478,-8273.831378,74.020594
4075.155571,-1554.432478,-8963.317327,296.082377
4075.155896,-1110.308913,-8427.050478,0.000000
4075.156220,0.000000,-8810.098227,-222.061783
4075.156544,592.164754,-8120.612279,-148.041188
4075.156869,1554.432478,-8580.269578,0.000000
4075.157193,1480.411884,-8427.050478,-592.164754
4075.157517,1924.535449,-9039.926876,148.041188
4075.157842,1850.514855,-8503.660028,-888.247130
4075.158166,1702.473667,-9116.536426,-666.185348
4075.158490,814.226536,-9039.926876,-592.164754
4075.158815,0.000000,-9193.145976,-444.123565
4075.159139,-518.144159,-8733.488677,-666.185348
4075.159463,-518.144159,-8886.707777,-444.123565
4075.159788,-370.102971,-8733.488677,-370.102971
4075.160112,-370.102971,-8733.488677,-740.205942
4075.160437,592.164754,-8503.660028,-740.205942
4075.160761,296.082377,-8350.440928,-814.226536
4075.161085,740.205942,-8733.488677,-444.123565
4075.161410,74.020594,-8580.269578,-296.082377
4075.161734,-148.041188,-8886.707777,-370.102971
4075.162058,-592.164754,-8810.098227,-148.041188
4075.162383,-296.082377,-8963.317327,296.082377
4075.162707,0.000000,-8886.707777,296.082377
4075.163031,222.061783,-8656.879127,0.000000
4075.163356,296.082377,-8427.050478,518.144159
4075.163680,666.185348,-7737.564530,-444.123565
4075.164004,1406.391290,-8503.660028,-370.102971
4075.164329,1110.308913,-7967.393179,-444.123565
4075.164653,1258.350101,-8197.221829,0.000000
4075.164977,518.144159,-8120.612279,-814.226536
4075.165302,666.185348,-8503.660028,-518.144159
4075.165626,518.144159,-8197.221829,-814.226536
4075.165951,888.247130,-8273.831378,-1036.288319
4075.166275,1332.370696,-8580.269578,-814.226536
4075.166599,1258.350101,-8733.488677,-592.164754
4075.166924,1776.494261,-8733.488677,-370.102971
4075.167248,1406.391290,-8503.660028,-592.164754
4075.167572,888.247130,-8810.098227,-518.144159
4075.167897,0.000000,-8733.488677,-148.041188
4075.168221,-814.226536,-8580.269578,-370.102971
4075.168545,-1850.514855,-8810.098227,148.041188
4075.168870,-1406.391290,-8963.317327,0.000000
4075.169194,-1184.329507,-8656.879127,296.082377
4075.169518,-518.144159,-8273.831378,-370.102971
4075.169843,518.144159,-8427.050478,74.020594
4075.170167,1480.411884,-8273.831378,-370.102971
4075.170491,2146.597232,-8427.050478,-296.082377
4075.170816,2368.659014,-8656.879127,-296.082377
4075.171140,2072.576638,-8656.879127,-370.102971
4075.171465,2146.597232,-8886.707777,-592.164754
4075.171789,1036.288319,-8886.707777,-370.102971
4075.172113,296.082377,-9269.755526,-370.102971
4075.172438,-666.185348,-8580.269578,-592.164754
4075.172762,-814.226536,-9346.365076,0.000000
4075.173086,-592.164754,-8580.269578,-370.102971
4075.173411,0.000000,-8733.488677,-444.123565
4075.173735,296.082377,-8580.269578,-518.144159
4075.174059,666.185348,-8120.612279,-370.102971
4075.174384,962.267725,-8503.660028,-666.185348
4075.174708,1110.308913,-8963.317327,-518.144159
4075.175032,444.123565,-8427.050478,0.000000
4075.175357,0.000000,-8580.269578,0.000000
4075.175681,-148.041188,-8580.269578,0.000000
4075.176005,370.102971,-8963.317327,-148.041188
4075.176330,370.102971,-9039.926876,148.041188
4075.176654,444.123565,-8427.050478,-148.041188
4075.176978,740.205942,-8963.317327,-296.082377
4075.177303,740.205942,-8580.269578,0.000000
4075.177627,296.082377,-8886.707777,-222.061783
4075.177951,666.185348,-8120.612279,-370.102971
4075.178276,370.102971,-8503.660028,-592.164754
4075.178600,444.123565,-8503.660028,-740.205942
4075.178924,296.082377,-8044.002729,-814.226536
4075.179249,296.082377,-8503.660028,-666.185348
4075.179573,740.205942,-8427.050478,-518.144159
4075.179897,1036.288319,-8656.879127,-518.144159
4075.180222,1480.411884,-7890.783629,-222.061783
4075.180546,814.226536,-8503.660028,-296.082377
4075.180870,518.144159,-8580.269578,-518.144159
4075.181195,148.041188,-8656.879127,0.000000
4075.181519,-740.205942,-8580.269578,-222.061783
4075.181843,-962.267725,-8350.440928,222.061783
4075.182168,-1554.432478,-8197.221829,148.041188
4075.182492,-1406.391290,-8503.660028,74.020594
4075.182816,-592.164754,-8350.440928,0.000000
4075.183141,222.061783,-7814.174080,296.082377
4075.183465,1332.370696,-8350.440928,-370.102971
4075.183789,1332.370696,-8197.221829,-148.041188
4075.184113,1554.432478,-8733.488677,-518.144159
4075.184438,1924.535449,-8503.660028,-1036.288319
4075.184762,1480.411884,-9116.536426,-518.144159
4075.185086,666.185348,-8810.098227,-962.267725
4075.185411,148.041188,-9193.145976,-222.061783
4075.185735,-962.267725,-8886.707777,-370.102971
4075.186059,-518.144159,-9346.365076,-370.102971
4075.186384,-370.102971,-8503.660028,-888.247130
4075.186708,222.061783,-9039.926876,-296.082377
4075.187032,740.205942,-7967.393179,-592.164754
4075.187357,888.247130,-8733.488677,-518.144159
4075.187681,888.247130,-8427.050478,-666.185348
4075.188005,1036.288319,-8580.269578,0.000000
4075.188330,518.144159,-8273.831378,-296.082377
4075.188654,740.205942,-9039.926876,222.061783
4075.188978,666.185348,-8044.002729,222.061783
4075.189302,444.123565,-9039.926876,148.041188
4075.189627,370.102971,-8886.707777,0.000000
4075.189951,740.205942,-8580.269578,0.000000
4075.190275,222.061783,-8963.317327,0.000000
4075.190600,592.164754,-8427.050478,-222.061783
4075.190924,148.041188,-8427.050478,-592.164754
4075.191248,0.000000,-8197.221829,-222.061783
4075.191573,444.123565,-7890.783629,-518.144159
4075.191897,370.102971,-8350.440928,-814.226536
4075.192221,444.123565,-8044.002729,-592.164754
4075.192546,740.205942,-7660.954980,-370.102971
4075.192870,1258.350101,-8273.831378,-666.185348
4075.193194,1776.494261,-8120.612279,-518.144159
4075.193519,2072.576638,-8580.269578,-222.061783
4075.193843,2146.597232,-8580.269578,-148.041188
4075.194167,1480.411884,-8580.269578,-518.144159
4075.194492,444.123565,-8580.269578,0.000000
4075.194816,0.000000,-8350.440928,0.000000
4075.195140,-1258.350101,-8656.879127,74.020594
4075.195464,-1628.453072,-8580.269578,296.082377
4075.195789,-1924.535449,-8810.098227,74.020594
4075.196113,-1554.432478,-8120.612279,0.000000
4075.196437,-222.061783,-8656.879127,-370.102971
4075.196762,-148.041188,-8886.707777,-296.082377
4075.197086,666.185348,-7814.174080,-370.102971
4075.197410,1776.494261,-8503.660028,-666.185348
4075.197735,1702.473667,-9729.412825,-740.205942
4075.198059,1036.288319,-8273.831378,-444.123565
4075.198383,1480.411884,-9039.926876,-666.185348
4075.198708,0.000000,-8580.269578,-296.082377
4075.199032,74.020594,-9039.926876,-296.082377
4075.199356,148.041188,-8273.831378,-444.123565
4075.199681,-444.123565,-8886.707777,-74.020594
4075.200005,-222.061783,-9116.536426,-444.123565
4075.200329,370.102971,-8273.831378,-666.185348
4075.200654,592.164754,-8427.050478,-814.226536
4075.200978,148.041188,-8427.050478,-518.144159
4075.201302,148.041188,-8350.440928,-666.185348
4075.201626,0.000000,-8580.269578,148.041188
4075.201951,-148.041188,-8733.488677,-444.123565
4075.202275,0.000000,-9116.536426,-148.041188
4075.202599,148.041188,-8963.317327,0.000000
4075.202924,592.164754,-8656.879127,-74.020594
4075.203248,740.205942,-8886.707777,-370.102971
4075.203572,888.247130,-9422.974625,-518.144159
4075.203897,518.144159,-8273.831378,0.000000
4075.204221,0.000000,-8427.050478,-370.102971
4075.204545,296.082377,-8427.050478,-222.061783
4075.204870,222.061783,-8044.002729,-444.123565
4075.205194,518.144159,-8810.098227,-592.164754
4075.205518,666.185348,-7814.174080,-814.226536
4075.205843,1554.432478,-8503.660028,-962.267725
4075.206167,1406.391290,-8503.660028,-666.185348
4075.206491,2220.617826,-8197.221829,-592.164754
4075.206815,2072.576638,-8580.269578,-296.082377
4075.207140,1702.473667,-9039.926876,0.000000
4075.207464,1480.411884,-8044.002729,-444.123565
4075.207788,518.144159,-9039.926876,-740.205942
4075.208113,-962.267725,-8580.269578,-222.061783
4075.208437,-1628.453072,-9346.365076,0.000000
4075.208761,-1776.494261,-8580.269578,296.082377
4075.209086,-1924.535449,-8427.050478,222.061783
4075.209410,-962.267725,-8656.879127,0.000000
4075.209734,-444.123565,-8350.440928,0.000000
4075.210059,888.247130,-8350.440928,-148.041188
4075.210383,1628.453072,-8656.879127,-222.061783
4075.210707,1998.556043,-8580.269578,-370.102971
4075.211032,2368.659014,-8656.879127,-370.102971
4075.211356,1628.453072,-8503.660028,-148.041188
4075.211680,1702.473667,-9116.536426,-296.082377
4075.212005,740.205942,-8963.317327,-296.082377
4075.212329,-518.144159,-8963.317327,0.000000
4075.212653,-148.041188,-8733.488677,-370.102971
4075.212977,-444.123565,-8656.879127,0.000000
4075.213302,-222.061783,-8273.831378,-740.205942
4075.213626,-148.041188,-8350.440928,0.000000
4075.213950,296.082377,-8503.660028,-666.185348
4075.214275,518.144159,-7967.393179,-666.185348
4075.214599,814.226536,-8350.440928,-370.102971
4075.214923,444.123565,-8427.050478,0.000000
4075.215248,370.102971,-8886.707777,0.000000
4075.215572,444.123565,-8656.879127,-148.041188
4075.215896,222.061783,-9116.536426,0.000000
4075.216221,0.000000,-8733.488677,0.000000
4075.216545,-148.041188,-9193.145976,0.000000
4075.216869,0.000000,-8656.879127,-296.082377
4075.217194,148.041188,-8656.879127,-222.061783
4075.217518,0.000000,-8120.612279,-444.123565
4075.217842,296.082377,-8427.050478,-444.123565
4075.218167,0.000000,-8044.002729,-740.205942
4075.218491,592.164754,-8273.831378,-370.102971
4075.218815,444.123565,-8273.831378,-740.205942
4075.219139,1110.308913,-8733.488677,-370.102971
4075.219464,1258.350101,-8810.098227,-814.226536
4075.219788,2146.597232,-8733.488677,-740.205942
4075.220112,1850.514855,-8656.879127,-666.185348
4075.220437,1406.391290,-8580.269578,-592.164754
4075.220761,592.164754,-9116.536426,-518.144159
4075.221085,-222.061783,-8580.269578,-814.226536
4075.221410,-888.247130,-9039.926876,0.000000
4075.221734,-1924.535449,-8427.050478,-222.061783
4075.222058,-1480.411884,-9039.926876,444.123565
4075.222383,-2146.597232,-8044.002729,-148.041188
4075.222707,-592.164754,-9499.584175,370.102971
4075.223031,-444.123565,-7890.783629,-296.082377
4075.223356,1110.308913,-9039.926876,-148.041188
4075.223680,1480.411884,-8044.002729,-444.123565
4075.224004,2368.659014,-8656.879127,-148.041188
4075.224329,2368.659014,-8503.660028,-888.247130
4075.224653,2146.597232,-9193.145976,-222.061783
4075.224977,1036.288319,-8503.660028,-1184.329507
4075.225301,296.082377,-9499.584175,-666.185348
4075.225626,-148.041188,-8580.269578,-666.185348
4075.225950,-518.144159,-9269.755526,0.000000
4075.226274,-370.102971,-8273.831378,-592.164754
4075.226599,-444.123565,-8733.488677,-222.061783
4075.226923,74.020594,-7890.783629,-518.144159
4075.227247,518.144159,-8044.002729,0.000000
4075.227572,888.247130,-8197.221829,-740.205942
4075.227896,1184.329507,-8427.050478,-222.061783
4075.228220,666.185348,-8197.221829,0.000000
4075.228545,740.205942,-8733.488677,-444.123565
4075.228869,962.267725,-8810.098227,222.061783
4075.229193,666.185348,-8886.707777,222.061783
4075.229518,962.267725,-8963.317327,222.061783
4075.229842,592.164754,-8350.440928,0.000000
4075.230166,592.164754,-8886.707777,0.000000
4075.230490,740.205942,-8044.002729,-222.061783
4075.230815,148.041188,-8197.221829,74.020594
4075.231139,222.061783,-8580.269578,-592.164754
4075.231463,0.000000,-8120.612279,-666.185348
4075.231788,74.020594,-8273.831378,-666.185348
4075.232112,296.082377,-7660.954980,-962.267725
4075.232436,666.185348,-8273.831378,-370.102971
4075.232761,888.247130,-8810.098227,-740.205942
4075.233085,1702.473667,-8656.879127,-518.144159
4075.233409,2220.617826,-8273.831378,-444.123565
4075.233734,1998.556043,-8886.707777,-296.082377
4075.234058,2294.638420,-8733.488677,-444.123565
4075.234382,1036.288319,-8733.488677,0.000000
4075.234707,-148.041188,-8810.098227,-518.144159
4075.235031,-962.267725,-8656.879127,0.000000
4075.235355,-1628.453072,-8810.098227,-444.123565
4075.235680,-1406.391290,-8656.879127,74.020594
4075.236004,-1036.288319,-8273.831378,-148.041188
4075.236328,-740.205942,-8503.660028,148.041188
4075.236652,444.123565,-8197.221829,-222.061783
4075.236977,1406.391290,-8810.098227,-444.123565
4075.237301,1850.514855,-8886.707777,-666.185348
4075.237625,2294.638420,-8886.707777,-814.226536
4075.237950,1702.473667,-8656.879127,-666.185348
4075.238274,740.205942,-9499.584175,74.020594
4075.238598,518.144159,-8886.707777,-444.123565
4075.238923,148.041188,-9116.536426,-740.205942
4075.239247,-888.247130,-9346.365076,-666.185348
4075.239571,-814.226536,-9193.145976,-296.082377
4075.239896,-370.102971,-8580.269578,-518.144159
4075.240220,0.000000,-8580.269578,-370.102971
4075.240544,666.185348,-8273.831378,-370.102971
4075.240869,1184.329507,-8273.831378,-814.226536
4075.241193,1332.370696,-8503.660028,-740.205942
4075.241517,1110.308913,-8427.050478,-444.123565
4075.241842,370.102971,-9116.536426,-148.041188
4075.242166,444.123565,-8580.269578,296.082377
4075.242490,0.000000,-9269.755526,148.041188
4075.242814,74.020594,-8963.317327,222.061783
4075.243139,-370.102971,-8810.098227,-296.082377
4075.243463,-296.082377,-8886.707777,0.000000
4075.243787,-370.102971,-8503.660028,-370.102971
4075.244112,0.000000,-8656.879127,-296.082377
4075.244436,148.041188,-7814.174080,-592.164754
4075.244760,666.185348,-8044.002729,0.000000
4075.245085,962.267725,-7890.783629,-1184.329507
4075.245409,1110.308913,-8427.050478,-296.082377
4075.245733,2072.576638,-8350.440928,-740.205942
4075.246058,1776.494261,-8580.269578,-666.185348
4075.246382,2220.617826,-8503.660028,-296.082377
4075.246706,1332.370696,-8963.317327,370.102971
4075.247031,1480.411884,-8580.269578,-518.144159
4075.247355,814.226536,-8656.879127,-740.205942
4075.247679,148.041188,-9652.803275,-222.061783
4075.248003,-296.082377,-8810.098227,0.000000
4075.248328,-1480.411884,-8044.002729,148.041188
4075.248652,-1702.473667,-8503.660028,74.020594
4075.248976,-1406.391290,-8350.440928,148.041188
4075.249301,-296.082377,-8503.660028,-296.082377
4075.249625,296.082377,-8197.221829,0.000000
4075.249949,1332.370696,-8197.221829,0.000000
4075.250274,1924.535449,-8963.317327,-74.020594
4075.250598,2516.700203,-9039.926876,-222.061783
4075.250922,2072.576638,-8810.098227,-592.164754
4075.251247,1332.370696,-9039.926876,-592.164754
4075.251571,1110.308913,-8963.317327,-296.082377
4075.251895,370.102971,-8810.098227,-518.144159
4075.252220,-148.041188,-9193.145976,-666.185348
4075.252544,-222.061783,-9193.145976,0.000000
4075.252868,0.000000,-8886.707777,-518.144159
4075.253193,0.000000,-8427.050478,-518.144159
4075.253517,814.226536,-8733.488677,-740.205942
4075.253841,1258.350101,-8810.098227,0.000000
4075.254165,666.185348,-8120.612279,-814.226536
4075.254490,962.267725,-8733.488677,-592.164754
4075.254814,740.205942,-8273.831378,-444.123565
4075.255138,296.082377,-9116.536426,0.000000
4075.255463,0.000000,-9116.536426,0.000000
4075.255787,74.020594,-8963.317327,0.000000
4075.256111,0.000000,-8580.269578,296.082377
4075.256436,0.000000,-8503.660028,-222.061783
4075.256760,74.020594,-8810.098227,0.000000
4075.257084,-148.041188,-8350.440928,0.000000
4075.257409,148.041188,-8656.879127,-296.082377
4075.257733,518.144159,-8273.831378,-1036.288319
4075.258057,592.164754,-8733.488677,-592.164754
4075.258382,0.000000,-8427.050478,-444.123565
4075.258706,0.000000,-8503.660028,-1036.288319
4075.259030,518.144159,-8427.050478,-666.185348
4075.259355,1036.288319,-8350.440928,0.000000
4075.259679,1480.411884,-8427.050478,-518.144159
4075.260003,1998.556043,-8733.488677,-222.061783
4075.260327,1924.535449,-8733.488677,-148.041188
4075.260652,1406.391290,-8656.879127,-222.061783
4075.260976,222.061783,-8810.098227,0.000000
4075.261300,-444.123565,-8580.269578,-296.082377
4075.261625,-1480.411884,-8656.879127,-296.082377
4075.261949,-1702.473667,-8580.269578,222.061783
4075.262273,-2072.576638,-8120.612279,518.144159
4075.262598,-1480.411884,-8503.660028,-222.061783
4075.262922,-814.226536,-8273.831378,0.000000
4075.263246,0.000000,-8197.221829,-370.102971
4075.263571,1036.288319,-8427.050478,-296.082377
4075.263895,1628.453072,-8350.440928,-296.082377
4075.264219,1924.535449,-8733.488677,-740.205942
4075.264544,1998.556043,-8580.269578,-592.164754
4075.264868,1332.370696,-8963.317327,-444.123565
4075.265192,592.164754,-8886.707777,0.000000
4075.265517,370.102971,-8886.707777,-370.102971
4075.265841,-444.123565,-8810.098227,0.000000
4075.266165,0.000000,-8886.707777,-518.144159
4075.266489,814.226536,-7890.783629,-518.144159
4075.266814,740.205942,-8427.050478,-740.205942
4075.267138,888.247130,-8273.831378,-444.123565
4075.267462,740.205942,-8120.612279,-592.164754
4075.267787,814.226536,-8273.831378,-814.226536
4075.268111,740.205942,-8350.440928,-370.102971
4075.268435,222.061783,-9116.536426,-296.082377
4075.268760,148.041188,-8886.707777,-296.082377
4075.269084,74.020594,-8656.879127,0.000000
4075.269408,518.144159,-9039.926876,74.020594
4075.269733,222.061783,-8810.098227,0.000000
4075.270057,370.102971,-8580.269578,-370.102971
4075.270381,814.226536,-8350.440928,0.000000
4075.270706,518.144159,-8503.660028,-666.185348
4075.271030,666.185348,-8350.440928,-370.102971
4075.271354,370.102971,-8197.221829,-666.185348
4075.271678,296.082377,-8120.612279,-814.226536
4075.272003,740.205942,-8810.098227,-888.247130
4075.272327,814.226536,-8120.612279,-370.102971
4075.272651,1184.329507,-8503.660028,-444.123565
4075.272976,740.205942,-8503.660028,-962.267725
4075.273300,1850.514855,-8656.879127,-222.061783
4075.273624,1628.453072,-8350.440928,-962.267725
4075.273949,1332.370696,-8810.098227,-444.123565
4075.274273,666.185348,-8733.488677,-444.123565
4075.274597,74.020594,-8886.707777,0.000000
4075.274922,-592.164754,-8427.050478,0.000000
4075.275246,-1110.308913,-8427.050478,74.020594
4075.275571,-962.267725,-8810.098227,0.000000
4075.275895,-1110.308913,-8197.221829,0.000000
4075.276219,-370.102971,-8810.098227,0.000000
4075.276544,148.041188,-8120.612279,-666.185348
4075.276868,962.267725,-8810.098227,-148.041188
4075.277193,1184.329507,-7967.393179,-370.102971
4075.277517,1554.432478,-8886.707777,-444.123565
4075.277842,2072.576638,-9346.365076,-814.226536
4075.278166,1110.308913,-9346.365076,-518.144159
4075.278491,370.102971,-8580.269578,-888.247130
4075.278815,0.000000,-9346.365076,-518.144159
4075.279139,-814.226536,-9116.536426,-370.102971
4075.279464,-592.164754,-8733.488677,0.000000
4075.279788,-370.102971,-8427.050478,-666.185348
4075.280113,0.000000,-8810.098227,-518.144159
4075.280437,592.164754,-8197.221829,-296.082377
4075.280762,148.041188,-8120.612279,-518.144159
4075.281086,888.247130,-8273.831378,-444.123565
4075.281410,888.247130,-7967.393179,0.000000
4075.281735,518.144159,-8810.098227,0.000000
4075.282059,666.185348,-8427.050478,222.061783
4075.282384,74.020594,-9193.145976,222.061783
4075.282708,370.102971,-8886.707777,74.020594
4075.283033,296.082377,-8733.488677,74.020594
4075.283357,-222.061783,-8503.660028,-296.082377
4075.283681,-296.082377,-8656.879127,0.000000
4075.284006,-592.164754,-7814.174080,-444.123565
4075.284330,0.000000,-8810.098227,-592.164754
4075.284655,0.000000,-7507.735880,-592.164754
4075.284979,222.061783,-8120.612279,-740.205942
4075.285304,814.226536,-7967.393179,-1184.329507
4075.285628,1184.329507,-8427.050478,-370.102971
4075.285952,1776.494261,-8427.050478,-814.226536
4075.286277,2516.700203,-8580.269578,-444.123565
4075.286601,2294.638420,-8197.221829,-296.082377
4075.286926,2220.617826,-9116.536426,-296.082377
4075.287250,1406.391290,-8427.050478,-444.123565
4075.287575,888.247130,-9422.974625,-296.082377
4075.287899,0.000000,-8656.879127,-592.164754
4075.288223,-1184.329507,-8810.098227,148.041188
4075.288548,-1998.556043,-8656.879127,0.000000
4075.288872,-1776.494261,-8733.488677,370.102971
4075.289197,-1480.411884,-8503.660028,-296.082377
4075.289521,-222.061783,-8503.660028,0.000000
4075.289846,370.102971,-7431.126331,-296.082377
4075.290170,1406.391290,-8580.269578,74.020594
4075.290494,1258.350101,-8273.831378,-1110.308913
4075.290819,1850.514855,-8886.707777,-370.102971
4075.291143,1480.411884,-8580.269578,-962.267725
4075.291468,1110.308913,-8810.098227,-296.082377
4075.291792,370.102971,-8963.317327,-592.164754
4075.292117,296.082377,-9499.584175,-222.061783
4075.292441,-444.123565,-9193.145976,-592.164754
4075.292766,-444.123565,-8580.269578,-592.164754
4075.293090,0.000000,-8886.707777,-296.082377
4075.293414,296.082377,-9193.145976,-296.082377
4075.293739,1258.350101,-8733.488677,-666.185348
4075.294063,1110.308913,-7967.393179,-740.205942
4075.294388,1628.453072,-8503.660028,-222.061783
4075.294712,1258.350101,-8350.440928,-592.164754
4075.295037,888.247130,-9039.926876,0.000000
4075.295361,74.020594,-8427.050478,0.000000
4075.295685,-222.061783,-9346.365076,666.185348
4075.296010,-222.061783,-8733.488677,-148.041188
4075.296334,296.082377,-9193.145976,222.061783
4075.296659,592.164754,-8350.440928,-148.041188
4075.296983,-740.205942,-8350.440928,-222.061783
4075.297308,0.000000,-7967.393179,-296.082377
4075.297632,740.205942,-8810.098227,-296.082377
4075.297956,-296.082377,-7584.345430,-666.185348
4075.298281,370.102971,-8503.660028,-296.082377
4075.298605,0.000000,-7967.393179,-962.267725
4075.298930,888.247130,-9346.365076,0.000000
4075.299254,962.267725,-7890.783629,-1406.391290
4075.299579,1406.391290,-9193.145976,-296.082377
4075.299903,1258.350101,-8197.221829,-296.082377
4075.300227,1850.514855,-8810.098227,0.000000
4075.300552,1258.350101,-9039.926876,74.020594
4075.300876,370.102971,-8733.488677,-370.102971
4075.301201,0.000000,-8656.879127,0.000000
4075.301525,-888.247130,-8656.879127,0.000000
4075.301850,-1628.453072,-9269.755526,444.123565
4075.302174,-1110.308913,-8503.660028,-296.082377
4075.302498,-1332.370696,-8503.660028,148.041188
4075.302823,-592.164754,-8733.488677,0.000000
4075.303147,444.123565,-8197.221829,-296.082377
4075.303472,1184.329507,-8656.879127,0.000000
4075.303796,1702.473667,-7967.393179,-740.205942
4075.304121,2146.597232,-9193.145976,-296.082377
4075.304445,1480.411884,-8656.879127,-1036.288319
4075.304769,1480.411884,-9039.926876,0.000000
4075.305094,666.185348,-8656.879127,-888.247130
4075.305418,-148.041188,-9576.193725,-370.102971
4075.305743,-814.226536,-8580.269578,-814.226536
4075.306067,0.000000,-9346.365076,0.000000
4075.306392,-1036.288319,-7890.783629,-222.061783
4075.306716,666.185348,-8963.317327,-370.102971
4075.307041,666.185348,-8427.050478,-740.205942
4075.307365,1332.370696,-8580.269578,-222.061783
4075.307689,1850.514855,-8733.488677,-444.123565
4075.308014,1110.308913,-8656.879127,-370.102971
4075.308338,740.205942,-8733.488677,-148.041188
4075.308663,444.123565,-8580.269578,-370.102971
4075.308987,74.020594,-9193.145976,740.205942
4075.309312,-518.144159,-8503.660028,-296.082377
4075.309636,-1258.350101,-8963.317327,444.123565
4075.309960,-888.247130,-7660.954980,-296.082377
4075.310285,-296.082377,-9039.926876,666.185348
4075.310609,296.082377,-7890.783629,-814.226536
4075.310934,0.000000,-8656.879127,-296.082377
4075.311258,370.102971,-7890.783629,-1036.288319
4075.311583,666.185348,-8273.831378,-592.164754
4075.311907,1036.288319,-7431.126331,-1184.329507
4075.312231,1332.370696,-8580.269578,-888.247130
4075.312556,1628.453072,-8044.002729,-518.144159
4075.312880,1850.514855,-8886.707777,-370.102971
4075.313205,2072.576638,-8197.221829,-370.102971
4075.313529,1480.411884,-9039.926876,-296.082377
4075.313854,1332.370696,-8886.707777,-296.082377
4075.314178,888.247130,-8886.707777,0.000000
4075.314502,0.000000,-8350.440928,-148.041188
4075.314827,-666.185348,-8580.269578,0.000000
4075.315151,-1110.308913,-8733.488677,0.000000
4075.315476,-1628.453072,-8656.879127,74.020594
4075.315800,-1554.432478,-8273.831378,0.000000
4075.316125,-1110.308913,-8503.660028,0.000000
4075.316449,0.000000,-8427.050478,222.061783
4075.316773,666.185348,-8656.879127,-222.061783
4075.317098,1184.329507,-8350.440928,-444.123565
4075.317422,1850.514855,-8963.317327,-518.144159
4075.317747,1258.350101,-8427.050478,-814.226536
4075.318071,1628.453072,-9269.755526,-592.164754
4075.318396,888.247130,-8503.660028,-666.185348
4075.318720,666.185348,-9193.145976,-74.020594
4075.319044,-962.267725,-8580.269578,-370.102971
4075.319369,-296.082377,-9346.365076,148.041188
4075.319693,0.000000,-8120.612279,-296.082377
4075.320018,0.000000,-8580.269578,-370.102971
4075.320342,444.123565,-8273.831378,-518.144159
4075.320667,1036.288319,-8350.440928,-740.205942
4075.320991,1332.370696,-8503.660028,-592.164754
4075.321316,1184.329507,-8656.879127,-148.041188
4075.321640,1110.308913,-8197.221829,0.000000
4075.321964,222.061783,-8733.488677,-148.041188
4075.322289,296.082377,-8733.488677,222.061783
4075.322613,370.102971,-9193.145976,74.020594
4075.322938,-370.102971,-9039.926876,0.000000
4075.323262,222.061783,-8427.050478,0.000000
4075.323587,0.000000,-8810.098227,0.000000
4075.323911,-222.061783,-8273.831378,-592.164754
4075.324235,296.082377,-8733.488677,-444.123565
4075.324560,296.082377,-8120.612279,-740.205942
4075.324884,-222.061783,-8503.660028,-518.144159
4075.325209,296.082377,-8120.612279,-1258.350101
4075.325533,444.123565,-8580.269578,-666.185348
4075.325858,1628.453072,-8810.098227,-888.247130
4075.326182,2072.576638,-8810.098227,-444.123565
4075.326506,2368.659014,-8580.269578,-740.205942
4075.326831,1776.494261,-8963.317327,-296.082377
4075.327155,1480.411884,-8656.879127,-444.123565
4075.327480,814.226536,-8810.098227,-296.082377
4075.327804,74.020594,-8656.879127,-148.041188
4075.328129,-592.164754,-8656.879127,74.020594
4075.328453,-1406.391290,-8886.707777,-222.061783
4075.328777,-1776.494261,-8427.050478,0.000000
4075.329102,-1776.494261,-8197.221829,74.020594
4075.329426,-888.247130,-8503.660028,-74.020594
4075.329751,-222.061783,-8733.488677,0.000000
4075.330075,666.185348,-8273.831378,-296.082377
4075.330400,1628.453072,-8580.269578,0.000000
4075.330724,1776.494261,-8503.660028,-740.205942
4075.331048,1628.453072,-8580.269578,-518.144159
4075.331373,1628.453072,-9039.926876,-888.247130
4075.331697,962.267725,-9269.755526,-888.247130
4075.332022,222.061783,-9346.365076,0.000000
4075.332346,-740.205942,-8963.317327,-740.205942
4075.332671,-296.082377,-9193.145976,0.000000
4075.332995,-370.102971,-9499.584175,-666.185348
4075.333319,74.020594,-8580.269578,-148.041188
4075.333644,518.144159,-8273.831378,-296.082377
4075.333968,1036.288319,-8044.002729,-222.061783
4075.334293,1628.453072,-8503.660028,-666.185348
4075.334617,1184.329507,-8503.660028,-518.144159
4075.334942,814.226536,-8427.050478,0.000000
4075.335266,0.000000,-8427.050478,-370.102971
4075.335591,-444.123565,-9116.536426,0.000000
4075.335915,-814.226536,-9193.145976,370.102971
4075.336239,-370.102971,-8350.440928,0.000000
4075.336564,-222.061783,-8810.098227,148.041188
4075.336888,0.000000,-8120.612279,-148.041188
4075.337213,592.164754,-8580.269578,222.061783
4075.337537,0.000000,-7890.783629,-592.164754
4075.337862,666.185348,-8503.660028,-666.185348
4075.338186,444.123565,-7737.564530,-888.247130
4075.338510,518.144159,-8580.269578,-740.205942
4075.338835,666.185348,-8044.002729,-814.226536
4075.339159,962.267725,-8656.879127,-296.082377
4075.339484,1258.350101,-8503.660028,-592.164754
4075.339808,1628.453072,-8963.317327,-370.102971
4075.340133,2368.659014,-9039.926876,-370.102971
4075.340457,1554.432478,-8810.098227,-518.144159
4075.340781,1184.329507,-8810.098227,-518.144159
4075.341106,518.144159,-8810.098227,-518.144159
4075.341430,-444.123565,-8503.660028,-592.164754
4075.341755,-888.247130,-8733.488677,0.000000
4075.342079,-1702.473667,-8273.831378,148.041188
4075.342404,-1480.411884,-8656.879127,296.082377
4075.342728,-888.247130,-8427.050478,-444.123565
4075.343052,666.185348,-8963.317327,-148.041188
4075.343377,370.102971,-7967.393179,-888.247130
4075.343701,1036.288319,-8733.488677,0.000000
4075.344026,1184.329507,-8044.002729,-518.144159
4075.344350,1702.473667,-9193.145976,-222.061783
4075.344675,1332.370696,-8350.440928,-1184.329507
4075.344999,888.247130,-9269.755526,-518.144159
4075.345323,296.082377,-8733.488677,-666.185348
4075.345648,0.000000,-9652.803275,-370.102971
4075.345972,-444.123565,-9116.536426,-370.102971
4075.346297,0.000000,-8503.660028,-296.082377
4075.346621,222.061783,-8733.488677,-444.123565
4075.346946,444.123565,-8273.831378,-518.144159
4075.347270,1480.411884,-8580.269578,148.041188
4075.347594,888.247130,-8733.488677,-740.205942
4075.347919,962.267725,-8503.660028,-296.082377
4075.348243,814.226536,-8350.440928,-296.082377
4075.348568,296.082377,-9576.193725,740.205942
4075.348892,148.041188,-8273.831378,0.000000
4075.349217,-518.144159,-8886.707777,148.041188
4075.349541,-148.041188,-9116.536426,0.000000
4075.349866,0.000000,-8580.269578,-222.061783
4075.350190,592.164754,-8656.879127,-222.061783
4075.350514,0.000000,-8427.050478,-222.061783
4075.350839,0.000000,-8350.440928,-592.164754
4075.351163,370.102971,-7660.954980,-1110.308913
4075.351488,740.205942,-8427.050478,-370.102971
4075.351812,296.082377,-8273.831378,-962.267725
4075.352137,518.144159,-8503.660028,-592.164754
4075.352461,1110.308913,-8197.221829,0.000000
4075.352785,1776.494261,-8963.317327,0.000000
4075.353110,2294.638420,-8656.879127,-444.123565
4075.353434,2368.659014,-8580.269578,-444.123565
4075.353759,2072.576638,-9039.926876,-296.082377
4075.354083,888.247130,-8580.269578,-666.185348
4075.354408,370.102971,-9499.584175,296.082377
4075.354732,-962.267725,-7967.393179,-444.123565
4075.355056,-1036.288319,-9346.365076,518.144159
4075.355381,-2146.597232,-7967.393179,-962.267725
4075.355705,-1406.391290,-9039.926876,962.267725
4075.356030,-1258.350101,-7354.516781,-370.102971
4075.356354,-296.082377,-8886.707777,444.123565
4075.356679,666.185348,-7814.174080,-592.164754
4075.357003,1850.514855,-8427.050478,592.164754
4075.357327,2072.576638,-7967.393179,-962.267725
4075.357652,1924.535449,-8810.098227,-222.061783
4075.357976,1406.391290,-8733.488677,-592.164754
4075.358301,592.164754,-9116.536426,-518.144159
4075.358625,0.000000,-8963.317327,-518.144159
4075.358950,-296.082377,-9422.974625,-296.082377
4075.359274,-148.041188,-8580.269578,-296.082377
4075.359598,-592.164754,-8427.050478,-370.102971
4075.359923,666.185348,-8810.098227,-518.144159
4075.360247,666.185348,-8197.221829,-592.164754
4075.360572,1406.391290,-8427.050478,-296.082377
4075.360896,1702.473667,-8503.660028,-592.164754
4075.361221,1554.432478,-9116.536426,0.000000
4075.361545,814.226536,-8963.317327,-370.102971
4075.361869,222.061783,-8733.488677,74.020594
4075.362194,0.000000,-8733.488677,0.000000
4075.362518,-1036.288319,-9269.755526,-222.061783
4075.362843,-518.144159,-8656.879127,148.041188
4075.363167,-814.226536,-8427.050478,-370.102971
4075.363492,-370.102971,-8886.707777,0.000000
4075.363816,74.020594,-7967.393179,-444.123565
4075.364141,444.123565,-8197.221829,-444.123565
4075.364465,148.041188,-7814.174080,-1258.350101
4075.364789,666.185348,-8503.660028,-444.123565
4075.365114,0.000000,-8350.440928,-1036.288319
4075.365438,1036.288319,-8810.098227,-74.020594
4075.365763,1480.411884,-8273.831378,-1332.370696
4075.366087,1850.514855,-9193.145976,-592.164754
4075.366412,2220.617826,-7967.393179,-814.226536
4075.366736,1776.494261,-9039.926876,0.000000
4075.367060,2072.576638,-8733.488677,-1110.308913
4075.367385,1184.329507,-9039.926876,-518.144159
4075.367709,518.144159,-8963.317327,-592.164754
4075.368034,-296.082377,-8810.098227,-296.082377
4075.368358,-962.267725,-8197.221829,0.000000
4075.368683,-1258.350101,-8733.488677,0.000000
4075.369007,-1406.391290,-8350.440928,0.000000
4075.369331,-1110.308913,-8427.050478,-296.082377
4075.369656,-370.102971,-8503.660028,370.102971
4075.369980,370.102971,-8120.612279,-222.061783
4075.370305,1110.308913,-8733.488677,-222.061783
4075.370629,1406.391290,-8273.831378,-740.205942
4075.370954,2220.617826,-8733.488677,-518.144159
4075.371278,1110.308913,-8656.879127,-740.205942
4075.371602,740.205942,-9039.926876,-370.102971
4075.371927,0.000000,-8733.488677,-296.082377
4075.372251,-444.123565,-9422.974625,-296.082377
4075.372576,-74.020594,-7967.393179,-444.123565
4075.372900,0.000000,-8733.488677,0.000000
4075.373225,296.082377,-8120.612279,-592.164754
4075.373549,962.267725,-8427.050478,148.041188
4075.373873,1036.288319,-8044.002729,-518.144159
4075.374198,1332.370696,-8580.269578,0.000000
4075.374522,888.247130,-8197.221829,-666.185348
4075.374847,1258.350101,-9116.536426,148.041188
4075.375171,962.267725,-8733.488677,-74.020594
4075.375496,0.000000,-9269.755526,518.144159
4075.375820,-370.102971,-8810.098227,0.000000
4075.376144,-518.144159,-8886.707777,296.082377
4075.376469,-962.267725,-8810.098227,-222.061783
4075.376793,-518.144159,-8580.269578,0.000000
4075.377118,0.000000,-8273.831378,0.000000
4075.377442,222.061783,-8273.831378,-444.123565
4075.377767,814.226536,-8197.221829,-740.205942
4075.378091,888.247130,-8120.612279,-666.185348
4075.378416,666.185348,-8273.831378,-962.267725
4075.378740,592.164754,-8350.440928,-666.185348
4075.379064,1332.370696,-8580.269578,-296.082377
4075.379389,1258.350101,-8427.050478,-592.164754
4075.379713,1332.370696,-8886.707777,-592.164754
4075.380038,1702.473667,-8810.098227,-444.123565
4075.380362,1332.370696,-8427.050478,-518.144159
4075.380686,962.267725,-8733.488677,-296.082377
4075.381011,0.000000,-8580.269578,-74.020594
4075.381335,-370.102971,-8427.050478,-444.123565
4075.381660,-814.226536,-8350.440928,0.000000
4075.381984,-814.226536,-8733.488677,-222.061783
4075.382308,-518.144159,-8580.269578,148.041188
4075.382633,-444.123565,-8656.879127,74.020594
4075.382957,-74.020594,-8503.660028,-296.082377
4075.383282,814.226536,-8656.879127,-222.061783
4075.383606,1332.370696,-8503.660028,-444.123565
4075.383930,1628.453072,-8810.098227,0.000000
4075.384255,1480.411884,-8656.879127,-740.205942
4075.384579,1110.308913,-8810.098227,-814.226536
4075.384904,666.185348,-8733.488677,-888.247130
4075.385228,0.000000,-9116.536426,-1036.288319
4075.385552,0.000000,-9116.536426,-296.082377
4075.385877,-444.123565,-8733.488677,-444.123565
4075.386201,296.082377,-8963.317327,-222.061783
4075.386526,518.144159,-8656.879127,-592.164754
4075.386850,1258.350101,-8963.317327,-666.185348
4075.387174,1258.350101,-8656.879127,-148.041188
4075.387499,518.144159,-8197.221829,-592.164754
4075.387823,666.185348,-9193.145976,-296.082377
4075.388148,592.164754,-8427.050478,-296.082377
4075.388472,-518.144159,-9193.145976,-222.061783
4075.388796,-962.267725,-8810.098227,0.000000
4075.389121,-1036.288319,-8963.317327,370.102971
4075.389445,-1184.329507,-9039.926876,-296.082377
4075.389770,-518.144159,-8886.707777,74.020594
4075.390094,-444.123565,-8120.612279,-296.082377
4075.390418,222.061783,-8656.879127,-296.082377
4075.390743,592.164754,-7967.393179,-518.144159
4075.391067,1406.391290,-8580.269578,-444.123565
4075.391392,740.205942,-8273.831378,-592.164754
4075.391716,666.185348,-8656.879127,-592.164754
4075.392040,740.205942,-8503.660028,-666.185348
4075.392365,1036.288319,-9039.926876,-370.102971
4075.392689,814.226536,-8733.488677,-296.082377
4075.393014,1628.453072,-8580.269578,-148.041188
4075.393338,1702.473667,-8580.269578,0.000000
4075.393662,1554.432478,-8503.660028,-444.123565
4075.393987,1628.453072,-8810.098227,148.041188
4075.394311,1036.288319,-8044.002729,-296.082377
4075.394636,444.123565,-8810.098227,74.020594
4075.394960,-370.102971,-8044.002729,-592.164754
4075.395284,-370.102971,-8427.050478,518.144159
4075.395609,-1332.370696,-8044.002729,0.000000
4075.395933,-1110.308913,-8810.098227,444.123565
4075.396258,-518.144159,-8044.002729,0.000000
4075.396582,74.020594,-8503.660028,296.082377
4075.396906,222.061783,-8120.612279,-592.164754
4075.397231,1184.329507,-8733.488677,0.000000
4075.397555,1702.473667,-7890.783629,-518.144159
4075.397880,1628.453072,-8580.269578,-740.205942
4075.398204,592.164754,-8427.050478,-444.123565
4075.398528,1480.411884,-8503.660028,-666.185348
4075.398853,148.041188,-9116.536426,-1036.288319
4075.399177,222.061783,-8886.707777,-518.144159
4075.399502,74.020594,-8120.612279,0.000000
4075.399826,0.000000,-8656.879127,-370.102971
4075.400150,222.061783,-8810.098227,-592.164754
4075.400475,888.247130,-8197.221829,-370.102971
4075.400799,1184.329507,-8503.660028,-592.164754
4075.401124,1184.329507,-8273.831378,-518.144159
4075.401448,814.226536,-8503.660028,-222.061783
4075.401772,592.164754,-8503.660028,-444.123565
4075.402097,148.041188,-8580.269578,-370.102971
4075.402421,148.041188,-8963.317327,148.041188
4075.402746,222.061783,-8886.707777,0.000000
4075.403070,296.082377,-8963.317327,-296.082377
4075.403394,-222.061783,-8733.488677,-370.102971
4075.403719,592.164754,-8810.098227,-444.123565
4075.404043,-296.082377,-8350.440928,-740.205942
4075.404368,370.102971,-9039.926876,-296.082377
4075.404692,1036.288319,-8044.002729,-666.185348
4075.405016,0.000000,-8273.831378,-1036.288319
4075.405341,148.041188,-8427.050478,-888.247130
4075.405665,1110.308913,-8197.221829,-444.123565
4075.405990,1776.494261,-8580.269578,-814.226536
4075.406314,3182.885551,-9346.365076,-592.164754
4075.406639,1554.432478,-8197.221829,-1036.288319
4075.406963,888.247130,-9193.145976,0.000000
4075.407287,666.185348,-8580.269578,-666.185348
4075.407612,518.144159,-8810.098227,0.000000
4075.407936,0.000000,-9499.584175,-962.267725
4075.408261,-1184.329507,-8273.831378,-148.041188
4075.408585,-1850.514855,-8963.317327,0.000000
4075.408909,-1332.370696,-8044.002729,-592.164754
4075.409234,-962.267725,-8427.050478,222.061783
4075.409558,-740.205942,-7737.564530,-296.082377
4075.409883,296.082377,-8810.098227,370.102971
4075.410207,888.247130,-7354.516781,-592.164754
4075.410531,1998.556043,-9269.755526,296.082377
4075.410856,1776.494261,-7507.735880,-592.164754
4075.411180,1998.556043,-9729.412825,-592.164754
4075.411505,1184.329507,-8273.831378,-592.164754
4075.411829,444.123565,-9269.755526,0.000000
4075.412153,-370.102971,-8656.879127,-370.102971
4075.412478,-148.041188,-8963.317327,-148.041188
4075.412802,148.041188,-8273.831378,0.000000
4075.413127,0.000000,-8427.050478,-518.144159
4075.413451,518.144159,-8503.660028,-148.041188
4075.413775,814.226536,-7967.393179,-296.082377
4075.414100,888.247130,-8044.002729,-296.082377
4075.414424,1258.350101,-8503.660028,-518.144159
4075.414749,888.247130,-8886.707777,-222.061783
4075.415073,370.102971,-8810.098227,0.000000
4075.415397,148.041188,-8503.660028,0.000000
4075.415722,74.020594,-9116.536426,370.102971
4075.416046,-74.020594,-9116.536426,-296.082377
4075.416371,0.000000,-8733.488677,148.041188
4075.416695,-666.185348,-8427.050478,0.000000
4075.417019,-222.061783,-8197.221829,74.020594
4075.417344,74.020594,-7967.393179,-370.102971
4075.417668,74.020594,-7890.783629,-148.041188
4075.417993,222.061783,-7737.564530,-888.247130
4075.418317,740.205942,-8273.831378,-666.185348
4075.418641,1554.432478,-8427.050478,-1110.308913
4075.418966,1036.288319,-8044.002729,-592.164754
4075.419290,1702.473667,-8350.440928,-222.061783
4075.419615,1406.391290,-8350.440928,-296.082377
4075.419939,2886.803174,-8886.707777,-296.082377
4075.420263,1776.494261,-8810.098227,-888.247130
4075.420588,1480.411884,-9116.536426,0.000000
4075.420912,296.082377,-8273.831378,-592.164754
4075.421237,0.000000,-9193.145976,-296.082377
4075.421561,-518.144159,-8580.269578,-666.185348
4075.421885,-814.226536,-8580.269578,370.102971
4075.422210,-740.205942,-8350.440928,-666.185348
4075.422534,-814.226536,-8580.269578,0.000000
4075.422859,-148.041188,-8427.050478,-444.123565
4075.423183,518.144159,-8580.269578,0.000000
4075.423507,1258.350101,-8656.879127,-888.247130
4075.423832,1184.329507,-9116.536426,0.000000
4075.424156,1110.308913,-8656.879127,-888.247130
4075.424481,962.267725,-9269.755526,-518.144159
4075.424805,296.082377,-8580.269578,-962.267725
4075.425129,296.082377,-9422.974625,-222.061783
4075.425454,-1110.308913,-8886.707777,-592.164754
4075.425778,-1110.308913,-9269.755526,0.000000
4075.426103,-592.164754,-8427.050478,-666.185348
4075.426427,296.082377,-9193.145976,148.041188
4075.426751,370.102971,-8350.440928,-1036.288319
4075.427076,814.226536,-8503.660028,-370.102971
4075.427400,1036.288319,-8580.269578,-740.205942
4075.427725,1184.329507,-8503.660028,-518.144159
4075.428049,888.247130,-8886.707777,0.000000
4075.428373,222.061783,-8656.879127,-370.102971
4075.428698,222.061783,-8963.317327,0.000000
4075.429022,0.000000,-8656.879127,148.041188
4075.429347,-370.102971,-9422.974625,0.000000
4075.429671,-666.185348,-8580.269578,0.000000
4075.429995,-592.164754,-8503.660028,222.061783
4075.430320,222.061783,-8350.440928,-370.102971
4075.430644,148.041188,-8044.002729,518.144159
4075.430969,74.020594,-8044.002729,-148.041188
4075.431293,962.267725,-8273.831378,-444.123565
4075.431617,222.061783,-7507.735880,-666.185348
4075.431942,962.267725,-9039.926876,-370.102971
4075.432266,666.185348,-7660.954980,-740.205942
4075.432591,1406.391290,-8580.269578,-222.061783
4075.432915,740.205942,-8503.660028,-666.185348
4075.433239,1702.473667,-8503.660028,0.000000
4075.433564,1184.329507,-8273.831378,-148.041188
4075.433888,1406.391290,-8733.488677,-370.102971
4075.434213,962.267725,-8733.488677,0.000000
4075.434537,0.000000,-8427.050478,74.020594
4075.434862,-222.061783,-8350.440928,0.000000
4075.435186,-1480.411884,-8580.269578,74.020594
4075.435510,-1184.329507,-8580.269578,0.000000
4075.435835,-1036.288319,-8044.002729,0.000000
4075.436159,-666.185348,-8350.440928,-296.082377
4075.436484,222.061783,-8886.707777,148.041188
4075.436808,962.267725,-7967.393179,-518.144159
4075.437132,1332.370696,-8886.707777,-518.144159
4075.437457,1258.350101,-8350.440928,-370.102971
4075.437781,1702.473667,-9116.536426,-444.123565
4075.438106,1036.288319,-8656.879127,-888.247130
4075.438430,962.267725,-9499.584175,-296.082377
4075.438754,0.000000,-8580.269578,-814.226536
4075.439079,0.000000,-9116.536426,-444.123565
4075.439403,444.123565,-8350.440928,-518.144159
4075.439728,888.247130,-9039.926876,-518.144159
4075.440052,666.185348,-8350.440928,-740.205942
4075.440376,1406.391290,-8810.098227,-592.164754
4075.440701,1332.370696,-8197.221829,-1110.308913
4075.441025,1406.391290,-9116.536426,-666.185348
4075.441350,518.144159,-9116.536426,-740.205942
4075.441674,0.000000,-8810.098227,0.000000
4075.441998,518.144159,-8580.269578,-1110.308913
4075.442323,0.000000,-9193.145976,0.000000
4075.442647,0.000000,-9193.145976,-222.061783
4075.442972,-370.102971,-8427.050478,0.000000
4075.443296,0.000000,-9269.755526,0.000000
4075.443620,0.000000,-8503.660028,-592.164754
4075.443945,740.205942,-8503.660028,-222.061783
4075.444269,148.041188,-7967.393179,-888.247130
4075.444594,444.123565,-8733.488677,-814.226536
4075.444918,444.123565,-8044.002729,-1036.288319
4075.445242,740.205942,-8963.317327,-592.164754
4075.445567,666.185348,-7814.174080,-962.267725
4075.445891,814.226536,-8580.269578,-370.102971
4075.446216,1406.391290,-8656.879127,-592.164754
4075.446540,1776.494261,-8503.660028,-222.061783
4075.446864,1332.370696,-8273.831378,-740.205942
4075.447189,1628.453072,-8810.098227,0.000000
4075.447513,1184.329507,-7967.393179,-222.061783
4075.447838,222.061783,-8963.317327,0.000000
4075.448162,0.000000,-8427.050478,-518.144159
4075.448486,-962.267725,-8503.660028,444.123565
4075.448811,-1184.329507,-8733.488677,-222.061783
4075.449135,-1184.329507,-8120.612279,0.000000
4075.449460,-592.164754,-8580.269578,0.000000
4075.449784,-296.082377,-7967.393179,370.102971
4075.450108,1036.288319,-8580.269578,-148.041188
4075.450433,1184.329507,-8733.488677,-370.102971
4075.450757,1480.411884,-8503.660028,0.000000
4075.451082,1332.370696,-8580.269578,-666.185348
4075.451406,1258.350101,-9346.365076,-296.082377
4075.451730,74.020594,-8810.098227,-370.102971
4075.452055,0.000000,-9346.365076,-296.082377
4075.452379,-296.082377,-8427.050478,-222.061783
4075.452704,0.000000,-8810.098227,-222.061783
4075.453028,222.061783,-8580.269578,-518.144159
4075.453352,444.123565,-8580.269578,222.061783
4075.453677,740.205942,-7890.783629,-74.020594
4075.454001,1110.308913,-8427.050478,-296.082377
4075.454326,1110.308913,-8427.050478,-518.144159
4075.454650,1184.329507,-9269.755526,0.000000
4075.454974,296.082377,-8427.050478,0.000000
4075.455299,-222.061783,-8810.098227,0.000000
4075.455623,-296.082377,-8656.879127,296.082377
4075.455948,-518.144159,-8656.879127,296.082377
4075.456272,0.000000,-9039.926876,74.020594
4075.456596,370.102971,-8427.050478,148.041188
4075.456921,518.144159,-8503.660028,0.000000
4075.457245,296.082377,-8197.221829,-518.144159
4075.457570,888.247130,-8273.831378,-740.205942
4075.457894,222.061783,-7967.393179,-814.226536
4075.458218,74.020594,-7967.393179,-740.205942
4075.458543,148.041188,-8733.488677,-740.205942
4075.458867,370.102971,-8810.098227,-666.185348
4075.459192,888.247130,-8580.269578,-444.123565
4075.459516,814.226536,-8503.660028,-1036.288319
4075.459840,1628.453072,-8810.098227,-592.164754
4075.460165,1554.432478,-8580.269578,-740.205942
4075.460489,2072.576638,-8733.488677,-518.144159
4075.460814,1184.329507,-8733.488677,-888.247130
4075.461138,592.164754,-9269.755526,-444.123565
4075.461462,222.061783,-8810.098227,-370.102971
4075.461787,-1036.288319,-9193.145976,296.082377
4075.462111,-1110.308913,-9422.974625,0.000000
4075.462436,-1628.453072,-8350.440928,-222.061783
4075.462760,-888.247130,-8963.317327,370.102971
4075.463085,-518.144159,-8733.488677,0.000000
4075.463409,888.247130,-8810.098227,-370.102971
4075.463733,1258.350101,-8120.612279,-444.123565
4075.464058,1998.556043,-8810.098227,-666.185348
4075.464382,1406.391290,-8656.879127,-962.267725
4075.464707,1628.453072,-9422.974625,0.000000
4075.465031,1184.329507,-8503.660028,-666.185348
4075.465355,740.205942,-9269.755526,-740.205942
4075.465680,0.000000,-8733.488677,-592.164754
4075.466004,0.000000,-8963.317327,148.041188
4075.466329,0.000000,-8350.440928,-962.267725
4075.466653,222.061783,-8886.707777,-296.082377
4075.466977,814.226536,-8197.221829,-740.205942
4075.467302,1110.308913,-8197.221829,-148.041188
4075.467626,888.247130,-8580.269578,-888.247130
4075.467951,518.144159,-8810.098227,0.000000
4075.468275,222.061783,-8197.221829,-296.082377
4075.468599,0.000000,-9039.926876,-74.020594
4075.468924,-148.041188,-8503.660028,0.000000
4075.469248,-370.102971,-8733.488677,296.082377
4075.469573,0.000000,-8427.050478,0.000000
4075.469897,148.041188,-8197.221829,0.000000
4075.470221,518.144159,-9346.365076,0.000000
4075.470546,74.020594,-7890.783629,0.000000
4075.470870,296.082377,-7814.174080,0.000000
4075.471195,0.000000,-7660.954980,-444.123565
4075.471519,222.061783,-8427.050478,-370.102971
4075.471843,222.061783,-8120.612279,-888.247130
4075.472168,666.185348,-8503.660028,-592.164754
4075.472492,1184.329507,-8273.831378,-222.061783
4075.472817,1258.350101,-8810.098227,-592.164754
4075.473141,2368.659014,-8580.269578,-444.123565
4075.473465,1628.453072,-8580.269578,-148.041188
4075.473790,1702.473667,-8656.879127,-296.082377
4075.474114,1258.350101,-8273.831378,-222.061783
4075.474439,1554.432478,-9269.755526,-370.102971
4075.474763,-296.082377,-8580.269578,-592.164754
4075.475087,-962.267725,-8963.317327,222.061783
4075.475412,-1480.411884,-8580.269578,222.061783
4075.475736,-1184.329507,-8886.707777,222.061783
4075.476061,-814.226536,-8350.440928,-222.061783
4075.476385,-370.102971,-8963.317327,296.082377
4075.476709,148.041188,-7890.783629,-222.061783
4075.477034,1036.288319,-8886.707777,-296.082377
4075.477358,1850.514855,-8656.879127,-296.082377
4075.477683,1332.370696,-8427.050478,-370.102971
4075.478007,666.185348,-8963.317327,-962.267725
4075.478331,370.102971,-9039.926876,-444.123565
4075.478656,740.205942,-8810.098227,-814.226536
4075.478980,370.102971,-9116.536426,-962.267725
4075.479305,0.000000,-9039.926876,-666.185348
4075.479629,0.000000,-8503.660028,-518.144159
4075.479953,-222.061783,-8427.050478,-370.102971
4075.480278,-296.082377,-7814.174080,-370.102971
4075.480602,666.185348,-9039.926876,-296.082377
4075.480927,814.226536,-8197.221829,-962.267725
4075.481251,1332.370696,-8656.879127,-444.123565
4075.481575,1110.308913,-7967.393179,-666.185348
4075.481900,518.144159,-9269.755526,-222.061783
4075.482224,222.061783,-8350.440928,-370.102971
4075.482548,370.102971,-9039.926876,0.000000
4075.482873,222.061783,-9116.536426,222.061783
4075.483197,370.102971,-8963.317327,0.000000
4075.483522,370.102971,-8197.221829,-222.061783
4075.483846,148.041188,-8503.660028,-444.123565
4075.484170,-148.041188,-8273.831378,-962.267725
4075.484495,0.000000,-8197.221829,-740.205942
4075.484819,74.020594,-7967.393179,-666.185348
4075.485144,0.000000,-8503.660028,-814.226536
4075.485468,814.226536,-8503.660028,-962.267725
4075.485792,962.267725,-7890.783629,-1036.288319
4075.486117,1998.556043,-8963.317327,-518.144159
4075.486441,2072.576638,-8427.050478,-444.123565
4075.486765,2294.638420,-9346.365076,-296.082377
4075.487090,1702.473667,-7814.174080,-666.185348
4075.487414,1036.288319,-9116.536426,-518.144159
4075.487739,0.000000,-8733.488677,-666.185348
4075.488063,-148.041188,-8886.707777,148.041188
4075.488387,-1702.473667,-8273.831378,-296.082377
4075.488712,-1702.473667,-8810.098227,0.000000
4075.489036,-1702.473667,-7890.783629,222.061783
4075.489361,-740.205942,-8656.879127,148.041188
4075.489685,444.123565,-8044.002729,-296.082377
4075.490009,1406.391290,-8580.269578,148.041188
4075.490334,1184.329507,-8273.831378,-444.123565
4075.490658,1406.391290,-8656.879127,-148.041188
4075.490982,1554.432478,-8427.050478,-666.185348
4075.491307,962.267725,-8886.707777,-370.102971
4075.491631,518.144159,-8580.269578,-370.102971
4075.491956,0.000000,-9193.145976,0.000000
4075.492280,-148.041188,-8963.317327,-444.123565
4075.492604,0.000000,-8886.707777,148.041188
4075.492929,148.041188,-8580.269578,-74.020594
4075.493253,0.000000,-8503.660028,-222.061783
4075.493578,1184.329507,-8350.440928,0.000000
4075.493902,1184.329507,-8350.440928,-148.041188
4075.494226,1184.329507,-8197.221829,-740.205942
4075.494551,1036.288319,-8886.707777,-444.123565
4075.494875,592.164754,-8503.660028,0.000000
4075.495199,222.061783,-9193.145976,0.000000
4075.495524,-444.123565,-8886.707777,0.000000
4075.495848,-518.144159,-9116.536426,222.061783
4075.496173,-444.123565,-8503.660028,-296.082377
4075.496497,148.041188,-8886.707777,0.000000
4075.496821,-888.247130,-7890.783629,-222.061783
4075.497146,1036.288319,-9039.926876,148.041188
4075.497470,-1184.329507,-7967.393179,-666.185348
4075.497795,74.020594,-8273.831378,-222.061783
4075.498119,444.123565,-7814.174080,-888.247130
4075.498443,296.082377,-8656.879127,-888.247130
4075.498768,370.102971,-8656.879127,-296.082377
4075.499092,888.247130,-8197.221829,-740.205942
4075.499416,1110.308913,-9116.536426,-444.123565
4075.499741,1406.391290,-8503.660028,-888.247130
4075.500065,1998.556043,-8886.707777,-518.144159
4075.500390,1702.473667,-8963.317327,-814.226536
4075.500714,1036.288319,-8810.098227,-148.041188
4075.501038,888.247130,-8810.098227,-592.164754
4075.501363,-592.164754,-8580.269578,-814.226536
4075.501687,-370.102971,-9116.536426,-370.102971
4075.502012,-518.144159,-8197.221829,-222.061783
4075.502336,-962.267725,-8503.660028,74.020594
4075.502660,-814.226536,-8120.612279,0.000000
4075.502985,222.061783,-8580.269578,0.000000
4075.503309,222.061783,-8273.831378,0.000000
4075.503633,1184.329507,-8656.879127,-370.102971
4075.503958,1184.329507,-8427.050478,-592.164754
4075.504282,1554.432478,-9039.926876,-518.144159
4075.504607,1184.329507,-8656.879127,-962.267725
4075.504931,962.267725,-9116.536426,-1110.308913
4075.505255,518.144159,-9039.926876,-518.144159
4075.505580,-962.267725,-9116.536426,518.144159
4075.505904,74.020594,-9193.145976,-592.164754
4075.506229,518.144159,-8963.317327,-222.061783
4075.506553,814.226536,-8350.440928,-888.247130
4075.506877,1110.308913,-9039.926876,-518.144159
4075.507202,1184.329507,-8580.269578,0.000000
4075.507526,962.267725,-8273.831378,-592.164754
4075.507850,1184.329507,-8503.660028,-296.082377
4075.508175,888.247130,-8580.269578,-444.123565
4075.508499,1036.288319,-8963.317327,-370.102971
4075.508824,74.020594,-8810.098227,0.000000
4075.509148,-666.185348,-8427.050478,-222.061783
4075.509472,-296.082377,-8810.098227,74.020594
4075.509797,296.082377,-8350.440928,444.123565
4075.510121,-370.102971,-8656.879127,-296.082377
4075.510446,-148.041188,-8044.002729,-370.102971
4075.510770,-518.144159,-8963.317327,0.000000
4075.511094,-222.061783,-7814.174080,-518.144159
4075.511419,518.144159,-7890.783629,-888.247130
4075.511743,-740.205942,-8580.269578,-814.226536
4075.512067,592.164754,-8427.050478,-518.144159
4075.512392,1110.308913,-7967.393179,-296.082377
4075.512716,1036.288319,-9422.974625,-518.144159
4075.513041,1924.535449,-8197.221829,-148.041188
4075.513365,1702.473667,-8273.831378,-370.102971
4075.513689,1776.494261,-8733.488677,-518.144159
4075.514014,1036.288319,-8350.440928,-296.082377
4075.514338,592.164754,-8810.098227,-222.061783
4075.514663,-444.123565,-8810.098227,-296.082377
4075.514987,-1406.391290,-8886.707777,0.000000
4075.515311,-2072.576638,-8733.488677,-444.123565
4075.515636,-1924.535449,-8886.707777,222.061783
4075.515960,-1258.350101,-8044.002729,74.020594
4075.516284,-1332.370696,-8656.879127,222.061783
4075.516609,444.123565,-7737.564530,-148.041188
4075.516933,592.164754,-7814.174080,222.061783
4075.517258,1850.514855,-8580.269578,-444.123565
4075.517582,1702.473667,-8733.488677,-444.123565
4075.517906,1406.391290,-8427.050478,-888.247130
4075.518231,1554.432478,-9039.926876,-740.205942
4075.518555,1258.350101,-8963.317327,-740.205942
4075.518880,222.061783,-9882.631924,-148.041188
4075.519204,0.000000,-8350.440928,-740.205942
4075.519528,296.082377,-9193.145976,0.000000
4075.519853,444.123565,-9116.536426,-814.226536
4075.520177,74.020594,-8503.660028,-222.061783
4075.520501,148.041188,-8733.488677,-592.164754
4075.520826,1036.288319,-8503.660028,-370.102971
4075.521150,1702.473667,-8963.317327,-592.164754
4075.521475,518.144159,-8503.660028,-666.185348
4075.521799,296.082377,-9193.145976,74.020594
4075.522123,74.020594,-8503.660028,-444.123565
4075.522448,148.041188,-9269.755526,-370.102971
4075.522772,296.082377,-8503.660028,0.000000
4075.523097,148.041188,-9039.926876,-148.041188
4075.523421,0.000000,-8350.440928,-74.020594
4075.523745,444.123565,-8427.050478,0.000000
4075.524070,888.247130,-8197.221829,-296.082377
4075.524394,444.123565,-8503.660028,-666.185348
4075.524718,370.102971,-7967.393179,-444.123565
4075.525043,444.123565,-8350.440928,-666.185348
4075.525367,666.185348,-7967.393179,-518.144159
4075.525692,1036.288319,-8427.050478,-962.267725
4075.526016,1110.308913,-8733.488677,-814.226536
4075.526340,1924.535449,-8427.050478,-518.144159
4075.526665,1628.453072,-8427.050478,-740.205942
4075.526989,1998.556043,-8886.707777,-370.102971
4075.527314,1480.411884,-8197.221829,-740.205942
4075.527638,740.205942,-9422.974625,-444.123565
4075.527962,222.061783,-8580.269578,-148.041188
4075.528287,-740.205942,-8503.660028,0.000000
4075.528611,-1110.308913,-9116.536426,-148.041188
4075.528935,-1480.411884,-8273.831378,222.061783
4075.529260,-740.205942,-8656.879127,0.000000
4075.529584,74.020594,-8810.098227,296.082377
4075.529909,740.205942,-7967.393179,74.020594
4075.530233,1184.329507,-8810.098227,-222.061783
4075.530557,962.267725,-8197.221829,-444.123565
4075.530882,1332.370696,-8427.050478,-814.226536
4075.531206,962.267725,-8886.707777,-666.185348
4075.531531,444.123565,-8886.707777,-370.102971
4075.531855,222.061783,-9039.926876,-592.164754
4075.532179,-370.102971,-8810.098227,-370.102971
4075.532504,-1036.288319,-8197.221829,74.020594
4075.532828,-518.144159,-8580.269578,-592.164754
4075.533152,148.041188,-8503.660028,-296.082377
4075.533477,222.061783,-8273.831378,-444.123565
4075.533801,740.205942,-8580.269578,-814.226536
4075.534126,518.144159,-8503.660028,-666.185348
4075.534450,1110.308913,-8503.660028,-518.144159
4075.534774,444.123565,-8886.707777,-222.061783
4075.535099,148.041188,-9039.926876,-296.082377
4075.535423,592.164754,-8886.707777,0.000000
4075.535748,222.061783,-8656.879127,74.020594
4075.536072,0.000000,-9193.145976,-222.061783
4075.536396,0.000000,-8656.879127,0.000000
4075.536721,0.000000,-8810.098227,444.123565
4075.537045,-148.041188,-8044.002729,0.000000
4075.537369,0.000000,-8427.050478,0.000000
4075.537694,0.000000,-8044.002729,-296.082377
4075.538018,222.061783,-8810.098227,-370.102971
4075.538343,222.061783,-7890.783629,-740.205942
4075.538667,814.226536,-8733.488677,-740.205942
4075.538991,740.205942,-8197.221829,-148.041188
4075.539316,1480.411884,-9116.536426,-444.123565
4075.539640,1924.535449,-8963.317327,-296.082377
4075.539965,1998.556043,-8810.098227,-148.041188
4075.540289,1554.432478,-8580.269578,-592.164754
4075.540613,1480.411884,-9116.536426,0.000000
4075.540938,518.144159,-9193.145976,-296.082377
4075.541262,0.000000,-9116.536426,0.000000
4075.541586,-814.226536,-8273.831378,0.000000
4075.541911,-1110.308913,-8963.317327,0.000000
4075.542235,-1480.411884,-8963.317327,-518.144159
4075.542560,-814.226536,-8886.707777,0.000000
4075.542884,-296.082377,-8120.612279,-370.102971
4075.543208,740.205942,-8810.098227,0.000000
4075.543533,1110.308913,-8120.612279,-592.164754
4075.543857,1554.432478,-8580.269578,74.020594
4075.544182,1332.370696,-8120.612279,-666.185348
4075.544506,1332.370696,-8810.098227,-518.144159
4075.544830,1332.370696,-8963.317327,-888.247130
4075.545155,518.144159,-8963.317327,0.000000
4075.545479,518.144159,-8733.488677,-1036.288319
4075.545803,74.020594,-8963.317327,-370.102971
4075.546128,148.041188,-8810.098227,-222.061783
4075.546452,296.082377,-8503.660028,-592.164754
4075.546777,888.247130,-8886.707777,-888.247130
4075.547101,1184.329507,-8427.050478,-444.123565
4075.547425,962.267725,-8273.831378,-444.123565
4075.547750,814.226536,-8656.879127,-666.185348
4075.548074,1036.288319,-8886.707777,-666.185348
4075.548399,222.061783,-8963.317327,-444.123565
4075.548723,222.061783,-9346.365076,-222.061783
4075.549047,-444.123565,-8503.660028,0.000000
4075.549372,0.000000,-8427.050478,592.164754
4075.549696,0.000000,-8273.831378,0.000000
4075.550020,0.000000,-8656.879127,-370.102971
4075.550345,444.123565,-8197.221829,-296.082377
4075.550669,148.041188,-7890.783629,0.000000
4075.550994,0.000000,-8044.002729,-1184.329507
4075.551318,-296.082377,-8273.831378,-444.123565
4075.551642,0.000000,-8197.221829,-814.226536
4075.551967,0.000000,-8656.879127,-740.205942
4075.552291,518.144159,-7967.393179,-222.061783
4075.552616,1036.288319,-8733.488677,-370.102971
4075.552940,1406.391290,-8503.660028,-888.247130
4075.553264,1702.473667,-9116.536426,0.000000
4075.553589,1850.514855,-8350.440928,-370.102971
4075.553913,1776.494261,-8963.317327,0.000000
4075.554237,444.123565,-8273.831378,-518.144159
4075.554562,148.041188,-9039.926876,222.061783
4075.554886,-666.185348,-8350.440928,-222.061783
4075.555211,-888.247130,-9346.365076,0.000000
4075.555535,-1110.308913,-8733.488677,-370.102971
4075.555859,-1406.391290,-7814.174080,222.061783
4075.556184,-444.123565,-8350.440928,0.000000
4075.556508,592.164754,-8580.269578,-518.144159
4075.556833,888.247130,-8503.660028,0.000000
4075.557157,1036.288319,-8273.831378,-444.123565
4075.557481,1554.432478,-8733.488677,-370.102971
4075.557806,1258.350101,-8503.660028,-666.185348
4075.558130,1480.411884,-9039.926876,0.000000
4075.558454,148.041188,-8656.879127,-888.247130
4075.558779,0.000000,-9499.584175,0.000000
4075.559103,0.000000,-8656.879127,-666.185348
4075.559428,0.000000,-8656.879127,370.102971
4075.559752,296.082377,-8427.050478,-592.164754
4075.560076,592.164754,-8656.879127,-296.082377
4075.560401,962.267725,-8120.612279,-666.185348
4075.560725,740.205942,-7967.393179,-296.082377
4075.561050,1406.391290,-8656.879127,-518.144159
4075.561374,962.267725,-8733.488677,-296.082377
4075.561698,296.082377,-8886.707777,0.000000
4075.562023,444.123565,-8733.488677,-222.061783
4075.562347,148.041188,-8810.098227,370.102971
4075.562671,-296.082377,-8886.707777,-296.082377
4075.562996,0.000000,-8810.098227,296.082377
4075.563320,0.000000,-8120.612279,-148.041188
4075.563645,0.000000,-7890.783629,-666.185348
4075.563969,370.102971,-8197.221829,-444.123565
4075.564293,370.102971,-8810.098227,-444.123565
4075.564618,888.247130,-7814.174080,-888.247130
4075.564942,1184.329507,-8427.050478,-518.144159
4075.565267,1110.308913,-8580.269578,-962.267725
4075.565591,1406.391290,-8427.050478,-814.226536
4075.565915,2072.576638,-8427.050478,-666.185348
4075.566240,2072.576638,-8886.707777,-518.144159
4075.566564,2368.659014,-8656.879127,-740.205942
4075.566888,1998.556043,-9269.755526,-666.185348
4075.567213,1332.370696,-8733.488677,-666.185348
4075.567537,666.185348,-9193.145976,-962.267725
4075.567862,74.020594,-9193.145976,-370.102971
4075.568186,-814.226536,-9193.145976,0.000000
4075.568510,-1332.370696,-7967.393179,-740.205942
4075.568835,-962.267725,-9422.974625,0.000000
4075.569159,-1332.370696,-8733.488677,-592.164754
4075.569484,-666.185348,-9193.145976,222.061783
4075.569808,-740.205942,-8044.002729,-592.164754
4075.570132,370.102971,-8886.707777,-148.041188
4075.570457,518.144159,-7890.783629,-518.144159
4075.570781,592.164754,-8886.707777,-370.102971
4075.571106,1184.329507,-8810.098227,-1110.308913
4075.571430,1036.288319,-8886.707777,0.000000
4075.571754,740.205942,-8733.488677,-962.267725
4075.572079,592.164754,-9346.365076,-814.226536
