#time,accel_x,accel_y,accel_z
5660.449795,370.102971,-8580.269578,148.041188
5660.450119,518.144159,-9193.145976,518.144159
5660.450443,296.082377,-8733.488677,222.061783
5660.450768,444.123565,-8733.488677,74.020594
5660.451092,370.102971,-8580.269578,0.000000
5660.451416,296.082377,-8503.660028,0.000000
5660.451740,518.144159,-8427.050478,-296.082377
5660.452064,296.082377,-8733.488677,0.000000
5660.452388,444.123565,-8503.660028,0.000000
5660.452712,222.061783,-8656.879127,0.000000
5660.453036,518.144159,-8886.707777,0.000000
5660.453361,518.144159,-8273.831378,0.000000
5660.453685,444.123565,-8503.660028,0.000000
5660.454009,518.144159,-8656.879127,0.000000
5660.454333,518.144159,-8427.050478,-148.041188
5660.454657,296.082377,-8580.269578,0.000000
5660.454981,296.082377,-8350.440928,-518.144159
5660.455305,296.082377,-8733.488677,-222.061783
5660.455629,370.102971,-8580.269578,-296.082377
5660.455953,592.164754,-8656.879127,0.000000
5660.456278,222.061783,-8427.050478,-370.102971
5660.456602,444.123565,-8656.879127,-222.061783
5660.456926,592.164754,-8427.050478,-222.061783
5660.457250,814.226536,-8886.707777,-148.041188
5660.457574,370.102971,-8503.660028,-222.061783
5660.457898,148.041188,-8503.660028,0.000000
5660.458222,370.102971,-8733.488677,-296.082377
5660.458546,296.082377,-8656.879127,-148.041188
5660.458871,370.102971,-8503.660028,-296.082377
5660.459195,370.102971,-8503.660028,-296.082377
5660.459519,370.102971,-8656.879127,-370.102971
5660.459843,222.061783,-8886.707777,-370.102971
5660.460167,444.123565,-8580.269578,-592.164754
5660.460491,518.144159,-8733.488677,-222.061783
5660.460815,518.144159,-8656.879127,-518.144159
5660.461139,518.144159,-8963.317327,-222.061783
5660.461464,222.061783,-8197.221829,-296.082377
5660.461788,592.164754,-8503.660028,-444.123565
5660.462112,370.102971,-8656.879127,-148.041188
5660.462436,370.102971,-8886.707777,-518.144159
5660.462760,370.102971,-8350.440928,-444.123565
5660.463084,222.061783,-8503.660028,0.000000
5660.463408,148.041188,-8886.707777,-222.061783
5660.463732,666.185348,-8733.488677,-296.082377
5660.464056,296.082377,-8733.488677,-296.082377
5660.464381,666.185348,-8580.269578,-370.102971
5660.464705,296.082377,-8503.660028,-296.082377
5660.465029,444.123565,-8963.317327,-222.061783
5660.465353,370.102971,-8656.879127,0.000000
5660.465677,888.247130,-8810.098227,-666.185348
5660.466001,444.123565,-8810.098227,-370.102971
5660.466325,370.102971,-8273.831378,-296.082377
5660.466649,296.082377,-9039.926876,0.000000
5660.466974,370.102971,-8580.269578,-148.041188
5660.467298,592.164754,-8963.317327,-370.102971
5660.467622,296.082377,-8580.269578,-370.102971
5660.467946,592.164754,-8427.050478,-296.082377
5660.468270,148.041188,-8656.879127,-296.082377
5660.468594,888.247130,-8886.707777,-592.164754
5660.468918,296.082377,-8273.831378,-370.102971
5660.469242,592.164754,-9039.926876,0.000000
5660.469567,444.123565,-8197.221829,-148.041188
5660.469891,444.123565,-7814.174080,296.082377
5660.470215,518.144159,-8427.050478,-296.082377
5660.470539,518.144159,-8197.221829,-148.041188
5660.470863,592.164754,-8350.440928,-370.102971
5660.471187,444.123565,-8656.879127,0.000000
5660.471511,740.205942,-8656.879127,-296.082377
5660.471835,444.123565,-8580.269578,74.020594
5660.472160,592.164754,-8427.050478,0.000000
5660.472484,296.082377,-8810.098227,0.000000
5660.472808,962.267725,-9729.412825,0.000000
5660.473132,666.185348,-8580.269578,222.061783
5660.473456,740.205942,-8273.831378,74.020594
5660.473780,592.164754,-8733.488677,148.041188
5660.474104,444.123565,-8350.440928,0.000000
5660.474428,814.226536,-8733.488677,148.041188
5660.474752,518.144159,-8503.660028,0.000000
5660.475077,666.185348,-8427.050478,74.020594
5660.475401,370.102971,-8580.269578,0.000000
5660.475725,148.041188,-8427.050478,74.020594
5660.476049,296.082377,-8733.488677,74.020594
5660.476373,444.123565,-8656.879127,74.020594
5660.476697,518.144159,-8350.440928,74.020594
5660.477021,370.102971,-8273.831378,-592.164754
5660.477345,518.144159,-8733.488677,0.000000
5660.477670,518.144159,-8503.660028,74.020594
5660.477994,222.061783,-8580.269578,0.000000
5660.478318,222.061783,-8810.098227,148.041188
5660.478642,222.061783,-8273.831378,0.000000
5660.478966,74.020594,-8656.879127,74.020594
5660.479290,370.102971,-8427.050478,74.020594
5660.479614,222.061783,-8733.488677,222.061783
5660.479938,518.144159,-8273.831378,0.000000
5660.480263,370.102971,-8427.050478,0.000000
5660.480587,296.082377,-8733.488677,74.020594
5660.480911,518.144159,-8427.050478,296.082377
5660.481235,370.102971,-8503.660028,370.102971
5660.481559,444.123565,-8733.488677,444.123565
5660.481883,222.061783,-8810.098227,222.061783
5660.482207,0.000000,-8810.098227,370.102971
5660.482531,-222.061783,-8656.879127,518.144159
5660.482856,-222.061783,-8350.440928,296.082377
5660.483180,148.041188,-8656.879127,518.144159
5660.483504,0.000000,-8427.050478,518.144159
5660.483828,222.061783,-8656.879127,740.205942
5660.484152,74.020594,-8580.269578,592.164754
5660.484476,444.123565,-8810.098227,592.164754
5660.484800,444.123565,-8427.050478,518.144159
5660.485124,296.082377,-8810.098227,1036.288319
5660.485448,370.102971,-9269.755526,592.164754
5660.485773,222.061783,-8810.098227,888.247130
5660.486097,296.082377,-8427.050478,592.164754
5660.486421,518.144159,-8503.660028,666.185348
5660.486745,74.020594,-8197.221829,592.164754
5660.487069,0.000000,-8044.002729,1110.308913
5660.487393,74.020594,-7967.393179,518.144159
5660.487717,0.000000,-8427.050478,814.226536
5660.488041,148.041188,-8350.440928,518.144159
5660.488366,-148.041188,-8427.050478,888.247130
5660.488690,74.020594,-8197.221829,666.185348
5660.489014,296.082377,-8427.050478,518.144159
5660.489338,666.185348,-8656.879127,666.185348
5660.489662,296.082377,-8427.050478,518.144159
5660.489986,592.164754,-8350.440928,370.102971
5660.490310,222.061783,-8580.269578,444.123565
5660.490634,148.041188,-7814.174080,518.144159
5660.490959,0.000000,-8580.269578,444.123565
5660.491283,0.000000,-8197.221829,666.185348
5660.491607,370.102971,-8503.660028,370.102971
5660.491931,222.061783,-8350.440928,370.102971
5660.492255,370.102971,-8580.269578,518.144159
5660.492579,518.144159,-9116.536426,518.144159
5660.492903,370.102971,-8427.050478,666.185348
5660.493227,370.102971,-8350.440928,222.061783
5660.493551,518.144159,-8503.660028,148.041188
5660.493876,296.082377,-8350.440928,0.000000
5660.494200,148.041188,-8427.050478,74.020594
5660.494524,0.000000,-8733.488677,0.000000
5660.494848,148.041188,-8350.440928,0.000000
5660.495172,74.020594,-8120.612279,-148.041188
5660.495496,0.000000,-7737.564530,0.000000
5660.495820,296.082377,-8503.660028,-370.102971
5660.496144,370.102971,-8273.831378,-148.041188
5660.496469,592.164754,-8580.269578,-296.082377
5660.496793,518.144159,-8427.050478,-888.247130
5660.497117,740.205942,-8656.879127,-592.164754
5660.497441,518.144159,-8656.879127,-518.144159
5660.497765,444.123565,-8427.050478,-740.205942
5660.498089,222.061783,-8580.269578,-888.247130
5660.498413,222.061783,-9116.536426,-666.185348
5660.498737,148.041188,-8656.879127,-962.267725
5660.499062,222.061783,-8503.660028,-888.247130
5660.499386,74.020594,-8350.440928,-518.144159
5660.499710,148.041188,-9116.536426,0.000000
5660.500034,370.102971,-8427.050478,-814.226536
5660.500358,666.185348,-8656.879127,-814.226536
5660.500682,814.226536,-8656.879127,-888.247130
5660.501006,296.082377,-8810.098227,-592.164754
5660.501330,296.082377,-8427.050478,-740.205942
5660.501655,296.082377,-8427.050478,-1110.308913
5660.501979,592.164754,-8580.269578,-1036.288319
5660.502303,370.102971,-8580.269578,-1110.308913
5660.502627,444.123565,-8350.440928,-1184.329507
5660.502951,0.000000,-8503.660028,-1110.308913
5660.503275,370.102971,-8503.660028,-1036.288319
5660.503599,370.102971,-8580.269578,-1332.370696
5660.503923,370.102971,-8886.707777,-1480.411884
5660.504247,592.164754,-8503.660028,-1184.329507
5660.504572,370.102971,-8580.269578,-1184.329507
5660.504896,444.123565,-8886.707777,-1332.370696
5660.505220,444.123565,-9039.926876,-1554.432478
5660.505544,814.226536,-8810.098227,-1702.473667
5660.505868,296.082377,-8810.098227,-1776.494261
5660.506192,370.102971,-9193.145976,-1554.432478
5660.506516,74.020594,-8963.317327,-1480.411884
5660.506840,518.144159,-8733.488677,-1554.432478
5660.507165,148.041188,-8656.879127,-1850.514855
5660.507489,444.123565,-9039.926876,-1628.453072
5660.507813,296.082377,-8427.050478,-1554.432478
5660.508137,740.205942,-8350.440928,-1184.329507
5660.508461,518.144159,-8810.098227,-1480.411884
5660.508785,444.123565,-8656.879127,-1480.411884
5660.509109,666.185348,-8810.098227,-1628.453072
5660.509433,148.041188,-8810.098227,-1258.350101
5660.509758,444.123565,-8580.269578,-1184.329507
5660.510082,296.082377,-8810.098227,-1110.308913
5660.510406,444.123565,-8733.488677,-962.267725
5660.510730,370.102971,-8886.707777,-1332.370696
5660.511054,1036.288319,-8503.660028,-1110.308913
5660.511378,296.082377,-8273.831378,-740.205942
5660.511702,444.123565,-8580.269578,-740.205942
5660.512026,444.123565,-8580.269578,-592.164754
5660.512350,814.226536,-8963.317327,-370.102971
5660.512675,518.144159,-8810.098227,-814.226536
5660.512999,370.102971,-8580.269578,-814.226536
5660.513323,296.082377,-8963.317327,-814.226536
5660.513647,296.082377,-8656.879127,-814.226536
5660.513971,814.226536,-8427.050478,-666.185348
5660.514295,518.144159,-8503.660028,-888.247130
5660.514619,740.205942,-8656.879127,-592.164754
5660.514943,592.164754,-8503.660028,-518.144159
5660.515268,222.061783,-8350.440928,-222.061783
5660.515592,740.205942,-8427.050478,-370.102971
5660.515916,666.185348,-8656.879127,-222.061783
5660.516240,666.185348,-8810.098227,-444.123565
5660.516564,518.144159,-9039.926876,148.041188
5660.516888,592.164754,-8886.707777,-444.123565
5660.517212,518.144159,-8886.707777,-148.041188
5660.517536,740.205942,-8503.660028,-148.041188
5660.517861,592.164754,-8886.707777,0.000000
5660.518185,518.144159,-8197.221829,296.082377
5660.518509,444.123565,-8886.707777,74.020594
5660.518833,518.144159,-8580.269578,0.000000
5660.519157,592.164754,-8427.050478,222.061783
5660.519481,592.164754,-8044.002729,518.144159
5660.519805,518.144159,-8810.098227,148.041188
5660.520129,444.123565,-8656.879127,518.144159
5660.520454,592.164754,-8580.269578,148.041188
5660.520778,444.123565,-8580.269578,444.123565
5660.521102,370.102971,-8580.269578,0.000000
5660.521426,592.164754,-8733.488677,0.000000
5660.521750,518.144159,-8427.050478,148.041188
5660.522074,444.123565,-8350.440928,-148.041188
5660.522398,740.205942,-8656.879127,-296.082377
5660.522722,518.144159,-8503.660028,-370.102971
5660.523046,666.185348,-8580.269578,-296.082377
5660.523371,518.144159,-8503.660028,-444.123565
5660.523695,888.247130,-7890.783629,0.000000
5660.524019,814.226536,-8580.269578,-666.185348
5660.524343,518.144159,-8580.269578,-592.164754
5660.524667,444.123565,-8580.269578,-592.164754
5660.524991,370.102971,-8427.050478,-592.164754
5660.525315,814.226536,-8350.440928,-666.185348
5660.525639,592.164754,-8656.879127,-740.205942
5660.525964,296.082377,-8427.050478,-962.267725
5660.526288,518.144159,-8350.440928,-1110.308913
5660.526612,740.205942,-8427.050478,-1184.329507
5660.526936,296.082377,-8503.660028,-666.185348
5660.527260,370.102971,-8656.879127,-666.185348
5660.527584,518.144159,-8733.488677,-888.247130
5660.527908,222.061783,-8580.269578,-296.082377
5660.528232,370.102971,-8810.098227,-888.247130
5660.528557,370.102971,-9039.926876,-666.185348
5660.528881,296.082377,-8810.098227,-888.247130
5660.529205,148.041188,-9039.926876,-888.247130
5660.529529,370.102971,-8886.707777,-1110.308913
5660.529853,296.082377,-8810.098227,-1036.288319
5660.530177,222.061783,-8656.879127,-1036.288319
5660.530501,222.061783,-8427.050478,-814.226536
5660.530825,666.185348,-8886.707777,-888.247130
5660.531149,444.123565,-8580.269578,-962.267725
5660.531474,518.144159,-8580.269578,-1036.288319
5660.531798,518.144159,-8810.098227,-1184.329507
5660.532122,740.205942,-8503.660028,-1036.288319
5660.532446,222.061783,-8886.707777,-1258.350101
5660.532770,296.082377,-8580.269578,-1258.350101
5660.533094,296.082377,-8733.488677,-1258.350101
5660.533418,222.061783,-8580.269578,-1480.411884
5660.533742,444.123565,-8733.488677,-1332.370696
5660.534067,222.061783,-8656.879127,-1110.308913
5660.534391,370.102971,-8810.098227,-1036.288319
5660.534715,370.102971,-8580.269578,-1258.350101
5660.535039,1332.370696,-8886.707777,-1110.308913
5660.535363,666.185348,-8427.050478,-1036.288319
5660.535688,592.164754,-8427.050478,-814.226536
5660.536012,296.082377,-8350.440928,-962.267725
5660.536336,518.144159,-8273.831378,-740.205942
5660.536661,592.164754,-8656.879127,-740.205942
5660.536985,370.102971,-8350.440928,-1110.308913
5660.537309,518.144159,-8580.269578,-592.164754
5660.537634,222.061783,-8503.660028,-666.185348
5660.537958,592.164754,-8580.269578,-592.164754
5660.538282,0.000000,-8733.488677,-592.164754
5660.538607,444.123565,-8580.269578,-444.123565
5660.538931,592.164754,-8197.221829,-592.164754
5660.539255,666.185348,-8044.002729,0.000000
5660.539580,370.102971,-8427.050478,-740.205942
5660.539904,444.123565,-8580.269578,-518.144159
5660.540228,666.185348,-8580.269578,-740.205942
5660.540552,518.144159,-8427.050478,-888.247130
5660.540877,740.205942,-8350.440928,-962.267725
5660.541201,148.041188,-8350.440928,-666.185348
5660.541525,444.123565,-8580.269578,-666.185348
5660.541850,370.102971,-8580.269578,-888.247130
5660.542174,888.247130,-8427.050478,-814.226536
5660.542498,518.144159,-8427.050478,-518.144159
5660.542823,370.102971,-8427.050478,-444.123565
5660.543147,518.144159,-8503.660028,-370.102971
5660.543471,814.226536,-7814.174080,-296.082377
5660.543796,444.123565,-8503.660028,-740.205942
5660.544120,222.061783,-8350.440928,-148.041188
5660.544444,444.123565,-8273.831378,-370.102971
5660.544769,518.144159,-8350.440928,-370.102971
5660.545093,518.144159,-8273.831378,-370.102971
5660.545417,296.082377,-8503.660028,-370.102971
5660.545742,592.164754,-8580.269578,-296.082377
5660.546066,518.144159,-8273.831378,-148.041188
5660.546390,518.144159,-8733.488677,-592.164754
5660.546715,518.144159,-8427.050478,-148.041188
5660.547039,444.123565,-8427.050478,-222.061783
5660.547363,370.102971,-8580.269578,-296.082377
5660.547688,592.164754,-7967.393179,0.000000
5660.548012,370.102971,-8580.269578,-296.082377
5660.548336,592.164754,-8503.660028,-518.144159
5660.548661,0.000000,-8427.050478,-666.185348
5660.548985,518.144159,-8580.269578,-740.205942
5660.549309,444.123565,-8580.269578,-666.185348
5660.549634,296.082377,-8427.050478,-888.247130
5660.549958,444.123565,-8503.660028,-592.164754
5660.550282,518.144159,-8350.440928,-666.185348
5660.550607,888.247130,-8810.098227,-814.226536
5660.550931,0.000000,-8503.660028,-740.205942
5660.551255,296.082377,-8580.269578,-592.164754
5660.551580,296.082377,-8580.269578,-518.144159
5660.551904,814.226536,-8810.098227,-740.205942
5660.552228,296.082377,-8580.269578,-370.102971
5660.552553,370.102971,-8350.440928,-444.123565
5660.552877,222.061783,-8197.221829,-148.041188
5660.553201,148.041188,-8427.050478,-444.123565
5660.553526,296.082377,-8427.050478,-296.082377
5660.553850,444.123565,-8503.660028,-222.061783
5660.554174,518.144159,-8963.317327,-222.061783
5660.554499,370.102971,-8580.269578,0.000000
5660.554823,444.123565,-8733.488677,-296.082377
5660.555147,148.041188,-8580.269578,-222.061783
5660.555472,518.144159,-8427.050478,0.000000
5660.555796,666.185348,-8503.660028,0.000000
5660.556120,370.102971,-7814.174080,0.000000
5660.556444,518.144159,-7967.393179,0.000000
5660.556769,148.041188,-8197.221829,0.000000
5660.557093,666.185348,-8273.831378,0.000000
5660.557417,444.123565,-8350.440928,0.000000
5660.557742,666.185348,-8580.269578,-370.102971
5660.558066,592.164754,-8503.660028,0.000000
5660.558390,962.267725,-8810.098227,-148.041188
5660.558715,814.226536,-8350.440928,-222.061783
5660.559039,962.267725,-8886.707777,0.000000
5660.559363,666.185348,-8503.660028,-296.082377
5660.559688,444.123565,-8427.050478,0.000000
5660.560012,592.164754,-8273.831378,-296.082377
5660.560336,444.123565,-8656.879127,0.000000
5660.560661,518.144159,-8503.660028,296.082377
5660.560985,444.123565,-8656.879127,0.000000
5660.561309,444.123565,-8810.098227,0.000000
5660.561634,592.164754,-8733.488677,148.041188
5660.561958,222.061783,-8963.317327,666.185348
5660.562282,518.144159,-8580.269578,296.082377
5660.562607,592.164754,-8656.879127,148.041188
5660.562931,888.247130,-8733.488677,148.041188
5660.563255,666.185348,-9346.365076,518.144159
5660.563580,444.123565,-8580.269578,222.061783
5660.563904,296.082377,-8580.269578,222.061783
5660.564228,666.185348,-8427.050478,148.041188
5660.564553,518.144159,-8656.879127,74.020594
5660.564877,444.123565,-8427.050478,74.020594
5660.565201,444.123565,-8656.879127,74.020594
5660.565526,888.247130,-8733.488677,0.000000
5660.565850,370.102971,-8733.488677,0.000000
5660.566174,592.164754,-8656.879127,0.000000
5660.566499,666.185348,-8656.879127,0.000000
5660.566823,518.144159,-8350.440928,-222.061783
5660.567147,222.061783,-8656.879127,-370.102971
5660.567472,370.102971,-8963.317327,-592.164754
5660.567796,740.205942,-8886.707777,-296.082377
5660.568120,518.144159,-8810.098227,-740.205942
5660.568445,444.123565,-8886.707777,-296.082377
5660.568769,370.102971,-8503.660028,0.000000
5660.569093,518.144159,-9116.536426,-296.082377
5660.569418,222.061783,-8733.488677,-222.061783
5660.569742,740.205942,-9116.536426,0.000000
5660.570066,444.123565,-8580.269578,0.000000
5660.570391,592.164754,-8273.831378,-370.102971
5660.570715,296.082377,-8810.098227,-296.082377
5660.571039,592.164754,-8427.050478,0.000000
5660.571364,444.123565,-8810.098227,-148.041188
5660.571688,296.082377,-9039.926876,0.000000
5660.572012,222.061783,-8656.879127,-148.041188
5660.572336,296.082377,-8733.488677,0.000000
5660.572661,222.061783,-8886.707777,0.000000
5660.572985,0.000000,-8733.488677,0.000000
5660.573309,592.164754,-9269.755526,-518.144159
5660.573634,518.144159,-8580.269578,-296.082377
5660.573958,222.061783,-8810.098227,-444.123565
5660.574282,370.102971,-8580.269578,-296.082377
5660.574607,222.061783,-8963.317327,74.020594
5660.574931,296.082377,-8810.098227,-518.144159
5660.575255,666.185348,-8886.707777,-814.226536
5660.575580,222.061783,-8503.660028,-666.185348
5660.575904,222.061783,-8963.317327,-592.164754
5660.576228,74.020594,-8273.831378,-592.164754
5660.576553,370.102971,-8810.098227,-740.205942
5660.576877,296.082377,-8733.488677,-444.123565
5660.577201,370.102971,-8350.440928,-296.082377
5660.577526,296.082377,-8886.707777,-444.123565
5660.577850,222.061783,-8580.269578,-370.102971
5660.578174,444.123565,-8656.879127,-444.123565
5660.578499,518.144159,-8963.317327,-222.061783
5660.578823,518.144159,-9039.926876,0.000000
5660.579147,296.082377,-8733.488677,0.000000
5660.579472,148.041188,-8427.050478,0.000000
5660.579796,148.041188,-8656.879127,74.020594
5660.580120,296.082377,-8810.098227,-148.041188
5660.580445,296.082377,-8197.221829,0.000000
5660.580769,518.144159,-8580.269578,148.041188
5660.581093,148.041188,-8427.050478,0.000000
5660.581418,74.020594,-8350.440928,148.041188
5660.581742,222.061783,-8427.050478,444.123565
5660.582066,296.082377,-8580.269578,0.000000
5660.582391,0.000000,-8427.050478,148.041188
5660.582715,222.061783,-8580.269578,0.000000
5660.583039,296.082377,-9116.536426,296.082377
5660.583364,222.061783,-8427.050478,-148.041188
5660.583688,74.020594,-8810.098227,-222.061783
5660.584012,222.061783,-8350.440928,148.041188
5660.584337,0.000000,-8503.660028,-74.020594
5660.584661,444.123565,-8580.269578,-296.082377
5660.584985,518.144159,-8503.660028,-370.102971
5660.585310,148.041188,-8503.660028,0.000000
5660.585634,444.123565,-8810.098227,0.000000
5660.585958,222.061783,-8273.831378,370.102971
5660.586283,0.000000,-8810.098227,74.020594
5660.586607,148.041188,-8580.269578,0.000000
5660.586931,296.082377,-8810.098227,0.000000
5660.587256,296.082377,-9116.536426,148.041188
5660.587580,296.082377,-8427.050478,518.144159
5660.587904,148.041188,-8810.098227,0.000000
5660.588228,296.082377,-8503.660028,444.123565
5660.588553,444.123565,-8273.831378,370.102971
5660.588877,296.082377,-8656.879127,592.164754
5660.589201,296.082377,-8886.707777,518.144159
5660.589526,0.000000,-8427.050478,296.082377
5660.589850,444.123565,-8886.707777,592.164754
5660.590174,0.000000,-8810.098227,740.205942
5660.590499,444.123565,-8886.707777,222.061783
5660.590823,222.061783,-8427.050478,296.082377
5660.591147,370.102971,-8503.660028,444.123565
5660.591472,148.041188,-8197.221829,74.020594
5660.591796,74.020594,-8350.440928,74.020594
5660.592120,518.144159,-8273.831378,0.000000
5660.592445,518.144159,-8656.879127,-148.041188
5660.592769,296.082377,-8427.050478,148.041188
5660.593093,222.061783,-8580.269578,296.082377
5660.593418,444.123565,-8427.050478,0.000000
5660.593742,222.061783,-8273.831378,0.000000
5660.594066,518.144159,-8580.269578,0.000000
5660.594391,0.000000,-8427.050478,296.082377
5660.594715,296.082377,-8197.221829,0.000000
5660.595039,74.020594,-8427.050478,0.000000
5660.595364,444.123565,-8580.269578,0.000000
5660.595688,370.102971,-8503.660028,-222.061783
5660.596012,370.102971,-8656.879127,-222.061783
5660.596337,74.020594,-8580.269578,0.000000
5660.596661,370.102971,-8503.660028,148.041188
5660.596985,296.082377,-8733.488677,222.061783
5660.597310,0.000000,-8503.660028,296.082377
5660.597634,592.164754,-8733.488677,-148.041188
5660.597958,74.020594,-8197.221829,0.000000
5660.598283,222.061783,-8656.879127,148.041188
5660.598607,444.123565,-8733.488677,-370.102971
5660.598931,222.061783,-8580.269578,-222.061783
5660.599256,148.041188,-8733.488677,-222.061783
5660.599580,370.102971,-8656.879127,-222.061783
5660.599904,370.102971,-8580.269578,-296.082377
5660.600229,222.061783,-8810.098227,0.000000
5660.600553,370.102971,-8427.050478,-518.144159
5660.600877,222.061783,-8963.317327,-592.164754
5660.601202,518.144159,-8503.660028,-518.144159
5660.601526,518.144159,-8120.612279,-222.061783
5660.601850,222.061783,-8810.098227,-814.226536
5660.602175,74.020594,-8810.098227,-888.247130
5660.602499,296.082377,-8350.440928,-592.164754
5660.602823,370.102971,-8733.488677,-74.020594
5660.603148,370.102971,-8733.488677,-740.205942
5660.603472,74.020594,-8580.269578,-740.205942
5660.603796,222.061783,-8580.269578,-740.205942
5660.604120,74.020594,-8427.050478,-814.226536
5660.604445,0.000000,-8350.440928,-592.164754
5660.604769,222.061783,-8427.050478,-296.082377
5660.605093,444.123565,-8580.269578,-444.123565
5660.605418,444.123565,-8810.098227,-592.164754
5660.605742,222.061783,-8427.050478,0.000000
5660.606066,518.144159,-8580.269578,-370.102971
5660.606391,666.185348,-8656.879127,-592.164754
5660.606715,592.164754,-8580.269578,-518.144159
5660.607039,222.061783,-8580.269578,74.020594
5660.607364,444.123565,-8427.050478,-370.102971
5660.607688,518.144159,-8427.050478,-444.123565
5660.608012,518.144159,-8886.707777,-518.144159
5660.608337,518.144159,-8197.221829,-370.102971
5660.608661,518.144159,-8427.050478,-222.061783
5660.608985,296.082377,-8733.488677,-370.102971
5660.609310,592.164754,-8350.440928,-296.082377
5660.609634,518.144159,-8427.050478,-592.164754
5660.609958,888.247130,-7967.393179,-148.041188
5660.610283,444.123565,-8273.831378,-518.144159
5660.610607,370.102971,-8580.269578,-444.123565
5660.610931,296.082377,-8580.269578,-814.226536
5660.611256,666.185348,-8733.488677,-666.185348
5660.611580,444.123565,-8503.660028,-444.123565
5660.611904,518.144159,-8503.660028,-296.082377
5660.612229,222.061783,-8503.660028,-444.123565
5660.612553,592.164754,-8580.269578,-148.041188
5660.612877,814.226536,-8120.612279,0.000000
5660.613202,518.144159,-8350.440928,-370.102971
5660.613526,444.123565,-8810.098227,0.000000
5660.613850,444.123565,-8656.879127,-148.041188
5660.614175,222.061783,-8273.831378,148.041188
5660.614499,370.102971,-8580.269578,-148.041188
5660.614823,518.144159,-8810.098227,-222.061783
5660.615148,370.102971,-8580.269578,-444.123565
5660.615472,666.185348,-8503.660028,0.000000
5660.615796,296.082377,-8427.050478,-148.041188
5660.616121,592.164754,-8503.660028,0.000000
5660.616445,592.164754,-8427.050478,-296.082377
5660.616769,518.144159,-8733.488677,-444.123565
5660.617094,518.144159,-8503.660028,-1036.288319
5660.617418,370.102971,-8733.488677,-444.123565
5660.617742,592.164754,-8580.269578,-518.144159
5660.618067,592.164754,-8273.831378,-740.205942
5660.618391,592.164754,-8656.879127,-814.226536
5660.618715,814.226536,-8427.050478,-666.185348
5660.619039,444.123565,-8580.269578,-1110.308913
5660.619364,518.144159,-8963.317327,-740.205942
5660.619688,592.164754,-8427.050478,-740.205942
5660.620012,962.267725,-8810.098227,-1036.288319
5660.620337,666.185348,-8350.440928,-1036.288319
5660.620661,518.144159,-8733.488677,-740.205942
5660.620985,518.144159,-8503.660028,-740.205942
5660.621310,518.144159,-9576.193725,-1036.288319
5660.621634,518.144159,-8656.879127,-962.267725
5660.621958,814.226536,-8733.488677,-296.082377
5660.622283,666.185348,-8503.660028,-444.123565
5660.622607,370.102971,-8427.050478,-370.102971
5660.622931,666.185348,-8580.269578,-666.185348
5660.623256,666.185348,-8810.098227,-518.144159
5660.623580,444.123565,-8656.879127,-592.164754
5660.623904,296.082377,-8503.660028,-148.041188
5660.624229,444.123565,-9193.145976,-148.041188
5660.624553,518.144159,-8810.098227,-222.061783
5660.624877,666.185348,-8503.660028,-518.144159
5660.625202,592.164754,-8580.269578,-666.185348
5660.625526,962.267725,-9499.584175,-518.144159
5660.625850,592.164754,-8503.660028,-740.205942
5660.626175,370.102971,-8580.269578,-666.185348
5660.626499,518.144159,-8503.660028,-518.144159
5660.626823,666.185348,-8733.488677,-666.185348
5660.627148,592.164754,-8580.269578,-592.164754
5660.627472,740.205942,-8580.269578,-666.185348
5660.627796,666.185348,-8580.269578,-888.247130
5660.628121,740.205942,-8656.879127,-666.185348
5660.628445,444.123565,-8580.269578,-518.144159
5660.628769,222.061783,-8886.707777,-666.185348
5660.629094,370.102971,-8503.660028,-296.082377
5660.629418,444.123565,-8503.660028,-518.144159
5660.629742,740.205942,-9039.926876,-444.123565
5660.630067,370.102971,-8656.879127,-518.144159
5660.630391,592.164754,-8503.660028,-296.082377
5660.630715,518.144159,-8656.879127,-444.123565
5660.631040,518.144159,-8580.269578,-296.082377
5660.631364,814.226536,-8427.050478,-222.061783
5660.631688,444.123565,-8580.269578,-222.061783
5660.632013,592.164754,-8733.488677,-296.082377
5660.632337,666.185348,-8580.269578,-222.061783
5660.632661,740.205942,-8963.317327,-148.041188
5660.632986,222.061783,-8427.050478,-370.102971
5660.633310,444.123565,-8580.269578,-222.061783
5660.633634,444.123565,-8273.831378,-444.123565
5660.633959,592.164754,-8810.098227,0.000000
5660.634283,444.123565,-8810.098227,-518.144159
5660.634607,518.144159,-8580.269578,-370.102971
5660.634931,444.123565,-8427.050478,-592.164754
5660.635256,740.205942,-8503.660028,-370.102971
5660.635580,370.102971,-8656.879127,-592.164754
5660.635905,666.185348,-8503.660028,-740.205942
5660.636229,592.164754,-8810.098227,-666.185348
5660.636553,222.061783,-8810.098227,-814.226536
5660.636878,148.041188,-8886.707777,-444.123565
5660.637202,592.164754,-8733.488677,-814.226536
5660.637526,592.164754,-8656.879127,-814.226536
5660.637851,0.000000,-8656.879127,-592.164754
5660.638175,518.144159,-9652.803275,-370.102971
5660.638500,592.164754,-8580.269578,-666.185348
5660.638824,592.164754,-8273.831378,-814.226536
5660.639148,444.123565,-8963.317327,-740.205942
5660.639473,592.164754,-8656.879127,-370.102971
5660.639797,0.000000,-8656.879127,-370.102971
5660.640121,222.061783,-9116.536426,-370.102971
5660.640446,296.082377,-8810.098227,-740.205942
5660.640770,222.061783,-8963.317327,-518.144159
5660.641095,148.041188,-8886.707777,-740.205942
5660.641419,518.144159,-8963.317327,-518.144159
5660.641743,518.144159,-8810.098227,-518.144159
5660.642068,296.082377,-8810.098227,-518.144159
5660.642392,222.061783,-8886.707777,-814.226536
5660.642716,74.020594,-8963.317327,-592.164754
5660.643041,222.061783,-8197.221829,-592.164754
5660.643365,148.041188,-8656.879127,-888.247130
5660.643690,148.041188,-8656.879127,-814.226536
5660.644014,740.205942,-9039.926876,-962.267725
5660.644338,518.144159,-8963.317327,-1110.308913
5660.644663,444.123565,-8733.488677,-962.267725
5660.644987,444.123565,-8427.050478,-1036.288319
5660.645311,518.144159,-8656.879127,-1110.308913
5660.645636,370.102971,-8273.831378,-1184.329507
5660.645960,592.164754,-8810.098227,-888.247130
5660.646285,370.102971,-8503.660028,-1184.329507
5660.646609,518.144159,-8350.440928,-888.247130
5660.646933,296.082377,-8656.879127,-1036.288319
5660.647258,518.144159,-8580.269578,-888.247130
5660.647582,444.123565,-8503.660028,-740.205942
5660.647906,1036.288319,-8503.660028,-814.226536
5660.648231,888.247130,-8350.440928,-740.205942
5660.648555,666.185348,-8580.269578,-666.185348
5660.648880,666.185348,-8580.269578,-296.082377
5660.649204,518.144159,-8427.050478,-592.164754
5660.649528,666.185348,-9499.584175,-740.205942
5660.649853,444.123565,-8350.440928,-518.144159
5660.650177,296.082377,-8580.269578,0.000000
5660.650501,148.041188,-8656.879127,-518.144159
5660.650826,592.164754,-8503.660028,-222.061783
5660.651150,296.082377,-8580.269578,-518.144159
5660.651475,592.164754,-8503.660028,-370.102971
5660.651799,444.123565,-8503.660028,-370.102971
5660.652123,666.185348,-8656.879127,-666.185348
5660.652448,296.082377,-8656.879127,0.000000
5660.652772,370.102971,-8350.440928,-592.164754
5660.653096,444.123565,-8580.269578,-962.267725
5660.653421,518.144159,-8503.660028,-592.164754
5660.653745,370.102971,-8427.050478,-444.123565
5660.654070,148.041188,-8503.660028,-592.164754
5660.654394,666.185348,-8886.707777,-666.185348
5660.654718,222.061783,-8733.488677,-666.185348
5660.655043,296.082377,-8810.098227,-444.123565
5660.655367,0.000000,-8733.488677,-444.123565
5660.655691,518.144159,-8656.879127,-370.102971
5660.656016,222.061783,-8273.831378,-592.164754
5660.656340,518.144159,-8350.440928,-370.102971
5660.656665,148.041188,-8656.879127,-444.123565
5660.656989,444.123565,-8350.440928,-148.041188
5660.657313,296.082377,-8733.488677,-148.041188
5660.657638,296.082377,-8580.269578,74.020594
5660.657962,666.185348,-8733.488677,-222.061783
5660.658286,666.185348,-8810.098227,-148.041188
5660.658611,296.082377,-8656.879127,0.000000
5660.658935,444.123565,-8427.050478,74.020594
5660.659260,592.164754,-8580.269578,0.000000
5660.659584,148.041188,-8580.269578,0.000000
5660.659908,444.123565,-8580.269578,-296.082377
5660.660233,666.185348,-8733.488677,-370.102971
5660.660557,592.164754,-8197.221829,-370.102971
5660.660881,518.144159,-9422.974625,-222.061783
5660.661206,518.144159,-8580.269578,-444.123565
5660.661530,814.226536,-8886.707777,-666.185348
5660.661855,888.247130,-8810.098227,-740.205942
5660.662179,814.226536,-8810.098227,0.000000
5660.662503,296.082377,-8503.660028,-518.144159
5660.662828,814.226536,-8580.269578,-444.123565
5660.663152,444.123565,-8350.440928,-888.247130
5660.663476,592.164754,-8963.317327,-444.123565
5660.663801,814.226536,-7890.783629,-740.205942
5660.664125,518.144159,-8580.269578,-296.082377
5660.664450,444.123565,-8810.098227,-592.164754
5660.664774,666.185348,-8656.879127,-370.102971
5660.665098,370.102971,-8810.098227,0.000000
5660.665423,518.144159,-8427.050478,-370.102971
5660.665747,592.164754,-8503.660028,0.000000
5660.666071,592.164754,-8580.269578,74.020594
5660.666396,518.144159,-8503.660028,0.000000
5660.666720,444.123565,-8503.660028,-370.102971
5660.667045,666.185348,-8656.879127,0.000000
5660.667369,296.082377,-8656.879127,0.000000
5660.667693,296.082377,-9039.926876,0.000000
5660.668018,666.185348,-8427.050478,-592.164754
5660.668342,518.144159,-8656.879127,0.000000
5660.668666,444.123565,-8503.660028,-370.102971
5660.668991,296.082377,-8273.831378,-296.082377
5660.669315,370.102971,-8580.269578,-222.061783
5660.669640,518.144159,-8580.269578,-518.144159
5660.669964,518.144159,-8273.831378,-518.144159
5660.670288,444.123565,-8810.098227,-592.164754
5660.670613,814.226536,-8580.269578,-296.082377
5660.670937,296.082377,-8427.050478,-518.144159
5660.671261,518.144159,-8810.098227,-740.205942
5660.671586,296.082377,-8427.050478,-518.144159
5660.671910,518.144159,-8810.098227,-666.185348
5660.672235,592.164754,-8503.660028,-1332.370696
5660.672559,444.123565,-8733.488677,-592.164754
5660.672883,222.061783,-8503.660028,-296.082377
5660.673208,518.144159,-8350.440928,-222.061783
5660.673532,740.205942,-8503.660028,-962.267725
5660.673856,444.123565,-8580.269578,-370.102971
5660.674181,518.144159,-8580.269578,-148.041188
5660.674505,222.061783,-8580.269578,0.000000
5660.674830,592.164754,-8733.488677,0.000000
5660.675154,444.123565,-8427.050478,0.000000
5660.675478,666.185348,-8580.269578,0.000000
5660.675803,370.102971,-8733.488677,-148.041188
5660.676127,370.102971,-8656.879127,148.041188
5660.676451,74.020594,-8427.050478,370.102971
5660.676776,444.123565,-8350.440928,0.000000
5660.677100,222.061783,-8656.879127,-296.082377
5660.677425,370.102971,-8656.879127,0.000000
5660.677749,518.144159,-8197.221829,-148.041188
5660.678073,222.061783,-8503.660028,0.000000
5660.678398,296.082377,-8503.660028,0.000000
5660.678722,666.185348,-8273.831378,-222.061783
5660.679046,518.144159,-8886.707777,-444.123565
5660.679371,0.000000,-8273.831378,0.000000
5660.679695,296.082377,-8503.660028,-148.041188
5660.680020,222.061783,-8503.660028,-296.082377
5660.680344,370.102971,-8580.269578,-592.164754
5660.680668,370.102971,-9039.926876,0.000000
5660.680993,222.061783,-8503.660028,0.000000
5660.681317,222.061783,-8427.050478,-296.082377
5660.681641,222.061783,-8580.269578,0.000000
5660.681966,370.102971,-8427.050478,-444.123565
5660.682290,148.041188,-8427.050478,0.000000
5660.682615,74.020594,-8656.879127,-74.020594
5660.682939,444.123565,-8810.098227,74.020594
5660.683263,222.061783,-8656.879127,0.000000
5660.683588,222.061783,-8503.660028,222.061783
5660.683912,0.000000,-8503.660028,222.061783
5660.684236,0.000000,-8810.098227,74.020594
5660.684561,0.000000,-8580.269578,148.041188
5660.684885,222.061783,-8580.269578,518.144159
5660.685210,0.000000,-8733.488677,370.102971
5660.685534,222.061783,-8580.269578,148.041188
5660.685858,148.041188,-8733.488677,0.000000
5660.686183,222.061783,-8503.660028,0.000000
5660.686507,518.144159,-8273.831378,-296.082377
5660.686831,296.082377,-8503.660028,0.000000
5660.687156,0.000000,-8273.831378,-444.123565
5660.687480,444.123565,-8580.269578,-296.082377
5660.687805,444.123565,-8427.050478,74.020594
5660.688129,222.061783,-8427.050478,-74.020594
5660.688453,222.061783,-8656.879127,-518.144159
5660.688778,222.061783,-8503.660028,0.000000
5660.689102,518.144159,-8503.660028,74.020594
5660.689426,222.061783,-8580.269578,-148.041188
5660.689751,222.061783,-8350.440928,0.000000
5660.690075,148.041188,-8733.488677,0.000000
5660.690400,74.020594,-8656.879127,-222.061783
5660.690724,592.164754,-8427.050478,0.000000
5660.691048,518.144159,-8580.269578,0.000000
5660.691373,222.061783,-8810.098227,0.000000
5660.691697,222.061783,-8656.879127,148.041188
5660.692021,222.061783,-8273.831378,74.020594
5660.692346,370.102971,-8427.050478,0.000000
5660.692670,666.185348,-8427.050478,0.000000
5660.692995,296.082377,-8810.098227,0.000000
5660.693319,296.082377,-8580.269578,0.000000
5660.693643,148.041188,-8656.879127,148.041188
5660.693968,296.082377,-8503.660028,0.000000
5660.694292,222.061783,-8273.831378,74.020594
5660.694617,444.123565,-8810.098227,-148.041188
5660.694941,222.061783,-7890.783629,0.000000
5660.695265,222.061783,-8503.660028,0.000000
5660.695590,370.102971,-8503.660028,0.000000
5660.695914,592.164754,-8427.050478,-222.061783
5660.696238,444.123565,-8197.221829,0.000000
5660.696563,518.144159,-8503.660028,-296.082377
5660.696887,222.061783,-8580.269578,0.000000
5660.697212,370.102971,-8656.879127,-148.041188
5660.697536,222.061783,-8810.098227,-370.102971
5660.697860,592.164754,-8580.269578,74.020594
5660.698185,370.102971,-8733.488677,-296.082377
5660.698509,148.041188,-8503.660028,222.061783
5660.698833,222.061783,-8503.660028,-74.020594
5660.699158,888.247130,-8733.488677,0.000000
5660.699482,518.144159,-8273.831378,0.000000
5660.699807,296.082377,-8733.488677,222.061783
5660.700131,518.144159,-8810.098227,0.000000
5660.700455,666.185348,-8580.269578,148.041188
5660.700780,518.144159,-8810.098227,370.102971
5660.701104,444.123565,-8350.440928,74.020594
5660.701428,740.205942,-8886.707777,148.041188
5660.701753,444.123565,-8580.269578,74.020594
5660.702077,740.205942,-8963.317327,296.082377
5660.702402,296.082377,-8503.660028,0.000000
5660.702726,444.123565,-8733.488677,222.061783
5660.703050,148.041188,-8350.440928,-148.041188
5660.703375,814.226536,-8963.317327,0.000000
5660.703699,0.000000,-8580.269578,0.000000
5660.704023,444.123565,-8503.660028,0.000000
5660.704348,296.082377,-8580.269578,-74.020594
5660.704672,814.226536,-8580.269578,0.000000
5660.704997,740.205942,-8503.660028,-148.041188
5660.705321,444.123565,-8427.050478,0.000000
5660.705645,296.082377,-8656.879127,0.000000
5660.705970,148.041188,-8733.488677,-592.164754
5660.706294,444.123565,-8733.488677,-74.020594
5660.706618,222.061783,-8733.488677,-370.102971
5660.706943,444.123565,-8656.879127,-370.102971
5660.707267,148.041188,-8273.831378,-296.082377
5660.707592,666.185348,-8580.269578,0.000000
5660.707916,148.041188,-8350.440928,-148.041188
5660.708240,518.144159,-8886.707777,0.000000
5660.708565,370.102971,-8656.879127,-222.061783
5660.708889,666.185348,-7660.954980,148.041188
5660.709213,296.082377,-8427.050478,-148.041188
5660.709538,666.185348,-8810.098227,0.000000
5660.709862,370.102971,-8503.660028,0.000000
5660.710187,592.164754,-8886.707777,-518.144159
5660.710511,222.061783,-8503.660028,-296.082377
5660.710835,222.061783,-8810.098227,0.000000
5660.711160,296.082377,-8810.098227,0.000000
5660.711484,222.061783,-8810.098227,-296.082377
5660.711808,222.061783,-8427.050478,0.000000
5660.712133,518.144159,-8733.488677,-296.082377
5660.712457,592.164754,-8503.660028,-370.102971
5660.712782,518.144159,-8656.879127,-296.082377
5660.713106,444.123565,-8810.098227,-222.061783
5660.713430,296.082377,-8273.831378,-296.082377
5660.713755,444.123565,-8427.050478,-740.205942
5660.714079,592.164754,-8580.269578,-592.164754
5660.714403,444.123565,-8733.488677,-814.226536
5660.714728,814.226536,-8427.050478,-444.123565
5660.715052,296.082377,-8273.831378,-592.164754
5660.715377,518.144159,-9039.926876,-740.205942
5660.715701,518.144159,-8503.660028,-518.144159
5660.716025,814.226536,-8810.098227,-444.123565
5660.716350,444.123565,-8350.440928,-592.164754
5660.716674,592.164754,-8656.879127,-444.123565
5660.716998,370.102971,-8733.488677,-370.102971
5660.717323,592.164754,-8503.660028,-518.144159
5660.717647,370.102971,-8427.050478,-148.041188
5660.717972,592.164754,-8733.488677,-222.061783
5660.718296,518.144159,-8733.488677,-296.082377
5660.718620,222.061783,-8580.269578,-222.061783
5660.718945,518.144159,-8963.317327,-296.082377
5660.719269,444.123565,-8427.050478,-148.041188
5660.719593,592.164754,-8810.098227,-222.061783
5660.719918,296.082377,-8580.269578,-222.061783
5660.720242,370.102971,-8580.269578,-148.041188
5660.720567,222.061783,-8580.269578,-370.102971
5660.720891,296.082377,-8503.660028,-444.123565
5660.721215,296.082377,-8273.831378,-370.102971
5660.721540,518.144159,-8886.707777,-518.144159
5660.721864,444.123565,-8350.440928,-666.185348
5660.722188,592.164754,-8503.660028,-814.226536
5660.722513,444.123565,-8733.488677,-666.185348
5660.722837,222.061783,-8197.221829,-666.185348
5660.723162,592.164754,-9039.926876,-1184.329507
5660.723486,518.144159,-8503.660028,-814.226536
5660.723810,666.185348,-8810.098227,-814.226536
5660.724135,296.082377,-8580.269578,-814.226536
5660.724459,518.144159,-8733.488677,-296.082377
5660.724783,370.102971,-8427.050478,-518.144159
5660.725108,518.144159,-8503.660028,-296.082377
5660.725432,296.082377,-8197.221829,-592.164754
5660.725757,444.123565,-8656.879127,0.000000
5660.726081,518.144159,-8810.098227,-444.123565
5660.726405,666.185348,-8733.488677,-148.041188
5660.726730,740.205942,-8580.269578,-444.123565
5660.727054,370.102971,-8656.879127,148.041188
5660.727378,888.247130,-9269.755526,-444.123565
5660.727703,814.226536,-8580.269578,-444.123565
5660.728027,666.185348,-8656.879127,-296.082377
5660.728352,444.123565,-8656.879127,0.000000
5660.728676,444.123565,-8273.831378,-222.061783
5660.729000,148.041188,-8197.221829,-518.144159
5660.729325,370.102971,-8733.488677,-518.144159
5660.729649,444.123565,-8273.831378,-444.123565
5660.729973,370.102971,-8503.660028,-444.123565
5660.730298,74.020594,-8656.879127,-740.205942
5660.730622,370.102971,-8503.660028,-592.164754
5660.730947,296.082377,-8580.269578,-666.185348
5660.731271,296.082377,-8580.269578,-666.185348
5660.731595,370.102971,-8810.098227,-666.185348
5660.731920,296.082377,-8580.269578,-740.205942
5660.732244,666.185348,-8656.879127,-740.205942
5660.732568,296.082377,-8503.660028,-814.226536
5660.732893,444.123565,-8503.660028,-518.144159
5660.733217,222.061783,-8427.050478,-518.144159
5660.733542,296.082377,-8656.879127,-518.144159
5660.733866,592.164754,-8963.317327,-296.082377
5660.734190,518.144159,-8886.707777,-592.164754
5660.734515,0.000000,-8810.098227,-148.041188
5660.734839,296.082377,-8733.488677,-370.102971
5660.735163,222.061783,-8733.488677,-148.041188
5660.735488,370.102971,-8656.879127,-296.082377
5660.735812,518.144159,-8733.488677,-444.123565
5660.736137,592.164754,-8656.879127,-518.144159
5660.736461,370.102971,-8886.707777,0.000000
5660.736785,444.123565,-8350.440928,-296.082377
5660.737110,222.061783,-8733.488677,-370.102971
5660.737434,296.082377,-8197.221829,-148.041188
5660.737758,370.102971,-8656.879127,-222.061783
5660.738083,296.082377,-8503.660028,-740.205942
5660.738407,444.123565,-8580.269578,-518.144159
5660.738732,444.123565,-8197.221829,-666.185348
5660.739056,444.123565,-8427.050478,-592.164754
5660.739380,370.102971,-8503.660028,-740.205942
5660.739705,518.144159,-8656.879127,-740.205942
5660.740029,1036.288319,-8810.098227,-1110.308913
5660.740353,444.123565,-8120.612279,-814.226536
5660.740678,370.102971,-8503.660028,-888.247130
5660.741002,444.123565,-8580.269578,-666.185348
5660.741326,518.144159,-8733.488677,-740.205942
5660.741650,814.226536,-8656.879127,-962.267725
5660.741975,370.102971,-8656.879127,-592.164754
5660.742299,74.020594,-8427.050478,-740.205942
5660.742623,444.123565,-8580.269578,-444.123565
5660.742948,814.226536,-8273.831378,-296.082377
5660.743272,814.226536,-8733.488677,-296.082377
5660.743596,592.164754,-8120.612279,-592.164754
5660.743920,518.144159,-8503.660028,0.000000
5660.744245,592.164754,-8656.879127,-370.102971
5660.744569,888.247130,-8273.831378,-444.123565
5660.744893,592.164754,-9039.926876,-370.102971
5660.745218,296.082377,-8273.831378,-444.123565
5660.745542,296.082377,-8733.488677,-74.020594
5660.745866,370.102971,-8656.879127,-296.082377
5660.746190,296.082377,-8427.050478,-370.102971
5660.746515,222.061783,-8350.440928,-370.102971
5660.746839,592.164754,-8427.050478,-592.164754
5660.747163,740.205942,-7814.174080,0.000000
5660.747488,592.164754,-8273.831378,-592.164754
5660.747812,444.123565,-8580.269578,-666.185348
5660.748136,666.185348,-8656.879127,-888.247130
5660.748460,296.082377,-8503.660028,-888.247130
5660.748785,518.144159,-8656.879127,-444.123565
5660.749109,518.144159,-8580.269578,-592.164754
5660.749433,222.061783,-8656.879127,-444.123565
5660.749758,370.102971,-8503.660028,-592.164754
5660.750082,296.082377,-8580.269578,-1110.308913
5660.750406,518.144159,-8810.098227,-740.205942
5660.750731,296.082377,-8427.050478,-592.164754
5660.751055,444.123565,-8580.269578,-518.144159
5660.751379,444.123565,-8197.221829,-518.144159
5660.751703,666.185348,-8963.317327,-592.164754
5660.752028,370.102971,-8656.879127,-666.185348
5660.752352,444.123565,-8886.707777,-296.082377
5660.752676,444.123565,-8733.488677,-370.102971
5660.753001,666.185348,-8656.879127,-370.102971
5660.753325,444.123565,-8810.098227,-296.082377
5660.753649,296.082377,-8656.879127,-370.102971
5660.753973,518.144159,-8273.831378,-370.102971
5660.754298,148.041188,-9346.365076,-592.164754
5660.754622,296.082377,-8427.050478,-518.144159
5660.754946,296.082377,-8733.488677,-518.144159
5660.755271,518.144159,-8810.098227,-666.185348
5660.755595,444.123565,-8733.488677,-814.226536
5660.755919,370.102971,-8503.660028,-518.144159
5660.756243,592.164754,-8503.660028,-814.226536
5660.756568,518.144159,-8580.269578,-592.164754
5660.756892,666.185348,-8656.879127,-1036.288319
5660.757216,370.102971,-8963.317327,-592.164754
5660.757541,518.144159,-8427.050478,-666.185348
5660.757865,518.144159,-8580.269578,-962.267725
5660.758189,444.123565,-8580.269578,-666.185348
5660.758514,666.185348,-8963.317327,-814.226536
5660.758838,518.144159,-8580.269578,-1036.288319
5660.759162,222.061783,-8580.269578,-370.102971
5660.759486,444.123565,-8656.879127,-518.144159
5660.759811,222.061783,-8580.269578,-296.082377
5660.760135,444.123565,-8733.488677,-148.041188
5660.760459,518.144159,-8580.269578,-370.102971
5660.760784,666.185348,-8580.269578,-370.102971
5660.761108,444.123565,-8580.269578,-296.082377
5660.761432,0.000000,-8503.660028,-370.102971
5660.761756,444.123565,-8656.879127,-444.123565
5660.762081,518.144159,-8733.488677,-222.061783
5660.762405,444.123565,-8350.440928,-518.144159
5660.762729,222.061783,-8350.440928,-444.123565
5660.763054,222.061783,-8810.098227,-296.082377
5660.763378,222.061783,-8656.879127,-370.102971
5660.763702,592.164754,-8656.879127,-518.144159
5660.764026,370.102971,-8427.050478,-592.164754
5660.764351,370.102971,-8503.660028,-148.041188
5660.764675,0.000000,-8120.612279,-666.185348
5660.764999,296.082377,-8810.098227,-592.164754
5660.765324,444.123565,-8427.050478,-888.247130
5660.765648,444.123565,-8886.707777,-592.164754
5660.765972,74.020594,-8350.440928,-666.185348
5660.766297,444.123565,-8656.879127,-518.144159
5660.766621,444.123565,-8580.269578,-518.144159
5660.766945,444.123565,-8656.879127,-666.185348
5660.767269,666.185348,-8733.488677,-518.144159
5660.767594,370.102971,-8886.707777,-592.164754
5660.767918,444.123565,-8503.660028,-296.082377
5660.768242,74.020594,-8503.660028,-444.123565
5660.768567,444.123565,-8733.488677,0.000000
5660.768891,518.144159,-8427.050478,-222.061783
5660.769215,518.144159,-8656.879127,-370.102971
5660.769539,370.102971,-8427.050478,-296.082377
5660.769864,370.102971,-8503.660028,518.144159
5660.770188,592.164754,-8427.050478,0.000000
5660.770512,444.123565,-8197.221829,0.000000
5660.770837,740.205942,-9039.926876,-222.061783
5660.771161,666.185348,-9193.145976,0.000000
5660.771485,296.082377,-8427.050478,0.000000
5660.771809,148.041188,-8580.269578,-148.041188
5660.772134,740.205942,-8580.269578,-296.082377
5660.772458,518.144159,-8503.660028,-592.164754
5660.772782,814.226536,-8503.660028,-592.164754
5660.773107,370.102971,-8427.050478,-296.082377
5660.773431,592.164754,-8733.488677,-370.102971
5660.773755,592.164754,-8503.660028,-370.102971
5660.774080,814.226536,-8886.707777,-444.123565
5660.774404,370.102971,-8656.879127,-444.123565
5660.774728,666.185348,-8580.269578,-518.144159
5660.775052,296.082377,-8656.879127,-444.123565
5660.775377,296.082377,-9116.536426,-370.102971
5660.775701,370.102971,-8580.269578,-592.164754
5660.776025,370.102971,-8810.098227,-740.205942
5660.776350,666.185348,-9039.926876,-518.144159
5660.776674,222.061783,-8656.879127,-222.061783
5660.776998,518.144159,-9039.926876,-296.082377
5660.777322,296.082377,-8427.050478,-148.041188
5660.777647,370.102971,-8427.050478,-222.061783
5660.777971,444.123565,-8580.269578,-148.041188
5660.778295,370.102971,-8886.707777,-222.061783
5660.778620,148.041188,-8810.098227,0.000000
5660.778944,444.123565,-8503.660028,74.020594
5660.779268,518.144159,-8503.660028,74.020594
5660.779592,222.061783,-8733.488677,-148.041188
5660.779917,666.185348,-8503.660028,0.000000
5660.780241,0.000000,-9039.926876,148.041188
5660.780565,296.082377,-8503.660028,0.000000
5660.780890,74.020594,-8503.660028,0.000000
5660.781214,666.185348,-8963.317327,74.020594
5660.781538,444.123565,-8427.050478,-518.144159
5660.781863,962.267725,-8120.612279,-518.144159
5660.782187,370.102971,-8273.831378,-296.082377
5660.782511,74.020594,-8886.707777,0.000000
5660.782835,0.000000,-8580.269578,-296.082377
5660.783160,592.164754,-8656.879127,-518.144159
5660.783484,592.164754,-8656.879127,-518.144159
5660.783808,296.082377,-8427.050478,-444.123565
5660.784133,518.144159,-8810.098227,-518.144159
5660.784457,296.082377,-8350.440928,-296.082377
5660.784781,444.123565,-8963.317327,-666.185348
5660.785105,222.061783,-8273.831378,-370.102971
5660.785430,74.020594,-8580.269578,296.082377
5660.785754,0.000000,-8733.488677,-296.082377
5660.786078,592.164754,-8427.050478,-370.102971
5660.786403,444.123565,-8503.660028,-222.061783
5660.786727,666.185348,-8810.098227,148.041188
5660.787051,222.061783,-8886.707777,222.061783
5660.787375,444.123565,-8733.488677,74.020594
5660.787700,444.123565,-8580.269578,0.000000
5660.788024,444.123565,-8427.050478,0.000000
5660.788348,296.082377,-8580.269578,0.000000
5660.788673,296.082377,-8427.050478,0.000000
5660.788997,0.000000,-8350.440928,0.000000
5660.789321,148.041188,-8350.440928,0.000000
5660.789646,74.020594,-8503.660028,370.102971
5660.789970,444.123565,-8733.488677,-296.082377
5660.790294,592.164754,-8733.488677,-296.082377
5660.790618,296.082377,-8273.831378,-222.061783
5660.790943,370.102971,-9193.145976,-296.082377
5660.791267,370.102971,-8197.221829,-444.123565
5660.791591,666.185348,-8503.660028,-518.144159
5660.791916,444.123565,-8503.660028,-296.082377
5660.792240,222.061783,-8503.660028,-444.123565
5660.792564,74.020594,-8503.660028,-370.102971
5660.792888,222.061783,-8427.050478,-296.082377
5660.793213,740.205942,-8427.050478,-296.082377
5660.793537,370.102971,-8580.269578,-444.123565
5660.793861,148.041188,-8810.098227,222.061783
5660.794186,222.061783,-8503.660028,0.000000
5660.794510,444.123565,-8963.317327,0.000000
5660.794834,370.102971,-8273.831378,74.020594
5660.795158,740.205942,-8580.269578,-222.061783
5660.795483,444.123565,-8580.269578,0.000000
5660.795807,518.144159,-8427.050478,0.000000
5660.796131,444.123565,-8810.098227,0.000000
5660.796456,148.041188,-8197.221829,148.041188
5660.796780,814.226536,-8350.440928,148.041188
5660.797104,148.041188,-8810.098227,0.000000
5660.797429,370.102971,-8656.879127,148.041188
5660.797753,296.082377,-8503.660028,74.020594
5660.798077,518.144159,-8886.707777,518.144159
5660.798401,444.123565,-8503.660028,0.000000
5660.798726,444.123565,-8656.879127,-148.041188
5660.799050,296.082377,-8427.050478,-296.082377
5660.799374,370.102971,-8427.050478,-222.061783
5660.799699,222.061783,-8580.269578,-296.082377
5660.800023,222.061783,-8350.440928,-592.164754
5660.800347,444.123565,-8810.098227,-666.185348
5660.800671,370.102971,-8733.488677,-592.164754
5660.800996,74.020594,-8503.660028,0.000000
5660.801320,370.102971,-8503.660028,-444.123565
5660.801644,370.102971,-8427.050478,-370.102971
5660.801969,222.061783,-8580.269578,-666.185348
5660.802293,592.164754,-8580.269578,0.000000
5660.802617,148.041188,-8503.660028,-148.041188
5660.802941,148.041188,-8580.269578,-296.082377
5660.803266,148.041188,-8656.879127,-296.082377
5660.803590,370.102971,-9039.926876,0.000000
5660.803914,518.144159,-8733.488677,-444.123565
5660.804239,518.144159,-8656.879127,74.020594
5660.804563,518.144159,-8503.660028,148.041188
5660.804887,444.123565,-8810.098227,0.000000
5660.805212,888.247130,-8733.488677,0.000000
5660.805536,444.123565,-8503.660028,0.000000
5660.805860,444.123565,-8580.269578,296.082377
5660.806184,148.041188,-8427.050478,0.000000
5660.806509,0.000000,-7890.783629,0.000000
5660.806833,444.123565,-8350.440928,0.000000
5660.807157,370.102971,-8810.098227,74.020594
5660.807482,148.041188,-8503.660028,-148.041188
5660.807806,666.185348,-8656.879127,0.000000
5660.808130,444.123565,-8810.098227,-296.082377
5660.808454,666.185348,-8503.660028,-518.144159
5660.808779,370.102971,-8580.269578,-148.041188
5660.809103,518.144159,-8656.879127,-296.082377
5660.809427,444.123565,-8273.831378,-222.061783
5660.809752,518.144159,-8580.269578,-740.205942
5660.810076,148.041188,-9039.926876,-222.061783
5660.810400,370.102971,-8733.488677,-444.123565
5660.810724,666.185348,-8963.317327,-370.102971
5660.811049,518.144159,-8273.831378,-296.082377
5660.811373,518.144159,-8656.879127,-148.041188
5660.811697,444.123565,-8427.050478,-370.102971
5660.812022,740.205942,-8427.050478,-222.061783
5660.812346,444.123565,-8503.660028,-444.123565
5660.812670,444.123565,-8580.269578,74.020594
5660.812994,370.102971,-8350.440928,0.000000
5660.813319,518.144159,-8503.660028,0.000000
5660.813643,888.247130,-8963.317327,148.041188
5660.813967,444.123565,-8656.879127,0.000000
5660.814292,518.144159,-8580.269578,0.000000
5660.814616,296.082377,-8503.660028,222.061783
5660.814940,518.144159,-9039.926876,296.082377
5660.815265,296.082377,-8656.879127,148.041188
5660.815589,296.082377,-8350.440928,0.000000
5660.815913,74.020594,-8886.707777,0.000000
5660.816237,518.144159,-8350.440928,0.000000
5660.816562,222.061783,-8197.221829,148.041188
5660.816886,296.082377,-8580.269578,-222.061783
5660.817210,296.082377,-8733.488677,-222.061783
5660.817535,370.102971,-8656.879127,-518.144159
5660.817859,444.123565,-8197.221829,-296.082377
5660.818183,444.123565,-8350.440928,-666.185348
5660.818507,444.123565,-8733.488677,-222.061783
5660.818832,222.061783,-8350.440928,-888.247130
5660.819156,370.102971,-8886.707777,-444.123565
5660.819480,370.102971,-8427.050478,-740.205942
5660.819805,518.144159,-8656.879127,-296.082377
5660.820129,148.041188,-8427.050478,-666.185348
5660.820453,444.123565,-8810.098227,-370.102971
5660.820777,74.020594,-8197.221829,-148.041188
5660.821102,518.144159,-8273.831378,-666.185348
5660.821426,518.144159,-8886.707777,-296.082377
5660.821750,370.102971,-8656.879127,-222.061783
5660.822075,740.205942,-8733.488677,-814.226536
5660.822399,444.123565,-8503.660028,-148.041188
5660.822723,518.144159,-8350.440928,-148.041188
5660.823048,444.123565,-8503.660028,0.000000
5660.823372,444.123565,-8580.269578,-222.061783
5660.823696,0.000000,-8044.002729,0.000000
5660.824020,444.123565,-8503.660028,-148.041188
5660.824345,222.061783,-8427.050478,-296.082377
5660.824669,666.185348,-8503.660028,-444.123565
5660.824993,444.123565,-8350.440928,-740.205942
5660.825318,444.123565,-8503.660028,-296.082377
5660.825642,740.205942,-8503.660028,-444.123565
5660.825966,370.102971,-8503.660028,-666.185348
5660.826290,962.267725,-8733.488677,-888.247130
5660.826615,592.164754,-8350.440928,-666.185348
5660.826939,592.164754,-8427.050478,-740.205942
5660.827263,296.082377,-8656.879127,-888.247130
5660.827588,518.144159,-8656.879127,-814.226536
5660.827912,592.164754,-8886.707777,-1110.308913
5660.828236,518.144159,-8427.050478,-814.226536
5660.828560,370.102971,-8656.879127,-444.123565
5660.828885,518.144159,-8427.050478,-518.144159
5660.829209,296.082377,-8656.879127,222.061783
5660.829533,444.123565,-8350.440928,-444.123565
5660.829858,444.123565,-8733.488677,-296.082377
5660.830182,518.144159,-8503.660028,-296.082377
5660.830506,518.144159,-8656.879127,-222.061783
5660.830831,444.123565,-8886.707777,-296.082377
5660.831155,148.041188,-9116.536426,-148.041188
5660.831479,148.041188,-8580.269578,0.000000
5660.831803,296.082377,-8810.098227,-74.020594
5660.832128,222.061783,-8656.879127,222.061783
5660.832452,592.164754,-8810.098227,0.000000
5660.832776,148.041188,-8503.660028,-296.082377
5660.833101,296.082377,-8810.098227,-222.061783
5660.833425,444.123565,-8733.488677,-444.123565
5660.833749,370.102971,-8580.269578,-222.061783
5660.834073,148.041188,-8350.440928,-296.082377
5660.834398,222.061783,-8810.098227,-444.123565
5660.834722,296.082377,-8733.488677,-666.185348
5660.835046,592.164754,-8963.317327,-444.123565
5660.835371,592.164754,-8580.269578,-666.185348
5660.835695,518.144159,-8810.098227,-592.164754
5660.836019,444.123565,-8656.879127,-740.205942
5660.836343,740.205942,-8580.269578,-518.144159
5660.836668,666.185348,-8810.098227,-888.247130
5660.836992,666.185348,-8656.879127,-814.226536
5660.837316,518.144159,-8350.440928,-518.144159
5660.837640,296.082377,-9346.365076,0.000000
5660.837965,444.123565,-8656.879127,-296.082377
5660.838289,518.144159,-8810.098227,-296.082377
5660.838613,740.205942,-8810.098227,-296.082377
5660.838937,666.185348,-8733.488677,0.000000
5660.839262,222.061783,-8733.488677,148.041188
5660.839586,370.102971,-8503.660028,-148.041188
5660.839910,592.164754,-8350.440928,-148.041188
5660.840234,518.144159,-8580.269578,-222.061783
5660.840558,592.164754,-7967.393179,74.020594
5660.840883,222.061783,-8273.831378,-148.041188
5660.841207,148.041188,-8580.269578,-148.041188
5660.841531,592.164754,-8580.269578,-148.041188
5660.841855,666.185348,-8656.879127,-370.102971
5660.842180,296.082377,-8580.269578,-296.082377
5660.842504,518.144159,-8273.831378,-222.061783
5660.842828,518.144159,-8427.050478,-666.185348
5660.843152,666.185348,-8273.831378,-666.185348
5660.843476,888.247130,-8427.050478,-592.164754
5660.843801,518.144159,-8580.269578,-740.205942
5660.844125,518.144159,-8197.221829,-444.123565
5660.844449,222.061783,-8427.050478,-740.205942
5660.844773,222.061783,-8886.707777,-444.123565
5660.845098,370.102971,-8503.660028,-814.226536
5660.845422,740.205942,-8733.488677,-888.247130
5660.845746,296.082377,-8503.660028,-592.164754
5660.846070,444.123565,-8810.098227,-222.061783
5660.846394,666.185348,-8503.660028,-444.123565
5660.846719,296.082377,-8197.221829,-518.144159
5660.847043,444.123565,-8810.098227,-592.164754
5660.847367,518.144159,-8503.660028,-592.164754
5660.847691,444.123565,-8886.707777,0.000000
5660.848016,296.082377,-8733.488677,-518.144159
5660.848340,222.061783,-8886.707777,-296.082377
5660.848664,222.061783,-8580.269578,-592.164754
5660.848988,592.164754,-8503.660028,-222.061783
5660.849312,222.061783,-8886.707777,0.000000
5660.849637,444.123565,-8580.269578,-370.102971
5660.849961,370.102971,-8733.488677,-370.102971
5660.850285,296.082377,-8350.440928,-666.185348
5660.850609,222.061783,-8656.879127,-518.144159
5660.850934,370.102971,-8503.660028,-666.185348
5660.851258,296.082377,-8197.221829,-666.185348
5660.851582,0.000000,-8427.050478,-592.164754
5660.851906,814.226536,-8733.488677,-518.144159
5660.852230,518.144159,-8733.488677,-1036.288319
5660.852555,518.144159,-8580.269578,-962.267725
5660.852879,370.102971,-8580.269578,-888.247130
5660.853203,888.247130,-8733.488677,-814.226536
5660.853527,518.144159,-8503.660028,-814.226536
5660.853852,444.123565,-8273.831378,-814.226536
5660.854176,444.123565,-8886.707777,-888.247130
5660.854500,518.144159,-8427.050478,-1036.288319
5660.854824,296.082377,-8197.221829,-592.164754
5660.855149,444.123565,-8810.098227,-444.123565
5660.855473,740.205942,-8656.879127,-592.164754
5660.855797,666.185348,-8503.660028,-592.164754
5660.856121,444.123565,-8350.440928,-592.164754
5660.856445,518.144159,-8656.879127,-444.123565
5660.856770,444.123565,-8733.488677,-592.164754
5660.857094,518.144159,-8656.879127,-222.061783
5660.857418,370.102971,-8350.440928,-296.082377
5660.857742,666.185348,-8810.098227,-518.144159
5660.858067,592.164754,-8350.440928,-518.144159
5660.858391,370.102971,-8580.269578,-296.082377
5660.858715,518.144159,-8503.660028,-666.185348
5660.859039,518.144159,-8427.050478,-444.123565
5660.859363,296.082377,-8656.879127,-592.164754
5660.859688,74.020594,-8580.269578,-370.102971
5660.860012,296.082377,-8580.269578,-370.102971
5660.860336,888.247130,-9422.974625,-814.226536
5660.860660,370.102971,-8503.660028,-592.164754
5660.860985,888.247130,-8656.879127,-666.185348
5660.861309,444.123565,-8580.269578,-518.144159
5660.861633,444.123565,-8503.660028,-370.102971
5660.861957,74.020594,-8656.879127,-518.144159
5660.862281,296.082377,-8350.440928,-666.185348
5660.862606,518.144159,-8733.488677,-740.205942
5660.862930,296.082377,-8580.269578,-592.164754
5660.863254,666.185348,-8656.879127,-296.082377
5660.863578,222.061783,-8733.488677,-370.102971
5660.863903,296.082377,-8427.050478,-444.123565
5660.864227,444.123565,-8503.660028,-370.102971
5660.864551,740.205942,-8427.050478,-370.102971
5660.864875,518.144159,-8427.050478,-518.144159
5660.865199,518.144159,-8580.269578,-222.061783
5660.865524,222.061783,-8733.488677,-74.020594
5660.865848,222.061783,-8810.098227,-518.144159
5660.866172,296.082377,-8580.269578,-592.164754
5660.866496,370.102971,-8963.317327,-296.082377
5660.866821,518.144159,-8733.488677,-148.041188
5660.867145,370.102971,-8733.488677,-222.061783
5660.867469,814.226536,-8580.269578,-222.061783
5660.867793,296.082377,-8503.660028,-296.082377
5660.868117,444.123565,-8580.269578,-370.102971
5660.868442,296.082377,-8273.831378,-296.082377
5660.868766,518.144159,-8580.269578,-740.205942
5660.869090,518.144159,-8580.269578,-444.123565
5660.869414,444.123565,-8350.440928,-592.164754
5660.869739,444.123565,-8580.269578,-666.185348
5660.870063,296.082377,-8656.879127,-592.164754
5660.870387,296.082377,-9039.926876,-444.123565
5660.870711,444.123565,-8427.050478,-666.185348
5660.871035,518.144159,-8503.660028,-592.164754
5660.871360,444.123565,-8427.050478,-518.144159
5660.871684,888.247130,-9193.145976,-370.102971
5660.872008,518.144159,-8427.050478,-370.102971
5660.872332,444.123565,-8580.269578,-370.102971
5660.872657,518.144159,-8427.050478,-518.144159
5660.872981,518.144159,-8886.707777,0.000000
5660.873305,518.144159,-8273.831378,-740.205942
5660.873629,444.123565,-8733.488677,0.000000
5660.873953,296.082377,-8503.660028,-296.082377
5660.874278,888.247130,-8503.660028,-148.041188
5660.874602,592.164754,-8197.221829,-370.102971
5660.874926,370.102971,-8580.269578,-148.041188
5660.875250,518.144159,-8350.440928,-370.102971
5660.875575,518.144159,-8503.660028,-370.102971
5660.875899,518.144159,-7890.783629,0.000000
5660.876223,148.041188,-8503.660028,-370.102971
5660.876547,296.082377,-8580.269578,-666.185348
5660.876871,296.082377,-8427.050478,-444.123565
5660.877196,222.061783,-9039.926876,-148.041188
5660.877520,444.123565,-8886.707777,-444.123565
5660.877844,296.082377,-8656.879127,-444.123565
5660.878168,592.164754,-8580.269578,-592.164754
5660.878493,444.123565,-8580.269578,-592.164754
5660.878817,296.082377,-8656.879127,0.000000
5660.879141,148.041188,-8580.269578,-592.164754
5660.879465,444.123565,-8810.098227,-370.102971
5660.879789,296.082377,-8350.440928,-518.144159
5660.880114,74.020594,-8810.098227,74.020594
5660.880438,222.061783,-8503.660028,-296.082377
5660.880762,444.123565,-8656.879127,-148.041188
5660.881086,444.123565,-8656.879127,-296.082377
5660.881411,444.123565,-8810.098227,0.000000
5660.881735,444.123565,-8427.050478,0.000000
5660.882059,814.226536,-8656.879127,-222.061783
5660.882383,518.144159,-8810.098227,0.000000
5660.882707,148.041188,-8733.488677,74.020594
5660.883032,518.144159,-8580.269578,-296.082377
5660.883356,370.102971,-8810.098227,-222.061783
5660.883680,444.123565,-8733.488677,-370.102971
5660.884004,444.123565,-8810.098227,222.061783
5660.884329,666.185348,-8580.269578,74.020594
5660.884653,444.123565,-8580.269578,0.000000
5660.884977,666.185348,-8503.660028,-444.123565
5660.885301,296.082377,-8656.879127,-148.041188
5660.885626,740.205942,-8427.050478,-444.123565
5660.885950,370.102971,-8427.050478,-148.041188
5660.886274,666.185348,-8427.050478,-296.082377
5660.886598,518.144159,-8580.269578,-592.164754
5660.886922,592.164754,-8503.660028,-518.144159
5660.887247,222.061783,-8273.831378,-740.205942
5660.887571,444.123565,-8656.879127,-296.082377
5660.887895,222.061783,-8503.660028,-444.123565
5660.888219,444.123565,-8427.050478,-296.082377
5660.888544,666.185348,-7814.174080,-222.061783
5660.888868,444.123565,-8733.488677,-518.144159
5660.889192,222.061783,-8273.831378,-296.082377
5660.889516,222.061783,-8427.050478,0.000000
5660.889840,518.144159,-8810.098227,-296.082377
5660.890165,222.061783,-8350.440928,-370.102971
5660.890489,592.164754,-8810.098227,0.000000
5660.890813,148.041188,-8273.831378,-296.082377
5660.891137,370.102971,-8733.488677,0.000000
5660.891462,296.082377,-8350.440928,-148.041188
5660.891786,518.144159,-8427.050478,-370.102971
5660.892110,296.082377,-8810.098227,-444.123565
5660.892434,296.082377,-8580.269578,-222.061783
5660.892758,592.164754,-8886.707777,148.041188
5660.893083,222.061783,-8350.440928,-370.102971
5660.893407,518.144159,-8656.879127,-222.061783
5660.893731,296.082377,-8273.831378,-296.082377
5660.894055,740.205942,-8733.488677,-370.102971
5660.894380,296.082377,-8810.098227,-518.144159
5660.894704,592.164754,-8810.098227,-666.185348
5660.895028,222.061783,-8580.269578,-592.164754
5660.895352,444.123565,-8427.050478,-444.123565
5660.895676,888.247130,-8886.707777,-814.226536
5660.896001,296.082377,-8580.269578,-518.144159
5660.896325,222.061783,-8733.488677,-370.102971
5660.896649,0.000000,-8733.488677,-370.102971
5660.896973,518.144159,-8656.879127,-518.144159
5660.897298,518.144159,-8503.660028,-592.164754
5660.897622,592.164754,-8580.269578,-370.102971
5660.897946,74.020594,-8580.269578,-370.102971
5660.898270,296.082377,-8503.660028,-148.041188
5660.898594,518.144159,-8810.098227,0.000000
5660.898919,518.144159,-8503.660028,74.020594
5660.899243,444.123565,-8733.488677,-148.041188
5660.899567,592.164754,-8810.098227,0.000000
5660.899891,370.102971,-8273.831378,222.061783
5660.900216,296.082377,-8886.707777,0.000000
5660.900540,444.123565,-8273.831378,-222.061783
5660.900864,148.041188,-8427.050478,0.000000
5660.901188,148.041188,-8580.269578,74.020594
5660.901512,0.000000,-8427.050478,0.000000
5660.901837,592.164754,-8886.707777,-296.082377
5660.902161,296.082377,-8427.050478,-148.041188
5660.902485,592.164754,-8810.098227,-518.144159
5660.902809,444.123565,-8350.440928,0.000000
5660.903134,444.123565,-8503.660028,74.020594
5660.903458,222.061783,-8656.879127,-222.061783
5660.903782,592.164754,-8427.050478,-444.123565
5660.904106,666.185348,-8044.002729,-444.123565
5660.904430,518.144159,-8580.269578,0.000000
5660.904755,370.102971,-8427.050478,-370.102971
5660.905079,296.082377,-8733.488677,-148.041188
5660.905403,518.144159,-8733.488677,-148.041188
5660.905727,296.082377,-8273.831378,-222.061783
5660.906052,518.144159,-8580.269578,-222.061783
5660.906376,444.123565,-8656.879127,-148.041188
5660.906700,518.144159,-8273.831378,0.000000
5660.907024,296.082377,-9116.536426,148.041188
5660.907348,296.082377,-8810.098227,0.000000
5660.907673,592.164754,-8733.488677,0.000000
5660.907997,518.144159,-8580.269578,0.000000
5660.908321,518.144159,-8963.317327,148.041188
5660.908645,444.123565,-8580.269578,74.020594
5660.908970,518.144159,-8580.269578,222.061783
5660.909294,444.123565,-8273.831378,0.000000
5660.909618,296.082377,-8886.707777,0.000000
5660.909942,0.000000,-8580.269578,0.000000
5660.910266,74.020594,-8427.050478,0.000000
5660.910591,74.020594,-8810.098227,0.000000
5660.910915,296.082377,-8350.440928,0.000000
5660.911239,666.185348,-7967.393179,0.000000
5660.911563,296.082377,-8580.269578,-148.041188
5660.911888,222.061783,-8580.269578,0.000000
5660.912212,222.061783,-8503.660028,-296.082377
5660.912536,370.102971,-8427.050478,-222.061783
5660.912860,222.061783,-8350.440928,-370.102971
5660.913184,370.102971,-8656.879127,-666.185348
5660.913509,444.123565,-8580.269578,-370.102971
5660.913833,296.082377,-8503.660028,-222.061783
5660.914157,296.082377,-8503.660028,-518.144159
5660.914481,370.102971,-8580.269578,-444.123565
5660.914806,296.082377,-8427.050478,-296.082377
5660.915130,518.144159,-8503.660028,-222.061783
5660.915454,148.041188,-8580.269578,-296.082377
5660.915778,444.123565,-8656.879127,0.000000
5660.916102,222.061783,-8197.221829,0.000000
5660.916427,592.164754,-8733.488677,0.000000
5660.916751,518.144159,-9193.145976,-296.082377
5660.917075,370.102971,-8350.440928,0.000000
5660.917399,222.061783,-9193.145976,0.000000
5660.917724,296.082377,-8656.879127,0.000000
5660.918048,444.123565,-8580.269578,-222.061783
5660.918372,148.041188,-8350.440928,-518.144159
5660.918696,148.041188,-8427.050478,0.000000
5660.919021,0.000000,-8503.660028,-148.041188
5660.919345,518.144159,-8503.660028,0.000000
5660.919669,444.123565,-8197.221829,-518.144159
5660.919993,518.144159,-8580.269578,-370.102971
5660.920317,666.185348,-8120.612279,-518.144159
5660.920642,518.144159,-8427.050478,-296.082377
5660.920966,444.123565,-8656.879127,-518.144159
5660.921290,518.144159,-8503.660028,-370.102971
5660.921614,518.144159,-8427.050478,-740.205942
5660.921939,444.123565,-8427.050478,-518.144159
5660.922263,592.164754,-8427.050478,-370.102971
5660.922587,888.247130,-8273.831378,-1110.308913
5660.922911,444.123565,-8120.612279,-518.144159
5660.923235,518.144159,-8503.660028,-592.164754
5660.923560,518.144159,-8656.879127,-370.102971
5660.923884,518.144159,-8197.221829,-222.061783
5660.924208,518.144159,-8427.050478,-518.144159
5660.924532,370.102971,-8810.098227,-222.061783
5660.924857,592.164754,-8427.050478,-518.144159
5660.925181,370.102971,-8810.098227,-370.102971
5660.925505,518.144159,-8427.050478,0.000000
5660.925829,296.082377,-8733.488677,-148.041188
5660.926153,444.123565,-8733.488677,-148.041188
5660.926478,814.226536,-8427.050478,-222.061783
5660.926802,370.102971,-8733.488677,-370.102971
5660.927126,666.185348,-8580.269578,-222.061783
5660.927450,296.082377,-8503.660028,-222.061783
5660.927775,222.061783,-8350.440928,-222.061783
5660.928099,222.061783,-9039.926876,-296.082377
5660.928423,592.164754,-8656.879127,-444.123565
5660.928747,518.144159,-8350.440928,-370.102971
5660.929071,370.102971,-8733.488677,-148.041188
5660.929396,222.061783,-8733.488677,-296.082377
5660.929720,592.164754,-8810.098227,-518.144159
5660.930044,592.164754,-8503.660028,-370.102971
5660.930368,370.102971,-8656.879127,-740.205942
5660.930693,444.123565,-8810.098227,-592.164754
5660.931017,592.164754,-8580.269578,-148.041188
5660.931341,296.082377,-9116.536426,-444.123565
5660.931665,296.082377,-9039.926876,-370.102971
5660.931989,370.102971,-8810.098227,-296.082377
5660.932314,148.041188,-8656.879127,0.000000
5660.932638,370.102971,-9039.926876,-296.082377
5660.932962,518.144159,-8733.488677,-222.061783
5660.933286,296.082377,-8273.831378,0.000000
5660.933611,444.123565,-8963.317327,0.000000
5660.933935,592.164754,-8810.098227,-444.123565
5660.934259,592.164754,-8580.269578,148.041188
5660.934583,222.061783,-8580.269578,-370.102971
5660.934907,444.123565,-8886.707777,-222.061783
5660.935232,148.041188,-7814.174080,0.000000
5660.935556,444.123565,-8580.269578,-148.041188
5660.935880,222.061783,-8656.879127,-370.102971
5660.936204,296.082377,-8810.098227,0.000000
5660.936529,74.020594,-8810.098227,-444.123565
5660.936853,444.123565,-8810.098227,0.000000
5660.937177,296.082377,-8427.050478,-518.144159
5660.937501,592.164754,-8427.050478,-222.061783
5660.937826,444.123565,-8120.612279,-370.102971
5660.938150,0.000000,-8273.831378,0.000000
5660.938474,518.144159,-8350.440928,-666.185348
5660.938799,296.082377,-8044.002729,-518.144159
5660.939123,592.164754,-8503.660028,-666.185348
5660.939448,222.061783,-7890.783629,-296.082377
5660.939772,814.226536,-8580.269578,-592.164754
5660.940096,518.144159,-8503.660028,-444.123565
5660.940421,740.205942,-8427.050478,-592.164754
5660.940745,518.144159,-9116.536426,-666.185348
5660.941069,740.205942,-8580.269578,-518.144159
5660.941394,296.082377,-8580.269578,-370.102971
5660.941718,296.082377,-8810.098227,-296.082377
5660.942043,222.061783,-8503.660028,-296.082377
5660.942367,962.267725,-8503.660028,-518.144159
5660.942691,370.102971,-8810.098227,-592.164754
5660.943016,370.102971,-8733.488677,-296.082377
5660.943340,518.144159,-8810.098227,-222.061783
5660.943664,962.267725,-8656.879127,-518.144159
5660.943989,518.144159,-8656.879127,-296.082377
5660.944313,296.082377,-8656.879127,-444.123565
5660.944637,518.144159,-8350.440928,-148.041188
5660.944962,296.082377,-8273.831378,-518.144159
5660.945286,740.205942,-9039.926876,-666.185348
5660.945611,222.061783,-8350.440928,-592.164754
5660.945935,370.102971,-8810.098227,-666.185348
5660.946259,370.102971,-8503.660028,-666.185348
5660.946584,666.185348,-9193.145976,-444.123565
5660.946908,444.123565,-8810.098227,-814.226536
5660.947232,592.164754,-8886.707777,-740.205942
5660.947557,296.082377,-8810.098227,-592.164754
5660.947881,444.123565,-8810.098227,-962.267725
5660.948205,888.247130,-8273.831378,-740.205942
5660.948530,296.082377,-8810.098227,-666.185348
5660.948854,444.123565,-8810.098227,-592.164754
5660.949179,444.123565,-8350.440928,-740.205942
5660.949503,1110.308913,-8733.488677,-518.144159
5660.949827,518.144159,-8427.050478,-370.102971
5660.950152,296.082377,-8427.050478,-222.061783
5660.950476,296.082377,-8733.488677,0.000000
5660.950800,888.247130,-8886.707777,-148.041188
5660.951125,444.123565,-8886.707777,0.000000
5660.951449,444.123565,-8350.440928,-148.041188
5660.951774,666.185348,-8580.269578,0.000000
5660.952098,518.144159,-8886.707777,-222.061783
5660.952422,518.144159,-8886.707777,-296.082377
5660.952747,444.123565,-8503.660028,-296.082377
5660.953071,444.123565,-8733.488677,0.000000
5660.953395,74.020594,-8656.879127,-370.102971
5660.953720,444.123565,-9039.926876,-296.082377
5660.954044,296.082377,-8733.488677,-296.082377
5660.954368,296.082377,-8427.050478,-222.061783
5660.954693,444.123565,-8963.317327,-444.123565
5660.955017,1036.288319,-8427.050478,-296.082377
5660.955342,444.123565,-8197.221829,-444.123565
5660.955666,444.123565,-8427.050478,-592.164754
5660.955990,518.144159,-8503.660028,-666.185348
5660.956315,518.144159,-8580.269578,-666.185348
5660.956639,740.205942,-8886.707777,-962.267725
5660.956963,370.102971,-8656.879127,-592.164754
5660.957288,296.082377,-8503.660028,-592.164754
5660.957612,0.000000,-8733.488677,-592.164754
5660.957936,962.267725,-8580.269578,-518.144159
5660.958261,444.123565,-8580.269578,-666.185348
5660.958585,370.102971,-8503.660028,-296.082377
5660.958910,296.082377,-8350.440928,-296.082377
5660.959234,1036.288319,-8886.707777,-370.102971
5660.959558,370.102971,-8503.660028,-370.102971
5660.959883,666.185348,-8656.879127,-296.082377
5660.960207,296.082377,-8733.488677,0.000000
5660.960531,296.082377,-8580.269578,0.000000
5660.960856,296.082377,-8656.879127,0.000000
5660.961180,370.102971,-8580.269578,0.000000
5660.961505,370.102971,-8963.317327,-370.102971
5660.961829,370.102971,-8656.879127,-370.102971
5660.962153,518.144159,-8120.612279,-592.164754
5660.962478,370.102971,-8733.488677,-444.123565
5660.962802,814.226536,-8427.050478,-666.185348
5660.963126,666.185348,-8427.050478,-666.185348
5660.963451,592.164754,-8273.831378,-592.164754
5660.963775,370.102971,-8580.269578,-666.185348
5660.964099,370.102971,-8503.660028,-592.164754
5660.964424,518.144159,-8350.440928,-518.144159
5660.964748,370.102971,-8580.269578,-666.185348
5660.965073,740.205942,-8886.707777,-1110.308913
5660.965397,592.164754,-8580.269578,-740.205942
5660.965721,518.144159,-8427.050478,-666.185348
5660.966046,518.144159,-8580.269578,-814.226536
5660.966370,814.226536,-9576.193725,-814.226536
5660.966694,592.164754,-8197.221829,-740.205942
5660.967019,666.185348,-8503.660028,-444.123565
5660.967343,296.082377,-8273.831378,-592.164754
5660.967667,666.185348,-8580.269578,-444.123565
5660.967992,666.185348,-8503.660028,-222.061783
5660.968316,296.082377,-8580.269578,-148.041188
5660.968641,518.144159,-9039.926876,-296.082377
5660.968965,592.164754,-8120.612279,-370.102971
5660.969289,296.082377,-8886.707777,0.000000
5660.969614,518.144159,-8963.317327,-444.123565
5660.969938,444.123565,-8427.050478,-296.082377
5660.970262,444.123565,-8733.488677,-74.020594
5660.970587,518.144159,-9193.145976,-222.061783
5660.970911,74.020594,-8656.879127,-518.144159
5660.971235,444.123565,-8656.879127,0.000000
5660.971560,222.061783,-8503.660028,-296.082377
5660.971884,444.123565,-9039.926876,-370.102971
5660.972209,592.164754,-8273.831378,-370.102971
5660.972533,370.102971,-8503.660028,-296.082377
5660.972857,444.123565,-8503.660028,-740.205942
5660.973182,518.144159,-8580.269578,-666.185348
5660.973506,740.205942,-8120.612279,-444.123565
5660.973830,592.164754,-8810.098227,-592.164754
5660.974155,370.102971,-8886.707777,-814.226536
5660.974479,666.185348,-8733.488677,-666.185348
5660.974804,148.041188,-8427.050478,-444.123565
5660.975128,296.082377,-8427.050478,-370.102971
5660.975452,444.123565,-8963.317327,-888.247130
5660.975777,370.102971,-8810.098227,-444.123565
5660.976101,296.082377,-8503.660028,-296.082377
5660.976425,148.041188,-8810.098227,-370.102971
5660.976750,592.164754,-8427.050478,-148.041188
5660.977074,444.123565,-8503.660028,-296.082377
5660.977398,296.082377,-8656.879127,0.000000
5660.977723,370.102971,-8656.879127,74.020594
5660.978047,370.102971,-8580.269578,0.000000
5660.978372,518.144159,-8503.660028,0.000000
5660.978696,444.123565,-8580.269578,74.020594
5660.979020,518.144159,-8580.269578,0.000000
5660.979345,296.082377,-8273.831378,74.020594
5660.979669,222.061783,-8197.221829,0.000000
5660.979993,148.041188,-8656.879127,-222.061783
5660.980318,518.144159,-8427.050478,-222.061783
5660.980642,222.061783,-8503.660028,0.000000
5660.980966,222.061783,-8503.660028,-444.123565
5660.981291,296.082377,-8503.660028,-296.082377
5660.981615,370.102971,-8503.660028,-444.123565
5660.981940,444.123565,-8120.612279,-888.247130
5660.982264,666.185348,-8733.488677,-814.226536
5660.982588,814.226536,-8580.269578,-666.185348
5660.982913,444.123565,-8580.269578,-296.082377
5660.983237,296.082377,-8810.098227,-666.185348
5660.983561,370.102971,-8580.269578,-518.144159
5660.983886,518.144159,-8580.269578,-444.123565
5660.984210,592.164754,-8656.879127,-592.164754
5660.984535,518.144159,-8580.269578,-296.082377
5660.984859,222.061783,-8963.317327,74.020594
5660.985183,518.144159,-8886.707777,-296.082377
5660.985508,518.144159,-8350.440928,-222.061783
5660.985832,666.185348,-8963.317327,-296.082377
5660.986156,444.123565,-8273.831378,0.000000
5660.986481,222.061783,-8350.440928,74.020594
5660.986805,222.061783,-8733.488677,-148.041188
5660.987129,592.164754,-8427.050478,-370.102971
5660.987454,444.123565,-9039.926876,0.000000
5660.987778,222.061783,-8350.440928,-370.102971
5660.988103,222.061783,-8656.879127,-222.061783
5660.988427,444.123565,-8733.488677,-222.061783
5660.988751,296.082377,-8503.660028,-222.061783
5660.989076,444.123565,-8350.440928,-518.144159
5660.989400,444.123565,-8580.269578,-666.185348
5660.989724,518.144159,-8197.221829,-518.144159
5660.990049,444.123565,-8580.269578,-592.164754
5660.990373,370.102971,-8733.488677,-888.247130
5660.990697,518.144159,-8503.660028,-740.205942
5660.991022,444.123565,-8733.488677,-740.205942
5660.991346,444.123565,-8733.488677,-666.185348
5660.991671,148.041188,-8427.050478,-740.205942
5660.991995,518.144159,-8656.879127,-666.185348
5660.992319,518.144159,-8656.879127,-740.205942
5660.992644,666.185348,-8963.317327,-888.247130
5660.992968,444.123565,-8580.269578,-592.164754
5660.993292,666.185348,-8886.707777,-222.061783
5660.993617,444.123565,-8580.269578,-370.102971
5660.993941,666.185348,-8273.831378,-222.061783
5660.994266,592.164754,-8580.269578,-296.082377
5660.994590,814.226536,-8810.098227,-444.123565
5660.994914,370.102971,-8580.269578,-222.061783
5660.995239,444.123565,-8427.050478,0.000000
5660.995563,666.185348,-8427.050478,0.000000
5660.995887,444.123565,-8503.660028,-148.041188
5660.996212,666.185348,-8350.440928,0.000000
5660.996536,666.185348,-8427.050478,-148.041188
5660.996860,370.102971,-8273.831378,74.020594
5660.997185,222.061783,-8503.660028,0.000000
5660.997509,740.205942,-8503.660028,-370.102971
5660.997834,370.102971,-8503.660028,-148.041188
5660.998158,148.041188,-8656.879127,-222.061783
5660.998482,444.123565,-8427.050478,-370.102971
5660.998807,222.061783,-8580.269578,-296.082377
5660.999131,592.164754,-8580.269578,-370.102971
5660.999455,148.041188,-8656.879127,-444.123565
5660.999780,518.144159,-8733.488677,-444.123565
5661.000104,370.102971,-8120.612279,-296.082377
5661.000428,518.144159,-8580.269578,-370.102971
5661.000753,148.041188,-8886.707777,-444.123565
5661.001077,148.041188,-8273.831378,-444.123565
5661.001402,222.061783,-8886.707777,-148.041188
5661.001726,592.164754,-8427.050478,-444.123565
5661.002050,444.123565,-8656.879127,0.000000
5661.002375,370.102971,-8350.440928,-296.082377
5661.002699,222.061783,-8656.879127,74.020594
5661.003023,148.041188,-8273.831378,-296.082377
5661.003348,370.102971,-8733.488677,74.020594
5661.003672,444.123565,-8427.050478,148.041188
5661.003997,296.082377,-8886.707777,-148.041188
5661.004321,296.082377,-8886.707777,-148.041188
5661.004645,444.123565,-8273.831378,0.000000
5661.004970,296.082377,-8580.269578,0.000000
5661.005294,222.061783,-8656.879127,0.000000
5661.005618,444.123565,-8580.269578,0.000000
5661.005943,592.164754,-9116.536426,370.102971
5661.006267,296.082377,-8120.612279,-148.041188
5661.006591,444.123565,-8503.660028,-370.102971
5661.006916,740.205942,-8503.660028,-444.123565
5661.007240,592.164754,-8197.221829,-222.061783
5661.007565,592.164754,-8733.488677,-444.123565
5661.007889,444.123565,-8427.050478,-740.205942
5661.008213,518.144159,-8656.879127,-592.164754
5661.008538,296.082377,-8810.098227,-592.164754
5661.008862,740.205942,-9193.145976,-296.082377
5661.009186,370.102971,-8733.488677,-370.102971
5661.009511,296.082377,-8427.050478,-370.102971
5661.009835,518.144159,-8810.098227,-518.144159
5661.010159,592.164754,-7890.783629,-148.041188
5661.010484,666.185348,-8427.050478,0.000000
5661.010808,296.082377,-8273.831378,-74.020594
5661.011133,296.082377,-8810.098227,0.000000
5661.011457,444.123565,-8503.660028,0.000000
5661.011781,518.144159,-8427.050478,0.000000
5661.012106,370.102971,-8503.660028,-148.041188
5661.012430,296.082377,-8580.269578,74.020594
5661.012754,518.144159,-8503.660028,0.000000
5661.013079,592.164754,-8044.002729,296.082377
5661.013403,370.102971,-8273.831378,0.000000
5661.013728,518.144159,-8503.660028,0.000000
5661.014052,444.123565,-8350.440928,0.000000
5661.014376,148.041188,-7967.393179,0.000000
5661.014701,296.082377,-8733.488677,-444.123565
5661.015025,370.102971,-8656.879127,0.000000
5661.015349,592.164754,-8580.269578,0.000000
5661.015674,296.082377,-8580.269578,-148.041188
5661.015998,740.205942,-8810.098227,-148.041188
5661.016322,592.164754,-8427.050478,-296.082377
5661.016647,444.123565,-8580.269578,-222.061783
5661.016971,518.144159,-8810.098227,-666.185348
5661.017296,962.267725,-9269.755526,-518.144159
5661.017620,222.061783,-8427.050478,-518.144159
5661.017944,74.020594,-8886.707777,-592.164754
5661.018269,0.000000,-8503.660028,-444.123565
5661.018593,296.082377,-8656.879127,-370.102971
5661.018917,296.082377,-8580.269578,-222.061783
5661.019242,296.082377,-8427.050478,-444.123565
5661.019566,222.061783,-8733.488677,0.000000
5661.019890,370.102971,-8656.879127,-222.061783
5661.020215,370.102971,-8427.050478,-370.102971
5661.020539,370.102971,-8810.098227,-370.102971
5661.020864,592.164754,-8427.050478,-370.102971
5661.021188,296.082377,-8503.660028,0.000000
5661.021512,444.123565,-8503.660028,-740.205942
5661.021837,370.102971,-8733.488677,-518.144159
5661.022161,222.061783,-8886.707777,0.000000
5661.022485,222.061783,-8733.488677,-148.041188
5661.022810,222.061783,-8810.098227,0.000000
5661.023134,444.123565,-8427.050478,-444.123565
5661.023459,370.102971,-8427.050478,-222.061783
5661.023783,444.123565,-8580.269578,-666.185348
5661.024107,518.144159,-8503.660028,-444.123565
5661.024432,1110.308913,-8886.707777,-592.164754
5661.024756,370.102971,-8350.440928,-444.123565
5661.025080,296.082377,-8810.098227,-444.123565
5661.025405,370.102971,-8350.440928,-666.185348
5661.025729,518.144159,-9806.022374,-666.185348
5661.026053,296.082377,-8656.879127,-148.041188
5661.026378,296.082377,-8733.488677,-666.185348
5661.026702,370.102971,-8733.488677,-740.205942
5661.027027,370.102971,-8197.221829,-592.164754
5661.027351,444.123565,-8580.269578,-888.247130
5661.027675,444.123565,-8656.879127,-296.082377
5661.028000,370.102971,-8197.221829,-222.061783
5661.028324,370.102971,-8733.488677,-518.144159
5661.028648,296.082377,-8120.612279,-222.061783
5661.028973,444.123565,-8733.488677,-370.102971
5661.029297,518.144159,-8580.269578,-222.061783
5661.029621,222.061783,-8733.488677,0.000000
5661.029946,666.185348,-9576.193725,-888.247130
5661.030270,222.061783,-8580.269578,148.041188
5661.030595,814.226536,-8503.660028,-370.102971
5661.030919,296.082377,-8810.098227,-148.041188
5661.031243,592.164754,-8503.660028,0.000000
5661.031568,0.000000,-8350.440928,0.000000
5661.031892,0.000000,-8886.707777,-222.061783
5661.032216,0.000000,-8503.660028,0.000000
5661.032541,518.144159,-8580.269578,0.000000
5661.032865,296.082377,-8503.660028,-444.123565
5661.033189,592.164754,-8350.440928,-444.123565
5661.033514,666.185348,-8580.269578,-222.061783
5661.033838,370.102971,-8350.440928,-296.082377
5661.034163,592.164754,-8810.098227,-666.185348
5661.034487,518.144159,-8503.660028,-740.205942
5661.034811,592.164754,-8810.098227,-296.082377
5661.035136,74.020594,-8427.050478,-592.164754
5661.035460,370.102971,-8886.707777,-518.144159
5661.035784,518.144159,-8427.050478,-666.185348
5661.036109,666.185348,-8810.098227,-222.061783
5661.036433,222.061783,-8273.831378,-370.102971
5661.036758,444.123565,-8580.269578,-222.061783
5661.037082,666.185348,-8273.831378,-592.164754
5661.037406,592.164754,-8350.440928,-296.082377
5661.037731,592.164754,-8427.050478,-370.102971
5661.038055,888.247130,-8580.269578,-370.102971
5661.038379,370.102971,-8503.660028,-222.061783
5661.038704,222.061783,-8580.269578,-296.082377
5661.039028,444.123565,-8503.660028,-222.061783
5661.039353,222.061783,-8733.488677,0.000000
5661.039677,222.061783,-8656.879127,0.000000
5661.040002,222.061783,-8580.269578,148.041188
5661.040326,222.061783,-8580.269578,-296.082377
5661.040650,296.082377,-8656.879127,0.000000
5661.040975,222.061783,-8120.612279,-296.082377
5661.041299,148.041188,-8580.269578,0.000000
5661.041624,518.144159,-8810.098227,-444.123565
5661.041948,444.123565,-8503.660028,148.041188
5661.042273,444.123565,-8580.269578,-592.164754
5661.042597,444.123565,-8427.050478,-222.061783
5661.042921,518.144159,-8503.660028,-592.164754
5661.043246,592.164754,-8810.098227,-444.123565
5661.043570,444.123565,-8580.269578,-666.185348
5661.043895,666.185348,-8656.879127,-444.123565
5661.044219,962.267725,-8503.660028,-444.123565
5661.044544,444.123565,-8427.050478,-518.144159
5661.044868,296.082377,-8427.050478,-444.123565
5661.045192,444.123565,-8580.269578,-370.102971
5661.045517,296.082377,-8963.317327,-592.164754
5661.045841,296.082377,-8733.488677,-444.123565
5661.046166,592.164754,-8733.488677,-370.102971
5661.046490,518.144159,-8656.879127,-370.102971
5661.046815,888.247130,-8503.660028,-444.123565
5661.047139,740.205942,-8656.879127,-296.082377
5661.047463,518.144159,-8733.488677,-222.061783
5661.047788,296.082377,-8656.879127,-148.041188
5661.048112,370.102971,-8886.707777,-444.123565
5661.048437,592.164754,-8963.317327,-296.082377
5661.048761,148.041188,-8273.831378,0.000000
5661.049086,296.082377,-8656.879127,-518.144159
5661.049410,296.082377,-8503.660028,-444.123565
5661.049734,592.164754,-8503.660028,444.123565
5661.050059,370.102971,-8350.440928,-148.041188
5661.050383,592.164754,-8580.269578,-370.102971
5661.050708,518.144159,-8580.269578,-518.144159
5661.051032,518.144159,-8580.269578,-444.123565
5661.051357,666.185348,-8350.440928,-1036.288319
5661.051681,370.102971,-8656.879127,-740.205942
5661.052005,296.082377,-8580.269578,-666.185348
5661.052330,222.061783,-8810.098227,-444.123565
5661.052654,444.123565,-8427.050478,-222.061783
5661.052979,222.061783,-8733.488677,-592.164754
5661.053303,592.164754,-8656.879127,-370.102971
5661.053628,74.020594,-8580.269578,-222.061783
5661.053952,370.102971,-8580.269578,-370.102971
5661.054276,666.185348,-8273.831378,-518.144159
5661.054601,296.082377,-8503.660028,-370.102971
5661.054925,518.144159,-8427.050478,-518.144159
5661.055250,370.102971,-8656.879127,-296.082377
5661.055574,888.247130,-8197.221829,-296.082377
5661.055899,370.102971,-8427.050478,-296.082377
5661.056223,296.082377,-8886.707777,-592.164754
5661.056547,518.144159,-8427.050478,-444.123565
5661.056872,296.082377,-8886.707777,0.000000
5661.057196,444.123565,-8427.050478,-370.102971
5661.057521,518.144159,-8580.269578,-370.102971
5661.057845,296.082377,-8427.050478,-518.144159
5661.058170,666.185348,-8273.831378,-296.082377
5661.058494,666.185348,-8733.488677,-666.185348
5661.058819,444.123565,-8733.488677,-592.164754
5661.059143,814.226536,-8350.440928,-296.082377
5661.059467,518.144159,-8503.660028,-370.102971
5661.059792,1110.308913,-8886.707777,-814.226536
5661.060116,592.164754,-8580.269578,-740.205942
5661.060441,592.164754,-8503.660028,-740.205942
5661.060765,518.144159,-8503.660028,-518.144159
5661.061090,592.164754,-8733.488677,-370.102971
5661.061414,296.082377,-8427.050478,-592.164754
5661.061738,666.185348,-8350.440928,-666.185348
5661.062063,518.144159,-8733.488677,-814.226536
5661.062387,592.164754,-8810.098227,-444.123565
5661.062712,296.082377,-8427.050478,-296.082377
5661.063036,222.061783,-8427.050478,-296.082377
5661.063361,518.144159,-8656.879127,-592.164754
5661.063685,666.185348,-8503.660028,-740.205942
5661.064009,962.267725,-8580.269578,-296.082377
5661.064334,222.061783,-8656.879127,-296.082377
5661.064658,444.123565,-8580.269578,-222.061783
5661.064983,296.082377,-8656.879127,0.000000
5661.065307,962.267725,-8963.317327,-444.123565
5661.065632,444.123565,-8810.098227,-518.144159
5661.065956,592.164754,-8580.269578,0.000000
5661.066280,148.041188,-8656.879127,0.000000
5661.066605,222.061783,-8810.098227,0.000000
5661.066929,814.226536,-8810.098227,-370.102971
5661.067254,518.144159,-8427.050478,-296.082377
5661.067578,370.102971,-8810.098227,-666.185348
5661.067903,148.041188,-8580.269578,-444.123565
5661.068227,666.185348,-9499.584175,-444.123565
5661.068551,370.102971,-8580.269578,-296.082377
5661.068876,666.185348,-8580.269578,-740.205942
5661.069200,0.000000,-8733.488677,-592.164754
5661.069525,370.102971,-8733.488677,-222.061783
5661.069849,74.020594,-8503.660028,-444.123565
5661.070174,222.061783,-8656.879127,-370.102971
5661.070498,444.123565,-8273.831378,-740.205942
5661.070822,592.164754,-8810.098227,-666.185348
5661.071147,148.041188,-8503.660028,-296.082377
5661.071471,0.000000,-8273.831378,-444.123565
5661.071796,518.144159,-8656.879127,-148.041188
5661.072120,370.102971,-8197.221829,-222.061783
5661.072445,444.123565,-8963.317327,-592.164754
5661.072769,592.164754,-8350.440928,-444.123565
5661.073093,592.164754,-8427.050478,148.041188
5661.073418,222.061783,-8503.660028,-592.164754
5661.073742,370.102971,-8656.879127,-148.041188
5661.074067,444.123565,-8580.269578,-148.041188
5661.074391,518.144159,-8810.098227,-370.102971
5661.074716,296.082377,-8350.440928,-592.164754
5661.075040,518.144159,-8503.660028,-296.082377
5661.075364,518.144159,-8733.488677,-370.102971
5661.075689,222.061783,-8427.050478,-296.082377
5661.076013,518.144159,-8656.879127,-666.185348
5661.076338,814.226536,-8427.050478,-444.123565
5661.076662,814.226536,-9576.193725,-370.102971
5661.076987,518.144159,-8733.488677,-814.226536
5661.077311,740.205942,-8427.050478,-518.144159
5661.077635,370.102971,-8427.050478,-888.247130
5661.077960,592.164754,-8503.660028,-370.102971
5661.078284,222.061783,-8656.879127,-148.041188
5661.078609,444.123565,-8733.488677,-222.061783
5661.078933,296.082377,-8350.440928,-370.102971
5661.079258,592.164754,-8503.660028,-666.185348
5661.079582,222.061783,-9116.536426,-222.061783
5661.079906,444.123565,-8044.002729,-592.164754
5661.080231,518.144159,-8810.098227,-444.123565
5661.080555,370.102971,-8273.831378,-296.082377
5661.080880,740.205942,-9116.536426,0.000000
5661.081204,222.061783,-8427.050478,-296.082377
5661.081529,666.185348,-8656.879127,-296.082377
5661.081853,296.082377,-8733.488677,-222.061783
5661.082177,518.144159,-8656.879127,-222.061783
5661.082502,0.000000,-8503.660028,0.000000
5661.082826,666.185348,-8810.098227,-444.123565
5661.083151,296.082377,-8427.050478,-370.102971
5661.083475,444.123565,-8427.050478,0.000000
5661.083800,222.061783,-8120.612279,-296.082377
5661.084124,148.041188,-8656.879127,-370.102971
5661.084448,296.082377,-8273.831378,-222.061783
5661.084773,444.123565,-8656.879127,-296.082377
5661.085097,518.144159,-8733.488677,-592.164754
5661.085422,296.082377,-8503.660028,-592.164754
5661.085746,592.164754,-8580.269578,-518.144159
5661.086071,370.102971,-8503.660028,-740.205942
5661.086395,444.123565,-9039.926876,-518.144159
5661.086719,74.020594,-8197.221829,-740.205942
5661.087044,444.123565,-8733.488677,-518.144159
5661.087368,222.061783,-8733.488677,-592.164754
5661.087693,444.123565,-8580.269578,-370.102971
5661.088017,370.102971,-8886.707777,-962.267725
5661.088342,296.082377,-8273.831378,-444.123565
5661.088666,148.041188,-8733.488677,-222.061783
5661.088990,370.102971,-8733.488677,0.000000
5661.089315,296.082377,-8427.050478,-222.061783
5661.089639,518.144159,-8733.488677,-370.102971
5661.089964,666.185348,-8427.050478,-444.123565
5661.090288,592.164754,-8120.612279,0.000000
5661.090613,444.123565,-8810.098227,-296.082377
5661.090937,74.020594,-8580.269578,0.000000
5661.091261,444.123565,-8120.612279,0.000000
5661.091586,74.020594,-8656.879127,-296.082377
5661.091910,370.102971,-8810.098227,-296.082377
5661.092235,296.082377,-8503.660028,0.000000
5661.092559,518.144159,-8580.269578,0.000000
5661.092884,296.082377,-8503.660028,0.000000
5661.093208,592.164754,-8503.660028,-444.123565
5661.093532,740.205942,-8580.269578,-592.164754
5661.093857,592.164754,-8273.831378,-370.102971
5661.094181,592.164754,-8580.269578,-370.102971
5661.094506,444.123565,-8350.440928,-370.102971
5661.094830,740.205942,-8656.879127,-740.205942
5661.095155,444.123565,-9039.926876,0.000000
5661.095479,518.144159,-8886.707777,-370.102971
5661.095803,222.061783,-8656.879127,-444.123565
5661.096128,666.185348,-8580.269578,-666.185348
5661.096452,222.061783,-8733.488677,-370.102971
5661.096777,518.144159,-8580.269578,-444.123565
5661.097101,370.102971,-8350.440928,-444.123565
5661.097426,592.164754,-8197.221829,-370.102971
5661.097750,148.041188,-8503.660028,-222.061783
5661.098074,444.123565,-8733.488677,0.000000
5661.098399,444.123565,-8580.269578,-296.082377
5661.098723,296.082377,-8733.488677,-222.061783
5661.099048,370.102971,-8733.488677,74.020594
5661.099372,74.020594,-8733.488677,444.123565
5661.099697,222.061783,-8886.707777,74.020594
5661.100021,222.061783,-8733.488677,0.000000
5661.100345,222.061783,-8886.707777,0.000000
5661.100670,444.123565,-8120.612279,0.000000
5661.100994,222.061783,-8580.269578,-222.061783
5661.101319,222.061783,-8580.269578,-370.102971
5661.101643,74.020594,-8350.440928,-148.041188
5661.101968,148.041188,-8427.050478,-222.061783
5661.102292,666.185348,-8350.440928,-222.061783
5661.102616,222.061783,-8733.488677,-296.082377
5661.102941,296.082377,-8580.269578,-370.102971
5661.103265,518.144159,-8810.098227,-518.144159
5661.103590,888.247130,-9116.536426,-518.144159
5661.103914,444.123565,-8656.879127,-444.123565
5661.104239,518.144159,-8503.660028,-222.061783
5661.104563,370.102971,-8503.660028,-666.185348
5661.104887,518.144159,-8427.050478,-370.102971
5661.105212,296.082377,-8120.612279,-370.102971
5661.105536,592.164754,-8580.269578,-518.144159
5661.105861,222.061783,-8350.440928,-444.123565
5661.106185,444.123565,-8427.050478,-296.082377
5661.106510,740.205942,-8197.221829,-370.102971
5661.106834,444.123565,-8503.660028,0.000000
5661.107158,518.144159,-8810.098227,-296.082377
5661.107483,666.185348,-8427.050478,0.000000
5661.107807,518.144159,-8350.440928,444.123565
5661.108132,222.061783,-8580.269578,-148.041188
5661.108456,296.082377,-8427.050478,0.000000
5661.108781,444.123565,-8273.831378,-222.061783
5661.109105,296.082377,-8580.269578,0.000000
5661.109429,222.061783,-8503.660028,-222.061783
5661.109754,444.123565,-8733.488677,0.000000
5661.110078,296.082377,-8350.440928,0.000000
5661.110403,444.123565,-8503.660028,0.000000
5661.110727,888.247130,-8044.002729,-444.123565
5661.111052,666.185348,-8273.831378,0.000000
5661.111376,518.144159,-8120.612279,-518.144159
5661.111700,518.144159,-8886.707777,-888.247130
5661.112025,814.226536,-8273.831378,-222.061783
5661.112349,666.185348,-8656.879127,-814.226536
5661.112674,296.082377,-8503.660028,-518.144159
5661.112998,222.061783,-8427.050478,-370.102971
5661.113323,222.061783,-8886.707777,-592.164754
5661.113647,444.123565,-8656.879127,-666.185348
5661.113971,370.102971,-8810.098227,-592.164754
5661.114296,444.123565,-8580.269578,-444.123565
5661.114620,518.144159,-8273.831378,-444.123565
5661.114945,962.267725,-9193.145976,-296.082377
5661.115269,296.082377,-8656.879127,-296.082377
5661.115594,740.205942,-8656.879127,0.000000
5661.115918,444.123565,-8656.879127,-296.082377
5661.116242,740.205942,-8963.317327,-370.102971
5661.116567,0.000000,-8733.488677,-148.041188
5661.116891,296.082377,-8656.879127,0.000000
5661.117216,296.082377,-8427.050478,0.000000
5661.117540,296.082377,-8810.098227,-222.061783
5661.117865,370.102971,-8197.221829,0.000000
5661.118189,296.082377,-8273.831378,0.000000
5661.118513,222.061783,-8503.660028,-444.123565
5661.118838,370.102971,-8656.879127,-148.041188
5661.119162,666.185348,-8273.831378,-296.082377
5661.119487,222.061783,-8580.269578,-518.144159
5661.119811,444.123565,-8656.879127,-518.144159
5661.120136,222.061783,-8656.879127,-148.041188
5661.120460,518.144159,-8886.707777,-592.164754
5661.120784,666.185348,-8580.269578,-592.164754
5661.121109,518.144159,-8810.098227,-370.102971
5661.121433,518.144159,-8656.879127,-296.082377
5661.121758,370.102971,-8656.879127,-370.102971
5661.122082,740.205942,-8963.317327,-370.102971
5661.122407,296.082377,-8427.050478,-74.020594
5661.122731,444.123565,-8427.050478,-296.082377
5661.123055,148.041188,-8580.269578,-370.102971
5661.123380,962.267725,-8503.660028,-148.041188
5661.123704,740.205942,-8273.831378,0.000000
5661.124029,740.205942,-8350.440928,0.000000
5661.124353,370.102971,-8580.269578,0.000000
5661.124678,666.185348,-8503.660028,-148.041188
5661.125002,444.123565,-8273.831378,0.000000
5661.125326,222.061783,-8197.221829,-148.041188
5661.125651,370.102971,-8580.269578,0.000000
5661.125975,370.102971,-8427.050478,-148.041188
5661.126300,740.205942,-8656.879127,74.020594
5661.126624,370.102971,-8197.221829,0.000000
5661.126949,518.144159,-8656.879127,0.000000
5661.127273,444.123565,-8656.879127,0.000000
5661.127597,518.144159,-8197.221829,0.000000
5661.127922,518.144159,-8580.269578,-370.102971
5661.128246,740.205942,-8733.488677,-296.082377
5661.128571,296.082377,-8044.002729,-518.144159
5661.128895,518.144159,-8580.269578,-666.185348
5661.129220,592.164754,-8580.269578,-740.205942
5661.129544,592.164754,-8580.269578,-518.144159
5661.129868,518.144159,-8580.269578,-814.226536
5661.130193,592.164754,-8427.050478,-444.123565
5661.130517,370.102971,-9346.365076,-666.185348
5661.130842,370.102971,-8503.660028,-444.123565
5661.131166,518.144159,-8427.050478,-592.164754
5661.131491,296.082377,-8656.879127,-666.185348
5661.131815,518.144159,-8886.707777,-296.082377
5661.132139,296.082377,-8350.440928,-370.102971
5661.132464,518.144159,-8886.707777,-814.226536
5661.132788,444.123565,-8427.050478,-370.102971
5661.133113,814.226536,-8886.707777,-370.102971
5661.133437,518.144159,-9039.926876,-592.164754
5661.133762,222.061783,-8503.660028,-222.061783
5661.134086,444.123565,-8580.269578,-148.041188
5661.134410,370.102971,-8810.098227,0.000000
5661.134735,592.164754,-9269.755526,0.000000
5661.135059,592.164754,-8733.488677,-370.102971
5661.135384,740.205942,-8273.831378,0.000000
5661.135708,222.061783,-8810.098227,-296.082377
5661.136033,296.082377,-8733.488677,-444.123565
5661.136357,444.123565,-8350.440928,-222.061783
5661.136681,370.102971,-8580.269578,-518.144159
5661.137006,518.144159,-8810.098227,-592.164754
5661.137330,222.061783,-8656.879127,-518.144159
5661.137655,74.020594,-8886.707777,0.000000
5661.137979,222.061783,-8656.879127,-518.144159
5661.138304,518.144159,-8886.707777,-518.144159
5661.138628,444.123565,-8427.050478,-296.082377
5661.138952,518.144159,-8273.831378,-592.164754
5661.139277,222.061783,-8580.269578,-592.164754
5661.139601,296.082377,-8427.050478,-222.061783
5661.139926,222.061783,-8580.269578,-296.082377
5661.140250,592.164754,-8886.707777,-222.061783
5661.140575,518.144159,-8273.831378,-444.123565
5661.140899,592.164754,-8656.879127,-148.041188
5661.141223,296.082377,-8427.050478,0.000000
5661.141548,444.123565,-8810.098227,-148.041188
5661.141872,518.144159,-8810.098227,-296.082377
5661.142196,444.123565,-8733.488677,0.000000
5661.142521,296.082377,-8503.660028,-296.082377
5661.142845,370.102971,-8810.098227,-296.082377
5661.143169,296.082377,-8733.488677,-518.144159
5661.143494,222.061783,-8656.879127,74.020594
5661.143818,296.082377,-8580.269578,-518.144159
5661.144142,370.102971,-8810.098227,-222.061783
5661.144467,222.061783,-8503.660028,0.000000
5661.144791,370.102971,-8810.098227,0.000000
5661.145115,518.144159,-8580.269578,-370.102971
5661.145440,444.123565,-8810.098227,-222.061783
5661.145764,666.185348,-8503.660028,0.000000
5661.146088,592.164754,-8580.269578,-296.082377
5661.146413,370.102971,-8810.098227,-296.082377
5661.146737,296.082377,-8197.221829,-370.102971
5661.147061,370.102971,-8733.488677,-518.144159
5661.147386,148.041188,-8886.707777,-222.061783
5661.147710,222.061783,-8427.050478,-296.082377
5661.148034,296.082377,-8580.269578,-222.061783
5661.148358,444.123565,-8350.440928,-370.102971
5661.148683,518.144159,-8580.269578,-444.123565
5661.149007,518.144159,-8427.050478,-740.205942
5661.149331,740.205942,-8197.221829,-296.082377
5661.149656,296.082377,-8580.269578,-148.041188
5661.149980,740.205942,-8580.269578,-296.082377
5661.150304,592.164754,-9193.145976,-518.144159
5661.150629,296.082377,-8580.269578,-370.102971
5661.150953,444.123565,-8580.269578,-444.123565
5661.151277,222.061783,-8656.879127,-222.061783
5661.151602,222.061783,-8656.879127,-296.082377
5661.151926,444.123565,-8350.440928,-444.123565
5661.152250,666.185348,-8810.098227,-370.102971
5661.152575,444.123565,-8350.440928,-148.041188
5661.152899,444.123565,-8503.660028,-370.102971
5661.153223,74.020594,-8503.660028,0.000000
5661.153548,592.164754,-8427.050478,-444.123565
5661.153872,740.205942,-8580.269578,-666.185348
5661.154196,518.144159,-8656.879127,-740.205942
5661.154520,518.144159,-9116.536426,-296.082377
5661.154845,222.061783,-8733.488677,-370.102971
5661.155169,370.102971,-8810.098227,-592.164754
5661.155493,370.102971,-8503.660028,-518.144159
5661.155818,444.123565,-8886.707777,-740.205942
5661.156142,222.061783,-8733.488677,-518.144159
5661.156466,296.082377,-8503.660028,-666.185348
5661.156791,0.000000,-9039.926876,-518.144159
5661.157115,74.020594,-8580.269578,-518.144159
5661.157439,74.020594,-8503.660028,-740.205942
5661.157764,296.082377,-8580.269578,-666.185348
5661.158088,444.123565,-8733.488677,-296.082377
5661.158412,370.102971,-8350.440928,-296.082377
5661.158737,518.144159,-8427.050478,-444.123565
5661.159061,518.144159,-8503.660028,-444.123565
5661.159385,592.164754,-8810.098227,-370.102971
5661.159709,370.102971,-8503.660028,-370.102971
5661.160034,148.041188,-8886.707777,-222.061783
5661.160358,518.144159,-8733.488677,-370.102971
5661.160682,296.082377,-8427.050478,-222.061783
5661.161007,148.041188,-8733.488677,-296.082377
5661.161331,370.102971,-8656.879127,-296.082377
5661.161655,444.123565,-9116.536426,0.000000
5661.161980,518.144159,-8580.269578,-296.082377
5661.162304,444.123565,-8427.050478,-518.144159
5661.162628,370.102971,-8656.879127,-370.102971
5661.162953,888.247130,-8656.879127,-148.041188
5661.163277,518.144159,-8350.440928,-666.185348
5661.163601,592.164754,-8810.098227,-666.185348
5661.163926,222.061783,-8427.050478,-370.102971
5661.164250,666.185348,-8427.050478,-740.205942
5661.164574,444.123565,-8810.098227,-518.144159
5661.164899,518.144159,-8350.440928,-518.144159
5661.165223,444.123565,-8350.440928,-666.185348
5661.165547,666.185348,-8580.269578,-518.144159
5661.165871,148.041188,-8350.440928,0.000000
5661.166196,592.164754,-8503.660028,-370.102971
5661.166520,518.144159,-8350.440928,-370.102971
5661.166844,444.123565,-8503.660028,-222.061783
5661.167169,444.123565,-9269.755526,-592.164754
5661.167493,518.144159,-8656.879127,0.000000
5661.167817,296.082377,-8580.269578,-296.082377
5661.168142,296.082377,-8886.707777,148.041188
5661.168466,296.082377,-8810.098227,0.000000
5661.168790,74.020594,-8810.098227,74.020594
5661.169115,296.082377,-8656.879127,-444.123565
5661.169439,518.144159,-8733.488677,0.000000
5661.169763,148.041188,-8580.269578,-222.061783
5661.170088,148.041188,-8963.317327,518.144159
5661.170412,222.061783,-8580.269578,-518.144159
5661.170736,222.061783,-8350.440928,0.000000
5661.171061,296.082377,-8580.269578,-444.123565
5661.171385,518.144159,-8350.440928,-444.123565
5661.171709,592.164754,-8656.879127,-666.185348
5661.172033,370.102971,-8427.050478,-444.123565
5661.172358,592.164754,-8580.269578,-370.102971
5661.172682,222.061783,-8427.050478,-740.205942
5661.173006,1110.308913,-8503.660028,-666.185348
5661.173331,518.144159,-8503.660028,-518.144159
5661.173655,296.082377,-8350.440928,-444.123565
5661.173979,74.020594,-8503.660028,-814.226536
5661.174304,518.144159,-8656.879127,0.000000
5661.174628,296.082377,-8503.660028,-370.102971
5661.174952,444.123565,-8503.660028,-518.144159
5661.175277,296.082377,-8580.269578,-370.102971
5661.175601,370.102971,-8580.269578,-296.082377
5661.175925,444.123565,-8503.660028,222.061783
5661.176250,296.082377,-8427.050478,-296.082377
5661.176574,666.185348,-8733.488677,0.000000
5661.176898,296.082377,-8350.440928,-148.041188
5661.177223,222.061783,-8503.660028,296.082377
5661.177547,296.082377,-8273.831378,0.000000
5661.177871,518.144159,-8656.879127,74.020594
5661.178195,370.102971,-8656.879127,-296.082377
5661.178520,222.061783,-8503.660028,0.000000
5661.178844,0.000000,-8350.440928,0.000000
5661.179168,444.123565,-8427.050478,-222.061783
5661.179493,370.102971,-8656.879127,-518.144159
5661.179817,518.144159,-8503.660028,-444.123565
5661.180141,666.185348,-8810.098227,-370.102971
5661.180466,444.123565,-8427.050478,-518.144159
5661.180790,592.164754,-8350.440928,-592.164754
5661.181114,518.144159,-8503.660028,-518.144159
5661.181439,1184.329507,-8580.269578,-888.247130
5661.181763,518.144159,-8810.098227,-962.267725
5661.182087,518.144159,-8427.050478,-592.164754
5661.182412,296.082377,-8580.269578,-518.144159
5661.182736,518.144159,-8733.488677,-666.185348
5661.183060,296.082377,-8350.440928,-518.144159
5661.183384,370.102971,-8503.660028,-666.185348
5661.183709,592.164754,-8503.660028,-518.144159
5661.184033,518.144159,-8503.660028,-296.082377
5661.184357,370.102971,-8427.050478,-296.082377
5661.184682,296.082377,-8580.269578,-222.061783
5661.185006,666.185348,-8427.050478,-296.082377
5661.185330,296.082377,-8503.660028,-370.102971
5661.185655,888.247130,-8503.660028,-222.061783
5661.185979,148.041188,-8350.440928,-222.061783
5661.186303,222.061783,-8656.879127,0.000000
5661.186628,74.020594,-8427.050478,-296.082377
5661.186952,148.041188,-8963.317327,-222.061783
5661.187276,148.041188,-8120.612279,0.000000
5661.187601,370.102971,-8503.660028,-148.041188
5661.187925,296.082377,-8733.488677,-296.082377
5661.188249,296.082377,-8350.440928,-296.082377
5661.188574,148.041188,-8427.050478,-370.102971
5661.188898,296.082377,-8197.221829,-592.164754
5661.189222,222.061783,-8427.050478,-222.061783
5661.189546,296.082377,-8580.269578,-222.061783
5661.189871,0.000000,-8273.831378,0.000000
5661.190195,296.082377,-8656.879127,-592.164754
5661.190519,666.185348,-8886.707777,-666.185348
5661.190844,296.082377,-8503.660028,-444.123565
5661.191168,0.000000,-8963.317327,-296.082377
5661.191492,148.041188,-8350.440928,-592.164754
5661.191817,370.102971,-8580.269578,-296.082377
5661.192141,296.082377,-8350.440928,-444.123565
5661.192465,592.164754,-8810.098227,-370.102971
5661.192790,370.102971,-8273.831378,-592.164754
5661.193114,666.185348,-9039.926876,0.000000
5661.193438,296.082377,-8427.050478,-148.041188
5661.193763,666.185348,-8580.269578,-296.082377
5661.194087,592.164754,-8197.221829,148.041188
5661.194411,518.144159,-8733.488677,0.000000
5661.194736,444.123565,-8656.879127,0.000000
5661.195060,518.144159,-8427.050478,0.000000
5661.195384,518.144159,-8886.707777,-222.061783
5661.195708,444.123565,-8580.269578,0.000000
5661.196033,296.082377,-8656.879127,0.000000
5661.196357,222.061783,-8580.269578,-296.082377
5661.196681,444.123565,-8503.660028,-148.041188
5661.197006,370.102971,-8197.221829,-592.164754
5661.197330,592.164754,-8810.098227,-592.164754
5661.197654,666.185348,-8580.269578,-592.164754
5661.197979,444.123565,-8273.831378,-666.185348
5661.198303,296.082377,-8350.440928,-592.164754
5661.198627,370.102971,-8273.831378,-592.164754
5661.198952,814.226536,-8580.269578,-666.185348
5661.199276,518.144159,-8810.098227,-888.247130
5661.199600,518.144159,-8580.269578,-592.164754
5661.199925,296.082377,-8580.269578,-740.205942
5661.200249,444.123565,-8503.660028,-444.123565
5661.200573,592.164754,-8503.660028,-814.226536
5661.200898,370.102971,-8503.660028,-740.205942
5661.201222,814.226536,-8197.221829,-666.185348
5661.201546,296.082377,-8580.269578,-518.144159
5661.201870,592.164754,-8656.879127,-296.082377
5661.202195,518.144159,-8273.831378,-222.061783
5661.202519,666.185348,-8886.707777,-296.082377
5661.202843,518.144159,-8733.488677,-370.102971
5661.203168,370.102971,-8580.269578,0.000000
5661.203492,444.123565,-8580.269578,0.000000
5661.203816,296.082377,-8580.269578,-296.082377
5661.204141,0.000000,-8963.317327,0.000000
5661.204465,444.123565,-8580.269578,-148.041188
5661.204789,444.123565,-8273.831378,74.020594
5661.205114,370.102971,-8580.269578,-222.061783
5661.205438,518.144159,-8044.002729,0.000000
5661.205762,518.144159,-8503.660028,-222.061783
5661.206087,592.164754,-8503.660028,-444.123565
5661.206411,518.144159,-8503.660028,-222.061783
5661.206735,592.164754,-8810.098227,-444.123565
5661.207059,148.041188,-8810.098227,-592.164754
5661.207384,370.102971,-8580.269578,-666.185348
5661.207708,444.123565,-8733.488677,-666.185348
5661.208032,296.082377,-8427.050478,-296.082377
5661.208357,666.185348,-8427.050478,-740.205942
5661.208681,148.041188,-8886.707777,-666.185348
5661.209005,222.061783,-8503.660028,-222.061783
5661.209330,444.123565,-8503.660028,-370.102971
5661.209654,296.082377,-9039.926876,-666.185348
5661.209978,592.164754,-8273.831378,-444.123565
5661.210303,518.144159,-8733.488677,-296.082377
5661.210627,296.082377,-8656.879127,0.000000
5661.210951,370.102971,-8580.269578,-296.082377
5661.211276,444.123565,-8656.879127,0.000000
5661.211600,444.123565,-8656.879127,74.020594
5661.211924,592.164754,-8580.269578,-518.144159
5661.212249,222.061783,-8656.879127,-296.082377
5661.212573,148.041188,-8810.098227,518.144159
5661.212897,222.061783,-8580.269578,-148.041188
5661.213221,222.061783,-8273.831378,-518.144159
5661.213546,222.061783,-8580.269578,-296.082377
5661.213870,370.102971,-9116.536426,0.000000
5661.214194,148.041188,-8810.098227,0.000000
5661.214519,592.164754,-8733.488677,-370.102971
5661.214843,592.164754,-8503.660028,-444.123565
5661.215167,370.102971,-8273.831378,-148.041188
5661.215492,296.082377,-8273.831378,-518.144159
5661.215816,592.164754,-8656.879127,-592.164754
5661.216140,666.185348,-8350.440928,-518.144159
5661.216465,518.144159,-8503.660028,-592.164754
5661.216789,222.061783,-8197.221829,-666.185348
5661.217113,296.082377,-8427.050478,-592.164754
5661.217438,518.144159,-8656.879127,-592.164754
5661.217762,444.123565,-8580.269578,-296.082377
5661.218086,592.164754,-8810.098227,0.000000
5661.218411,444.123565,-8120.612279,-148.041188
5661.218735,518.144159,-8427.050478,-296.082377
5661.219059,222.061783,-8810.098227,-222.061783
5661.219383,444.123565,-8580.269578,-222.061783
5661.219708,666.185348,-8427.050478,-148.041188
5661.220032,444.123565,-8656.879127,-296.082377
5661.220356,518.144159,-8810.098227,0.000000
5661.220681,296.082377,-8656.879127,74.020594
5661.221005,518.144159,-8963.317327,-370.102971
5661.221329,296.082377,-8580.269578,0.000000
5661.221654,148.041188,-8810.098227,0.000000
5661.221978,148.041188,-8503.660028,0.000000
5661.222302,148.041188,-8503.660028,0.000000
5661.222627,444.123565,-8733.488677,-296.082377
5661.222951,518.144159,-8427.050478,-222.061783
5661.223275,444.123565,-8503.660028,-296.082377
5661.223600,296.082377,-8733.488677,-370.102971
5661.223924,888.247130,-8810.098227,-592.164754
5661.224248,444.123565,-8886.707777,-222.061783
5661.224573,148.041188,-8580.269578,-666.185348
5661.224897,518.144159,-8656.879127,-518.144159
5661.225221,592.164754,-9116.536426,-444.123565
5661.225545,666.185348,-8197.221829,0.000000
5661.225870,444.123565,-8656.879127,-592.164754
5661.226194,148.041188,-8580.269578,-222.061783
5661.226518,296.082377,-8503.660028,-370.102971
5661.226843,370.102971,-8350.440928,-370.102971
5661.227167,296.082377,-8733.488677,-370.102971
5661.227491,296.082377,-8427.050478,74.020594
5661.227816,370.102971,-8733.488677,0.000000
5661.228140,740.205942,-8810.098227,-370.102971
5661.228464,444.123565,-8503.660028,-296.082377
5661.228789,518.144159,-8580.269578,0.000000
5661.229113,518.144159,-8350.440928,-296.082377
5661.229437,444.123565,-8580.269578,-444.123565
5661.229762,444.123565,-8810.098227,0.000000
5661.230086,296.082377,-8733.488677,0.000000
5661.230410,296.082377,-8733.488677,0.000000
5661.230735,222.061783,-8427.050478,0.000000
5661.231059,666.185348,-8580.269578,0.000000
5661.231383,370.102971,-8580.269578,-296.082377
5661.231707,370.102971,-8503.660028,-592.164754
5661.232032,444.123565,-8656.879127,-296.082377
5661.232356,1110.308913,-8273.831378,-148.041188
5661.232680,148.041188,-8350.440928,-518.144159
5661.233005,370.102971,-8580.269578,-666.185348
5661.233329,518.144159,-8580.269578,-518.144159
5661.233653,518.144159,-8810.098227,-296.082377
5661.233978,370.102971,-8503.660028,-666.185348
5661.234302,0.000000,-8733.488677,-444.123565
5661.234626,666.185348,-8580.269578,-740.205942
5661.234951,222.061783,-8350.440928,-518.144159
5661.235275,296.082377,-8656.879127,-296.082377
5661.235599,148.041188,-8427.050478,-370.102971
5661.235924,444.123565,-8580.269578,0.000000
5661.236248,296.082377,-8427.050478,-370.102971
5661.236572,518.144159,-8273.831378,0.000000
5661.236896,370.102971,-8580.269578,-222.061783
5661.237221,518.144159,-8963.317327,-370.102971
5661.237545,296.082377,-8656.879127,-148.041188
5661.237869,444.123565,-8733.488677,0.000000
5661.238194,444.123565,-8733.488677,0.000000
5661.238518,444.123565,-8427.050478,-222.061783
5661.238842,296.082377,-8656.879127,0.000000
5661.239167,222.061783,-8350.440928,0.000000
5661.239491,370.102971,-8427.050478,296.082377
5661.239815,296.082377,-8733.488677,-370.102971
5661.240140,296.082377,-8503.660028,0.000000
5661.240464,518.144159,-8503.660028,-222.061783
5661.240788,888.247130,-9039.926876,0.000000
5661.241113,222.061783,-8503.660028,-444.123565
5661.241437,666.185348,-8963.317327,0.000000
5661.241761,518.144159,-8350.440928,-592.164754
5661.242086,518.144159,-8580.269578,-592.164754
5661.242410,370.102971,-8350.440928,-518.144159
5661.242734,444.123565,-8503.660028,0.000000
5661.243058,74.020594,-8350.440928,-518.144159
5661.243383,222.061783,-8503.660028,-370.102971
5661.243707,444.123565,-8273.831378,148.041188
5661.244031,370.102971,-8427.050478,-222.061783
5661.244356,814.226536,-8580.269578,-370.102971
5661.244680,148.041188,-8580.269578,0.000000
5661.245004,888.247130,-8197.221829,0.000000
5661.245328,296.082377,-8580.269578,-296.082377
5661.245653,666.185348,-8810.098227,-222.061783
5661.245977,444.123565,-8963.317327,0.000000
5661.246301,370.102971,-8350.440928,-148.041188
5661.246626,74.020594,-8656.879127,-296.082377
5661.246950,222.061783,-8963.317327,74.020594
5661.247274,370.102971,-8656.879127,-222.061783
5661.247599,296.082377,-8580.269578,-370.102971
5661.247923,444.123565,-8120.612279,-148.041188
5661.248247,370.102971,-8350.440928,0.000000
5661.248571,592.164754,-8427.050478,-444.123565
5661.248896,444.123565,-8503.660028,-444.123565
5661.249220,740.205942,-8580.269578,-296.082377
5661.249544,666.185348,-8656.879127,-666.185348
5661.249869,518.144159,-8503.660028,-592.164754
5661.250193,296.082377,-8580.269578,-666.185348
5661.250517,592.164754,-8656.879127,-666.185348
5661.250841,370.102971,-8810.098227,-592.164754
5661.251166,444.123565,-8886.707777,-666.185348
5661.251490,148.041188,-8503.660028,-444.123565
5661.251814,296.082377,-8427.050478,-518.144159
5661.252139,370.102971,-8273.831378,-740.205942
5661.252463,222.061783,-8350.440928,-370.102971
5661.252787,222.061783,-9346.365076,-370.102971
5661.253112,296.082377,-8503.660028,-370.102971
5661.253436,444.123565,-8350.440928,-296.082377
5661.253760,148.041188,-8427.050478,-592.164754
5661.254084,444.123565,-8580.269578,0.000000
5661.254409,592.164754,-8580.269578,-296.082377
5661.254733,592.164754,-8656.879127,-518.144159
5661.255057,74.020594,-8656.879127,-222.061783
5661.255382,444.123565,-8656.879127,0.000000
5661.255706,222.061783,-8427.050478,-444.123565
5661.256030,296.082377,-8733.488677,-148.041188
5661.256354,444.123565,-8273.831378,-592.164754
5661.256679,370.102971,-8197.221829,-296.082377
5661.257003,222.061783,-8350.440928,-518.144159
5661.257327,444.123565,-8350.440928,-222.061783
5661.257652,740.205942,-8503.660028,-370.102971
5661.257976,592.164754,-8503.660028,-444.123565
5661.258300,444.123565,-8580.269578,-518.144159
5661.258624,444.123565,-8503.660028,-370.102971
5661.258949,518.144159,-8427.050478,-444.123565
5661.259273,888.247130,-8350.440928,-740.205942
5661.259597,518.144159,-8810.098227,-740.205942
5661.259922,592.164754,-8656.879127,-296.082377
5661.260246,518.144159,-8273.831378,-666.185348
5661.260570,444.123565,-8886.707777,-888.247130
5661.260895,444.123565,-8656.879127,-222.061783
5661.261219,592.164754,-8427.050478,-518.144159
5661.261543,444.123565,-8733.488677,-518.144159
5661.261867,518.144159,-8656.879127,-370.102971
5661.262192,74.020594,-8350.440928,0.000000
5661.262516,518.144159,-8350.440928,-74.020594
5661.262840,518.144159,-8503.660028,-296.082377
5661.263165,666.185348,-8810.098227,-296.082377
5661.263489,296.082377,-8580.269578,222.061783
5661.263813,296.082377,-8503.660028,0.000000
5661.264137,148.041188,-8886.707777,0.000000
5661.264462,444.123565,-8580.269578,-296.082377
5661.264786,222.061783,-9116.536426,296.082377
5661.265110,148.041188,-8810.098227,-222.061783
5661.265435,370.102971,-8656.879127,-74.020594
5661.265759,222.061783,-8580.269578,-296.082377
5661.266083,666.185348,-8580.269578,-444.123565
5661.266407,148.041188,-8197.221829,0.000000
5661.266732,518.144159,-8656.879127,-296.082377
5661.267056,518.144159,-8427.050478,-444.123565
5661.267380,296.082377,-8580.269578,-666.185348
5661.267705,148.041188,-8427.050478,0.000000
5661.268029,296.082377,-8886.707777,-592.164754
5661.268353,518.144159,-8656.879127,-592.164754
5661.268678,518.144159,-8656.879127,-518.144159
5661.269002,592.164754,-8656.879127,-518.144159
5661.269326,0.000000,-8580.269578,-444.123565
5661.269650,148.041188,-8427.050478,-518.144159
5661.269975,444.123565,-8656.879127,-370.102971
5661.270299,444.123565,-8810.098227,-444.123565
5661.270623,222.061783,-8273.831378,-296.082377
5661.270948,592.164754,-8503.660028,-296.082377
5661.271272,370.102971,-8427.050478,-296.082377
