#time,accel_x,accel_y,accel_z
4141.053998,148.041188,-8503.660028,-1110.308913
4141.054322,0.000000,-9346.365076,-962.267725
4141.054647,-814.226536,-9499.584175,-1332.370696
4141.054971,-1480.411884,-9882.631924,-1258.350101
4141.055296,-1924.535449,-9652.803275,-1258.350101
4141.055620,-2146.597232,-9576.193725,-1332.370696
4141.055944,-1036.288319,-9499.584175,-1406.391290
4141.056269,0.000000,-8733.488677,-888.247130
4141.056593,74.020594,-8503.660028,-1184.329507
4141.056917,148.041188,-7737.564530,-1406.391290
4141.057242,148.041188,-8503.660028,-666.185348
4141.057566,148.041188,-8044.002729,-1406.391290
4141.057891,-518.144159,-8733.488677,-518.144159
4141.058215,-1406.391290,-8580.269578,-962.267725
4141.058539,-1776.494261,-9422.974625,-592.164754
4141.058864,-2960.823768,-9039.926876,-740.205942
4141.059188,-3256.906145,-10112.460574,0.000000
4141.059513,-3256.906145,-9269.755526,-296.082377
4141.059837,-3108.864956,-9193.145976,0.000000
4141.060161,-2886.803174,-9116.536426,0.000000
4141.060486,-2516.700203,-8503.660028,592.164754
4141.060810,-3034.844362,-8120.612279,148.041188
4141.061135,-3330.926739,-8503.660028,222.061783
4141.061459,-3701.029710,-8580.269578,222.061783
4141.061784,-4367.215058,-8656.879127,518.144159
4141.062108,-4441.235652,-8810.098227,518.144159
4141.062433,-4959.379811,-8427.050478,0.000000
4141.062757,-4663.297435,-9269.755526,296.082377
4141.063082,-4515.256246,-8580.269578,222.061783
4141.063406,-3775.050304,-8810.098227,592.164754
4141.063731,-3627.009116,-8427.050478,444.123565
4141.064055,-2886.803174,-7967.393179,592.164754
4141.064380,-1776.494261,-7814.174080,444.123565
4141.064704,-1776.494261,-7277.907231,888.247130
4141.065029,-1184.329507,-7814.174080,370.102971
4141.065353,-740.205942,-7431.126331,370.102971
4141.065678,-444.123565,-7584.345430,592.164754
4141.066002,-518.144159,-7814.174080,74.020594
4141.066327,-592.164754,-8503.660028,148.041188
4141.066651,-1332.370696,-8120.612279,0.000000
4141.066976,-2516.700203,-8963.317327,0.000000
4141.067300,-2368.659014,-8580.269578,-296.082377
4141.067625,-2664.741391,-8656.879127,-296.082377
4141.067949,-2812.782580,-8810.098227,-296.082377
4141.068274,-2664.741391,-8197.221829,0.000000
4141.068598,-2072.576638,-8350.440928,-148.041188
4141.068923,-1258.350101,-8580.269578,0.000000
4141.069247,-1184.329507,-7354.516781,-592.164754
4141.069572,-814.226536,-8733.488677,-148.041188
4141.069896,0.000000,-8427.050478,-1036.288319
4141.070220,-888.247130,-8580.269578,-444.123565
4141.070545,-962.267725,-8810.098227,-888.247130
4141.070869,-1702.473667,-9193.145976,-888.247130
4141.071194,-1924.535449,-9346.365076,-888.247130
4141.071518,-1480.411884,-10035.851024,-814.226536
4141.071843,-1924.535449,-9269.755526,-592.164754
4141.072167,-1406.391290,-9499.584175,-1258.350101
4141.072492,-1332.370696,-8810.098227,-1258.350101
4141.072816,-666.185348,-8350.440928,-1776.494261
4141.073141,444.123565,-8886.707777,-1332.370696
4141.073465,888.247130,-8273.831378,-1406.391290
4141.073790,1258.350101,-8733.488677,-1554.432478
4141.074114,1776.494261,-8580.269578,-1554.432478
4141.074439,1702.473667,-9346.365076,-888.247130
4141.074763,1554.432478,-9193.145976,-1036.288319
4141.075088,1110.308913,-9806.022374,-666.185348
4141.075412,0.000000,-8963.317327,-1036.288319
4141.075737,0.000000,-9882.631924,-1110.308913
4141.076061,-962.267725,-9039.926876,-1332.370696
4141.076386,-1480.411884,-9039.926876,-1036.288319
4141.076710,-1924.535449,-8656.879127,-1184.329507
4141.077035,-2294.638420,-8273.831378,-1184.329507
4141.077359,-2812.782580,-8273.831378,-1036.288319
4141.077684,-3478.967927,-8197.221829,-1554.432478
4141.078008,-3701.029710,-8503.660028,-592.164754
4141.078333,-3923.091493,-8427.050478,-296.082377
4141.078657,-3701.029710,-8886.707777,74.020594
4141.078982,-3997.112087,-8656.879127,0.000000
4141.079306,-3108.864956,-9576.193725,222.061783
4141.079631,-2812.782580,-8810.098227,-148.041188
4141.079955,-2072.576638,-9193.145976,74.020594
4141.080280,-1776.494261,-8656.879127,370.102971
4141.080604,-1480.411884,-8427.050478,74.020594
4141.080929,-1258.350101,-8044.002729,148.041188
4141.081253,-1258.350101,-8503.660028,0.000000
4141.081578,-222.061783,-8427.050478,0.000000
4141.081902,-666.185348,-8350.440928,444.123565
4141.082227,-148.041188,-8120.612279,370.102971
4141.082551,-222.061783,-8503.660028,148.041188
4141.082876,-888.247130,-8963.317327,518.144159
4141.083200,-1702.473667,-8580.269578,296.082377
4141.083525,-2442.679609,-9422.974625,370.102971
4141.083849,-3256.906145,-8580.269578,222.061783
4141.084174,-3997.112087,-8963.317327,370.102971
4141.084498,-4737.318029,-8044.002729,0.000000
4141.084823,-3923.091493,-8044.002729,518.144159
4141.085147,-2442.679609,-7814.174080,888.247130
4141.085472,-2960.823768,-7431.126331,962.267725
4141.085796,-1406.391290,-7354.516781,1036.288319
4141.086121,-814.226536,-7354.516781,222.061783
4141.086445,-444.123565,-8427.050478,444.123565
4141.086770,-296.082377,-7967.393179,592.164754
4141.087094,-296.082377,-9116.536426,370.102971
4141.087419,-518.144159,-8963.317327,148.041188
4141.087743,-1110.308913,-8963.317327,-148.041188
4141.088068,-1776.494261,-9422.974625,-740.205942
4141.088392,-2146.597232,-8886.707777,-814.226536
4141.088717,-2590.720797,-9499.584175,-1184.329507
4141.089041,-4441.235652,-8810.098227,-1184.329507
4141.089366,-4515.256246,-8197.221829,-1184.329507
4141.089690,-3923.091493,-7890.783629,-1036.288319
4141.090015,-3330.926739,-7584.345430,-962.267725
4141.090339,-1776.494261,-7584.345430,-962.267725
4141.090664,444.123565,-8044.002729,-666.185348
4141.090988,1258.350101,-7201.297681,-814.226536
4141.091313,3034.844362,-8503.660028,-962.267725
4141.091637,3182.885551,-8580.269578,-814.226536
4141.091961,3256.906145,-9576.193725,-666.185348
4141.092286,2960.823768,-9576.193725,-1332.370696
4141.092610,962.267725,-9959.241474,-1110.308913
4141.092935,-1924.535449,-9806.022374,-888.247130
4141.093259,-3330.926739,-9806.022374,-1036.288319
4141.093584,-4515.256246,-8963.317327,-1406.391290
4141.093908,-4219.173869,-9039.926876,-1110.308913
4141.094233,-2368.659014,-8810.098227,-1406.391290
4141.094557,-2368.659014,-8963.317327,-1702.473667
4141.094882,518.144159,-8656.879127,-1332.370696
4141.095206,2294.638420,-8810.098227,-1110.308913
4141.095531,4071.132681,-8886.707777,-1036.288319
4141.095855,3923.091493,-9422.974625,370.102971
4141.096180,3034.844362,-9882.631924,0.000000
4141.096504,1554.432478,-9806.022374,-888.247130
4141.096829,-222.061783,-9959.241474,-444.123565
4141.097153,-3182.885551,-10189.070123,0.000000
4141.097478,-6143.709319,-8656.879127,-444.123565
4141.097802,-6143.709319,-8197.221829,-296.082377
4141.098127,-6513.812290,-7584.345430,0.000000
4141.098451,-5033.400406,-6588.421283,-962.267725
4141.098776,-1036.288319,-6205.373534,-148.041188
4141.099100,2738.761985,-6281.983084,-444.123565
4141.099425,5995.668130,-7737.564530,-296.082377
4141.099749,8882.471304,-7814.174080,-666.185348
4141.100074,8364.327145,-9193.145976,444.123565
4141.100398,7328.038826,-9116.536426,0.000000
4141.100723,4293.194464,-10495.508323,-518.144159
4141.101047,-296.082377,-11031.775171,74.020594
4141.101372,-4737.318029,-9499.584175,444.123565
4141.101696,-7772.162391,-9346.365076,962.267725
4141.102021,-7698.141797,-8120.612279,222.061783
4141.102345,-6291.750507,-6818.249932,888.247130
4141.102670,-1924.535449,-6358.592633,222.061783
4141.102994,2516.700203,-5286.058936,0.000000
4141.103319,7476.080014,-5975.544884,296.082377
4141.103643,11325.150913,-5898.935335,444.123565
4141.103968,12213.398043,-7124.688131,1258.350101
4141.104292,11177.109724,-8656.879127,1258.350101
4141.104617,6957.935855,-10342.289223,1850.514855
4141.104941,1998.556043,-11261.603821,0.000000
4141.105266,-3478.967927,-11721.261119,-296.082377
4141.105590,-9548.656652,-10189.070123,-518.144159
4141.105915,-12139.377449,-10035.851024,-518.144159
4141.106239,-12731.542202,-9039.926876,-666.185348
4141.106564,-9770.718434,-7354.516781,-74.020594
4141.106888,-5107.421000,-5286.058936,-1332.370696
4141.107213,2442.679609,-5286.058936,-888.247130
4141.107537,7179.997637,-5669.106685,-370.102971
4141.107862,13249.686362,-6052.154434,0.000000
4141.108186,14952.160028,-8120.612279,666.185348
4141.108511,12657.521608,-9116.536426,592.164754
4141.108835,8734.430116,-12257.527968,444.123565
4141.109160,3034.844362,-11797.870669,-1332.370696
4141.109484,-4589.276840,-12257.527968,-370.102971
4141.109809,-11029.068536,-11338.213370,-1110.308913
4141.110133,-13323.706956,-10801.946522,-370.102971
4141.110458,-11843.295072,-7967.393179,0.000000
4141.110782,-7105.977043,-6971.469032,-370.102971
4141.111107,-592.164754,-5439.278036,-1036.288319
4141.111431,5773.606348,-5209.449386,-518.144159
4141.111756,11399.171507,-5439.278036,-1480.411884
4141.112080,14359.995275,-8120.612279,-370.102971
4141.112405,13101.645173,-9193.145976,-444.123565
4141.112729,9252.574275,-10955.165621,0.000000
4141.113053,3552.988522,-12257.527968,-814.226536
4141.113378,-3330.926739,-13942.938064,-1406.391290
4141.113702,-9622.677246,-12870.404366,-1924.535449
4141.114027,-13693.809927,-11338.213370,-1406.391290
4141.114351,-14211.954086,-9346.365076,-740.205942
4141.114676,-11843.295072,-7277.907231,-296.082377
4141.115000,-6957.935855,-5286.058936,0.000000
4141.115325,0.000000,-3907.087040,-296.082377
4141.115649,6439.791695,-3753.867940,-814.226536
4141.115974,12287.418637,-5362.668486,-814.226536
4141.116298,14211.954086,-7890.783629,-518.144159
4141.116623,12509.480420,-8886.707777,222.061783
4141.116947,8142.265362,-11031.775171,222.061783
4141.117272,2072.576638,-12793.794817,-370.102971
4141.117596,-5181.441594,-13789.718964,-1332.370696
4141.117921,-9992.780217,-12793.794817,-1184.329507
4141.118245,-14285.974681,-9959.241474,-296.082377
4141.118570,-12435.459826,-8197.221829,0.000000
4141.118894,-8586.388927,-5362.668486,0.000000
4141.119219,-1702.473667,-4903.011187,444.123565
4141.119543,5995.668130,-2987.772442,0.000000
4141.119868,11177.109724,-4136.915689,0.000000
4141.120192,16950.716072,-5286.058936,0.000000
4141.120517,15914.427753,-7277.907231,148.041188
4141.120841,12065.356855,-9959.241474,666.185348
4141.121166,5995.668130,-11874.480219,444.123565
4141.121490,-1702.473667,-13866.328514,-222.061783
4141.121815,-7550.100608,-13942.938064,-1406.391290
4141.122139,-13175.665768,-11644.651570,-518.144159
4141.122464,-14582.057057,-9806.022374,592.164754
4141.122788,-13323.706956,-6818.249932,444.123565
4141.123113,-7328.038826,-5439.278036,518.144159
4141.123437,-1184.329507,-2911.162892,518.144159
4141.123762,5477.523971,-3064.381992,0.000000
4141.124086,13397.727550,-4519.963438,-814.226536
4141.124411,16062.468941,-6052.154434,-1036.288319
4141.124735,14434.015869,-8810.098227,148.041188
4141.125060,10214.842000,-11031.775171,74.020594
4141.125384,2960.823768,-13942.938064,-370.102971
4141.125709,-4219.173869,-14402.595362,-1036.288319
4141.126033,-10807.006753,-14019.547613,-814.226536
4141.126358,-15100.201217,-11414.822920,-666.185348
4141.126682,-14285.974681,-8886.707777,-444.123565
4141.127007,-8882.471304,-6511.811733,-666.185348
4141.127331,-2664.741391,-4979.620737,-444.123565
4141.127656,4737.318029,-2834.553343,0.000000
4141.127980,11695.253884,-3677.258390,-518.144159
4141.128305,18357.107362,-4519.963438,-1184.329507
4141.128629,18061.024985,-6741.640382,74.020594
4141.128954,15470.304188,-8963.317327,0.000000
4141.129278,8142.265362,-12947.013916,518.144159
4141.129603,-2368.659014,-15321.909960,-2072.576638
4141.129927,-6587.832884,-17160.539155,-888.247130
4141.130252,-15100.201217,-13023.623466,-1554.432478
4141.130576,-17246.798449,-12563.966167,-740.205942
4141.130901,-14804.118840,-7277.907231,-370.102971
4141.131225,-9474.636058,-6205.373534,222.061783
4141.131550,-2220.617826,-2987.772442,-296.082377
4141.131874,3849.070898,-2528.115143,-1406.391290
4141.132199,12139.377449,-4979.620737,-740.205942
4141.132523,17098.757260,-3447.429741,74.020594
4141.132848,16432.571912,-7584.345430,370.102971
4141.133172,13397.727550,-10878.556072,962.267725
4141.133497,3478.967927,-12104.308868,-1554.432478
4141.133821,-1332.370696,-17083.929605,592.164754
4141.134145,-9548.656652,-14249.376263,-1110.308913
4141.134470,-15396.283594,-12410.747068,-740.205942
4141.134794,-15692.365970,-10878.556072,0.000000
4141.135119,-13175.665768,-6511.811733,370.102971
4141.135443,-4145.153275,-5439.278036,0.000000
4141.135768,2590.720797,-2451.505594,-888.247130
4141.136092,9474.636058,-4060.306139,592.164754
4141.136417,15322.262999,-2451.505594,-1036.288319
4141.136741,18283.086767,-7124.688131,592.164754
4141.137066,16062.468941,-7354.516781,592.164754
4141.137390,10362.883188,-11491.432470,1924.535449
4141.137715,1628.453072,-14019.547613,-222.061783
4141.138039,-5921.647536,-15781.567259,-1406.391290
4141.138364,-12953.603985,-14325.985813,-1110.308913
4141.138688,-16802.674883,-12257.527968,-222.061783
4141.139013,-17098.757260,-7507.735880,0.000000
4141.139337,-11251.130318,-7124.688131,1924.535449
4141.139662,-4589.276840,-2604.724693,-962.267725
4141.139986,4071.132681,-2528.115143,148.041188
4141.140311,9548.656652,-2298.286494,-888.247130
4141.140635,15322.262999,-4136.915689,-370.102971
4141.140960,17098.757260,-7890.783629,888.247130
4141.141284,15026.180623,-7201.297681,1776.494261
4141.141609,5329.482782,-12334.137518,296.082377
4141.141933,-1480.411884,-13483.280765,-1480.411884
4141.142258,-7994.224174,-16011.395908,-296.082377
4141.142582,-15988.448347,-12870.404366,-2960.823768
4141.142907,-17098.757260,-12870.404366,1406.391290
4141.143231,-15692.365970,-5209.449386,-1554.432478
4141.143556,-7476.080014,-7124.688131,2442.679609
4141.143880,-148.041188,-1455.581446,-2220.617826
4141.144205,8290.306550,-4443.353888,-666.185348
4141.144529,14656.077652,-3140.991542,-518.144159
4141.144854,19097.313304,-3753.867940,-1850.514855
4141.145178,18949.272115,-8733.488677,888.247130
4141.145503,13545.768739,-9116.536426,666.185348
4141.145827,4367.215058,-14249.376263,-296.082377
4141.146152,-4885.359217,-14632.424012,-2812.782580
4141.146476,-11547.212695,-15781.567259,-1184.329507
4141.146801,-19245.354492,-14096.157163,-2442.679609
4141.147125,-17838.963202,-11874.480219,74.020594
4141.147450,-14804.118840,-6588.421283,-1110.308913
4141.147774,-9030.512492,-5362.668486,518.144159
4141.148099,-1110.308913,-2451.505594,-1184.329507
4141.148423,10066.800811,-4749.792088,-962.267725
4141.148748,16728.654289,-3983.696590,-2146.597232
4141.149072,19171.333898,-5592.497135,-1554.432478
4141.149397,16876.695478,-9346.365076,1406.391290
4141.149721,11843.295072,-9422.974625,1036.288319
4141.150046,1998.556043,-15015.471761,-1702.473667
4141.150370,-7920.203579,-14172.766713,-3330.926739
4141.150695,-14804.118840,-16317.834107,-296.082377
4141.151019,-20429.683999,-11568.042020,-2516.700203
4141.151344,-15470.304188,-11568.042020,1110.308913
4141.151668,-11843.295072,-4366.744339,-740.205942
4141.151993,-3330.926739,-5822.325785,592.164754
4141.152317,5329.482782,-1302.362347,-1184.329507
4141.152642,13989.892304,-3600.648841,0.000000
4141.152966,19393.395680,-3370.820191,-1258.350101
4141.153291,20059.581028,-6588.421283,0.000000
4141.153615,15322.262999,-9422.974625,1258.350101
4141.153940,9474.636058,-11491.432470,592.164754
4141.154264,-1924.535449,-15245.300410,-1776.494261
4141.154589,-11103.089130,-14709.033562,-1554.432478
4141.154913,-16136.489536,-13713.109414,-962.267725
4141.155237,-18653.189738,-11951.089769,-2072.576638
4141.155562,-17764.942608,-8273.831378,666.185348
4141.155886,-11251.130318,-4519.963438,1628.453072
4141.156211,-4219.173869,-3753.867940,148.041188
4141.156535,10140.821405,-3294.210641,2294.638420
4141.156860,13767.830521,-2834.553343,-2146.597232
4141.157184,18727.210333,-5209.449386,74.020594
4141.157509,19763.498651,-6511.811733,444.123565
4141.157833,15248.242405,-7967.393179,2442.679609
4141.158158,8142.265362,-12180.918418,-296.082377
4141.158482,-2960.823768,-14862.252661,-1702.473667
4141.158807,-14434.015869,-14555.814462,296.082377
4141.159131,-19541.436869,-12027.699319,-2146.597232
4141.159456,-17912.983796,-14709.033562,0.000000
4141.159780,-14359.995275,-4366.744339,444.123565
4141.160105,-5699.585753,-5975.544884,2516.700203
4141.160429,1480.411884,-1991.848295,-1406.391290
4141.160754,11103.089130,-3753.867940,1036.288319
4141.161078,17764.942608,-3600.648841,-1628.453072
4141.161403,21095.869347,-3447.429741,1406.391290
4141.161727,19541.436869,-7967.393179,-148.041188
4141.162051,13249.686362,-8733.488677,2812.782580
4141.162376,0.000000,-11721.261119,-1850.514855
4141.162700,-8956.491898,-17696.806004,-1036.288319
4141.163024,-15914.427753,-14325.985813,-1554.432478
4141.163349,-19615.457463,-15092.081311,-3478.967927
4141.163673,-18431.127956,-11644.651570,888.247130
4141.163997,-14285.974681,-4979.620737,370.102971
4141.164322,-7920.203579,-5132.839837,1702.473667
4141.164646,4589.276840,-2374.896044,0.000000
4141.164971,11991.336260,-4903.011187,-1480.411884
4141.165295,17838.963202,-4136.915689,-1554.432478
4141.165619,21391.951724,-5515.887586,148.041188
4141.165944,14508.036463,-7507.735880,444.123565
4141.166268,12065.356855,-11108.384721,1628.453072
4141.166592,-2516.700203,-13330.061665,-2886.803174
4141.166917,-11473.192101,-16854.100956,-888.247130
4141.167241,-16580.613101,-13253.452115,-1406.391290
4141.167565,-20651.745782,-13636.499864,-3330.926739
4141.167890,-16358.551318,-10495.508323,1406.391290
4141.168214,-10955.047942,-4136.915689,-666.185348
4141.168538,-1036.288319,-6205.373534,888.247130
4141.168863,6883.915261,-612.876398,-1702.473667
4141.169187,16506.592507,-6205.373534,370.102971
4141.169511,20947.828159,-1915.238745,-3478.967927
4141.169836,19467.416275,-7507.735880,592.164754
4141.170160,15248.242405,-8350.440928,370.102971
4141.170484,4663.297435,-11797.870669,-148.041188
4141.170809,-1924.535449,-14709.033562,-1184.329507
4141.171133,-12583.501014,-14862.252661,-2738.761985
4141.171457,-19245.354492,-13559.890315,-2960.823768
4141.171782,-20873.807564,-12563.966167,-814.226536
4141.172106,-15248.242405,-7431.126331,1036.288319
4141.172430,-7994.224174,-5209.449386,2220.617826
4141.172755,370.102971,-2221.676944,0.000000
4141.173079,12287.418637,-4136.915689,1924.535449
4141.173404,15322.262999,-2451.505594,-3849.070898
4141.173728,23094.425390,-5439.278036,222.061783
4141.174052,16580.613101,-5669.106685,-74.020594
4141.174377,12435.459826,-11338.213370,2294.638420
4141.174701,-1998.556043,-12257.527968,-2886.803174
4141.175025,-5995.668130,-16930.710506,666.185348
4141.175350,-13989.892304,-13866.328514,-1184.329507
4141.175674,-20281.642811,-13406.671215,-3478.967927
4141.175998,-18505.148550,-12257.527968,1850.514855
4141.176323,-12953.603985,-3524.039291,-666.185348
4141.176647,-4071.132681,-6435.202183,3330.926739
4141.176971,7328.038826,-766.095498,-1480.411884
4141.177296,14656.077652,-5439.278036,2146.597232
4141.177620,19689.478057,-1378.971896,-3256.906145
4141.177944,20281.642811,-5975.544884,814.226536
4141.178269,17468.860231,-7431.126331,370.102971
4141.178593,9326.594869,-10572.117872,1110.308913
4141.178917,-518.144159,-12717.185267,-1258.350101
4141.179242,-11843.295072,-14785.643111,-814.226536
4141.179566,-17838.963202,-13942.938064,-666.185348
4141.179890,-19985.560434,-13330.061665,-2368.659014
4141.180215,-17098.757260,-9576.193725,1406.391290
4141.180539,-13397.727550,-4903.011187,222.061783
4141.180863,-2960.823768,-4903.011187,1702.473667
4141.181188,7476.080014,-3370.820191,592.164754
4141.181512,15914.427753,-4443.353888,-1332.370696
4141.181837,21910.095883,-2681.334243,-444.123565
4141.182161,20281.642811,-4903.011187,666.185348
4141.182485,15174.221811,-9652.803275,740.205942
4141.182810,8808.450710,-11874.480219,666.185348
4141.183134,-2590.720797,-15092.081311,-1702.473667
4141.183458,-11991.336260,-14709.033562,-2664.741391
4141.183783,-19911.539840,-11721.261119,296.082377
4141.184107,-20799.786970,-11797.870669,-666.185348
4141.184431,-14952.160028,-8810.098227,0.000000
4141.184756,-7402.059420,-4366.744339,296.082377
4141.185080,2146.597232,-4826.401637,-666.185348
4141.185404,10362.883188,-3370.820191,-1110.308913
4141.185729,16654.633695,-4903.011187,-1924.535449
4141.186053,19393.395680,-6205.373534,-962.267725
4141.186377,18949.272115,-5898.935335,296.082377
4141.186702,10732.986159,-10801.946522,1628.453072
4141.187026,4515.256246,-12334.137518,-962.267725
4141.187350,-9400.615463,-14096.157163,-3330.926739
4141.187675,-15914.427753,-16930.710506,-962.267725
4141.187999,-18431.127956,-12027.699319,-1776.494261
4141.188323,-18209.066173,-11491.432470,296.082377
4141.188648,-13471.748144,-7124.688131,814.226536
4141.188972,-6587.832884,-3907.087040,814.226536
4141.189297,3997.112087,-3983.696590,-148.041188
4141.189621,10214.842000,-3983.696590,-814.226536
4141.189945,18209.066173,-6741.640382,0.000000
4141.190270,19763.498651,-4519.963438,-888.247130
4141.190594,16654.633695,-8810.098227,2072.576638
4141.190918,10658.965565,-8120.612279,0.000000
4141.191243,-2590.720797,-14938.862211,-888.247130
4141.191567,-9400.615463,-15398.519510,-2072.576638
4141.191891,-15988.448347,-14172.766713,-518.144159
4141.192216,-19097.313304,-12563.966167,-2368.659014
4141.192540,-17394.839637,-8886.707777,1036.288319
4141.192864,-10510.924376,-4596.572988,-592.164754
4141.193189,-962.267725,-5592.497135,1406.391290
4141.193513,6661.853478,-1532.190996,-1110.308913
4141.193837,15988.448347,-6435.202183,-148.041188
4141.194162,19763.498651,-3600.648841,-814.226536
4141.194486,21021.848753,-6971.469032,-740.205942
4141.194810,15914.427753,-9116.536426,1628.453072
4141.195135,4811.338623,-8886.707777,-1110.308913
4141.195459,-2442.679609,-17160.539155,962.267725
4141.195783,-12287.418637,-12410.747068,-2738.761985
4141.196108,-17542.880825,-14862.252661,-1554.432478
4141.196432,-19837.519246,-11797.870669,-1554.432478
4141.196756,-16580.613101,-7507.735880,1332.370696
4141.197081,-8660.409521,-4903.011187,1406.391290
4141.197405,962.267725,-3140.991542,370.102971
4141.197730,12731.542202,-4443.353888,1184.329507
4141.198054,14434.015869,-3983.696590,-2072.576638
4141.198378,19689.478057,-5286.058936,666.185348
4141.198703,18061.024985,-7737.564530,-444.123565
4141.199027,12139.377449,-8810.098227,888.247130
4141.199351,1184.329507,-12487.356617,-444.123565
4141.199676,-8882.471304,-14862.252661,-1480.411884
4141.200000,-17172.777854,-15168.690860,-444.123565
4141.200324,-19689.478057,-12870.404366,-3923.091493
4141.200649,-17098.757260,-12104.308868,2886.803174
4141.200973,-12953.603985,-3983.696590,-1110.308913
4141.201297,-3478.967927,-7124.688131,3478.967927
4141.201622,5773.606348,-1302.362347,-2072.576638
4141.201946,15988.448347,-5975.544884,888.247130
4141.202270,21243.910535,-2451.505594,-1850.514855
4141.202595,21539.992912,-5439.278036,444.123565
4141.202919,16136.489536,-8963.317327,666.185348
4141.203243,9474.636058,-9116.536426,-2072.576638
4141.203568,-1480.411884,-16241.224558,814.226536
4141.203892,-14952.160028,-11951.089769,-4071.132681
4141.204216,-19467.416275,-16471.053207,-444.123565
4141.204541,-20799.786970,-11414.822920,-4145.153275
4141.204865,-16580.613101,-10572.117872,2664.741391
4141.205189,-11843.295072,-4903.011187,74.020594
4141.205514,-3330.926739,-4366.744339,1184.329507
4141.205838,9400.615463,-4136.915689,1406.391290
4141.206163,17912.983796,-2681.334243,-2886.803174
4141.206487,19319.375086,-5439.278036,-666.185348
4141.206811,19911.539840,-6435.202183,-740.205942
4141.207136,15840.407159,-9576.193725,2516.700203
4141.207460,7105.977043,-10418.898773,-1258.350101
4141.207784,-7698.141797,-14096.157163,-1110.308913
4141.208109,-17542.880825,-14325.985813,-1850.514855
4141.208433,-18875.251521,-14402.595362,-74.020594
4141.208757,-18283.086767,-12027.699319,-1184.329507
4141.209082,-13249.686362,-7890.783629,1702.473667
4141.209406,-6513.812290,-4519.963438,444.123565
4141.209730,3849.070898,-4136.915689,-1036.288319
4141.210055,13027.624579,-4903.011187,0.000000
4141.210379,19171.333898,-4060.306139,-3182.885551
4141.210703,20873.807564,-5669.106685,444.123565
4141.211028,18801.230927,-6588.421283,-740.205942
4141.211352,11917.315666,-9959.241474,1998.556043
4141.211676,1628.453072,-11874.480219,-1258.350101
4141.212001,-7254.018232,-16394.443657,-518.144159
4141.212325,-17542.880825,-13866.328514,-1998.556043
4141.212649,-19985.560434,-12563.966167,-962.267725
4141.212974,-18505.148550,-9729.412825,1628.453072
4141.213298,-12731.542202,-5822.325785,1480.411884
4141.213622,-3627.009116,-4826.401637,1480.411884
4141.213947,3775.050304,-2451.505594,0.000000
4141.214271,15248.242405,-5286.058936,444.123565
4141.214596,19393.395680,-2987.772442,-2516.700203
4141.214920,20133.601622,-7277.907231,962.267725
4141.215244,16506.592507,-6052.154434,1110.308913
4141.215569,9474.636058,-11491.432470,1406.391290
4141.215893,-4737.318029,-12487.356617,-2516.700203
4141.216217,-11695.253884,-16011.395908,-592.164754
4141.216542,-17542.880825,-14709.033562,-1110.308913
4141.216866,-19689.478057,-11568.042020,-740.205942
4141.217190,-16210.510130,-8120.612279,814.226536
4141.217515,-9622.677246,-5209.449386,444.123565
4141.217839,1776.494261,-4519.963438,888.247130
4141.218163,8660.409521,-2374.896044,-1850.514855
4141.218488,15988.448347,-6435.202183,-296.082377
4141.218812,21021.848753,-2145.067394,-1924.535449
4141.219136,19245.354492,-8044.002729,962.267725
4141.219461,14211.954086,-8044.002729,740.205942
4141.219785,3552.988522,-12257.527968,-888.247130
4141.220109,-4219.173869,-14862.252661,-666.185348
4141.220434,-13619.789333,-14785.643111,-1332.370696
4141.220758,-18505.148550,-13866.328514,-2368.659014
4141.221082,-19763.498651,-11644.651570,148.041188
4141.221407,-16580.613101,-6894.859482,-222.061783
4141.221731,-6883.915261,-5822.325785,1702.473667
4141.222055,-1480.411884,-2068.457845,-888.247130
4141.222380,11843.295072,-5286.058936,1850.514855
4141.222704,17690.922014,-2451.505594,-3034.844362
4141.223029,19097.313304,-6818.249932,-222.061783
4141.223353,17024.736666,-7048.078582,-222.061783
4141.223677,10807.006753,-10801.946522,888.247130
4141.224002,1554.432478,-13330.061665,-2368.659014
4141.224326,-6883.915261,-15628.348159,-814.226536
4141.224650,-16284.530724,-14325.985813,-518.144159
4141.224975,-19245.354492,-11874.480219,-1480.411884
4141.225299,-15914.427753,-11031.775171,0.000000
4141.225623,-12139.377449,-5745.716235,0.000000
4141.225948,-2072.576638,-5132.839837,1406.391290
4141.226272,5107.421000,-1302.362347,-1480.411884
4141.226596,12731.542202,-6741.640382,296.082377
4141.226921,19467.416275,-3370.820191,-2220.617826
4141.227245,19097.313304,-6971.469032,-592.164754
4141.227569,16062.468941,-8963.317327,222.061783
4141.227894,9104.533087,-10878.556072,-1110.308913
4141.228218,-1554.432478,-14632.424012,-1850.514855
4141.228542,-12731.542202,-14325.985813,-1184.329507
4141.228867,-17468.860231,-13406.671215,-962.267725
4141.229191,-18505.148550,-10955.165621,-962.267725
4141.229515,-16358.551318,-7660.954980,740.205942
4141.229840,-10066.800811,-4979.620737,518.144159
4141.230164,-2664.741391,-3677.258390,592.164754
4141.230488,9104.533087,-5132.839837,1110.308913
4141.230813,15840.407159,-4903.011187,-2664.741391
4141.231137,19763.498651,-4903.011187,-518.144159
4141.231462,18875.251521,-6281.983084,222.061783
4141.231786,14211.954086,-8503.660028,444.123565
4141.232110,7179.997637,-12640.575717,-222.061783
4141.232435,-4959.379811,-12717.185267,-2072.576638
4141.232759,-15322.262999,-14938.862211,0.000000
4141.233083,-17987.004391,-12257.527968,-2146.597232
4141.233408,-16802.674883,-13023.623466,1036.288319
4141.233732,-12731.542202,-6205.373534,-370.102971
4141.234056,-6217.729913,-5209.449386,888.247130
4141.234381,370.102971,-2681.334243,-1258.350101
4141.234705,13027.624579,-6128.763984,2368.659014
4141.235029,17912.983796,-4060.306139,-2442.679609
4141.235354,20281.642811,-5132.839837,-592.164754
4141.235678,17024.736666,-8427.050478,1110.308913
4141.236002,12065.356855,-8044.002729,-740.205942
4141.236327,3108.864956,-13866.328514,444.123565
4141.236651,-5995.668130,-12870.404366,-2072.576638
4141.236975,-16950.716072,-14709.033562,-370.102971
4141.237300,-19689.478057,-11797.870669,-1628.453072
4141.237624,-16802.674883,-11261.603821,1406.391290
4141.237948,-13175.665768,-4903.011187,-962.267725
4141.238273,-4811.338623,-5745.716235,370.102971
4141.238597,5255.462188,-3677.258390,1998.556043
4141.238922,14730.098246,-5439.278036,-1258.350101
4141.239246,17098.757260,-4979.620737,-1554.432478
4141.239570,18653.189738,-6281.983084,148.041188
4141.239895,14211.954086,-8273.831378,962.267725
4141.240219,9622.677246,-11338.213370,0.000000
4141.240543,-1110.308913,-14172.766713,-1776.494261
4141.240868,-10140.821405,-14249.376263,-888.247130
4141.241192,-18357.107362,-12487.356617,-518.144159
4141.241516,-18949.272115,-12180.918418,-1258.350101
4141.241841,-14804.118840,-8886.707777,592.164754
4141.242165,-9400.615463,-5209.449386,444.123565
4141.242489,-1332.370696,-5439.278036,-222.061783
4141.242814,8882.471304,-3830.477490,592.164754
4141.243138,14656.077652,-5592.497135,-1036.288319
4141.243462,19393.395680,-6128.763984,-1480.411884
4141.243787,18505.148550,-6358.592633,74.020594
4141.244111,14063.912898,-9729.412825,296.082377
4141.244435,6883.915261,-12334.137518,-518.144159
4141.244760,-1776.494261,-12563.966167,-2368.659014
4141.245084,-10658.965565,-15015.471761,-1850.514855
4141.245408,-18579.169144,-11184.994271,74.020594
4141.245733,-20281.642811,-9269.755526,1702.473667
4141.246057,-16062.468941,-8350.440928,-370.102971
4141.246381,-9474.636058,-4749.792088,962.267725
4141.246706,-518.144159,-3830.477490,666.185348
4141.247030,8586.388927,-5362.668486,-296.082377
4141.247355,16654.633695,-5745.716235,-2146.597232
4141.247679,19763.498651,-7660.954980,444.123565
4141.248003,16358.551318,-5286.058936,296.082377
4141.248328,12213.398043,-10648.727422,1258.350101
4141.248652,1924.535449,-11338.213370,-1480.411884
4141.248976,-4367.215058,-14632.424012,-1850.514855
4141.249301,-12509.480420,-12257.527968,-740.205942
4141.249625,-20799.786970,-11338.213370,-814.226536
4141.249949,-16950.716072,-10648.727422,1332.370696
4141.250274,-12953.603985,-5822.325785,-444.123565
4141.250598,-6439.791695,-5439.278036,518.144159
4141.250922,4811.338623,-4136.915689,-1332.370696
4141.251247,14211.954086,-6665.030833,-592.164754
4141.251571,17616.901420,-4136.915689,-1480.411884
4141.251895,21688.034101,-6128.763984,-962.267725
4141.252220,16802.674883,-7737.564530,444.123565
4141.252544,9030.512492,-10035.851024,296.082377
4141.252868,3034.844362,-13023.623466,-518.144159
4141.253193,-10510.924376,-12410.747068,-4663.297435
4141.253517,-16062.468941,-13713.109414,-296.082377
4141.253841,-19541.436869,-9269.755526,-1036.288319
4141.254166,-17320.819043,-10878.556072,888.247130
4141.254490,-12879.583391,-4673.182538,-814.226536
4141.254814,-5995.668130,-4596.572988,740.205942
4141.255139,6513.812290,-5592.497135,1924.535449
4141.255463,16358.551318,-4749.792088,-2368.659014
4141.255788,18949.272115,-7354.516781,-814.226536
4141.256112,20133.601622,-7201.297681,-814.226536
4141.256436,11843.295072,-8120.612279,1480.411884
4141.256761,8586.388927,-11491.432470,-888.247130
4141.257085,0.000000,-13636.499864,-1776.494261
4141.257409,-11251.130318,-12104.308868,-1480.411884
4141.257734,-18949.272115,-10725.336972,-370.102971
4141.258058,-18505.148550,-11568.042020,-1110.308913
4141.258382,-14211.954086,-8963.317327,222.061783
4141.258707,-7254.018232,-4596.572988,444.123565
4141.259031,740.205942,-4443.353888,-370.102971
4141.259355,9104.533087,-5439.278036,1406.391290
4141.259680,18283.086767,-6665.030833,-1628.453072
4141.260004,21688.034101,-6741.640382,-2072.576638
4141.260328,18209.066173,-8350.440928,0.000000
4141.260653,10955.047942,-9806.022374,-666.185348
4141.260977,3182.885551,-11491.432470,296.082377
4141.261301,-6217.729913,-12410.747068,-2442.679609
4141.261626,-13471.748144,-13483.280765,-1406.391290
4141.261950,-18949.272115,-9422.974625,-1258.350101
4141.262274,-18061.024985,-10572.117872,-296.082377
4141.262599,-13175.665768,-7814.174080,-370.102971
4141.262923,-8586.388927,-3983.696590,370.102971
4141.263247,4293.194464,-6665.030833,3182.885551
4141.263572,13027.624579,-4060.306139,-518.144159
4141.263896,17690.922014,-7277.907231,-1036.288319
4141.264220,19837.519246,-6971.469032,-592.164754
4141.264545,14508.036463,-7431.126331,-296.082377
4141.264869,8882.471304,-12334.137518,0.000000
4141.265193,1184.329507,-12563.966167,-814.226536
4141.265517,-10140.821405,-12410.747068,-2220.617826
4141.265842,-17172.777854,-11721.261119,148.041188
4141.266166,-19467.416275,-10035.851024,-2220.617826
4141.266490,-14508.036463,-10572.117872,518.144159
4141.266815,-10066.800811,-4596.572988,518.144159
4141.267139,-3701.029710,-5669.106685,1332.370696
4141.267463,7624.121203,-3983.696590,2516.700203
4141.267788,16062.468941,-5209.449386,-1702.473667
4141.268112,19985.560434,-8886.707777,-1406.391290
4141.268436,18653.189738,-4903.011187,-1332.370696
4141.268761,12805.562797,-10725.336972,1036.288319
4141.269085,6217.729913,-10035.851024,-1480.411884
4141.269409,-3849.070898,-13406.671215,-148.041188
4141.269733,-11917.315666,-13559.890315,-2220.617826
4141.270058,-17838.963202,-11108.384721,-740.205942
4141.270382,-19245.354492,-9422.974625,-1184.329507
4141.270706,-15174.221811,-8656.879127,1184.329507
4141.271031,-9844.739029,-4290.134789,1332.370696
4141.271355,2220.617826,-6205.373534,2812.782580
4141.271679,10066.800811,-4290.134789,740.205942
4141.272004,17468.860231,-6894.859482,-1924.535449
4141.272328,19467.416275,-7201.297681,-1480.411884
4141.272652,17098.757260,-7354.516781,-814.226536
4141.272977,11843.295072,-10495.508323,0.000000
4141.273301,2664.741391,-12563.966167,0.000000
4141.273625,-6291.750507,-12410.747068,-1924.535449
4141.273949,-14878.139434,-12257.527968,-296.082377
4141.274274,-19319.375086,-10342.289223,-1628.453072
4141.274598,-17764.942608,-10801.946522,518.144159
4141.274922,-11695.253884,-5669.106685,-592.164754
4141.275247,-4811.338623,-5515.887586,1776.494261
4141.275571,8290.306550,-4979.620737,814.226536
4141.275895,13915.871710,-5669.106685,-296.082377
4141.276220,18875.251521,-7431.126331,-1850.514855
4141.276544,20355.663405,-7124.688131,-1628.453072
4141.276868,14211.954086,-9039.926876,-592.164754
4141.277193,7772.162391,-11874.480219,0.000000
4141.277517,1628.453072,-11874.480219,-518.144159
4141.277841,-10732.986159,-12487.356617,-2220.617826
4141.278165,-16876.695478,-11338.213370,-962.267725
4141.278490,-19171.333898,-10572.117872,-740.205942
4141.278814,-17468.860231,-9346.365076,-1036.288319
4141.279138,-11695.253884,-5975.544884,74.020594
4141.279463,-2220.617826,-4826.401637,1036.288319
4141.279787,5921.647536,-5056.230287,444.123565
4141.280111,16506.592507,-6052.154434,222.061783
4141.280436,20651.745782,-6741.640382,-1480.411884
4141.280760,15618.345376,-7890.783629,-740.205942
4141.281084,16506.592507,-10418.898773,74.020594
4141.281409,4737.318029,-10265.679673,-1184.329507
4141.281733,-2368.659014,-12717.185267,666.185348
4141.282057,-13175.665768,-10112.460574,-2072.576638
4141.282381,-19541.436869,-12104.308868,148.041188
4141.282706,-16728.654289,-10418.898773,-444.123565
4141.283030,-13619.789333,-7507.735880,-1702.473667
4141.283354,-6143.709319,-6665.030833,814.226536
4141.283679,222.061783,-3294.210641,-444.123565
4141.284003,10436.903782,-6435.202183,2146.597232
4141.284327,17320.819043,-6128.763984,-1110.308913
4141.284652,19837.519246,-7584.345430,-1702.473667
4141.284976,17616.901420,-7354.516781,0.000000
4141.285300,11695.253884,-10418.898773,-1036.288319
4141.285625,2368.659014,-11874.480219,-1110.308913
4141.285949,-5625.565159,-12487.356617,-370.102971
4141.286273,-14656.077652,-11338.213370,-592.164754
4141.286597,-18505.148550,-10342.289223,148.041188
4141.286922,-18283.086767,-9039.926876,-740.205942
4141.287246,-13323.706956,-7890.783629,0.000000
4141.287570,-5699.585753,-3830.477490,1258.350101
4141.287895,2146.597232,-5439.278036,2072.576638
4141.288219,14063.912898,-4979.620737,0.000000
4141.288543,18727.210333,-5515.887586,-592.164754
4141.288868,19171.333898,-7277.907231,-1036.288319
4141.289192,14434.015869,-8810.098227,518.144159
4141.289516,9548.656652,-11261.603821,-888.247130
4141.289841,592.164754,-13100.233016,-518.144159
4141.290165,-9844.739029,-12027.699319,-1850.514855
4141.290489,-17320.819043,-12640.575717,592.164754
4141.290813,-17320.819043,-9193.145976,-222.061783
4141.291138,-15470.304188,-9346.365076,0.000000
4141.291462,-9844.739029,-6052.154434,-962.267725
4141.291786,-1776.494261,-4366.744339,2516.700203
4141.292111,7254.018232,-3907.087040,1332.370696
4141.292435,17024.736666,-6511.811733,-444.123565
4141.292759,18875.251521,-6818.249932,-2146.597232
4141.293084,17987.004391,-7814.174080,-1184.329507
4141.293408,12509.480420,-10342.289223,0.000000
4141.293732,5995.668130,-11568.042020,-666.185348
4141.294057,-1850.514855,-12563.966167,-666.185348
4141.294381,-11695.253884,-11797.870669,-1406.391290
4141.294705,-17690.922014,-11261.603821,-296.082377
4141.295030,-17838.963202,-9806.022374,-222.061783
4141.295354,-15988.448347,-7660.954980,-592.164754
4141.295678,-9844.739029,-5822.325785,592.164754
4141.296002,666.185348,-5209.449386,2072.576638
4141.296327,9992.780217,-5286.058936,-740.205942
4141.296651,17838.963202,-7354.516781,-1554.432478
4141.296975,18061.024985,-6588.421283,-592.164754
4141.297300,15840.407159,-9116.536426,370.102971
4141.297624,11473.192101,-9346.365076,-444.123565
4141.297948,4441.235652,-13789.718964,296.082377
4141.298273,-7476.080014,-10878.556072,-4589.276840
4141.298597,-10436.903782,-13406.671215,2294.638420
4141.298921,-18209.066173,-8197.221829,-1776.494261
4141.299246,-17320.819043,-11491.432470,1480.411884
4141.299570,-11769.274478,-6971.469032,0.000000
4141.299894,-5181.441594,-5209.449386,888.247130
4141.300218,4293.194464,-4596.572988,888.247130
4141.300543,14656.077652,-5056.230287,0.000000
4141.300867,20503.704593,-7507.735880,-1332.370696
4141.301191,18283.086767,-7431.126331,-1776.494261
4141.301516,13989.892304,-9729.412825,592.164754
4141.301840,6069.688724,-11031.775171,-3627.009116
4141.302164,814.226536,-14632.424012,148.041188
4141.302489,-11103.089130,-9729.412825,-1702.473667
4141.302813,-16876.695478,-12257.527968,-740.205942
4141.303137,-18505.148550,-10035.851024,-592.164754
4141.303462,-16580.613101,-8733.488677,296.082377
4141.303786,-10066.800811,-5898.935335,888.247130
4141.304110,-3404.947333,-3524.039291,592.164754
4141.304434,8882.471304,-5975.544884,888.247130
4141.304759,15618.345376,-4519.963438,-814.226536
4141.305083,19985.560434,-6665.030833,-888.247130
4141.305407,16062.468941,-7048.078582,-1036.288319
4141.305732,12435.459826,-11797.870669,0.000000
4141.306056,4367.215058,-11874.480219,-2516.700203
4141.306380,-4589.276840,-13253.452115,-962.267725
4141.306705,-13989.892304,-11338.213370,-444.123565
4141.307029,-19023.292709,-10648.727422,0.000000
4141.307353,-17764.942608,-10495.508323,-222.061783
4141.307678,-13767.830521,-6971.469032,592.164754
4141.308002,-4145.153275,-5286.058936,518.144159
4141.308326,1702.473667,-4596.572988,1036.288319
4141.308650,14804.118840,-4519.963438,296.082377
4141.308975,18949.272115,-4749.792088,-2516.700203
4141.309299,20577.725188,-7660.954980,-370.102971
4141.309623,17394.839637,-7967.393179,-888.247130
4141.309948,9696.697840,-12487.356617,296.082377
4141.310272,1258.350101,-11031.775171,-1554.432478
4141.310596,-5477.523971,-13253.452115,-2072.576638
4141.310921,-14730.098246,-11797.870669,-1036.288319
4141.311245,-19985.560434,-9422.974625,740.205942
4141.311569,-18727.210333,-8886.707777,444.123565
4141.311894,-14285.974681,-6971.469032,814.226536
4141.312218,-3923.091493,-4213.525239,1258.350101
4141.312542,4737.318029,-5209.449386,370.102971
4141.312866,13693.809927,-5439.278036,-1184.329507
4141.313191,18949.272115,-6128.763984,-1628.453072
4141.313515,17246.798449,-6741.640382,0.000000
4141.313839,13693.809927,-10648.727422,0.000000
4141.314164,7031.956449,-11184.994271,-1110.308913
4141.314488,370.102971,-12793.794817,-222.061783
4141.314812,-9326.594869,-10725.336972,-1480.411884
4141.315137,-16284.530724,-11338.213370,888.247130
4141.315461,-17542.880825,-9806.022374,-148.041188
4141.315785,-14434.015869,-8427.050478,888.247130
4141.316110,-8364.327145,-6128.763984,0.000000
4141.316434,-1776.494261,-5209.449386,962.267725
4141.316758,9474.636058,-4903.011187,1110.308913
4141.317082,16950.716072,-5822.325785,-1998.556043
4141.317407,19763.498651,-7507.735880,-2886.803174
4141.317731,17838.963202,-8503.660028,-740.205942
4141.318055,11769.274478,-9729.412825,0.000000
4141.318380,5551.544565,-12180.918418,-666.185348
4141.318704,-2886.803174,-12717.185267,-592.164754
4141.319028,-12287.418637,-11261.603821,-444.123565
4141.319353,-17838.963202,-10495.508323,518.144159
4141.319677,-18061.024985,-10648.727422,-296.082377
4141.320001,-14730.098246,-8580.269578,370.102971
4141.320326,-9770.718434,-4903.011187,0.000000
4141.320650,3478.967927,-6665.030833,1628.453072
4141.320974,10807.006753,-4290.134789,-814.226536
4141.321298,17690.922014,-7354.516781,-518.144159
4141.321623,16210.510130,-5822.325785,-1702.473667
4141.321947,13915.871710,-9499.584175,592.164754
4141.322271,9622.677246,-11108.384721,-1332.370696
4141.322596,2294.638420,-12640.575717,-222.061783
4141.322920,-7920.203579,-12104.308868,-2294.638420
4141.323244,-14434.015869,-11797.870669,592.164754
4141.323569,-17320.819043,-9729.412825,888.247130
4141.323893,-17246.798449,-9116.536426,0.000000
4141.324217,-10881.027347,-7354.516781,1110.308913
4141.324542,-5255.462188,-4060.306139,-444.123565
4141.324866,6883.915261,-6128.763984,2294.638420
4141.325190,16062.468941,-2604.724693,-2220.617826
4141.325514,19393.395680,-7814.174080,-962.267725
4141.325839,17468.860231,-5822.325785,-1184.329507
4141.326163,13471.748144,-11261.603821,1036.288319
4141.326487,7772.162391,-12180.918418,-2368.659014
4141.326812,-1036.288319,-12257.527968,-592.164754
4141.327136,-11029.068536,-11951.089769,-814.226536
4141.327460,-16210.510130,-10495.508323,296.082377
4141.327785,-17616.901420,-9422.974625,0.000000
4141.328109,-16284.530724,-9729.412825,444.123565
4141.328433,-11399.171507,-5362.668486,-222.061783
4141.328758,-1850.514855,-5515.887586,2072.576638
4141.329082,9252.574275,-3907.087040,0.000000
4141.329406,13767.830521,-4903.011187,-962.267725
4141.329730,19467.416275,-7048.078582,-1406.391290
4141.330055,16062.468941,-7584.345430,-444.123565
4141.330379,11917.315666,-12104.308868,-666.185348
4141.330703,4441.235652,-12180.918418,-1702.473667
4141.331028,-2664.741391,-12947.013916,-1332.370696
4141.331352,-12583.501014,-10342.289223,-1628.453072
4141.331676,-17024.736666,-10189.070123,74.020594
4141.332001,-15988.448347,-10342.289223,-296.082377
4141.332325,-13323.706956,-7660.954980,0.000000
4141.332649,-8068.244768,-5669.106685,666.185348
4141.332974,2516.700203,-4903.011187,1554.432478
4141.333298,11251.130318,-4290.134789,-740.205942
4141.333622,18949.272115,-5515.887586,-1332.370696
4141.333947,18727.210333,-6511.811733,-2146.597232
4141.334271,14656.077652,-9652.803275,-1628.453072
4141.334595,7994.224174,-12487.356617,0.000000
4141.334919,1332.370696,-11951.089769,-1554.432478
4141.335244,-5921.647536,-12947.013916,0.000000
4141.335568,-14359.995275,-10418.898773,-888.247130
4141.335892,-17172.777854,-11031.775171,0.000000
4141.336217,-15988.448347,-7431.126331,0.000000
4141.336541,-12731.542202,-7967.393179,444.123565
4141.336865,-2442.679609,-5209.449386,370.102971
4141.337190,6069.688724,-4290.134789,592.164754
4141.337514,13249.686362,-5745.716235,370.102971
4141.337838,18505.148550,-4136.915689,-1332.370696
4141.338163,16580.613101,-7967.393179,0.000000
4141.338487,12583.501014,-10648.727422,-962.267725
4141.338811,5551.544565,-11414.822920,-1258.350101
4141.339135,-888.247130,-12180.918418,-592.164754
4141.339460,-9030.512492,-11951.089769,74.020594
4141.339784,-14285.974681,-11568.042020,-1628.453072
4141.340108,-16950.716072,-10648.727422,-222.061783
4141.340433,-14878.139434,-7660.954980,296.082377
4141.340757,-8882.471304,-6511.811733,444.123565
4141.341081,814.226536,-4596.572988,1332.370696
4141.341406,11029.068536,-3907.087040,222.061783
4141.341730,18357.107362,-5822.325785,-814.226536
4141.342054,18949.272115,-4673.182538,-2072.576638
4141.342379,15914.427753,-11338.213370,0.000000
4141.342703,10584.944971,-10265.679673,-2960.823768
4141.343027,2590.720797,-12870.404366,888.247130
4141.343351,-4663.297435,-10878.556072,-1554.432478
4141.343676,-13619.789333,-12334.137518,370.102971
4141.344000,-16284.530724,-10112.460574,0.000000
4141.344324,-16654.633695,-9576.193725,1036.288319
4141.344649,-14211.954086,-7277.907231,-1332.370696
4141.344973,-6661.853478,-7201.297681,1850.514855
4141.345297,2368.659014,-4290.134789,222.061783
4141.345622,11695.253884,-5209.449386,592.164754
4141.345946,17838.963202,-4749.792088,-444.123565
4141.346270,15692.365970,-6052.154434,-666.185348
4141.346595,13989.892304,-9422.974625,-592.164754
4141.346919,7328.038826,-12180.918418,-1850.514855
4141.347243,-592.164754,-13330.061665,-1998.556043
4141.347567,-7328.038826,-11951.089769,962.267725
4141.347892,-15766.386565,-10495.508323,-814.226536
4141.348216,-16432.571912,-11184.994271,888.247130
4141.348540,-15026.180623,-7584.345430,592.164754
4141.348865,-10436.903782,-8580.269578,-740.205942
4141.349189,-2738.761985,-4443.353888,1702.473667
4141.349513,5847.626942,-4596.572988,666.185348
4141.349838,14508.036463,-6128.763984,-518.144159
4141.350162,19245.354492,-4443.353888,-814.226536
4141.350486,17468.860231,-8503.660028,-1924.535449
4141.350811,12879.583391,-10035.851024,-1628.453072
4141.351135,5551.544565,-11951.089769,-740.205942
4141.351459,-1702.473667,-13559.890315,-296.082377
4141.351783,-9696.697840,-10878.556072,370.102971
4141.352108,-14878.139434,-11108.384721,0.000000
4141.352432,-17987.004391,-10112.460574,-444.123565
4141.352756,-14582.057057,-7277.907231,-518.144159
4141.353081,-8586.388927,-7660.954980,518.144159
4141.353405,-1480.411884,-4366.744339,518.144159
4141.353729,8586.388927,-4749.792088,518.144159
4141.354054,15396.283594,-5515.887586,-1110.308913
4141.354378,18209.066173,-5822.325785,-1332.370696
4141.354702,16210.510130,-8963.317327,-1628.453072
4141.355027,10362.883188,-12410.747068,-1258.350101
4141.355351,5107.421000,-12104.308868,-2294.638420
4141.355675,-3330.926739,-13100.233016,0.000000
4141.355999,-12805.562797,-11108.384721,0.000000
4141.356324,-17912.983796,-9959.241474,888.247130
4141.356648,-15692.365970,-9346.365076,-592.164754
4141.356972,-13101.645173,-8197.221829,-370.102971
4141.357297,-5551.544565,-4749.792088,-148.041188
4141.357621,3404.947333,-4749.792088,962.267725
4141.357945,12657.521608,-4673.182538,-296.082377
4141.358270,18949.272115,-5822.325785,-1998.556043
4141.358594,17987.004391,-7354.516781,-1480.411884
4141.358918,15544.324782,-9959.241474,0.000000
4141.359243,6809.894666,-11874.480219,-1924.535449
4141.359567,2960.823768,-13713.109414,-296.082377
4141.359891,-6661.853478,-10955.165621,-814.226536
4141.360215,-13767.830521,-11644.651570,296.082377
4141.360540,-17838.963202,-8963.317327,0.000000
4141.360864,-16506.592507,-8886.707777,-814.226536
4141.361188,-11991.336260,-7890.783629,0.000000
4141.361513,-2368.659014,-4290.134789,1480.411884
4141.361837,5181.441594,-4979.620737,222.061783
4141.362161,15914.427753,-5209.449386,-1036.288319
4141.362486,17320.819043,-4749.792088,0.000000
4141.362810,17394.839637,-7584.345430,-1258.350101
4141.363135,12065.356855,-10955.165621,-666.185348
4141.363459,7031.956449,-14019.547613,-1628.453072
4141.363784,0.000000,-13866.328514,-592.164754
4141.364108,-10362.883188,-10955.165621,-666.185348
4141.364433,-16802.674883,-11644.651570,74.020594
4141.364757,-18209.066173,-9193.145976,-592.164754
4141.365082,-15174.221811,-7967.393179,962.267725
4141.365406,-9548.656652,-5822.325785,-370.102971
4141.365730,-222.061783,-3983.696590,2368.659014
4141.366055,10658.965565,-5056.230287,592.164754
4141.366379,18727.210333,-6818.249932,-2812.782580
4141.366704,18431.127956,-6435.202183,-962.267725
4141.367028,16506.592507,-8350.440928,-814.226536
4141.367353,10584.944971,-9959.241474,-370.102971
4141.367677,5255.462188,-13023.623466,444.123565
4141.368002,-3701.029710,-13100.233016,0.000000
4141.368326,-13323.706956,-10189.070123,74.020594
4141.368651,-17394.839637,-9806.022374,814.226536
4141.368975,-18505.148550,-9116.536426,370.102971
4141.369300,-14434.015869,-7507.735880,148.041188
4141.369624,-5773.606348,-5209.449386,1184.329507
4141.369949,2738.761985,-4060.306139,2146.597232
4141.370273,11325.150913,-6588.421283,-740.205942
4141.370598,18283.086767,-5439.278036,-1110.308913
4141.370922,16506.592507,-7277.907231,-518.144159
4141.371246,13249.686362,-10342.289223,-2294.638420
4141.371571,10362.883188,-12717.185267,-296.082377
4141.371895,2220.617826,-13100.233016,-592.164754
4141.372220,-7031.956449,-11491.432470,518.144159
4141.372544,-16284.530724,-9806.022374,-296.082377
4141.372869,-17912.983796,-10265.679673,592.164754
4141.373193,-14359.995275,-8120.612279,1110.308913
4141.373518,-9178.553681,-6588.421283,-666.185348
4141.373842,-2072.576638,-4443.353888,2072.576638
4141.374167,7328.038826,-2757.943793,1480.411884
4141.374491,16210.510130,-6435.202183,-2220.617826
4141.374816,18801.230927,-7201.297681,-2516.700203
4141.375140,16580.613101,-8350.440928,-1258.350101
4141.375465,11473.192101,-11568.042020,-592.164754
4141.375789,6217.729913,-12104.308868,-1332.370696
4141.376114,-2220.617826,-14019.547613,-592.164754
4141.376438,-10510.924376,-9959.241474,-1184.329507
4141.376762,-17468.860231,-10725.336972,-518.144159
4141.377087,-16876.695478,-9039.926876,-370.102971
4141.377411,-15840.407159,-7660.954980,518.144159
4141.377736,-7179.997637,-6435.202183,1554.432478
4141.378060,1998.556043,-3753.867940,740.205942
4141.378385,10510.924376,-5209.449386,0.000000
4141.378709,17394.839637,-7737.564530,-1406.391290
4141.379034,15840.407159,-5592.497135,-1998.556043
4141.379358,15766.386565,-10955.165621,222.061783
4141.379683,9474.636058,-10189.070123,-2812.782580
4141.380007,1924.535449,-14325.985813,-666.185348
4141.380332,-7550.100608,-11644.651570,-1258.350101
4141.380656,-13471.748144,-12104.308868,962.267725
4141.380981,-16654.633695,-10572.117872,-1480.411884
4141.381305,-16062.468941,-9499.584175,1332.370696
4141.381630,-11695.253884,-6435.202183,-1258.350101
4141.381954,-6809.894666,-3753.867940,1776.494261
4141.382278,5847.626942,-4826.401637,2590.720797
4141.382603,16136.489536,-6281.983084,-1998.556043
4141.382927,18949.272115,-8273.831378,-2294.638420
4141.383252,18579.169144,-6741.640382,-2516.700203
4141.383576,12657.521608,-10572.117872,888.247130
4141.383901,7031.956449,-12640.575717,-2294.638420
4141.384225,0.000000,-13559.890315,222.061783
4141.384550,-8882.471304,-10342.289223,-518.144159
4141.384874,-16210.510130,-9806.022374,444.123565
4141.385199,-17616.901420,-9346.365076,-444.123565
4141.385523,-14582.057057,-7890.783629,222.061783
4141.385848,-10436.903782,-4826.401637,296.082377
4141.386172,-1850.514855,-5286.058936,1850.514855
4141.386497,9992.780217,-3753.867940,1184.329507
4141.386821,15692.365970,-5056.230287,-1258.350101
4141.387146,17838.963202,-7584.345430,-962.267725
4141.387470,15840.407159,-7814.174080,-1554.432478
4141.387794,11621.233289,-12410.747068,-1036.288319
4141.388119,3997.112087,-13253.452115,-2960.823768
4141.388443,-3034.844362,-13100.233016,-888.247130
4141.388768,-13471.748144,-10112.460574,222.061783
4141.389092,-17764.942608,-10342.289223,222.061783
4141.389417,-15914.427753,-8656.879127,444.123565
4141.389741,-13619.789333,-7277.907231,-444.123565
4141.390066,-7105.977043,-5132.839837,814.226536
4141.390390,2220.617826,-3677.258390,2516.700203
4141.390715,11843.295072,-4826.401637,444.123565
4141.391039,20429.683999,-7354.516781,-2220.617826
4141.391364,16728.654289,-7967.393179,-1850.514855
4141.391688,16210.510130,-9806.022374,296.082377
4141.392013,7920.203579,-12870.404366,-1332.370696
4141.392337,3849.070898,-13713.109414,-1184.329507
4141.392662,-5921.647536,-11184.994271,-518.144159
4141.392986,-14137.933492,-11261.603821,-148.041188
4141.393310,-18653.189738,-10189.070123,666.185348
4141.393635,-16950.716072,-7201.297681,0.000000
4141.393959,-14359.995275,-8810.098227,296.082377
4141.394284,-5107.421000,-4290.134789,444.123565
4141.394608,3034.844362,-4443.353888,1702.473667
4141.394933,11991.336260,-5669.106685,-592.164754
4141.395257,18283.086767,-7584.345430,-962.267725
4141.395582,17246.798449,-7737.564530,-1924.535449
4141.395906,13989.892304,-10495.508323,222.061783
4141.396231,7846.182985,-13330.061665,-2368.659014
4141.396555,-370.102971,-13100.233016,-2072.576638
4141.396880,-9030.512492,-11108.384721,74.020594
4141.397204,-15692.365970,-9499.584175,666.185348
4141.397529,-17912.983796,-8886.707777,1110.308913
4141.397853,-14730.098246,-7201.297681,74.020594
4141.398178,-9178.553681,-6741.640382,-296.082377
4141.398502,-888.247130,-3294.210641,296.082377
4141.398826,8512.368333,-5362.668486,1036.288319
4141.399151,14211.954086,-4903.011187,148.041188
4141.399475,20873.807564,-7201.297681,-592.164754
4141.399800,15692.365970,-8273.831378,-1998.556043
4141.400124,12065.356855,-12947.013916,-444.123565
4141.400449,5033.400406,-14402.595362,-1924.535449
4141.400773,-1924.535449,-13330.061665,-2220.617826
4141.401098,-12139.377449,-11951.089769,444.123565
4141.401422,-17394.839637,-8503.660028,1332.370696
4141.401747,-18949.272115,-8197.221829,518.144159
4141.402071,-14211.954086,-7124.688131,0.000000
4141.402396,-6143.709319,-4519.963438,962.267725
4141.402720,1998.556043,-2451.505594,740.205942
4141.403045,10732.986159,-4443.353888,1406.391290
4141.403369,13693.809927,-6741.640382,-1480.411884
4141.403694,14434.015869,-7507.735880,-1184.329507
4141.404018,11251.130318,-11874.480219,0.000000
4141.404342,12065.356855,-15321.909960,-4219.173869
4141.404667,4367.215058,-14862.252661,-296.082377
4141.404991,-4441.235652,-9193.145976,-2294.638420
4141.405316,-14359.995275,-11797.870669,1036.288319
4141.405640,-17172.777854,-7584.345430,-962.267725
4141.405965,-14434.015869,-8733.488677,2590.720797
4141.406289,-10732.986159,-3064.381992,-1406.391290
4141.406614,-3182.885551,-6588.421283,2960.823768
4141.406938,3849.070898,-2451.505594,-1554.432478
4141.407263,12879.583391,-6128.763984,444.123565
4141.407587,17394.839637,-7507.735880,-2516.700203
4141.407912,14656.077652,-9499.584175,-1702.473667
4141.408236,14359.995275,-13866.328514,1480.411884
4141.408561,9178.553681,-11951.089769,-2590.720797
4141.408885,1184.329507,-12870.404366,0.000000
4141.409209,-10214.842000,-7737.564530,-2812.782580
4141.409534,-13619.789333,-12104.308868,1406.391290
4141.409858,-14656.077652,-7354.516781,-666.185348
4141.410183,-12583.501014,-7660.954980,962.267725
4141.410507,-9770.718434,-3217.601092,148.041188
4141.410832,-2146.597232,-5132.839837,1702.473667
4141.411156,5995.668130,-5286.058936,-1554.432478
4141.411481,14211.954086,-6052.154434,74.020594
4141.411805,16876.695478,-6894.859482,-148.041188
4141.412130,16432.571912,-10801.946522,222.061783
4141.412454,11621.233289,-9959.241474,-1776.494261
4141.412779,3034.844362,-13100.233016,-2072.576638
4141.413103,-5107.421000,-13789.718964,-2442.679609
4141.413428,-9696.697840,-12257.527968,-370.102971
4141.413752,-15470.304188,-9576.193725,-592.164754
4141.414077,-15322.262999,-8044.002729,1702.473667
4141.414401,-14359.995275,-4826.401637,0.000000
4141.414725,-6513.812290,-5362.668486,1776.494261
4141.415050,5551.544565,-4826.401637,1332.370696
4141.415374,12509.480420,-5745.716235,-518.144159
4141.415699,15100.201217,-7277.907231,-1998.556043
4141.416023,13989.892304,-8580.269578,-1628.453072
4141.416348,10658.965565,-11568.042020,-1332.370696
4141.416672,4219.173869,-13866.328514,-1036.288319
4141.416997,4219.173869,-15858.176809,-3404.947333
4141.417321,-5995.668130,-13942.938064,-518.144159
4141.417646,-9992.780217,-6894.859482,-740.205942
4141.417970,-16728.654289,-8427.050478,1258.350101
4141.418295,-15544.324782,-7354.516781,222.061783
4141.418619,-9474.636058,-6281.983084,2664.741391
4141.418944,-3627.009116,-3294.210641,1258.350101
4141.419268,5329.482782,-5822.325785,1554.432478
4141.419593,9178.553681,-3907.087040,-814.226536
4141.419917,12065.356855,-7660.954980,-592.164754
4141.420241,13767.830521,-9729.412825,-2516.700203
4141.420566,11103.089130,-13713.109414,0.000000
4141.420890,9178.553681,-12487.356617,-2368.659014
4141.421215,1184.329507,-10418.898773,518.144159
4141.421539,-7254.018232,-7890.783629,-888.247130
4141.421864,-12065.356855,-10418.898773,1702.473667
4141.422188,-14063.912898,-8044.002729,-1184.329507
4141.422513,-13027.624579,-8810.098227,1480.411884
4141.422837,-9326.594869,-4290.134789,666.185348
4141.423162,-1406.391290,-5132.839837,1924.535449
4141.423486,7254.018232,-4673.182538,370.102971
4141.423811,15618.345376,-5975.544884,-1998.556043
4141.424135,16284.530724,-8427.050478,-1332.370696
4141.424460,14804.118840,-10572.117872,-1332.370696
4141.424784,12065.356855,-14479.204912,518.144159
4141.425109,6143.709319,-9039.926876,-962.267725
4141.425433,-2812.782580,-12793.794817,888.247130
4141.425757,-10584.944971,-9116.536426,-1776.494261
4141.426082,-12657.521608,-9652.803275,2368.659014
4141.426406,-14285.974681,-7507.735880,-962.267725
4141.426731,-11325.150913,-7507.735880,962.267725
4141.427055,-7550.100608,-2987.772442,740.205942
4141.427380,1406.391290,-5822.325785,2294.638420
4141.427704,9030.512492,-5745.716235,-1110.308913
4141.428029,13767.830521,-7507.735880,-740.205942
4141.428353,13471.748144,-8733.488677,-1554.432478
4141.428678,13323.706956,-11874.480219,-2812.782580
4141.429002,9918.759623,-12563.966167,-2146.597232
4141.429327,1924.535449,-11644.651570,-962.267725
4141.429651,-4663.297435,-11031.775171,-592.164754
4141.429976,-12879.583391,-8810.098227,2294.638420
4141.430300,-14656.077652,-8273.831378,444.123565
4141.430625,-13767.830521,-8044.002729,-814.226536
4141.430949,-9474.636058,-4979.620737,370.102971
4141.431273,-2664.741391,-6128.763984,1332.370696
4141.431598,7328.038826,-3983.696590,222.061783
4141.431922,13323.706956,-6358.592633,-962.267725
4141.432247,17098.757260,-8197.221829,-3034.844362
4141.432571,9844.739029,-9729.412825,-1850.514855
4141.432896,12139.377449,-13789.718964,-962.267725
4141.433220,4589.276840,-10648.727422,-2146.597232
4141.433545,-148.041188,-14249.376263,0.000000
4141.433869,-6661.853478,-10572.117872,-1480.411884
4141.434194,-11917.315666,-8886.707777,1036.288319
4141.434518,-14285.974681,-7354.516781,0.000000
4141.434843,-11473.192101,-6665.030833,-296.082377
4141.435167,-9400.615463,-4903.011187,592.164754
4141.435492,0.000000,-5669.106685,1776.494261
4141.435816,3627.009116,-4596.572988,0.000000
4141.436141,11547.212695,-8273.831378,-370.102971
4141.436465,13249.686362,-7431.126331,-2368.659014
4141.436789,13249.686362,-12487.356617,-1850.514855
4141.437114,8808.450710,-13406.671215,-3108.864956
4141.437438,3923.091493,-13406.671215,-1998.556043
4141.437763,-1998.556043,-12717.185267,0.000000
4141.438087,-9844.739029,-8733.488677,222.061783
4141.438412,-14285.974681,-8273.831378,2146.597232
4141.438736,-13471.748144,-5515.887586,-592.164754
4141.439061,-10584.944971,-7124.688131,0.000000
4141.439385,-3775.050304,-5056.230287,1480.411884
4141.439710,3775.050304,-5132.839837,1480.411884
4141.440034,8956.491898,-6281.983084,-1554.432478
4141.440359,15026.180623,-7814.174080,-814.226536
4141.440683,14952.160028,-7967.393179,-1332.370696
4141.441008,11769.274478,-11951.089769,-888.247130
4141.441332,8512.368333,-12793.794817,-1258.350101
4141.441657,2072.576638,-13636.499864,-1850.514855
4141.441981,-5255.462188,-11721.261119,-592.164754
4141.442305,-11399.171507,-9346.365076,1110.308913
4141.442630,-15544.324782,-7890.783629,962.267725
4141.442954,-14952.160028,-7354.516781,-592.164754
4141.443279,-10214.842000,-6205.373534,518.144159
4141.443603,-5995.668130,-3753.867940,2442.679609
4141.443928,4219.173869,-5439.278036,1036.288319
4141.444252,9474.636058,-6971.469032,-2368.659014
4141.444577,13989.892304,-8963.317327,-444.123565
4141.444901,14804.118840,-7967.393179,-2294.638420
4141.445226,11991.336260,-12793.794817,-222.061783
4141.445550,7624.121203,-12180.918418,-2664.741391
4141.445875,1998.556043,-12257.527968,-370.102971
4141.446199,-7254.018232,-10189.070123,1554.432478
4141.446524,-13693.809927,-7814.174080,1850.514855
4141.446848,-14582.057057,-6971.469032,666.185348
4141.447173,-13101.645173,-6894.859482,0.000000
4141.447497,-7105.977043,-5592.497135,1406.391290
4141.447821,-518.144159,-4979.620737,0.000000
4141.448146,6587.832884,-7048.078582,-518.144159
4141.448470,11769.274478,-6358.592633,-1184.329507
4141.448795,14434.015869,-8733.488677,-1332.370696
4141.449119,14508.036463,-10495.508323,-1554.432478
4141.449444,11029.068536,-12257.527968,-814.226536
4141.449768,6365.771101,-13942.938064,-1332.370696
4141.450093,-2146.597232,-12410.747068,-1850.514855
4141.450417,-9474.636058,-9806.022374,2072.576638
4141.450742,-14804.118840,-6281.983084,1110.308913
4141.451066,-15396.283594,-8886.707777,-1110.308913
4141.451391,-12213.398043,-6281.983084,222.061783
4141.451715,-7105.977043,-3983.696590,2220.617826
4141.452040,592.164754,-4673.182538,370.102971
4141.452364,7550.100608,-8350.440928,-518.144159
4141.452689,12731.542202,-6894.859482,-3330.926739
4141.453013,16062.468941,-9959.241474,-296.082377
4141.453337,12953.603985,-9882.631924,-2442.679609
4141.453662,11621.233289,-12870.404366,-1924.535449
4141.453986,2960.823768,-12334.137518,-1036.288319
4141.454311,-5773.606348,-11644.651570,518.144159
4141.454635,-12879.583391,-8120.612279,814.226536
4141.454960,-15988.448347,-8197.221829,444.123565
4141.455284,-13323.706956,-7660.954980,-1184.329507
4141.455609,-9030.512492,-5669.106685,74.020594
4141.455933,-1554.432478,-5669.106685,740.205942
4141.456258,3849.070898,-5822.325785,-1554.432478
4141.456582,12435.459826,-7354.516781,-1776.494261
4141.456907,16432.571912,-9039.926876,-2220.617826
4141.457231,15692.365970,-9652.803275,-2738.761985
4141.457556,11399.171507,-12257.527968,148.041188
4141.457880,9178.553681,-11721.261119,-2590.720797
4141.458204,-222.061783,-13406.671215,-814.226536
4141.458529,-7772.162391,-9882.631924,148.041188
4141.458853,-15396.283594,-7584.345430,1998.556043
4141.459178,-15914.427753,-7967.393179,-1036.288319
4141.459502,-12361.439231,-8350.440928,-740.205942
4141.459827,-8068.244768,-5209.449386,2664.741391
4141.460151,-962.267725,-4443.353888,74.020594
4141.460476,7031.956449,-5592.497135,-296.082377
4141.460800,11325.150913,-7431.126331,-1184.329507
4141.461125,18431.127956,-7507.735880,-1850.514855
4141.461449,17098.757260,-11797.870669,518.144159
4141.461774,10436.903782,-10342.289223,-2368.659014
4141.462098,3923.091493,-10035.851024,74.020594
4141.462423,-4367.215058,-13789.718964,-1036.288319
4141.462747,-10584.944971,-12104.308868,740.205942
4141.463072,-15470.304188,-6894.859482,518.144159
4141.463396,-14952.160028,-8273.831378,814.226536
4141.463721,-13323.706956,-3677.258390,0.000000
4141.464045,-6069.688724,-5209.449386,2220.617826
4141.464369,5107.421000,-4136.915689,814.226536
4141.464694,9918.759623,-7431.126331,-814.226536
4141.465018,14952.160028,-8350.440928,-2294.638420
4141.465343,18875.251521,-8427.050478,-1924.535449
4141.465667,15692.365970,-12487.356617,1036.288319
4141.465992,10140.821405,-9269.755526,-1702.473667
4141.466316,1702.473667,-11338.213370,222.061783
4141.466641,-7624.121203,-12487.356617,-592.164754
4141.466965,-11029.068536,-10725.336972,0.000000
4141.467290,-17690.922014,-7660.954980,518.144159
4141.467614,-15174.221811,-6588.421283,1184.329507
4141.467939,-12953.603985,-4596.572988,1406.391290
4141.468263,-4515.256246,-5209.449386,1406.391290
4141.468588,6883.915261,-5669.106685,592.164754
4141.468912,10288.862594,-6281.983084,-1702.473667
4141.469237,16062.468941,-10801.946522,-296.082377
4141.469561,16580.613101,-8886.707777,-1924.535449
4141.469886,12657.521608,-11644.651570,-1480.411884
4141.470210,6661.853478,-12870.404366,-962.267725
4141.470535,-2146.597232,-10035.851024,-444.123565
4141.470859,-9548.656652,-11721.261119,666.185348
4141.471183,-16062.468941,-7967.393179,-1480.411884
4141.471508,-13693.809927,-6894.859482,2886.803174
4141.471832,-13693.809927,-3907.087040,-296.082377
4141.472157,-7846.182985,-8810.098227,2368.659014
4141.472481,2960.823768,-2911.162892,-296.082377
4141.472806,7920.203579,-6358.592633,-814.226536
4141.473130,13915.871710,-9346.365076,-2442.679609
4141.473455,16654.633695,-8427.050478,-740.205942
4141.473779,16506.592507,-10189.070123,-1184.329507
4141.474104,11029.068536,-13559.890315,-592.164754
4141.474428,3256.906145,-11644.651570,-1332.370696
4141.474753,-4737.318029,-11874.480219,-370.102971
4141.475077,-13841.851115,-10648.727422,-2294.638420
4141.475402,-16950.716072,-9652.803275,-518.144159
4141.475726,-14359.995275,-4903.011187,888.247130
4141.476051,-12435.459826,-5669.106685,1998.556043
4141.476375,-5107.421000,-4903.011187,1110.308913
4141.476700,3849.070898,-2987.772442,444.123565
4141.477024,8956.491898,-6511.811733,-888.247130
4141.477349,15618.345376,-9193.145976,-1998.556043
4141.477673,14211.954086,-10572.117872,-962.267725
4141.477997,15026.180623,-13100.233016,-2368.659014
4141.478322,7179.997637,-13483.280765,-296.082377
4141.478646,-740.205942,-11491.432470,-1480.411884
4141.478971,-6217.729913,-13176.842566,-1406.391290
4141.479295,-13841.851115,-9729.412825,-1776.494261
4141.479620,-15248.242405,-6818.249932,666.185348
4141.479944,-14211.954086,-4903.011187,1554.432478
4141.480269,-8290.306550,-5362.668486,1924.535449
4141.480593,0.000000,-2068.457845,740.205942
4141.480918,7698.141797,-5362.668486,222.061783
4141.481242,13915.871710,-9116.536426,-2590.720797
4141.481567,15988.448347,-7431.126331,-3108.864956
4141.481891,14137.933492,-12180.918418,666.185348
4141.482216,9474.636058,-13636.499864,-3034.844362
4141.482540,2960.823768,-14862.252661,592.164754
4141.482865,-2146.597232,-10035.851024,-1184.329507
4141.483189,-9178.553681,-11338.213370,-1406.391290
4141.483514,-14211.954086,-7814.174080,-518.144159
4141.483838,-12953.603985,-5515.887586,2220.617826
4141.484163,-11325.150913,-5515.887586,1258.350101
4141.484487,-6069.688724,-5592.497135,1628.453072
4141.484811,518.144159,-1991.848295,0.000000
4141.485136,7254.018232,-6588.421283,888.247130
4141.485460,12657.521608,-7890.783629,-2220.617826
4141.485785,13915.871710,-11568.042020,-2294.638420
4141.486109,12065.356855,-13789.718964,-1628.453072
4141.486434,6809.894666,-13866.328514,-1258.350101
4141.486758,2146.597232,-11031.775171,-888.247130
4141.487083,-8290.306550,-10801.946522,-1184.329507
4141.487407,-13175.665768,-10648.727422,-1850.514855
4141.487732,-12953.603985,-8197.221829,888.247130
4141.488056,-11029.068536,-4136.915689,2368.659014
4141.488381,-6069.688724,-4366.744339,2812.782580
4141.488705,-1332.370696,-3753.867940,740.205942
4141.489030,5921.647536,-5132.839837,-666.185348
4141.489354,8068.244768,-6894.859482,-1924.535449
4141.489679,11917.315666,-10801.946522,-814.226536
4141.490003,15174.221811,-12487.356617,-2442.679609
4141.490328,12065.356855,-12563.966167,-740.205942
4141.490652,4071.132681,-11108.384721,-3552.988522
4141.490977,-4071.132681,-14325.985813,-1924.535449
4141.491301,-10214.842000,-11338.213370,-1850.514855
4141.491625,-11917.315666,-9346.365076,-444.123565
4141.491950,-14582.057057,-7967.393179,2738.761985
4141.492274,-11621.233289,-4979.620737,444.123565
4141.492599,-6957.935855,-4826.401637,666.185348
4141.492923,962.267725,-4443.353888,296.082377
4141.493248,7698.141797,-4596.572988,-814.226536
4141.493572,11991.336260,-6205.373534,814.226536
4141.493897,13841.851115,-8350.440928,0.000000
4141.494221,13841.851115,-12180.918418,-2072.576638
4141.494546,8364.327145,-13713.109414,-1554.432478
4141.494870,5033.400406,-13100.233016,-1628.453072
4141.495195,-4071.132681,-12410.747068,-1924.535449
4141.495519,-10807.006753,-10801.946522,-296.082377
4141.495844,-15322.262999,-7890.783629,814.226536
4141.496168,-14952.160028,-8197.221829,1036.288319
4141.496493,-10881.027347,-5056.230287,1110.308913
4141.496817,-2368.659014,-3677.258390,1776.494261
4141.497142,5921.647536,-4443.353888,-222.061783
4141.497466,11917.315666,-6665.030833,-2516.700203
4141.497791,15544.324782,-7277.907231,-3330.926739
4141.498115,15914.427753,-9039.926876,-962.267725
4141.498439,13619.789333,-11261.603821,1184.329507
4141.498764,6809.894666,-12717.185267,-740.205942
4141.499088,1036.288319,-13330.061665,-1776.494261
4141.499413,-6809.894666,-11568.042020,0.000000
4141.499737,-13471.748144,-9806.022374,-1480.411884
4141.500062,-14508.036463,-8656.879127,1332.370696
4141.500386,-14434.015869,-6588.421283,1480.411884
4141.500711,-9252.574275,-6358.592633,962.267725
4141.501035,-3997.112087,-3983.696590,-296.082377
4141.501360,5403.503377,-5132.839837,-444.123565
4141.501684,9992.780217,-5209.449386,-2368.659014
4141.502009,14952.160028,-8886.707777,-1332.370696
4141.502333,15470.304188,-9039.926876,-740.205942
4141.502658,12065.356855,-12410.747068,0.000000
4141.502982,5625.565159,-13559.890315,-2146.597232
4141.503307,-2442.679609,-13713.109414,0.000000
4141.503631,-9548.656652,-10878.556072,-962.267725
4141.503956,-13693.809927,-9959.241474,1406.391290
4141.504280,-15766.386565,-7277.907231,518.144159
4141.504605,-12583.501014,-6511.811733,1406.391290
4141.504929,-5255.462188,-3983.696590,888.247130
4141.505253,1554.432478,-5209.449386,370.102971
4141.505578,9178.553681,-4519.963438,-2146.597232
4141.505902,13397.727550,-6818.249932,-1110.308913
4141.506227,16654.633695,-7737.564530,-518.144159
4141.506551,16210.510130,-9576.193725,-370.102971
4141.506876,9548.656652,-12793.794817,666.185348
4141.507200,4219.173869,-12180.918418,-1184.329507
4141.507525,-3256.906145,-14402.595362,222.061783
4141.507849,-11991.336260,-10725.336972,-962.267725
4141.508174,-15840.407159,-8656.879127,444.123565
4141.508498,-15396.283594,-7048.078582,1036.288319
4141.508823,-12805.562797,-6665.030833,962.267725
4141.509147,-5403.503377,-3907.087040,0.000000
4141.509472,1110.308913,-4673.182538,666.185348
4141.509796,9178.553681,-4979.620737,-1554.432478
4141.510121,14137.933492,-6818.249932,-1850.514855
4141.510445,17320.819043,-8350.440928,-1110.308913
4141.510770,13693.809927,-11184.994271,-370.102971
4141.511094,8808.450710,-13713.109414,-1702.473667
4141.511419,1406.391290,-12870.404366,-296.082377
4141.511743,-7031.956449,-13023.623466,-592.164754
4141.512067,-11843.295072,-9959.241474,-1406.391290
4141.512392,-15544.324782,-9346.365076,1332.370696
4141.512716,-14878.139434,-5592.497135,296.082377
4141.513041,-9844.739029,-4826.401637,1406.391290
4141.513365,-592.164754,-4596.572988,962.267725
4141.513690,6513.812290,-4366.744339,-2146.597232
4141.514014,15322.262999,-6511.811733,-1036.288319
4141.514339,16284.530724,-6665.030833,-4071.132681
4141.514663,16136.489536,-9959.241474,962.267725
4141.514988,11103.089130,-12410.747068,-1184.329507
4141.515312,6883.915261,-14019.547613,-1924.535449
4141.515637,-740.205942,-13713.109414,-1036.288319
4141.515961,-10362.883188,-11644.651570,-1258.350101
4141.516286,-15544.324782,-10418.898773,0.000000
4141.516610,-17320.819043,-8963.317327,-370.102971
4141.516935,-12805.562797,-7737.564530,2146.597232
4141.517259,-7105.977043,-3370.820191,222.061783
4141.517584,3108.864956,-4903.011187,1332.370696
4141.517908,6365.771101,-3753.867940,-2220.617826
4141.518233,15396.283594,-6588.421283,-1184.329507
4141.518557,16728.654289,-5439.278036,-2368.659014
4141.518882,13841.851115,-12563.966167,2442.679609
4141.519206,10955.047942,-11414.822920,-3404.947333
4141.519530,3256.906145,-15321.909960,0.000000
4141.519855,-6069.688724,-11414.822920,-1554.432478
4141.520179,-13175.665768,-12640.575717,-962.267725
4141.520504,-16506.592507,-9116.536426,-740.205942
4141.520828,-15544.324782,-8580.269578,1924.535449
4141.521153,-9844.739029,-4826.401637,1110.308913
4141.521477,-2072.576638,-5209.449386,2146.597232
4141.521802,5699.585753,-3600.648841,-1702.473667
4141.522126,12213.398043,-5132.839837,-2516.700203
4141.522451,14730.098246,-6281.983084,-1998.556043
4141.522775,15914.427753,-6894.859482,888.247130
4141.523100,15174.221811,-11951.089769,0.000000
4141.523424,7328.038826,-13406.671215,-2220.617826
4141.523749,370.102971,-13023.623466,74.020594
4141.524073,-8364.327145,-9882.631924,-740.205942
4141.524398,-13989.892304,-11108.384721,814.226536
4141.524722,-14656.077652,-7890.783629,148.041188
4141.525047,-13397.727550,-8120.612279,2294.638420
4141.525371,-8808.450710,-4443.353888,1480.411884
4141.525696,-1628.453072,-4366.744339,2368.659014
4141.526020,7179.997637,-3447.429741,-740.205942
4141.526344,13027.624579,-6511.811733,-1110.308913
4141.526669,13915.871710,-6894.859482,-2368.659014
4141.526993,15100.201217,-8044.002729,592.164754
4141.527318,9178.553681,-12640.575717,-1258.350101
4141.527642,5551.544565,-13176.842566,-2368.659014
4141.527967,-2960.823768,-13942.938064,1628.453072
4141.528291,-11621.233289,-9882.631924,-2664.741391
4141.528616,-15618.345376,-11338.213370,1480.411884
4141.528940,-14878.139434,-7201.297681,-814.226536
4141.529265,-10436.903782,-9039.926876,3182.885551
4141.529589,-3775.050304,-2528.115143,1110.308913
4141.529914,5403.503377,-4443.353888,1554.432478
4141.530238,10510.924376,-4060.306139,-1702.473667
4141.530563,15100.201217,-6665.030833,-2590.720797
4141.530887,15470.304188,-7814.174080,-1110.308913
4141.531212,11843.295072,-10495.508323,888.247130
4141.531536,8956.491898,-13559.890315,-2368.659014
4141.531861,1924.535449,-12947.013916,-1480.411884
4141.532185,-6735.874072,-12870.404366,222.061783
4141.532510,-11621.233289,-10495.508323,-1480.411884
4141.532834,-16802.674883,-10189.070123,-1110.308913
4141.533158,-16062.468941,-8350.440928,1998.556043
4141.533483,-8216.285956,-5439.278036,1850.514855
4141.533807,-3923.091493,-3370.820191,1554.432478
4141.534132,6069.688724,-4443.353888,0.000000
4141.534456,12139.377449,-5286.058936,-2220.617826
4141.534781,12953.603985,-7431.126331,-3404.947333
4141.535105,14211.954086,-7890.783629,-1184.329507
4141.535430,10140.821405,-11644.651570,-814.226536
4141.535754,8586.388927,-12334.137518,-2664.741391
4141.536079,-1184.329507,-15168.690860,592.164754
4141.536403,-9400.615463,-9959.241474,-2516.700203
4141.536728,-14952.160028,-12870.404366,370.102971
4141.537052,-15174.221811,-8044.002729,-2072.576638
4141.537377,-10955.047942,-9193.145976,2664.741391
4141.537701,-5847.626942,-2528.115143,518.144159
4141.538026,3997.112087,-5515.887586,2294.638420
4141.538350,9326.594869,-3217.601092,-2590.720797
4141.538675,15322.262999,-7737.564530,-2146.597232
4141.538999,14508.036463,-6358.592633,-3108.864956
4141.539324,12361.439231,-10725.336972,-370.102971
4141.539648,8364.327145,-12334.137518,-1406.391290
4141.539972,5033.400406,-13406.671215,-1406.391290
4141.540297,-3256.906145,-13866.328514,74.020594
4141.540621,-11991.336260,-9652.803275,-296.082377
4141.540946,-16062.468941,-11951.089769,-814.226536
4141.541270,-15100.201217,-8656.879127,592.164754
4141.541595,-10140.821405,-7277.907231,2368.659014
4141.541919,-4589.276840,-2911.162892,1332.370696
4141.542244,5921.647536,-3677.258390,2146.597232
4141.542568,7105.977043,-2911.162892,-2664.741391
4141.542893,14582.057057,-9269.755526,-1850.514855
4141.543217,13989.892304,-5209.449386,-1702.473667
4141.543542,11547.212695,-12257.527968,666.185348
4141.543866,10066.800811,-11644.651570,-3627.009116
4141.544191,148.041188,-14862.252661,1110.308913
4141.544515,-7105.977043,-10418.898773,-962.267725
4141.544840,-14063.912898,-12487.356617,74.020594
4141.545164,-15988.448347,-8580.269578,-1110.308913
4141.545489,-13619.789333,-8580.269578,3182.885551
4141.545813,-8216.285956,-2604.724693,1480.411884
4141.546138,2812.782580,-5515.887586,2590.720797
4141.546462,8068.244768,-1685.410096,-2146.597232
4141.546786,13397.727550,-6511.811733,-148.041188
4141.547111,14434.015869,-4903.011187,-3108.864956
4141.547435,13545.768739,-9959.241474,1258.350101
4141.547760,10955.047942,-10955.165621,-1184.329507
4141.548084,7105.977043,-13483.280765,-592.164754
4141.548409,-814.226536,-14249.376263,-222.061783
4141.548733,-9696.697840,-10418.898773,0.000000
4141.549058,-16210.510130,-12180.918418,-222.061783
4141.549382,-16580.613101,-8503.660028,222.061783
4141.549707,-12583.501014,-8427.050478,1628.453072
4141.550031,-5773.606348,-3983.696590,3404.947333
4141.550356,740.205942,-3294.210641,1258.350101
4141.550680,8290.306550,-3370.820191,-1998.556043
4141.551005,12509.480420,-6971.469032,-1702.473667
4141.551329,13915.871710,-6741.640382,-2368.659014
4141.551654,13841.851115,-10265.679673,666.185348
4141.551978,8956.491898,-12027.699319,-2738.761985
4141.552303,3923.091493,-14632.424012,222.061783
4141.552627,-6439.791695,-11261.603821,-888.247130
4141.552952,-10955.047942,-13023.623466,74.020594
4141.553276,-15396.283594,-9269.755526,-2072.576638
4141.553600,-14656.077652,-9039.926876,814.226536
4141.553925,-10807.006753,-5362.668486,2442.679609
4141.554249,-1998.556043,-2911.162892,2886.803174
4141.554574,5995.668130,-4213.525239,-962.267725
4141.554898,11991.336260,-3064.381992,-1480.411884
4141.555223,14063.912898,-6052.154434,-2368.659014
4141.555547,15618.345376,-8810.098227,-1406.391290
4141.555872,12435.459826,-11491.432470,-518.144159
4141.556196,7920.203579,-14479.204912,-1628.453072
4141.556521,0.000000,-14402.595362,-592.164754
4141.556845,-7402.059420,-11184.994271,-1406.391290
4141.557170,-13619.789333,-12793.794817,-518.144159
4141.557494,-16358.551318,-7660.954980,-1480.411884
4141.557819,-14063.912898,-9039.926876,2368.659014
4141.558143,-7846.182985,-5132.839837,1184.329507
4141.558468,-1554.432478,-2911.162892,2516.700203
4141.558792,6439.791695,-2221.676944,-888.247130
4141.559117,11769.274478,-4826.401637,-1184.329507
4141.559441,15544.324782,-7507.735880,-2442.679609
4141.559766,14137.933492,-8886.707777,-814.226536
4141.560090,12361.439231,-12870.404366,-1554.432478
4141.560414,4737.318029,-13713.109414,-1480.411884
4141.560739,-2886.803174,-12717.185267,-444.123565
4141.561063,-8438.347739,-10418.898773,74.020594
4141.561388,-14508.036463,-10955.165621,-1628.453072
4141.561712,-15766.386565,-8503.660028,296.082377
4141.562037,-12287.418637,-6281.983084,2664.741391
4141.562361,-4663.297435,-3524.039291,1628.453072
4141.562686,5255.462188,-3830.477490,2146.597232
4141.563010,10807.006753,-1532.190996,-3182.885551
4141.563335,14211.954086,-8733.488677,-1850.514855
4141.563659,14730.098246,-5439.278036,-2516.700203
4141.563984,13101.645173,-12027.699319,1628.453072
4141.564308,10214.842000,-11874.480219,-2664.741391
4141.564633,2960.823768,-15015.471761,444.123565
4141.564957,-4737.318029,-11261.603821,-1258.350101
4141.565282,-10955.047942,-11874.480219,1184.329507
4141.565606,-15840.407159,-7967.393179,-1850.514855
4141.565931,-15840.407159,-9346.365076,2072.576638
4141.566255,-11695.253884,-5209.449386,1184.329507
4141.566579,-3404.947333,-4749.792088,2886.803174
4141.566904,3552.988522,-459.657299,962.267725
4141.567228,11029.068536,-4673.182538,-1628.453072
4141.567553,14730.098246,-8350.440928,-3256.906145
4141.567877,12731.542202,-7354.516781,74.020594
4141.568202,14137.933492,-11797.870669,-962.267725
4141.568526,8364.327145,-13176.842566,-2072.576638
4141.568851,814.226536,-15245.300410,888.247130
4141.569175,-5995.668130,-9652.803275,-296.082377
4141.569500,-14508.036463,-12180.918418,444.123565
4141.569824,-16432.571912,-8733.488677,-1036.288319
4141.570149,-13619.789333,-7507.735880,2146.597232
4141.570473,-6143.709319,-3677.258390,3108.864956
4141.570797,2960.823768,-4443.353888,962.267725
4141.571122,5551.544565,-2068.457845,-3256.906145
4141.571446,11843.295072,-8120.612279,-296.082377
4141.571771,15248.242405,-4903.011187,-3182.885551
4141.572095,14359.995275,-11031.775171,1184.329507
4141.572420,10066.800811,-12487.356617,-1406.391290
4141.572744,6143.709319,-14402.595362,-1184.329507
4141.573069,-1480.411884,-12947.013916,-518.144159
4141.573393,-8290.306550,-12027.699319,814.226536
4141.573718,-14359.995275,-9729.412825,-1628.453072
4141.574042,-16062.468941,-9959.241474,592.164754
4141.574367,-12583.501014,-6741.640382,444.123565
4141.574691,-6217.729913,-3830.477490,2442.679609
4141.575016,-740.205942,-2451.505594,814.226536
4141.575340,6587.832884,-4903.011187,-962.267725
4141.575664,11399.171507,-5515.887586,-3108.864956
4141.575989,15396.283594,-7660.954980,-1332.370696
4141.576313,12583.501014,-10878.556072,370.102971
4141.576638,12065.356855,-14019.547613,-3034.844362
4141.576962,1850.514855,-14249.376263,370.102971
4141.577287,-3478.967927,-10878.556072,-592.164754
4141.577611,-11843.295072,-12334.137518,0.000000
4141.577936,-14952.160028,-8350.440928,-2590.720797
4141.578260,-13545.768739,-9729.412825,1480.411884
4141.578585,-10732.986159,-4060.306139,1036.288319
4141.578909,-3256.906145,-5132.839837,1702.473667
4141.579234,4219.173869,-3370.820191,-1406.391290
4141.579558,10807.006753,-5439.278036,-1998.556043
4141.579883,14434.015869,-5515.887586,-2294.638420
4141.580207,16358.551318,-7584.345430,-296.082377
4141.580531,11843.295072,-12180.918418,-518.144159
4141.580856,9326.594869,-13789.718964,-1776.494261
4141.581180,1702.473667,-14632.424012,0.000000
4141.581505,-7698.141797,-12027.699319,-1110.308913
4141.581829,-13471.748144,-11568.042020,-444.123565
4141.582154,-15100.201217,-7890.783629,-1258.350101
4141.582478,-13397.727550,-8656.879127,2516.700203
4141.582803,-9622.677246,-3524.039291,592.164754
4141.583127,-1702.473667,-3600.648841,2220.617826
4141.583452,5773.606348,-2451.505594,370.102971
4141.583776,11621.233289,-5132.839837,-2590.720797
4141.584101,15248.242405,-7431.126331,-2146.597232
4141.584425,14730.098246,-8580.269578,-592.164754
4141.584750,11991.336260,-12563.966167,-962.267725
4141.585074,6809.894666,-14709.033562,-1258.350101
4141.585398,-2738.761985,-12793.794817,-666.185348
4141.585723,-8586.388927,-11491.432470,740.205942
4141.586047,-14137.933492,-9729.412825,-2220.617826
4141.586372,-16136.489536,-10035.851024,592.164754
4141.586696,-11029.068536,-5592.497135,814.226536
4141.587021,-4737.318029,-4826.401637,2664.741391
4141.587345,2368.659014,-3753.867940,-592.164754
4141.587670,10955.047942,-4290.134789,-962.267725
4141.587994,12583.501014,-5209.449386,-518.144159
4141.588319,16506.592507,-7354.516781,-3182.885551
4141.588643,12879.583391,-10955.165621,1406.391290
4141.588968,8142.265362,-12257.527968,-1480.411884
4141.589292,4885.359217,-13559.890315,-962.267725
4141.589617,-5403.503377,-13176.842566,-296.082377
4141.589941,-10436.903782,-11184.994271,-518.144159
4141.590265,-16062.468941,-9039.926876,-1036.288319
4141.590590,-15396.283594,-9806.022374,962.267725
4141.590914,-9844.739029,-6435.202183,666.185348
4141.591239,-4367.215058,-3677.258390,1998.556043
4141.591563,4441.235652,-2528.115143,888.247130
4141.591888,10140.821405,-3907.087040,-1924.535449
4141.592212,12139.377449,-7890.783629,-3182.885551
4141.592537,15026.180623,-8427.050478,-962.267725
4141.592861,10288.862594,-10955.165621,-222.061783
4141.593186,8734.430116,-13559.890315,-2368.659014
4141.593510,518.144159,-13483.280765,962.267725
4141.593835,-8068.244768,-10112.460574,-518.144159
4141.594159,-15692.365970,-12717.185267,-1036.288319
4141.594483,-15692.365970,-8273.831378,-1184.329507
4141.594808,-11917.315666,-7354.516781,1998.556043
4141.595132,-6957.935855,-4749.792088,1776.494261
4141.595457,2812.782580,-4290.134789,444.123565
4141.595781,7698.141797,-3140.991542,-1776.494261
4141.596106,11991.336260,-5975.544884,-666.185348
4141.596430,15174.221811,-7737.564530,-2960.823768
4141.596755,13397.727550,-10418.898773,74.020594
4141.597079,9400.615463,-13330.061665,-518.144159
4141.597404,6217.729913,-13406.671215,-1776.494261
4141.597728,-3034.844362,-14479.204912,74.020594
4141.598053,-10362.883188,-12180.918418,370.102971
4141.598377,-16136.489536,-9729.412825,-148.041188
4141.598702,-16062.468941,-7890.783629,-666.185348
4141.599026,-11473.192101,-7507.735880,1924.535449
4141.599350,-4737.318029,-3983.696590,1702.473667
4141.599675,2516.700203,-2451.505594,1850.514855
4141.599999,7698.141797,-2681.334243,-814.226536
4141.600324,13027.624579,-7660.954980,-2960.823768
4141.600648,13101.645173,-8656.879127,-2960.823768
4141.600973,11917.315666,-11108.384721,888.247130
4141.601297,7550.100608,-13483.280765,-2072.576638
4141.601622,2590.720797,-13023.623466,0.000000
4141.601946,-6069.688724,-11797.870669,-296.082377
4141.602271,-11917.315666,-11644.651570,0.000000
4141.602595,-14285.974681,-9499.584175,-1998.556043
4141.602920,-13989.892304,-8044.002729,1628.453072
4141.603244,-8068.244768,-5132.839837,1776.494261
4141.603569,-1036.288319,-3447.429741,1406.391290
4141.603893,8142.265362,-3830.477490,-518.144159
4141.604217,10732.986159,-3983.696590,-814.226536
4141.604542,14211.954086,-8273.831378,-1850.514855
4141.604866,14582.057057,-7431.126331,-2220.617826
4141.605191,11473.192101,-13406.671215,1850.514855
4141.605515,7105.977043,-12104.308868,-2442.679609
4141.605840,1036.288319,-14785.643111,-370.102971
4141.606164,-8290.306550,-12793.794817,-148.041188
4141.606489,-12435.459826,-9806.022374,-814.226536
4141.606813,-17394.839637,-8580.269578,-518.144159
4141.607138,-13027.624579,-7584.345430,1850.514855
4141.607462,-7254.018232,-3907.087040,2220.617826
4141.607787,-370.102971,-2834.553343,2294.638420
4141.608111,7105.977043,-2145.067394,0.000000
4141.608436,11843.295072,-5975.544884,-1554.432478
4141.608760,14656.077652,-8810.098227,-3108.864956
4141.609084,15026.180623,-9193.145976,-148.041188
4141.609409,8364.327145,-13559.890315,0.000000
4141.609733,5773.606348,-14555.814462,-2590.720797
4141.610058,-2442.679609,-14172.766713,1184.329507
4141.610382,-11177.109724,-9806.022374,-2294.638420
4141.610707,-14878.139434,-11721.261119,148.041188
4141.611031,-15396.283594,-5745.716235,-1332.370696
4141.611356,-10362.883188,-7967.393179,3552.988522
4141.611680,-3701.029710,-4136.915689,370.102971
4141.612005,3701.029710,-3830.477490,1480.411884
4141.612329,9474.636058,-2528.115143,-2220.617826
4141.612654,15174.221811,-6741.640382,-1924.535449
4141.612978,16136.489536,-8733.488677,-2442.679609
4141.613303,12361.439231,-12104.308868,74.020594
4141.613627,7698.141797,-14709.033562,-814.226536
4141.613951,3775.050304,-13636.499864,-2738.761985
4141.614276,-5033.400406,-14096.157163,444.123565
4141.614600,-12879.583391,-9422.974625,-518.144159
4141.614925,-16358.551318,-8656.879127,-444.123565
4141.615249,-14730.098246,-7354.516781,0.000000
4141.615574,-7550.100608,-7354.516781,2294.638420
4141.615898,-4663.297435,-2834.553343,370.102971
4141.616223,4737.318029,-3677.258390,2368.659014
4141.616547,11177.109724,-2145.067394,-3256.906145
4141.616872,14582.057057,-10418.898773,-518.144159
4141.617196,13915.871710,-6971.469032,-4071.132681
4141.617521,11251.130318,-14862.252661,1110.308913
4141.617845,6735.874072,-12793.794817,-2960.823768
4141.618169,0.000000,-14479.204912,370.102971
4141.618494,-9030.512492,-12257.527968,-1258.350101
4141.618818,-14804.118840,-9039.926876,-370.102971
4141.619143,-16580.613101,-7967.393179,-1184.329507
4141.619467,-10955.047942,-7431.126331,2072.576638
4141.619792,-5329.482782,-4903.011187,1998.556043
4141.620116,2220.617826,-2911.162892,888.247130
4141.620441,8660.409521,-3524.039291,-962.267725
4141.620765,13323.706956,-4903.011187,-814.226536
4141.621090,16358.551318,-8427.050478,-2368.659014
4141.621414,13693.809927,-9806.022374,-666.185348
4141.621739,8216.285956,-14785.643111,518.144159
4141.622063,3330.926739,-12640.575717,-3182.885551
4141.622388,-3182.885551,-16394.443657,518.144159
4141.622712,-10436.903782,-10572.117872,-1998.556043
4141.623036,-16580.613101,-9806.022374,666.185348
4141.623361,-17024.736666,-6281.983084,-962.267725
4141.623685,-8956.491898,-8580.269578,2738.761985
4141.624010,-5995.668130,-2681.334243,1332.370696
4141.624334,3182.885551,-2604.724693,2220.617826
4141.624659,8586.388927,-2374.896044,-1924.535449
4141.624983,12435.459826,-8733.488677,-814.226536
4141.625308,12583.501014,-9116.536426,-3034.844362
4141.625632,11547.212695,-12257.527968,518.144159
4141.625957,6069.688724,-14402.595362,-1480.411884
4141.626281,962.267725,-11951.089769,-1924.535449
4141.626606,-4737.318029,-14249.376263,148.041188
4141.626930,-12139.377449,-8963.317327,-1258.350101
4141.627255,-13619.789333,-9039.926876,962.267725
4141.627579,-11103.089130,-5132.839837,1554.432478
4141.627903,-5107.421000,-5669.106685,1776.494261
4141.628228,-444.123565,-2681.334243,592.164754
4141.628552,8142.265362,-4136.915689,-592.164754
4141.628877,11029.068536,-3753.867940,-888.247130
4141.629201,14063.912898,-8273.831378,-962.267725
4141.629526,14952.160028,-8580.269578,-1850.514855
4141.629850,8586.388927,-14479.204912,666.185348
4141.630175,3552.988522,-13330.061665,-1628.453072
4141.630499,-592.164754,-14555.814462,-1480.411884
4141.630824,-6365.771101,-13253.452115,-296.082377
4141.631148,-12509.480420,-9039.926876,0.000000
4141.631473,-15322.262999,-6894.859482,888.247130
4141.631797,-11695.253884,-6665.030833,1998.556043
4141.632122,-5995.668130,-4673.182538,888.247130
4141.632446,-592.164754,-3447.429741,1702.473667
4141.632770,7402.059420,-2911.162892,-518.144159
4141.633095,11695.253884,-7354.516781,-2442.679609
4141.633419,12953.603985,-9806.022374,-1036.288319
4141.633744,13101.645173,-8580.269578,-1332.370696
4141.634068,7254.018232,-13176.842566,444.123565
4141.634393,4515.256246,-13559.890315,-2664.741391
4141.634717,-2590.720797,-14709.033562,0.000000
4141.635042,-9696.697840,-9652.803275,-1702.473667
4141.635366,-14211.954086,-9882.631924,592.164754
4141.635691,-16210.510130,-5822.325785,-1702.473667
4141.636015,-9770.718434,-6205.373534,2960.823768
4141.636340,-2738.761985,-3830.477490,370.102971
4141.636664,5181.441594,-3370.820191,-222.061783
4141.636989,10066.800811,-2528.115143,-1850.514855
4141.637313,12139.377449,-7431.126331,-666.185348
4141.637637,16506.592507,-9193.145976,-1480.411884
4141.637962,10436.903782,-11874.480219,-592.164754
4141.638286,7920.203579,-15092.081311,-1406.391290
4141.638611,1702.473667,-12410.747068,-1628.453072
4141.638935,-8290.306550,-14555.814462,-592.164754
4141.639260,-12287.418637,-8886.707777,-1702.473667
4141.639584,-15692.365970,-8197.221829,666.185348
4141.639909,-13915.871710,-5822.325785,518.144159
4141.640233,-8734.430116,-6128.763984,1628.453072
4141.640558,-1110.308913,-3830.477490,1258.350101
4141.640882,5329.482782,-2757.943793,-740.205942
4141.641207,9400.615463,-5439.278036,-1406.391290
4141.641531,13767.830521,-8886.707777,-1850.514855
4141.641856,13397.727550,-8503.660028,74.020594
4141.642180,10510.924376,-13789.718964,-740.205942
4141.642504,6365.771101,-14249.376263,-3256.906145
4141.642829,-1258.350101,-15168.690860,592.164754
4141.643153,-8068.244768,-9499.584175,-2442.679609
4141.643478,-14211.954086,-10572.117872,740.205942
4141.643802,-15692.365970,-6052.154434,-2220.617826
4141.644127,-8512.368333,-7201.297681,4663.297435
4141.644451,-3182.885551,-3753.867940,-74.020594
4141.644776,2664.741391,-4596.572988,666.185348
4141.645100,7402.059420,-919.314598,-1924.535449
4141.645425,13249.686362,-7890.783629,962.267725
4141.645749,14137.933492,-7967.393179,-3627.009116
4141.646074,13619.789333,-13636.499864,444.123565
4141.646398,8068.244768,-13789.718964,-1628.453072
4141.646722,3775.050304,-12410.747068,-2146.597232
4141.647047,-5181.441594,-14709.033562,-888.247130
4141.647371,-10436.903782,-10418.898773,-1258.350101
4141.647696,-15396.283594,-9652.803275,1332.370696
4141.648020,-14878.139434,-5669.106685,-148.041188
4141.648345,-8586.388927,-7354.516781,3478.967927
4141.648669,-4145.153275,-2221.676944,-1406.391290
4141.648994,3330.926739,-3907.087040,2220.617826
4141.649318,9400.615463,-2451.505594,-2146.597232
4141.649643,12361.439231,-9729.412825,-296.082377
4141.649967,12731.542202,-9422.974625,-1184.329507
4141.650292,10584.944971,-12487.356617,962.267725
4141.650616,6069.688724,-13406.671215,-2146.597232
4141.650941,1184.329507,-12717.185267,-1776.494261
4141.651265,-6513.812290,-12257.527968,-148.041188
4141.651589,-12213.398043,-8886.707777,-888.247130
4141.651914,-14582.057057,-8197.221829,296.082377
4141.652238,-11547.212695,-5209.449386,2812.782580
4141.652563,-5551.544565,-4903.011187,1554.432478
4141.652887,222.061783,-3064.381992,444.123565
4141.653212,7698.141797,-3907.087040,-1998.556043
4141.653536,13027.624579,-5132.839837,370.102971
4141.653861,13101.645173,-8044.002729,-1850.514855
4141.654185,14952.160028,-9652.803275,-370.102971
4141.654510,8438.347739,-13253.452115,148.041188
4141.654834,5181.441594,-13483.280765,-2072.576638
4141.655159,-1554.432478,-14709.033562,-1036.288319
4141.655483,-7476.080014,-11951.089769,-1258.350101
4141.655808,-14137.933492,-9193.145976,74.020594
4141.656132,-15322.262999,-6205.373534,1258.350101
4141.656456,-10955.047942,-7048.078582,2886.803174
4141.656781,-6883.915261,-3983.696590,148.041188
4141.657105,740.205942,-3600.648841,1406.391290
4141.657430,7105.977043,-4903.011187,-1924.535449
4141.657754,12065.356855,-8427.050478,-1702.473667
4141.658079,12139.377449,-8656.879127,-1480.411884
4141.658403,13841.851115,-10725.336972,74.020594
4141.658728,6661.853478,-13942.938064,-888.247130
4141.659052,3849.070898,-13483.280765,-3330.926739
4141.659377,-2812.782580,-14709.033562,814.226536
4141.659701,-10362.883188,-8503.660028,-2590.720797
4141.660026,-13619.789333,-11108.384721,1406.391290
4141.660350,-14211.954086,-3600.648841,962.267725
4141.660675,-8956.491898,-6665.030833,1554.432478
4141.660999,-3849.070898,-3524.039291,-1258.350101
4141.661323,4441.235652,-5822.325785,0.000000
4141.661648,10584.944971,-4060.306139,-2368.659014
4141.661972,13693.809927,-7660.954980,74.020594
4141.662297,16358.551318,-7584.345430,-2146.597232
4141.662621,10955.047942,-13253.452115,444.123565
4141.662946,7105.977043,-13713.109414,-3256.906145
4141.663270,1480.411884,-14479.204912,-814.226536
4141.663595,-5699.585753,-12487.356617,-1480.411884
4141.663919,-13989.892304,-9806.022374,592.164754
4141.664242,-14952.160028,-7890.783629,-666.185348
4141.664567,-13989.892304,-6358.592633,1480.411884
4141.664891,-9030.512492,-5209.449386,296.082377
4141.665216,-1702.473667,-4519.963438,444.123565
4141.665540,4737.318029,-3217.601092,-222.061783
4141.665865,10881.027347,-4903.011187,-1850.514855
4141.666189,13841.851115,-9882.631924,-1406.391290
4141.666514,13693.809927,-8503.660028,-962.267725
4141.666838,9474.636058,-15245.300410,296.082377
4141.667162,5847.626942,-11874.480219,-4737.318029
4141.667487,-2368.659014,-15551.738609,962.267725
4141.667811,-8734.430116,-8427.050478,-2368.659014
4141.668136,-13323.706956,-10801.946522,1554.432478
4141.668460,-15988.448347,-4979.620737,-1554.432478
4141.668785,-8734.430116,-7354.516781,2960.823768
4141.669109,-3478.967927,-3600.648841,-1110.308913
4141.669434,3478.967927,-5132.839837,1480.411884
4141.669758,9474.636058,-2298.286494,-1924.535449
4141.670083,12657.521608,-7584.345430,296.082377
4141.670407,14508.036463,-8733.488677,-1406.391290
4141.670732,12953.603985,-11874.480219,-740.205942
4141.671056,7550.100608,-14096.157163,-1184.329507
4141.671381,2442.679609,-13330.061665,-2442.679609
4141.671705,-4293.194464,-14172.766713,-592.164754
4141.672030,-10955.047942,-9806.022374,0.000000
4141.672354,-15100.201217,-8580.269578,1036.288319
4141.672678,-14211.954086,-6205.373534,962.267725
4141.673003,-9844.739029,-6511.811733,814.226536
4141.673327,-2368.659014,-4213.525239,1406.391290
4141.673652,2960.823768,-3140.991542,0.000000
4141.673976,9474.636058,-4519.963438,-592.164754
4141.674301,13101.645173,-8273.831378,-518.144159
4141.674625,13619.789333,-7354.516781,-1628.453072
4141.674950,10658.965565,-14709.033562,444.123565
4141.675274,6365.771101,-14019.547613,-4071.132681
4141.675599,74.020594,-15092.081311,-1480.411884
4141.675923,-8068.244768,-11414.822920,-296.082377
4141.676248,-11843.295072,-10342.289223,0.000000
4141.676572,-15396.283594,-7967.393179,-296.082377
4141.676897,-11251.130318,-6665.030833,2368.659014
4141.677221,-3923.091493,-4903.011187,444.123565
4141.677546,-888.247130,-3524.039291,444.123565
4141.677870,8586.388927,-3677.258390,-1110.308913
4141.678194,12065.356855,-4979.620737,-296.082377
4141.678519,14063.912898,-9576.193725,-1998.556043
4141.678843,12509.480420,-10725.336972,-962.267725
4141.679168,8364.327145,-14249.376263,74.020594
4141.679492,4737.318029,-13176.842566,-2368.659014
4141.679817,-2368.659014,-14325.985813,-2516.700203
4141.680141,-8438.347739,-12640.575717,666.185348
4141.680466,-15100.201217,-7890.783629,0.000000
4141.680790,-15692.365970,-8580.269578,666.185348
4141.681115,-11473.192101,-6818.249932,592.164754
4141.681439,-3552.988522,-3677.258390,2368.659014
4141.681764,0.000000,-1685.410096,-518.144159
4141.682088,9178.553681,-5362.668486,-370.102971
4141.682413,11843.295072,-5669.106685,-1406.391290
4141.682737,13545.768739,-9729.412825,-592.164754
4141.683061,11843.295072,-10572.117872,-592.164754
4141.683386,7994.224174,-14709.033562,-2072.576638
4141.683710,2294.638420,-13636.499864,-2664.741391
4141.684035,-5551.544565,-12870.404366,-2368.659014
4141.684359,-10436.903782,-11951.089769,-296.082377
4141.684684,-14952.160028,-8810.098227,-222.061783
4141.685008,-11917.315666,-6281.983084,2442.679609
4141.685333,-7550.100608,-4596.572988,814.226536
4141.685657,-888.247130,-3447.429741,740.205942
4141.685982,6365.771101,-3294.210641,-666.185348
4141.686306,12435.459826,-4749.792088,-666.185348
4141.686631,14730.098246,-7660.954980,-962.267725
4141.686955,14508.036463,-9193.145976,0.000000
4141.687280,9474.636058,-13942.938064,0.000000
4141.687604,5329.482782,-13789.718964,-2590.720797
4141.687929,-1554.432478,-15628.348159,-1184.329507
4141.688253,-7328.038826,-12104.308868,-1480.411884
4141.688577,-13027.624579,-10112.460574,1332.370696
4141.688902,-14952.160028,-7660.954980,0.000000
4141.689226,-11843.295072,-5975.544884,2368.659014
4141.689551,-5699.585753,-3600.648841,1258.350101
4141.689875,740.205942,-3753.867940,444.123565
4141.690200,6735.874072,-2911.162892,-148.041188
4141.690524,8438.347739,-5362.668486,-1036.288319
4141.690849,14211.954086,-9269.755526,-1480.411884
4141.691173,11917.315666,-10035.851024,444.123565
4141.691498,7402.059420,-14938.862211,-1184.329507
4141.691822,3478.967927,-13559.890315,-3256.906145
4141.692147,-3552.988522,-13866.328514,-1776.494261
4141.692471,-10436.903782,-10725.336972,-1036.288319
4141.692796,-13693.809927,-10495.508323,444.123565
4141.693120,-13027.624579,-6818.249932,1924.535449
4141.693444,-8068.244768,-4979.620737,2590.720797
4141.693769,-1776.494261,-2374.896044,-518.144159
4141.694093,5255.462188,-4136.915689,-592.164754
4141.694418,9696.697840,-1762.019645,-518.144159
4141.694742,11843.295072,-7890.783629,-370.102971
4141.695067,13619.789333,-9116.536426,-1332.370696
4141.695391,9696.697840,-13253.452115,444.123565
4141.695716,8068.244768,-12180.918418,-1702.473667
4141.696040,888.247130,-15092.081311,-1998.556043
4141.696365,-5107.421000,-13330.061665,-1702.473667
4141.696689,-11991.336260,-10725.336972,1480.411884
4141.697014,-14730.098246,-7584.345430,740.205942
4141.697338,-12657.521608,-7890.783629,2294.638420
4141.697663,-8290.306550,-3294.210641,1036.288319
4141.697987,-740.205942,-3140.991542,740.205942
4141.698312,4145.153275,-2987.772442,-2146.597232
4141.698636,12287.418637,-5822.325785,-592.164754
4141.698960,9326.594869,-7814.174080,-1258.350101
4141.699285,12361.439231,-8350.440928,-370.102971
4141.699609,7550.100608,-13176.842566,1406.391290
4141.699934,5625.565159,-14172.766713,-3182.885551
4141.700258,592.164754,-15858.176809,-1036.288319
4141.700583,-9030.512492,-10648.727422,-3182.885551
4141.700907,-13915.871710,-11951.089769,888.247130
4141.701232,-13767.830521,-5439.278036,0.000000
4141.701556,-9770.718434,-6511.811733,3478.967927
4141.701881,-4441.235652,-2528.115143,-148.041188
4141.702205,1702.473667,-4673.182538,-1998.556043
4141.702530,7772.162391,-3294.210641,-1554.432478
4141.702854,12361.439231,-5286.058936,-296.082377
4141.703179,16432.571912,-7507.735880,-888.247130
4141.703503,13175.665768,-11108.384721,444.123565
4141.703828,8512.368333,-13942.938064,-592.164754
4141.704152,2368.659014,-14555.814462,-2146.597232
4141.704476,-3034.844362,-15245.300410,-1998.556043
4141.704801,-9474.636058,-12027.699319,296.082377
4141.705125,-14359.995275,-7967.393179,222.061783
4141.705450,-15470.304188,-8120.612279,592.164754
4141.705774,-9474.636058,-5669.106685,1110.308913
4141.706099,-3923.091493,-4060.306139,296.082377
4141.706423,1184.329507,-2911.162892,-1184.329507
4141.706748,9548.656652,-4903.011187,-296.082377
4141.707072,10510.924376,-7354.516781,-1850.514855
4141.707397,13545.768739,-9652.803275,-1258.350101
4141.707721,11473.192101,-13100.233016,666.185348
4141.708046,8364.327145,-14402.595362,-2442.679609
4141.708370,592.164754,-14709.033562,-1258.350101
4141.708695,-5403.503377,-12487.356617,-1332.370696
4141.709019,-11547.212695,-10725.336972,0.000000
4141.709343,-15174.221811,-7201.297681,-370.102971
4141.709668,-11325.150913,-6511.811733,2368.659014
4141.709992,-5477.523971,-4136.915689,370.102971
4141.710317,-814.226536,-1915.238745,0.000000
4141.710641,5995.668130,-3064.381992,-814.226536
4141.710966,11473.192101,-4979.620737,0.000000
4141.711290,15840.407159,-7890.783629,-962.267725
4141.711615,14804.118840,-10801.946522,518.144159
4141.711939,10066.800811,-13559.890315,-148.041188
4141.712264,5551.544565,-14325.985813,-1924.535449
4141.712588,-1998.556043,-15168.690860,-2072.576638
4141.712913,-8660.409521,-11951.089769,0.000000
4141.713237,-14508.036463,-9882.631924,888.247130
4141.713562,-16136.489536,-7890.783629,888.247130
4141.713886,-11695.253884,-6281.983084,888.247130
4141.714211,-6365.771101,-3370.820191,666.185348
4141.714535,444.123565,-2451.505594,296.082377
4141.714859,6809.894666,-2068.457845,-1480.411884
4141.715184,10732.986159,-6205.373534,592.164754
4141.715508,16950.716072,-7660.954980,-2072.576638
4141.715833,13101.645173,-11031.775171,0.000000
4141.716157,9548.656652,-14479.204912,-888.247130
4141.716482,2590.720797,-13789.718964,-2368.659014
4141.716806,-3330.926739,-13789.718964,-962.267725
4141.717131,-11325.150913,-10725.336972,-1184.329507
4141.717455,-13989.892304,-9422.974625,370.102971
4141.717780,-14063.912898,-5745.716235,1702.473667
4141.718104,-8216.285956,-6128.763984,74.020594
4141.718429,-1036.288319,-3830.477490,-148.041188
4141.718753,4737.318029,-2068.457845,-666.185348
4141.719078,9474.636058,-3830.477490,-888.247130
4141.719402,14211.954086,-8350.440928,-1258.350101
4141.719727,16284.530724,-9806.022374,-814.226536
4141.720051,12509.480420,-12487.356617,1554.432478
4141.720375,6883.915261,-12870.404366,-2738.761985
4141.720700,-592.164754,-16394.443657,-2220.617826
4141.721024,-7031.956449,-12947.013916,-1998.556043
4141.721349,-13693.809927,-11338.213370,222.061783
4141.721673,-16728.654289,-7584.345430,888.247130
4141.721998,-12879.583391,-6358.592633,2072.576638
4141.722322,-5995.668130,-4136.915689,148.041188
4141.722647,74.020594,-4060.306139,0.000000
4141.722971,6291.750507,-1762.019645,-1036.288319
4141.723296,9844.739029,-4749.792088,148.041188
4141.723620,14359.995275,-7354.516781,-2590.720797
4141.723945,12805.562797,-12257.527968,222.061783
4141.724269,10436.903782,-13406.671215,-1036.288319
4141.724594,4441.235652,-14632.424012,-1480.411884
4141.724918,-3034.844362,-14249.376263,-2960.823768
4141.725242,-9844.739029,-13942.938064,-1628.453072
4141.725567,-13175.665768,-9729.412825,-592.164754
4141.725891,-14582.057057,-8580.269578,1332.370696
4141.726216,-9400.615463,-5132.839837,2812.782580
4141.726540,-1184.329507,-2068.457845,222.061783
4141.726865,2072.576638,-3677.258390,-814.226536
4141.727189,8882.471304,-2221.676944,-1924.535449
4141.727514,13175.665768,-7277.907231,-962.267725
4141.727838,15396.283594,-8963.317327,-962.267725
4141.728163,13249.686362,-12257.527968,1924.535449
4141.728487,7105.977043,-11644.651570,-888.247130
4141.728812,1628.453072,-15781.567259,-2146.597232
4141.729136,-4515.256246,-13559.890315,-2886.803174
4141.729461,-12435.459826,-13023.623466,740.205942
4141.729785,-14730.098246,-8503.660028,888.247130
4141.730110,-14063.912898,-7967.393179,1406.391290
4141.730434,-9696.697840,-5592.497135,2072.576638
4141.730758,-1850.514855,-2298.286494,1184.329507
4141.731083,3849.070898,-1685.410096,-296.082377
4141.731407,8808.450710,-4749.792088,-888.247130
4141.731732,13841.851115,-4979.620737,-1998.556043
4141.732056,14137.933492,-10112.460574,222.061783
4141.732381,10362.883188,-12027.699319,0.000000
4141.732705,6513.812290,-13559.890315,0.000000
4141.733030,-888.247130,-14019.547613,-2516.700203
4141.733354,-7920.203579,-13483.280765,-1406.391290
4141.733679,-13101.645173,-10495.508323,-518.144159
4141.734003,-13989.892304,-9116.536426,1406.391290
4141.734328,-10436.903782,-5898.935335,2664.741391
4141.734652,-4811.338623,-4596.572988,1332.370696
4141.734977,518.144159,-2374.896044,-1480.411884
4141.735301,9474.636058,-3140.991542,0.000000
4141.735625,12509.480420,-5592.497135,-1702.473667
4141.735950,14211.954086,-7354.516781,-1776.494261
4141.736274,12583.501014,-9806.022374,1332.370696
4141.736599,10214.842000,-12640.575717,0.000000
4141.736923,4737.318029,-14785.643111,-1554.432478
4141.737248,-3478.967927,-14402.595362,-2442.679609
4141.737572,-11621.233289,-13789.718964,-148.041188
4141.737897,-14952.160028,-9882.631924,0.000000
4141.738221,-14730.098246,-8656.879127,888.247130
4141.738546,-10658.965565,-6052.154434,2368.659014
4141.738870,-3849.070898,-2911.162892,74.020594
4141.739195,2664.741391,-2528.115143,-296.082377
4141.739519,8808.450710,-2987.772442,740.205942
4141.739844,13027.624579,-5515.887586,-2664.741391
4141.740168,12953.603985,-8810.098227,-888.247130
4141.740493,12213.398043,-11338.213370,-222.061783
4141.740817,7179.997637,-12947.013916,-962.267725
4141.741141,2886.803174,-13100.233016,-2072.576638
4141.741466,-5403.503377,-15015.471761,-1554.432478
4141.741790,-13545.768739,-10955.165621,-1850.514855
4141.742115,-15322.262999,-9882.631924,962.267725
4141.742439,-12287.418637,-6971.469032,2590.720797
4141.742764,-6661.853478,-4979.620737,666.185348
4141.743088,0.000000,-3217.601092,-296.082377
4141.743413,7772.162391,-2528.115143,-1702.473667
4141.743737,11177.109724,-4749.792088,-1036.288319
4141.744062,14730.098246,-6358.592633,-2738.761985
4141.744386,15174.221811,-9346.365076,1406.391290
4141.744711,12139.377449,-11874.480219,-814.226536
4141.745035,6513.812290,-14938.862211,-666.185348
4141.745360,-2368.659014,-12870.404366,-2516.700203
4141.745684,-9548.656652,-13713.109414,-888.247130
4141.746009,-14878.139434,-12257.527968,-740.205942
4141.746333,-16062.468941,-8886.707777,962.267725
4141.746657,-12287.418637,-6818.249932,2590.720797
4141.746982,-7254.018232,-4903.011187,740.205942
4141.747306,3330.926739,-2757.943793,296.082377
4141.747631,5995.668130,-2221.676944,-740.205942
4141.747955,12509.480420,-4903.011187,-2590.720797
4141.748280,11325.150913,-7890.783629,-1332.370696
4141.748604,11843.295072,-9806.022374,74.020594
4141.748929,9474.636058,-14402.595362,1554.432478
4141.749253,2516.700203,-12487.356617,-4663.297435
4141.749578,-5033.400406,-15934.786358,-296.082377
4141.749902,-10436.903782,-10265.679673,-2590.720797
4141.750227,-12805.562797,-12027.699319,1258.350101
4141.750551,-13101.645173,-7737.564530,666.185348
4141.750876,-6143.709319,-4826.401637,3330.926739
4141.751200,-1850.514855,-3140.991542,-296.082377
4141.751524,5477.523971,-3064.381992,-1036.288319
4141.751849,10807.006753,-4136.915689,-1554.432478
4141.752173,12139.377449,-3983.696590,-2368.659014
4141.752498,15174.221811,-9499.584175,1776.494261
4141.752822,12361.439231,-9422.974625,-1480.411884
4141.753147,7328.038826,-15398.519510,444.123565
4141.753471,-1628.453072,-13789.718964,-2516.700203
4141.753796,-8216.285956,-14709.033562,-962.267725
4141.754120,-12953.603985,-12104.308868,0.000000
4141.754445,-15544.324782,-10112.460574,148.041188
4141.754769,-12879.583391,-7737.564530,2294.638420
4141.755094,-6735.874072,-3524.039291,2886.803174
4141.755418,-296.082377,-2221.676944,0.000000
4141.755743,4811.338623,-3064.381992,-296.082377
4141.756067,10214.842000,-4903.011187,-1406.391290
4141.756392,9696.697840,-5975.544884,-2442.679609
4141.756716,13545.768739,-9422.974625,1110.308913
4141.757040,11473.192101,-10955.165621,740.205942
4141.757365,3701.029710,-13406.671215,-2812.782580
4141.757689,-2368.659014,-14402.595362,-1480.411884
4141.758014,-9474.636058,-12334.137518,-1110.308913
4141.758338,-13619.789333,-13330.061665,74.020594
4141.758663,-14582.057057,-7354.516781,814.226536
4141.758987,-9474.636058,-6665.030833,3997.112087
4141.759312,-3404.947333,-2604.724693,1036.288319
4141.759636,3404.947333,-3907.087040,-1036.288319
4141.759961,10362.883188,-2987.772442,-2368.659014
4141.760285,12065.356855,-4443.353888,-370.102971
4141.760610,13175.665768,-5669.106685,-1332.370696
4141.760934,12287.418637,-13330.061665,-444.123565
4141.761259,9548.656652,-13942.938064,-1850.514855
4141.761583,3997.112087,-12487.356617,-1258.350101
4141.761908,-5477.523971,-13406.671215,-1850.514855
4141.762232,-11251.130318,-15551.738609,-592.164754
4141.762556,-14656.077652,-10342.289223,-444.123565
4141.762881,-15544.324782,-8044.002729,2072.576638
4141.763205,-11177.109724,-4903.011187,3330.926739
4141.763530,-5181.441594,-2068.457845,-444.123565
4141.763854,3849.070898,-3753.867940,-962.267725
4141.764179,10066.800811,-3064.381992,-2738.761985
4141.764503,12657.521608,-6052.154434,0.000000
4141.764828,14211.954086,-5822.325785,-740.205942
4141.765152,13027.624579,-12104.308868,0.000000
4141.765476,8660.409521,-14785.643111,-1850.514855
4141.765801,1850.514855,-13713.109414,-1924.535449
4141.766125,-3849.070898,-13942.938064,-1776.494261
4141.766450,-12287.418637,-13866.328514,-1998.556043
4141.766774,-14730.098246,-8810.098227,0.000000
4141.767098,-13989.892304,-6741.640382,3256.906145
4141.767423,-10658.965565,-3447.429741,1628.453072
4141.767747,444.123565,-3983.696590,148.041188
4141.768072,6883.915261,-1991.848295,-3108.864956
4141.768396,12509.480420,-4903.011187,-1480.411884
4141.768720,14063.912898,-4903.011187,-296.082377
4141.769045,16876.695478,-9729.412825,-666.185348
4141.769369,11769.274478,-13559.890315,0.000000
4141.769693,7550.100608,-14479.204912,-1924.535449
4141.770018,-296.082377,-14249.376263,-814.226536
4141.770342,-7105.977043,-13406.671215,-962.267725
4141.770667,-14137.933492,-10035.851024,-962.267725
4141.770991,-15766.386565,-8963.317327,0.000000
4141.771315,-13989.892304,-6511.811733,2368.659014
4141.771640,-7624.121203,-3370.820191,1406.391290
4141.771964,814.226536,-3677.258390,888.247130
4141.772289,7772.162391,-2757.943793,-814.226536
4141.772613,13619.789333,-4213.525239,-1258.350101
4141.772937,14952.160028,-7354.516781,-740.205942
4141.773262,14582.057057,-11108.384721,-370.102971
4141.773586,8808.450710,-14172.766713,-1110.308913
4141.773910,4959.379811,-13713.109414,-1628.453072
4141.774235,-3701.029710,-14479.204912,-740.205942
4141.774559,-11547.212695,-11644.651570,-1850.514855
4141.774884,-14285.974681,-10418.898773,814.226536
4141.775208,-15618.345376,-5822.325785,592.164754
4141.775532,-10881.027347,-5898.935335,888.247130
4141.775857,-3404.947333,-3677.258390,1110.308913
4141.776181,5403.503377,-3140.991542,1554.432478
4141.776506,10510.924376,-1991.848295,-888.247130
4141.776830,13693.809927,-7431.126331,-296.082377
4141.777154,14285.974681,-9193.145976,-2294.638420
4141.777479,14285.974681,-13100.233016,-2738.761985
4141.777803,9918.759623,-12487.356617,-592.164754
4141.778128,1480.411884,-14019.547613,0.000000
4141.778452,-5847.626942,-12717.185267,-592.164754
4141.778776,-15026.180623,-12180.918418,814.226536
4141.779101,-15248.242405,-8656.879127,370.102971
4141.779425,-14211.954086,-6741.640382,2368.659014
4141.779749,-8290.306550,-4136.915689,-296.082377
4141.780074,-2886.803174,-5209.449386,1258.350101
4141.780398,4959.379811,-2451.505594,-444.123565
4141.780723,8216.285956,-4749.792088,222.061783
4141.781047,11547.212695,-7890.783629,-962.267725
4141.781371,12065.356855,-8656.879127,-888.247130
4141.781696,11769.274478,-14555.814462,-1110.308913
4141.782020,6365.771101,-11184.994271,-3775.050304
4141.782345,-296.082377,-14709.033562,-296.082377
4141.782669,-8808.450710,-12257.527968,-2368.659014
4141.782993,-15766.386565,-10342.289223,1184.329507
4141.783318,-14730.098246,-7890.783629,1628.453072
4141.783642,-11547.212695,-6205.373534,3034.844362
4141.783967,-5477.523971,-2757.943793,-962.267725
4141.784291,2516.700203,-4979.620737,-518.144159
4141.784615,8290.306550,-4136.915689,-1554.432478
4141.784940,10658.965565,-6281.983084,-962.267725
4141.785264,14137.933492,-9652.803275,0.000000
4141.785588,14285.974681,-11568.042020,-1850.514855
4141.785913,11473.192101,-11721.261119,-2368.659014
4141.786237,5107.421000,-12334.137518,-1110.308913
4141.786562,222.061783,-12870.404366,-1036.288319
4141.786886,-12139.377449,-11874.480219,148.041188
4141.787210,-16580.613101,-10801.946522,-296.082377
4141.787535,-17616.901420,-7890.783629,444.123565
4141.787859,-11325.150913,-7507.735880,2072.576638
4141.788184,-4959.379811,-2221.676944,1628.453072
4141.788508,-666.185348,-3830.477490,-1258.350101
4141.788832,8586.388927,-6971.469032,-2220.617826
4141.789157,13101.645173,-9193.145976,148.041188
4141.789481,14804.118840,-5822.325785,-444.123565
4141.789805,14434.015869,-11797.870669,-1924.535449
4141.790130,10658.965565,-12870.404366,-3627.009116
4141.790454,296.082377,-16700.881856,2590.720797
4141.790779,-5699.585753,-7124.688131,-3182.885551
4141.791103,-13397.727550,-13100.233016,592.164754
4141.791427,-17394.839637,-8886.707777,-1184.329507
4141.791752,-13915.871710,-5592.497135,4071.132681
4141.792076,-7920.203579,-3983.696590,1036.288319
4141.792401,888.247130,-4596.572988,-962.267725
4141.792725,5403.503377,-4213.525239,-962.267725
4141.793049,11325.150913,-4290.134789,-222.061783
4141.793374,17024.736666,-9882.631924,-2368.659014
4141.793698,16802.674883,-8963.317327,-1702.473667
4141.794023,12065.356855,-12640.575717,0.000000
4141.794347,7920.203579,-9806.022374,-3108.864956
4141.794671,-1850.514855,-17850.025103,2664.741391
4141.794996,-9326.594869,-8273.831378,-2960.823768
4141.795320,-13619.789333,-10189.070123,1850.514855
4141.795644,-17320.819043,-8273.831378,-1480.411884
4141.795969,-14063.912898,-7584.345430,4367.215058
4141.796293,-7698.141797,-2145.067394,888.247130
4141.796618,2072.576638,-5286.058936,-666.185348
4141.796942,3997.112087,-6358.592633,-962.267725
4141.797266,13101.645173,-4366.744339,2516.700203
4141.797591,14359.995275,-7201.297681,-4219.173869
4141.797915,17394.839637,-14709.033562,-1258.350101
4141.798240,13841.851115,-11414.822920,-3182.885551
4141.798564,2516.700203,-8656.879127,2294.638420
4141.798888,-3923.091493,-14172.766713,0.000000
4141.799213,-10807.006753,-12487.356617,-3404.947333
4141.799537,-16654.633695,-11338.213370,2442.679609
4141.799861,-15988.448347,-3524.039291,-370.102971
4141.800186,-12139.377449,-9652.803275,3627.009116
4141.800510,-3108.864956,-1991.848295,-1110.308913
4141.800835,3478.967927,-4596.572988,-814.226536
4141.801159,9326.594869,-5439.278036,-1406.391290
4141.801483,14359.995275,-7507.735880,1702.473667
4141.801808,15544.324782,-7890.783629,-3923.091493
4141.802132,17246.798449,-15934.786358,370.102971
4141.802457,11399.171507,-8350.440928,-5329.482782
4141.802781,222.061783,-12334.137518,2812.782580
4141.803105,-5921.647536,-11644.651570,-888.247130
4141.803430,-14508.036463,-12487.356617,-1036.288319
4141.803754,-19245.354492,-10955.165621,222.061783
4141.804079,-14137.933492,-4673.182538,-1110.308913
4141.804403,-13175.665768,-7354.516781,5551.544565
4141.804727,-518.144159,-766.095498,-1184.329507
4141.805052,4811.338623,-6665.030833,296.082377
4141.805376,9474.636058,-5056.230287,-592.164754
4141.805700,16654.633695,-6358.592633,1036.288319
4141.806025,17616.901420,-10035.851024,-3404.947333
4141.806349,16580.613101,-15015.471761,-2368.659014
4141.806674,8660.409521,-10265.679673,-1332.370696
4141.806998,-4441.235652,-12563.966167,2146.597232
4141.807322,-9918.759623,-10418.898773,-2220.617826
4141.807647,-15914.427753,-12257.527968,0.000000
4141.807971,-15766.386565,-8503.660028,1110.308913
4141.808296,-13767.830521,-2451.505594,1184.329507
4141.808620,-10362.883188,-6435.202183,3552.988522
4141.808944,3701.029710,-2221.676944,-518.144159
4141.809269,9918.759623,-5745.716235,-2442.679609
4141.809593,10732.986159,-8120.612279,-740.205942
4141.809918,18949.272115,-6665.030833,0.000000
4141.810242,16506.592507,-12410.747068,-1998.556043
4141.810566,17246.798449,-14096.157163,-3256.906145
4141.810891,5477.523971,-10801.946522,-1554.432478
4141.811215,-6587.832884,-11491.432470,2072.576638
4141.811539,-12213.398043,-9959.241474,-444.123565
4141.811864,-17098.757260,-11031.775171,-148.041188
4141.812188,-16580.613101,-7890.783629,1924.535449
4141.812513,-14730.098246,-2374.896044,1332.370696
4141.812837,-7920.203579,-6665.030833,4367.215058
4141.813161,4959.379811,-3524.039291,-2516.700203
4141.813486,9326.594869,-5898.935335,-1776.494261
4141.813810,14063.912898,-7814.174080,-592.164754
4141.814135,20355.663405,-7737.564530,-666.185348
4141.814459,15544.324782,-13100.233016,-1036.288319
4141.814783,11473.192101,-13176.842566,-3404.947333
4141.815108,1258.350101,-10801.946522,814.226536
4141.815432,-7402.059420,-9959.241474,-1110.308913
4141.815756,-12657.521608,-11568.042020,-1702.473667
4141.816081,-17098.757260,-9422.974625,1406.391290
4141.816405,-13175.665768,-5132.839837,1406.391290
4141.816730,-9326.594869,-4290.134789,1924.535449
4141.817054,-4219.173869,-3677.258390,2886.803174
4141.817378,7698.141797,-5056.230287,-4885.359217
4141.817703,9918.759623,-8503.660028,-1258.350101
4141.818027,14359.995275,-8733.488677,-592.164754
4141.818352,16358.551318,-8580.269578,-222.061783
4141.818676,16062.468941,-14709.033562,-2812.782580
4141.819000,10214.842000,-13406.671215,-1924.535449
4141.819325,-1702.473667,-10878.556072,1850.514855
4141.819649,-8216.285956,-10265.679673,-2368.659014
4141.819974,-17098.757260,-13713.109414,-2368.659014
4141.820298,-16284.530724,-7124.688131,1406.391290
4141.820622,-14137.933492,-2451.505594,3108.864956
4141.820947,-9770.718434,-4903.011187,4071.132681
4141.821271,-1850.514855,-3907.087040,0.000000
4141.821595,7402.059420,-4519.963438,-2812.782580
4141.821920,10881.027347,-10418.898773,-740.205942
4141.822244,17098.757260,-7814.174080,-2294.638420
4141.822569,16432.571912,-11951.089769,962.267725
4141.822893,12805.562797,-12717.185267,-2812.782580
4141.823217,3182.885551,-12180.918418,-888.247130
4141.823542,-4367.215058,-12563.966167,148.041188
4141.823866,-9548.656652,-10878.556072,-3775.050304
4141.824191,-15396.283594,-10648.727422,-740.205942
4141.824515,-14878.139434,-4903.011187,3627.009116
4141.824839,-12287.418637,-2528.115143,1480.411884
4141.825164,-6365.771101,-5898.935335,2812.782580
4141.825488,5329.482782,-3753.867940,-1480.411884
4141.825813,10732.986159,-5286.058936,-1776.494261
4141.826137,13545.768739,-8503.660028,-1776.494261
4141.826461,16358.551318,-8810.098227,518.144159
4141.826786,15988.448347,-13636.499864,-1258.350101
4141.827110,11473.192101,-13176.842566,-3478.967927
4141.827434,-148.041188,-12870.404366,888.247130
4141.827759,-6217.729913,-9806.022374,-222.061783
4141.828083,-13767.830521,-12334.137518,-1702.473667
4141.828408,-16136.489536,-9039.926876,-1110.308913
