#time,accel_x,accel_y,accel_z
4261.957810,444.123565,-8580.269578,-222.061783
4261.958135,222.061783,-8580.269578,-222.061783
4261.958459,148.041188,-8580.269578,-740.205942
4261.958784,444.123565,-8503.660028,-444.123565
4261.959108,370.102971,-8810.098227,-444.123565
4261.959433,444.123565,-8503.660028,-370.102971
4261.959757,296.082377,-8886.707777,-296.082377
4261.960082,222.061783,-8503.660028,-444.123565
4261.960406,518.144159,-8580.269578,-296.082377
4261.960731,518.144159,-8580.269578,-370.102971
4261.961055,444.123565,-8810.098227,-296.082377
4261.961380,518.144159,-8350.440928,-296.082377
4261.961704,0.000000,-8733.488677,-296.082377
4261.962028,444.123565,-8810.098227,-296.082377
4261.962353,518.144159,-8350.440928,-296.082377
4261.962677,814.226536,-8733.488677,-296.082377
4261.963002,370.102971,-8427.050478,-370.102971
4261.963326,148.041188,-8427.050478,-370.102971
4261.963651,592.164754,-8810.098227,-518.144159
4261.963975,740.205942,-8120.612279,-444.123565
4261.964300,592.164754,-8580.269578,-222.061783
4261.964624,444.123565,-8503.660028,-518.144159
4261.964949,370.102971,-8656.879127,-222.061783
4261.965273,592.164754,-8120.612279,-222.061783
4261.965598,296.082377,-8273.831378,-222.061783
4261.965922,666.185348,-8503.660028,-370.102971
4261.966246,666.185348,-8350.440928,-444.123565
4261.966571,592.164754,-8810.098227,-370.102971
4261.966895,592.164754,-8350.440928,-370.102971
4261.967220,592.164754,-8656.879127,-296.082377
4261.967544,222.061783,-8503.660028,-444.123565
4261.967869,444.123565,-8656.879127,-370.102971
4261.968193,444.123565,-8350.440928,-592.164754
4261.968518,222.061783,-8886.707777,-296.082377
4261.968842,370.102971,-8427.050478,-666.185348
4261.969167,444.123565,-8656.879127,-296.082377
4261.969491,666.185348,-8503.660028,-296.082377
4261.969815,518.144159,-8580.269578,-592.164754
4261.970140,444.123565,-8810.098227,0.000000
4261.970464,370.102971,-8656.879127,-370.102971
4261.970789,370.102971,-8580.269578,-222.061783
4261.971113,148.041188,-8656.879127,-148.041188
4261.971438,222.061783,-8580.269578,0.000000
4261.971762,592.164754,-8350.440928,-666.185348
4261.972087,296.082377,-8580.269578,-296.082377
4261.972411,74.020594,-9116.536426,222.061783
4261.972736,592.164754,-8350.440928,-518.144159
4261.973060,222.061783,-8656.879127,-296.082377
4261.973385,592.164754,-8427.050478,-444.123565
4261.973709,148.041188,-9116.536426,-370.102971
4261.974033,148.041188,-8963.317327,0.000000
4261.974358,0.000000,-8503.660028,-222.061783
4261.974682,444.123565,-8427.050478,-518.144159
4261.975007,0.000000,-9116.536426,-148.041188
4261.975331,-592.164754,-8656.879127,-296.082377
4261.975656,-1184.329507,-8963.317327,0.000000
4261.975980,-1628.453072,-8350.440928,-888.247130
4261.976305,-1998.556043,-8350.440928,-370.102971
4261.976629,-2294.638420,-8580.269578,296.082377
4261.976954,-2072.576638,-8733.488677,0.000000
4261.977278,-1332.370696,-8580.269578,-666.185348
4261.977603,-1258.350101,-8350.440928,-444.123565
4261.977927,-666.185348,-8273.831378,-518.144159
4261.978251,-1332.370696,-8656.879127,-592.164754
4261.978576,-1332.370696,-8733.488677,-592.164754
4261.978900,-2368.659014,-8810.098227,-222.061783
4261.979225,-3256.906145,-9039.926876,-370.102971
4261.979549,-3775.050304,-9039.926876,-148.041188
4261.979874,-3478.967927,-8886.707777,-296.082377
4261.980198,-3701.029710,-8656.879127,-444.123565
4261.980523,-2738.761985,-8656.879127,-222.061783
4261.980847,-2368.659014,-8427.050478,-518.144159
4261.981172,-1702.473667,-8733.488677,-370.102971
4261.981496,-1702.473667,-8503.660028,-740.205942
4261.981820,-1554.432478,-8886.707777,-592.164754
4261.982145,-1998.556043,-8503.660028,-444.123565
4261.982469,-2590.720797,-9193.145976,-222.061783
4261.982794,-3256.906145,-9116.536426,-222.061783
4261.983118,-3701.029710,-9193.145976,-296.082377
4261.983443,-3627.009116,-8886.707777,0.000000
4261.983767,-2886.803174,-8197.221829,-148.041188
4261.984092,-2960.823768,-8886.707777,0.000000
4261.984416,-2516.700203,-8580.269578,-370.102971
4261.984741,-2220.617826,-8350.440928,0.000000
4261.985065,-1850.514855,-8656.879127,-592.164754
4261.985390,-1554.432478,-8580.269578,-296.082377
4261.985714,-1850.514855,-8503.660028,0.000000
4261.986038,-2146.597232,-8503.660028,-222.061783
4261.986363,-2368.659014,-8733.488677,0.000000
4261.986687,-2368.659014,-8350.440928,-74.020594
4261.987012,-2146.597232,-8580.269578,-74.020594
4261.987336,-2220.617826,-8810.098227,-222.061783
4261.987661,-1924.535449,-8580.269578,-370.102971
4261.987985,-1702.473667,-9116.536426,0.000000
4261.988310,-1258.350101,-7814.174080,-814.226536
4261.988634,-1554.432478,-8350.440928,-370.102971
4261.988959,-1850.514855,-7890.783629,-444.123565
4261.989283,-2294.638420,-8503.660028,0.000000
4261.989608,-2368.659014,-8197.221829,-518.144159
4261.989932,-2368.659014,-8427.050478,-370.102971
4261.990256,-2442.679609,-8350.440928,-370.102971
4261.990581,-1554.432478,-8580.269578,0.000000
4261.990905,-1036.288319,-8350.440928,-296.082377
4261.991230,-444.123565,-8350.440928,-592.164754
4261.991554,222.061783,-8580.269578,-666.185348
4261.991879,0.000000,-8427.050478,-370.102971
4261.992203,296.082377,-8273.831378,-148.041188
4261.992528,148.041188,-8503.660028,-370.102971
4261.992852,0.000000,-8656.879127,-370.102971
4261.993177,-148.041188,-8733.488677,-444.123565
4261.993501,148.041188,-8273.831378,-222.061783
4261.993825,0.000000,-8656.879127,-148.041188
4261.994150,1036.288319,-8886.707777,0.000000
4261.994474,148.041188,-8427.050478,-888.247130
4261.994799,2294.638420,-9806.022374,0.000000
4261.995123,592.164754,-8044.002729,-1184.329507
4261.995448,0.000000,-10342.289223,74.020594
4261.995772,0.000000,-8886.707777,-1480.411884
4261.996097,-1406.391290,-9806.022374,0.000000
4261.996421,-3108.864956,-8427.050478,-370.102971
4261.996746,-3108.864956,-9116.536426,-592.164754
4261.997070,-3478.967927,-8656.879127,-296.082377
4261.997395,-3923.091493,-8810.098227,-518.144159
4261.997719,-2812.782580,-8273.831378,-518.144159
4261.998043,-2442.679609,-8427.050478,-888.247130
4261.998368,-1406.391290,-8120.612279,-444.123565
4261.998692,-814.226536,-7967.393179,-962.267725
4261.999017,-296.082377,-8350.440928,-370.102971
4261.999341,-592.164754,-8197.221829,-296.082377
4261.999666,-962.267725,-8580.269578,-814.226536
4261.999990,-1998.556043,-9269.755526,-370.102971
4262.000315,-2442.679609,-8810.098227,0.000000
4262.000639,-2368.659014,-9422.974625,0.000000
4262.000964,-1702.473667,-9039.926876,-370.102971
4262.001288,-1406.391290,-8656.879127,-148.041188
4262.001613,-814.226536,-8656.879127,-518.144159
4262.001937,-666.185348,-8197.221829,-592.164754
4262.002261,0.000000,-8350.440928,-962.267725
4262.002586,-1036.288319,-8886.707777,-592.164754
4262.002910,-2146.597232,-8656.879127,-518.144159
4262.003235,-2812.782580,-9039.926876,0.000000
4262.003559,-4293.194464,-9346.365076,-148.041188
4262.003884,-5403.503377,-8273.831378,0.000000
4262.004208,-5329.482782,-9039.926876,222.061783
4262.004533,-4811.338623,-8656.879127,518.144159
4262.004857,-3256.906145,-8886.707777,222.061783
4262.005182,-1554.432478,-8810.098227,-296.082377
4262.005506,-1406.391290,-8120.612279,-148.041188
4262.005830,-222.061783,-8120.612279,592.164754
4262.006155,666.185348,-8197.221829,0.000000
4262.006479,666.185348,-7967.393179,0.000000
4262.006804,222.061783,-8733.488677,444.123565
4262.007128,-518.144159,-9116.536426,-148.041188
4262.007453,-3256.906145,-9193.145976,444.123565
4262.007777,-4515.256246,-9039.926876,-222.061783
4262.008102,-5477.523971,-9422.974625,-222.061783
4262.008426,-6217.729913,-8427.050478,-370.102971
4262.008751,-5107.421000,-8886.707777,-666.185348
4262.009075,-3478.967927,-7814.174080,-592.164754
4262.009400,-1554.432478,-8120.612279,-740.205942
4262.009724,518.144159,-7354.516781,-222.061783
4262.010048,2664.741391,-7584.345430,0.000000
4262.010373,3182.885551,-7048.078582,0.000000
4262.010697,3775.050304,-7890.783629,0.000000
4262.011022,2738.761985,-8273.831378,0.000000
4262.011346,1332.370696,-9269.755526,-296.082377
4262.011671,148.041188,-8733.488677,-1036.288319
4262.011995,-3182.885551,-9576.193725,-962.267725
4262.012320,-5551.544565,-9269.755526,-1406.391290
4262.012644,-6291.750507,-8886.707777,-1850.514855
4262.012969,-6291.750507,-8427.050478,-1480.411884
4262.013293,-5181.441594,-7890.783629,-1184.329507
4262.013618,-1850.514855,-7354.516781,-1110.308913
4262.013942,518.144159,-7814.174080,-444.123565
4262.014266,4367.215058,-7814.174080,-444.123565
4262.014591,5625.565159,-7737.564530,-148.041188
4262.014915,5995.668130,-9422.974625,-518.144159
4262.015240,4737.318029,-9346.365076,-814.226536
4262.015564,1924.535449,-10955.165621,-370.102971
4262.015889,-2812.782580,-9959.241474,-740.205942
4262.016213,-4811.338623,-10878.556072,-222.061783
4262.016538,-8438.347739,-9806.022374,-1332.370696
4262.016862,-8216.285956,-9193.145976,-814.226536
4262.017187,-6439.791695,-7737.564530,-518.144159
4262.017511,-4441.235652,-7660.954980,-1628.453072
4262.017835,1332.370696,-6665.030833,-148.041188
4262.018160,4367.215058,-6205.373534,-962.267725
4262.018484,7328.038826,-8120.612279,-592.164754
4262.018808,8512.368333,-7354.516781,-1036.288319
4262.019133,5921.647536,-9882.631924,0.000000
4262.019457,1184.329507,-10342.289223,-444.123565
4262.019781,-2886.803174,-11108.384721,-1406.391290
4262.020106,-9030.512492,-11721.261119,-666.185348
4262.020430,-12583.501014,-10572.117872,-370.102971
4262.020754,-13989.892304,-9576.193725,-148.041188
4262.021079,-11399.171507,-8503.660028,-740.205942
4262.021403,-6883.915261,-7124.688131,370.102971
4262.021727,0.000000,-5515.887586,-518.144159
4262.022052,5033.400406,-5822.325785,-444.123565
4262.022376,9992.780217,-5745.716235,370.102971
4262.022700,9252.574275,-6665.030833,888.247130
4262.023025,7105.977043,-7967.393179,0.000000
4262.023349,1702.473667,-10725.336972,1184.329507
4262.023673,-4367.215058,-11874.480219,962.267725
4262.023998,-8142.265362,-11491.432470,518.144159
4262.024322,-12287.418637,-11491.432470,222.061783
4262.024646,-12731.542202,-10801.946522,666.185348
4262.024971,-8290.306550,-8810.098227,0.000000
4262.025295,-5033.400406,-7814.174080,-666.185348
4262.025619,0.000000,-5822.325785,-1258.350101
4262.025944,3701.029710,-6052.154434,0.000000
4262.026268,4885.359217,-5056.230287,-962.267725
4262.026592,3923.091493,-5362.668486,0.000000
4262.026917,1258.350101,-7354.516781,444.123565
4262.027241,-1554.432478,-9729.412825,1036.288319
4262.027565,-6291.750507,-11031.775171,296.082377
4262.027890,-8512.368333,-10265.679673,1332.370696
4262.028214,-5995.668130,-10495.508323,-518.144159
4262.028538,-5847.626942,-11414.822920,666.185348
4262.028863,-3627.009116,-8810.098227,-1702.473667
4262.029187,-1184.329507,-9422.974625,-666.185348
4262.029511,222.061783,-5745.716235,-2072.576638
4262.029836,1036.288319,-7354.516781,0.000000
4262.030160,1998.556043,-5132.839837,-592.164754
4262.030484,2368.659014,-7201.297681,148.041188
4262.030808,2368.659014,-7201.297681,444.123565
4262.031133,814.226536,-9039.926876,518.144159
4262.031457,-888.247130,-10418.898773,-888.247130
4262.031781,-1406.391290,-11338.213370,-1110.308913
4262.032106,-3108.864956,-10418.898773,-1628.453072
4262.032430,-5403.503377,-10112.460574,-1702.473667
4262.032754,-3701.029710,-10112.460574,-1036.288319
4262.033079,-4441.235652,-7584.345430,-1110.308913
4262.033403,-1924.535449,-7814.174080,-592.164754
4262.033727,444.123565,-6894.859482,0.000000
4262.034052,3552.988522,-6665.030833,888.247130
4262.034376,3552.988522,-6588.421283,0.000000
4262.034700,3478.967927,-7660.954980,-222.061783
4262.035025,0.000000,-7967.393179,-296.082377
4262.035349,-592.164754,-9039.926876,-2146.597232
4262.035673,-3034.844362,-10265.679673,-962.267725
4262.035998,-3923.091493,-10112.460574,-2368.659014
4262.036322,-4811.338623,-11184.994271,-888.247130
4262.036646,-3108.864956,-10342.289223,-2294.638420
4262.036971,-3552.988522,-10418.898773,-1332.370696
4262.037295,-2294.638420,-8044.002729,-1258.350101
4262.037619,-1554.432478,-8427.050478,-444.123565
4262.037944,814.226536,-6665.030833,-222.061783
4262.038268,1702.473667,-6818.249932,296.082377
4262.038592,2812.782580,-6818.249932,0.000000
4262.038917,2146.597232,-7354.516781,-518.144159
4262.039241,2294.638420,-8197.221829,-666.185348
4262.039565,296.082377,-9193.145976,-1776.494261
4262.039890,-2146.597232,-9422.974625,-1924.535449
4262.040214,-3701.029710,-11721.261119,-518.144159
4262.040538,-4885.359217,-8503.660028,-592.164754
4262.040863,-2664.741391,-10801.946522,888.247130
4262.041187,-2146.597232,-7967.393179,-518.144159
4262.041511,0.000000,-9269.755526,370.102971
4262.041836,-814.226536,-7431.126331,-592.164754
4262.042160,-814.226536,-7507.735880,-518.144159
4262.042484,-2442.679609,-7124.688131,0.000000
4262.042809,-3627.009116,-6358.592633,-740.205942
4262.043133,-3478.967927,-8733.488677,-518.144159
4262.043457,-4219.173869,-8580.269578,-518.144159
4262.043782,-3627.009116,-9882.631924,222.061783
4262.044106,-4219.173869,-8963.317327,444.123565
4262.044430,-3330.926739,-10495.508323,74.020594
4262.044755,-3034.844362,-8733.488677,592.164754
4262.045079,-2368.659014,-9422.974625,740.205942
4262.045403,0.000000,-8273.831378,1332.370696
4262.045728,-296.082377,-7507.735880,370.102971
4262.046052,2886.803174,-9039.926876,888.247130
4262.046376,518.144159,-7277.907231,-1480.411884
4262.046701,-1850.514855,-8427.050478,666.185348
4262.047025,-740.205942,-6665.030833,-962.267725
4262.047349,-2960.823768,-10035.851024,370.102971
4262.047674,-1924.535449,-8044.002729,-444.123565
4262.047998,-592.164754,-10112.460574,-148.041188
4262.048322,-444.123565,-8963.317327,888.247130
4262.048647,1110.308913,-8810.098227,148.041188
4262.048971,1332.370696,-9729.412825,296.082377
4262.049295,3404.947333,-9422.974625,-296.082377
4262.049620,2368.659014,-8197.221829,222.061783
4262.049944,3923.091493,-7048.078582,-518.144159
4262.050268,4515.256246,-6281.983084,-1110.308913
4262.050592,4959.379811,-7201.297681,-222.061783
4262.050917,814.226536,-8120.612279,444.123565
4262.051241,-1036.288319,-7660.954980,-962.267725
4262.051565,-2886.803174,-7660.954980,-1406.391290
4262.051890,-4293.194464,-8580.269578,222.061783
4262.052214,-222.061783,-8810.098227,-1480.411884
4262.052538,148.041188,-9499.584175,1406.391290
4262.052863,3552.988522,-9116.536426,0.000000
4262.053187,4885.359217,-9039.926876,0.000000
4262.053511,4737.318029,-8656.879127,-1924.535449
4262.053836,5699.585753,-10112.460574,370.102971
4262.054160,4145.153275,-7660.954980,-1776.494261
4262.054484,2368.659014,-8810.098227,-666.185348
4262.054809,2072.576638,-7354.516781,148.041188
4262.055133,0.000000,-8580.269578,0.000000
4262.055457,0.000000,-9039.926876,-1702.473667
4262.055782,-5995.668130,-8427.050478,-2220.617826
4262.056106,2368.659014,-9806.022374,-518.144159
4262.056430,370.102971,-7507.735880,-1480.411884
4262.056755,592.164754,-9346.365076,222.061783
4262.057079,5255.462188,-7354.516781,-1406.391290
4262.057403,3923.091493,-8503.660028,1258.350101
4262.057728,7772.162391,-7967.393179,-1036.288319
4262.058052,9030.512492,-9193.145976,-2072.576638
4262.058376,4367.215058,-10189.070123,0.000000
4262.058701,148.041188,-8580.269578,-1554.432478
4262.059025,-148.041188,-10035.851024,888.247130
4262.059349,-2664.741391,-7584.345430,-962.267725
4262.059674,-7698.141797,-9193.145976,148.041188
4262.059998,-7624.121203,-9499.584175,-1258.350101
4262.060322,-5847.626942,-10342.289223,-888.247130
4262.060647,-6291.750507,-9499.584175,-2368.659014
4262.060971,-1480.411884,-9346.365076,1184.329507
4262.061295,-592.164754,-8350.440928,-592.164754
4262.061620,2886.803174,-8733.488677,1110.308913
4262.061944,4145.153275,-6665.030833,592.164754
4262.062268,5847.626942,-9116.536426,1406.391290
4262.062593,3108.864956,-7354.516781,-814.226536
4262.062917,2220.617826,-10648.727422,74.020594
4262.063241,-1036.288319,-8580.269578,1110.308913
4262.063566,-3997.112087,-8963.317327,74.020594
4262.063890,-7402.059420,-9806.022374,518.144159
4262.064214,-7254.018232,-8273.831378,0.000000
4262.064539,-6957.935855,-9882.631924,74.020594
4262.064863,-5625.565159,-7660.954980,-2146.597232
4262.065187,-3849.070898,-7890.783629,148.041188
4262.065512,-518.144159,-7354.516781,-296.082377
4262.065836,2812.782580,-7660.954980,518.144159
4262.066160,3108.864956,-6588.421283,-370.102971
4262.066485,4959.379811,-8273.831378,0.000000
4262.066809,4367.215058,-7431.126331,-148.041188
4262.067133,2368.659014,-9806.022374,0.000000
4262.067458,1924.535449,-8580.269578,0.000000
4262.067782,-2368.659014,-10035.851024,518.144159
4262.068106,-2664.741391,-8656.879127,-74.020594
4262.068431,-2072.576638,-9729.412825,296.082377
4262.068755,-4737.318029,-8350.440928,0.000000
4262.069079,-1628.453072,-8350.440928,0.000000
4262.069404,0.000000,-7507.735880,-370.102971
4262.069728,1480.411884,-7660.954980,-1702.473667
4262.070052,2664.741391,-7201.297681,518.144159
4262.070376,3997.112087,-7431.126331,-740.205942
4262.070701,6143.709319,-8197.221829,666.185348
4262.071025,5477.523971,-8350.440928,-592.164754
4262.071349,4515.256246,-8886.707777,-1406.391290
4262.071674,1184.329507,-11644.651570,-1702.473667
4262.071998,-1628.453072,-10035.851024,-518.144159
4262.072322,-222.061783,-11261.603821,-962.267725
4262.072647,-2590.720797,-8733.488677,-1184.329507
4262.072971,-2294.638420,-9499.584175,0.000000
4262.073295,0.000000,-7814.174080,-2146.597232
4262.073620,-222.061783,-8427.050478,518.144159
4262.073944,-296.082377,-7124.688131,-3108.864956
4262.074268,1998.556043,-7431.126331,-1036.288319
4262.074593,4515.256246,-8886.707777,-1480.411884
4262.074917,4589.276840,-7507.735880,148.041188
4262.075241,7105.977043,-6052.154434,74.020594
4262.075566,9400.615463,-11261.603821,-1924.535449
4262.075890,6217.729913,-10801.946522,-1480.411884
4262.076214,3478.967927,-9806.022374,-2664.741391
4262.076539,-666.185348,-11261.603821,-148.041188
4262.076863,-2664.741391,-8656.879127,-740.205942
4262.077187,-1776.494261,-10572.117872,740.205942
4262.077512,-814.226536,-7431.126331,-1406.391290
4262.077836,-1258.350101,-8350.440928,222.061783
4262.078160,-222.061783,-7201.297681,-1184.329507
4262.078485,-370.102971,-7584.345430,-1628.453072
4262.078809,1332.370696,-8120.612279,-296.082377
4262.079133,1480.411884,-7201.297681,-592.164754
4262.079458,3108.864956,-8197.221829,592.164754
4262.079782,3034.844362,-8656.879127,296.082377
4262.080106,2960.823768,-10418.898773,-444.123565
4262.080431,1184.329507,-9422.974625,-518.144159
4262.080755,-1554.432478,-9729.412825,0.000000
4262.081079,-1110.308913,-10878.556072,0.000000
4262.081404,-2368.659014,-9116.536426,148.041188
4262.081728,-3330.926739,-9116.536426,1628.453072
4262.082052,-3034.844362,-8197.221829,1776.494261
4262.082377,-5847.626942,-6511.811733,-1776.494261
4262.082701,-1776.494261,-8580.269578,0.000000
4262.083025,-1702.473667,-5898.935335,222.061783
4262.083350,-666.185348,-7354.516781,888.247130
4262.083674,592.164754,-8197.221829,1184.329507
4262.083998,0.000000,-7890.783629,0.000000
4262.084323,2220.617826,-10035.851024,444.123565
4262.084647,2294.638420,-7660.954980,-370.102971
4262.084971,74.020594,-8580.269578,1480.411884
4262.085296,1406.391290,-9039.926876,296.082377
4262.085620,-1702.473667,-8733.488677,1406.391290
4262.085944,-814.226536,-9346.365076,-962.267725
4262.086269,-2368.659014,-8810.098227,1406.391290
4262.086593,-3701.029710,-6665.030833,-814.226536
4262.086917,-296.082377,-9576.193725,444.123565
4262.087242,-2738.761985,-6894.859482,-592.164754
4262.087566,-1776.494261,-7431.126331,0.000000
4262.087890,-2516.700203,-7660.954980,-1258.350101
4262.088215,-1036.288319,-9499.584175,74.020594
4262.088539,1998.556043,-9116.536426,-666.185348
4262.088863,1924.535449,-8656.879127,-1036.288319
4262.089188,3034.844362,-9882.631924,222.061783
4262.089512,2590.720797,-8810.098227,-1924.535449
4262.089836,2368.659014,-9499.584175,740.205942
4262.090160,1110.308913,-8656.879127,-1554.432478
4262.090485,592.164754,-9652.803275,296.082377
4262.090809,-148.041188,-7048.078582,-1332.370696
4262.091133,-296.082377,-9039.926876,370.102971
4262.091458,-1702.473667,-6894.859482,-1036.288319
4262.091782,-1184.329507,-8580.269578,-1554.432478
4262.092106,-592.164754,-7354.516781,-888.247130
4262.092431,1332.370696,-8503.660028,-814.226536
4262.092755,4145.153275,-7890.783629,-1628.453072
4262.093079,3849.070898,-9806.022374,-814.226536
4262.093404,5255.462188,-9193.145976,-1554.432478
4262.093728,4885.359217,-8120.612279,-1110.308913
4262.094052,4219.173869,-8963.317327,-962.267725
4262.094377,2368.659014,-8580.269578,-1628.453072
4262.094701,814.226536,-10189.070123,-222.061783
4262.095025,-296.082377,-8427.050478,-2368.659014
4262.095350,-2442.679609,-9346.365076,-666.185348
4262.095674,-2368.659014,-7967.393179,-888.247130
4262.095998,370.102971,-9499.584175,1554.432478
4262.096323,-1036.288319,-7814.174080,-3034.844362
4262.096647,370.102971,-9499.584175,-1554.432478
4262.096971,2516.700203,-7737.564530,-592.164754
4262.097296,518.144159,-8963.317327,0.000000
4262.097620,3256.906145,-7431.126331,74.020594
4262.097944,4811.338623,-8427.050478,444.123565
4262.098269,4219.173869,-9806.022374,-962.267725
4262.098593,3849.070898,-8197.221829,-370.102971
4262.098917,370.102971,-9729.412825,-592.164754
4262.099242,-518.144159,-8963.317327,0.000000
4262.099566,-2220.617826,-8810.098227,74.020594
4262.099890,-3478.967927,-9269.755526,-666.185348
4262.100215,-4219.173869,-8656.879127,740.205942
4262.100539,-6365.771101,-7737.564530,-518.144159
4262.100863,-3034.844362,-9193.145976,444.123565
4262.101188,0.000000,-8580.269578,-666.185348
4262.101512,1036.288319,-8044.002729,666.185348
4262.101836,1554.432478,-7814.174080,518.144159
4262.102161,3256.906145,-7354.516781,148.041188
4262.102485,4367.215058,-8273.831378,0.000000
4262.102809,4663.297435,-7507.735880,666.185348
4262.103134,3108.864956,-8120.612279,148.041188
4262.103458,592.164754,-9193.145976,-222.061783
4262.103782,-962.267725,-9422.974625,1628.453072
4262.104107,-2738.761985,-9806.022374,444.123565
4262.104431,-3627.009116,-8503.660028,1110.308913
4262.104755,-3627.009116,-8044.002729,1258.350101
4262.105080,-3478.967927,-8427.050478,74.020594
4262.105404,-3034.844362,-8273.831378,-1110.308913
4262.105728,-2664.741391,-7890.783629,-222.061783
4262.106053,222.061783,-7660.954980,296.082377
4262.106377,296.082377,-7124.688131,-222.061783
4262.106701,2368.659014,-8427.050478,444.123565
4262.107026,2664.741391,-7354.516781,-370.102971
4262.107350,4589.276840,-9346.365076,1110.308913
4262.107674,2516.700203,-7737.564530,-1406.391290
4262.107999,1776.494261,-10725.336972,1036.288319
4262.108323,-888.247130,-9193.145976,-370.102971
4262.108647,-1850.514855,-9499.584175,370.102971
4262.108972,-3034.844362,-8503.660028,222.061783
4262.109296,-3256.906145,-9269.755526,222.061783
4262.109620,518.144159,-8273.831378,-814.226536
4262.109944,-1850.514855,-7431.126331,-1776.494261
4262.110269,148.041188,-8427.050478,-1110.308913
4262.110593,1480.411884,-7354.516781,-74.020594
4262.110917,2664.741391,-8273.831378,-740.205942
4262.111242,4071.132681,-8733.488677,-962.267725
4262.111566,3923.091493,-8120.612279,-814.226536
4262.111890,4959.379811,-9652.803275,-740.205942
4262.112215,5403.503377,-8733.488677,-1036.288319
4262.112539,962.267725,-10265.679673,-888.247130
4262.112863,0.000000,-10189.070123,-1110.308913
4262.113188,-1184.329507,-9499.584175,-1776.494261
4262.113512,-296.082377,-10112.460574,888.247130
4262.113836,148.041188,-7048.078582,-1554.432478
4262.114161,-592.164754,-9346.365076,0.000000
4262.114485,-2812.782580,-6971.469032,-3923.091493
4262.114809,1184.329507,-9576.193725,-1184.329507
4262.115134,296.082377,-7814.174080,-518.144159
4262.115458,1406.391290,-8886.707777,-1332.370696
4262.115782,1998.556043,-8120.612279,814.226536
4262.116107,962.267725,-8733.488677,-2368.659014
4262.116431,4589.276840,-10801.946522,-370.102971
4262.116755,2072.576638,-9729.412825,-2220.617826
4262.117080,2072.576638,-11338.213370,-518.144159
4262.117404,370.102971,-7277.907231,-888.247130
4262.117728,-370.102971,-9576.193725,1924.535449
4262.118053,-3182.885551,-8120.612279,-1850.514855
4262.118377,74.020594,-9499.584175,1480.411884
4262.118701,-1036.288319,-7048.078582,-1850.514855
4262.119026,-666.185348,-8044.002729,-740.205942
4262.119350,-1628.453072,-6281.983084,-888.247130
4262.119674,-370.102971,-9039.926876,74.020594
4262.119998,1702.473667,-7277.907231,1924.535449
4262.120323,2294.638420,-7354.516781,-1258.350101
4262.120647,5107.421000,-10112.460574,222.061783
4262.120971,3701.029710,-7737.564530,-1036.288319
4262.121295,1184.329507,-10265.679673,-296.082377
4262.121620,-444.123565,-9193.145976,148.041188
4262.121944,-1258.350101,-8120.612279,2220.617826
4262.122268,-2812.782580,-8886.707777,370.102971
4262.122593,-962.267725,-8350.440928,-296.082377
4262.122917,-2294.638420,-7660.954980,518.144159
4262.123241,-3404.947333,-7507.735880,-592.164754
4262.123565,-666.185348,-8580.269578,-444.123565
4262.123890,-1332.370696,-8044.002729,-1480.411884
4262.124214,-2368.659014,-7660.954980,444.123565
4262.124538,222.061783,-7354.516781,962.267725
4262.124862,3330.926739,-9576.193725,0.000000
4262.125187,3997.112087,-8197.221829,518.144159
4262.125511,3034.844362,-8810.098227,-592.164754
4262.125835,1332.370696,-10112.460574,370.102971
4262.126160,-518.144159,-9193.145976,0.000000
4262.126484,-1924.535449,-8886.707777,1036.288319
4262.126808,-2516.700203,-9193.145976,296.082377
4262.127132,-222.061783,-8197.221829,-740.205942
4262.127457,-2516.700203,-8503.660028,0.000000
4262.127781,-1332.370696,-8427.050478,-740.205942
4262.128105,-888.247130,-7507.735880,-666.185348
4262.128430,-2590.720797,-8273.831378,0.000000
4262.128754,2664.741391,-8810.098227,-592.164754
4262.129078,2146.597232,-6971.469032,-148.041188
4262.129402,4219.173869,-8886.707777,0.000000
4262.129727,5403.503377,-8503.660028,-666.185348
4262.130051,3034.844362,-9576.193725,-962.267725
4262.130375,296.082377,-9806.022374,-1184.329507
4262.130699,0.000000,-9882.631924,74.020594
4262.131024,-666.185348,-8733.488677,-888.247130
4262.131348,-1258.350101,-8886.707777,1036.288319
4262.131672,-740.205942,-7048.078582,-740.205942
4262.131997,-2220.617826,-8733.488677,-1036.288319
4262.132321,222.061783,-10495.508323,-148.041188
4262.132645,1406.391290,-7277.907231,-1702.473667
4262.132969,0.000000,-8733.488677,-1554.432478
4262.133294,3182.885551,-8886.707777,0.000000
4262.133618,2812.782580,-8427.050478,-814.226536
4262.133942,2960.823768,-9729.412825,-1258.350101
4262.134266,3701.029710,-8733.488677,-666.185348
4262.134591,2368.659014,-9806.022374,-1480.411884
4262.134915,1554.432478,-9193.145976,-666.185348
4262.135239,1184.329507,-9806.022374,74.020594
4262.135564,-1332.370696,-9729.412825,-1184.329507
4262.135888,0.000000,-8427.050478,-370.102971
4262.136212,296.082377,-7431.126331,-814.226536
4262.136536,-962.267725,-8733.488677,-148.041188
4262.136861,-296.082377,-8044.002729,-592.164754
4262.137185,-518.144159,-7277.907231,-740.205942
4262.137509,666.185348,-8580.269578,-518.144159
4262.137834,2072.576638,-7584.345430,148.041188
4262.138158,2368.659014,-8810.098227,-444.123565
4262.138482,1258.350101,-7814.174080,-888.247130
4262.138806,4589.276840,-8963.317327,0.000000
4262.139131,2294.638420,-8886.707777,0.000000
4262.139455,2220.617826,-9729.412825,0.000000
4262.139779,1702.473667,-9039.926876,0.000000
4262.140103,-1554.432478,-9346.365076,370.102971
4262.140428,0.000000,-8427.050478,222.061783
4262.140752,740.205942,-8273.831378,-370.102971
4262.141076,-1184.329507,-9576.193725,1184.329507
4262.141401,-3108.864956,-6741.640382,-1406.391290
4262.141725,-2960.823768,-8810.098227,-666.185348
4262.142049,-3108.864956,-7277.907231,592.164754
4262.142373,296.082377,-8273.831378,370.102971
4262.142698,1850.514855,-8810.098227,-222.061783
4262.143022,2960.823768,-7354.516781,370.102971
4262.143346,3478.967927,-8886.707777,518.144159
4262.143670,4145.153275,-8580.269578,-1554.432478
4262.143995,1110.308913,-9193.145976,370.102971
4262.144319,962.267725,-9116.536426,0.000000
4262.144643,-592.164754,-9039.926876,222.061783
4262.144968,-2516.700203,-7890.783629,0.000000
4262.145292,-2220.617826,-9576.193725,0.000000
4262.145616,-3775.050304,-7814.174080,-1924.535449
4262.145940,-3478.967927,-9269.755526,-1110.308913
4262.146265,-2220.617826,-7737.564530,-296.082377
4262.146589,-370.102971,-8427.050478,-888.247130
4262.146913,1184.329507,-9422.974625,74.020594
4262.147238,3404.947333,-7737.564530,-1702.473667
4262.147562,3404.947333,-8886.707777,222.061783
4262.147886,3478.967927,-7277.907231,-962.267725
4262.148210,6143.709319,-9959.241474,-148.041188
4262.148535,2738.761985,-8886.707777,-148.041188
4262.148859,74.020594,-10342.289223,1184.329507
4262.149183,-1554.432478,-9729.412825,-1554.432478
4262.149507,-2738.761985,-8886.707777,74.020594
4262.149832,-1850.514855,-7814.174080,370.102971
4262.150156,-2886.803174,-8427.050478,-1332.370696
4262.150480,-3552.988522,-8963.317327,-370.102971
4262.150805,-888.247130,-7660.954980,-1406.391290
4262.151129,-444.123565,-8963.317327,-370.102971
4262.151453,0.000000,-7584.345430,-370.102971
4262.151777,3034.844362,-8350.440928,740.205942
4262.152102,5625.565159,-7354.516781,518.144159
4262.152426,4737.318029,-9652.803275,-740.205942
4262.152750,7105.977043,-10342.289223,-666.185348
4262.153074,2442.679609,-8733.488677,-1554.432478
4262.153399,222.061783,-9652.803275,666.185348
4262.153723,-2294.638420,-8197.221829,-666.185348
4262.154047,-2516.700203,-9193.145976,1036.288319
4262.154372,-1406.391290,-8120.612279,0.000000
4262.154696,-1554.432478,-7354.516781,-1036.288319
4262.155020,-3182.885551,-6741.640382,0.000000
4262.155344,-296.082377,-8503.660028,-1480.411884
4262.155669,518.144159,-8733.488677,296.082377
4262.155993,3997.112087,-7660.954980,0.000000
4262.156317,4071.132681,-8580.269578,296.082377
4262.156642,3923.091493,-7354.516781,-888.247130
4262.156966,5403.503377,-8656.879127,370.102971
4262.157290,3478.967927,-9576.193725,-1258.350101
4262.157614,814.226536,-9806.022374,-666.185348
4262.157939,0.000000,-9116.536426,592.164754
4262.158263,-2294.638420,-10418.898773,444.123565
4262.158587,-2368.659014,-8503.660028,-370.102971
4262.158911,-4293.194464,-8197.221829,888.247130
4262.159236,-2442.679609,-8120.612279,-296.082377
4262.159560,-1850.514855,-8120.612279,-740.205942
4262.159884,-1924.535449,-7048.078582,-1184.329507
4262.160209,74.020594,-7431.126331,814.226536
4262.160533,3849.070898,-7584.345430,814.226536
4262.160857,2812.782580,-9116.536426,-740.205942
4262.161181,4737.318029,-8503.660028,-740.205942
4262.161506,5107.421000,-9039.926876,74.020594
4262.161830,1850.514855,-9116.536426,-592.164754
4262.162154,-1184.329507,-11031.775171,0.000000
4262.162478,-2294.638420,-9116.536426,-518.144159
4262.162803,-3404.947333,-10648.727422,2220.617826
4262.163127,-2664.741391,-7431.126331,-1110.308913
4262.163451,-2220.617826,-8656.879127,0.000000
4262.163776,-2886.803174,-7431.126331,0.000000
4262.164100,-2886.803174,-6971.469032,-2368.659014
4262.164424,444.123565,-7814.174080,-666.185348
4262.164748,740.205942,-8350.440928,1110.308913
4262.165073,3182.885551,-7890.783629,222.061783
4262.165397,3034.844362,-8427.050478,-962.267725
4262.165721,1850.514855,-9193.145976,-444.123565
4262.166046,3182.885551,-9806.022374,0.000000
4262.166370,3108.864956,-9882.631924,148.041188
4262.166694,-1110.308913,-10495.508323,-592.164754
4262.167018,-3923.091493,-8656.879127,-740.205942
4262.167343,-4885.359217,-8580.269578,1332.370696
4262.167667,-740.205942,-8044.002729,0.000000
4262.167991,74.020594,-8427.050478,-814.226536
4262.168315,-2516.700203,-7737.564530,-592.164754
4262.168640,-1850.514855,-7967.393179,-962.267725
4262.168964,0.000000,-7737.564530,-444.123565
4262.169288,1628.453072,-7890.783629,0.000000
4262.169613,1406.391290,-8656.879127,592.164754
4262.169937,2072.576638,-7814.174080,-1184.329507
4262.170261,3478.967927,-10801.946522,222.061783
4262.170585,1998.556043,-8120.612279,-1184.329507
4262.170910,2368.659014,-11184.994271,-444.123565
4262.171234,-370.102971,-8656.879127,-1258.350101
4262.171558,-1628.453072,-8733.488677,296.082377
4262.171882,0.000000,-7354.516781,888.247130
4262.172207,-2072.576638,-7354.516781,0.000000
4262.172531,-2146.597232,-9269.755526,0.000000
4262.172855,592.164754,-7431.126331,-1110.308913
4262.173180,-148.041188,-7277.907231,-666.185348
4262.173504,-962.267725,-8273.831378,-592.164754
4262.173828,666.185348,-7737.564530,592.164754
4262.174152,1850.514855,-8656.879127,-370.102971
4262.174477,5921.647536,-8963.317327,222.061783
4262.174801,4441.235652,-8810.098227,-296.082377
4262.175125,4441.235652,-10035.851024,-592.164754
4262.175450,2812.782580,-8503.660028,-444.123565
4262.175774,1406.391290,-10342.289223,444.123565
4262.176098,740.205942,-9269.755526,-518.144159
4262.176422,222.061783,-8810.098227,370.102971
4262.176747,-444.123565,-7354.516781,-888.247130
4262.177071,-1850.514855,-8810.098227,222.061783
4262.177395,-3330.926739,-8273.831378,-1628.453072
4262.177719,-3034.844362,-9499.584175,-1628.453072
4262.178044,-1480.411884,-7507.735880,-814.226536
4262.178368,0.000000,-8886.707777,-1184.329507
4262.178692,2368.659014,-8044.002729,0.000000
4262.179017,1998.556043,-8733.488677,370.102971
4262.179341,4367.215058,-8120.612279,-1110.308913
4262.179665,4145.153275,-9959.241474,-1480.411884
4262.179989,4145.153275,-8810.098227,-592.164754
4262.180314,2368.659014,-8810.098227,518.144159
4262.180638,370.102971,-8273.831378,-370.102971
4262.180962,148.041188,-10112.460574,74.020594
4262.181286,-1998.556043,-8120.612279,-370.102971
4262.181611,-5255.462188,-8273.831378,0.000000
4262.181935,-3849.070898,-7890.783629,-1258.350101
4262.182259,-4515.256246,-7890.783629,1184.329507
4262.182584,-3330.926739,-7277.907231,-1332.370696
4262.182908,-444.123565,-9193.145976,814.226536
4262.183232,1110.308913,-9193.145976,-370.102971
4262.183556,6439.791695,-9499.584175,-518.144159
4262.183881,5329.482782,-7048.078582,-888.247130
4262.184205,4441.235652,-9806.022374,74.020594
4262.184529,2072.576638,-9806.022374,0.000000
4262.184854,592.164754,-10189.070123,0.000000
4262.185178,-1480.411884,-9269.755526,-666.185348
4262.185502,-1480.411884,-8120.612279,1924.535449
4262.185826,-2146.597232,-7201.297681,-1184.329507
4262.186151,-1258.350101,-10572.117872,0.000000
4262.186475,-3552.988522,-6511.811733,-1702.473667
4262.186799,-3256.906145,-8810.098227,296.082377
4262.187123,-3182.885551,-6741.640382,-1036.288319
4262.187448,-444.123565,-8656.879127,518.144159
4262.187772,1850.514855,-7507.735880,222.061783
4262.188096,5995.668130,-9039.926876,0.000000
4262.188421,7031.956449,-8197.221829,-296.082377
4262.188745,4071.132681,-9729.412825,444.123565
4262.189069,5107.421000,-9806.022374,0.000000
4262.189393,2812.782580,-8580.269578,-222.061783
4262.189718,888.247130,-8963.317327,222.061783
4262.190042,-1924.535449,-9193.145976,0.000000
4262.190366,-3775.050304,-6818.249932,1628.453072
4262.190690,-4663.297435,-7354.516781,-1036.288319
4262.191015,-3256.906145,-7967.393179,222.061783
4262.191339,-2072.576638,-6665.030833,-222.061783
4262.191663,-814.226536,-8273.831378,-1702.473667
4262.191988,3404.947333,-8963.317327,222.061783
4262.192312,2812.782580,-7507.735880,-518.144159
4262.192636,3701.029710,-9882.631924,-148.041188
4262.192960,6883.915261,-7354.516781,-666.185348
4262.193285,5107.421000,-10342.289223,-962.267725
4262.193609,1776.494261,-10112.460574,-592.164754
4262.193933,1258.350101,-8733.488677,0.000000
4262.194258,-2220.617826,-9729.412825,-222.061783
4262.194582,-2220.617826,-7737.564530,-222.061783
4262.194906,-1184.329507,-8503.660028,518.144159
4262.195230,-3108.864956,-8044.002729,-1406.391290
4262.195555,-2368.659014,-6741.640382,-1036.288319
4262.195879,-1850.514855,-9499.584175,-592.164754
4262.196203,740.205942,-8044.002729,-370.102971
4262.196527,3552.988522,-8120.612279,0.000000
4262.196852,3182.885551,-9576.193725,-1776.494261
4262.197176,3108.864956,-9116.536426,-444.123565
4262.197500,3478.967927,-10035.851024,148.041188
4262.197825,2886.803174,-10265.679673,-962.267725
4262.198149,814.226536,-8273.831378,-148.041188
4262.198473,0.000000,-9729.412825,222.061783
4262.198797,-740.205942,-9422.974625,-1332.370696
4262.199122,-1924.535449,-9039.926876,148.041188
4262.199446,-370.102971,-8044.002729,370.102971
4262.199770,-3627.009116,-8044.002729,0.000000
4262.200095,-3256.906145,-7507.735880,-1406.391290
4262.200419,-888.247130,-9039.926876,-1184.329507
4262.200743,-1110.308913,-8656.879127,-1184.329507
4262.201067,1110.308913,-9269.755526,148.041188
4262.201392,1998.556043,-8350.440928,-962.267725
4262.201716,3108.864956,-8886.707777,-222.061783
4262.202040,5033.400406,-8886.707777,-1184.329507
4262.202364,2368.659014,-9959.241474,-1184.329507
4262.202689,2590.720797,-10342.289223,0.000000
4262.203013,-666.185348,-8120.612279,-814.226536
4262.203337,-2664.741391,-9652.803275,1184.329507
4262.203662,-2442.679609,-7354.516781,-1184.329507
4262.203986,-2368.659014,-8273.831378,1184.329507
4262.204310,-2664.741391,-7737.564530,148.041188
4262.204634,-1924.535449,-7660.954980,-1776.494261
4262.204959,-2664.741391,-8120.612279,-370.102971
4262.205283,-1702.473667,-6818.249932,-296.082377
4262.205607,1628.453072,-8427.050478,222.061783
4262.205931,2220.617826,-8810.098227,148.041188
4262.206256,2960.823768,-8273.831378,0.000000
4262.206580,4219.173869,-9039.926876,-370.102971
4262.206904,3478.967927,-9959.241474,-370.102971
4262.207229,2664.741391,-10495.508323,444.123565
4262.207553,-370.102971,-9193.145976,592.164754
4262.207877,-3330.926739,-8273.831378,148.041188
4262.208201,-2294.638420,-8120.612279,1554.432478
4262.208526,-2146.597232,-7890.783629,74.020594
4262.208850,-3108.864956,-7277.907231,-1258.350101
4262.209174,-148.041188,-8580.269578,0.000000
4262.209499,-1850.514855,-6205.373534,-1406.391290
4262.209823,74.020594,-9422.974625,148.041188
4262.210147,2664.741391,-7890.783629,-222.061783
4262.210471,3627.009116,-8427.050478,740.205942
4262.210796,4737.318029,-8656.879127,-1036.288319
4262.211120,4441.235652,-9346.365076,-444.123565
4262.211444,2442.679609,-9422.974625,-1480.411884
4262.211768,2368.659014,-10265.679673,444.123565
4262.212093,-592.164754,-8886.707777,0.000000
4262.212417,-1258.350101,-9346.365076,370.102971
4262.212741,-1924.535449,-7967.393179,0.000000
4262.213066,-5847.626942,-8427.050478,0.000000
4262.213390,-2960.823768,-9116.536426,-1480.411884
4262.213714,-2812.782580,-6894.859482,-1702.473667
4262.214038,-1036.288319,-8503.660028,-814.226536
4262.214363,370.102971,-8656.879127,0.000000
4262.214687,3849.070898,-8120.612279,222.061783
4262.215011,2294.638420,-8733.488677,-1184.329507
4262.215335,6809.894666,-9269.755526,-592.164754
4262.215660,5699.585753,-8656.879127,-518.144159
4262.215984,4959.379811,-9959.241474,-444.123565
4262.216308,2294.638420,-9576.193725,-814.226536
4262.216633,1406.391290,-9806.022374,-1332.370696
4262.216957,-1850.514855,-9346.365076,518.144159
4262.217281,-2220.617826,-7354.516781,-296.082377
4262.217605,-2738.761985,-9959.241474,-148.041188
4262.217930,-3552.988522,-7507.735880,-666.185348
4262.218254,-4145.153275,-7277.907231,-1258.350101
4262.218578,-3182.885551,-8733.488677,-814.226536
4262.218903,-1258.350101,-8044.002729,0.000000
4262.219227,1924.535449,-9652.803275,-1332.370696
4262.219551,4737.318029,-9269.755526,592.164754
4262.219876,3701.029710,-7890.783629,-1184.329507
4262.220200,5847.626942,-9959.241474,-222.061783
4262.220524,2738.761985,-8427.050478,-888.247130
4262.220849,1406.391290,-11338.213370,148.041188
4262.221173,370.102971,-8580.269578,-814.226536
4262.221497,-1036.288319,-8427.050478,518.144159
4262.221822,-4219.173869,-8810.098227,444.123565
4262.222146,-3997.112087,-6128.763984,0.000000
4262.222470,-3034.844362,-8350.440928,-370.102971
4262.222795,-518.144159,-8350.440928,-740.205942
4262.223119,1628.453072,-6971.469032,0.000000
4262.223443,0.000000,-7967.393179,-1406.391290
4262.223768,6513.812290,-9193.145976,1480.411884
4262.224092,1998.556043,-7277.907231,-888.247130
4262.224416,5255.462188,-9422.974625,666.185348
4262.224741,962.267725,-6588.421283,-2072.576638
4262.225065,1554.432478,-11644.651570,1110.308913
4262.225390,-740.205942,-7890.783629,-888.247130
4262.225714,518.144159,-10342.289223,0.000000
4262.226038,-3256.906145,-9116.536426,-296.082377
4262.226363,-3330.926739,-7967.393179,-222.061783
4262.226687,-3627.009116,-8733.488677,962.267725
4262.227011,-1258.350101,-6358.592633,-2294.638420
4262.227336,-1406.391290,-7584.345430,740.205942
4262.227660,-1702.473667,-6818.249932,-1110.308913
4262.227984,2294.638420,-9729.412825,1184.329507
4262.228309,2886.803174,-7737.564530,0.000000
4262.228633,4071.132681,-10035.851024,-148.041188
4262.228957,2812.782580,-8427.050478,-296.082377
4262.229282,3701.029710,-8656.879127,-296.082377
4262.229606,1998.556043,-9422.974625,-888.247130
4262.229930,740.205942,-10189.070123,444.123565
4262.230255,-814.226536,-8810.098227,74.020594
4262.230579,-2516.700203,-8963.317327,0.000000
4262.230903,-1924.535449,-7890.783629,-666.185348
4262.231228,-1480.411884,-9269.755526,148.041188
4262.231552,-2294.638420,-7660.954980,-1332.370696
4262.231876,-962.267725,-8044.002729,-1702.473667
4262.232201,-2072.576638,-7737.564530,-222.061783
4262.232525,370.102971,-8580.269578,1036.288319
4262.232849,2294.638420,-8733.488677,-1332.370696
4262.233174,3701.029710,-10189.070123,-740.205942
4262.233498,6069.688724,-8656.879127,-1110.308913
4262.233823,3627.009116,-9039.926876,-888.247130
4262.234147,3775.050304,-10418.898773,-592.164754
4262.234471,1480.411884,-9346.365076,148.041188
4262.234796,-666.185348,-8963.317327,222.061783
4262.235120,-1776.494261,-9193.145976,0.000000
4262.235444,-2294.638420,-8427.050478,0.000000
4262.235769,-2516.700203,-7660.954980,-1110.308913
4262.236093,-962.267725,-8656.879127,-666.185348
4262.236417,-2442.679609,-7507.735880,-1036.288319
4262.236742,-370.102971,-8963.317327,0.000000
4262.237066,1110.308913,-8656.879127,-1554.432478
4262.237390,2368.659014,-8810.098227,-222.061783
4262.237715,3256.906145,-8427.050478,-666.185348
4262.238039,4441.235652,-9499.584175,-888.247130
4262.238363,5329.482782,-9422.974625,-296.082377
4262.238688,2368.659014,-9346.365076,-518.144159
4262.239012,1998.556043,-9652.803275,0.000000
4262.239336,-296.082377,-8733.488677,0.000000
4262.239661,-2590.720797,-8733.488677,592.164754
4262.239985,-2368.659014,-8197.221829,-148.041188
4262.240309,-2664.741391,-9039.926876,222.061783
4262.240634,-5255.462188,-7277.907231,-1480.411884
4262.240958,-2072.576638,-7431.126331,-518.144159
4262.241282,0.000000,-8580.269578,-666.185348
4262.241607,592.164754,-9269.755526,0.000000
4262.241931,3478.967927,-7890.783629,-888.247130
4262.242256,5329.482782,-8580.269578,-148.041188
4262.242580,5255.462188,-9806.022374,814.226536
4262.242904,5921.647536,-8044.002729,-740.205942
4262.243229,444.123565,-10265.679673,-666.185348
4262.243553,1702.473667,-9652.803275,0.000000
4262.243877,-148.041188,-8580.269578,740.205942
4262.244202,-3478.967927,-8580.269578,518.144159
4262.244526,-3552.988522,-7431.126331,0.000000
4262.244850,-5403.503377,-8580.269578,222.061783
4262.245175,-2664.741391,-6741.640382,-370.102971
4262.245499,-222.061783,-8197.221829,-666.185348
4262.245823,-592.164754,-8733.488677,0.000000
4262.246148,1184.329507,-7660.954980,518.144159
4262.246472,2664.741391,-7737.564530,-518.144159
4262.246796,4959.379811,-9576.193725,370.102971
4262.247121,6587.832884,-7737.564530,-370.102971
4262.247445,4219.173869,-9806.022374,-1554.432478
4262.247769,1480.411884,-9806.022374,370.102971
4262.248094,0.000000,-9806.022374,0.000000
4262.248418,-3775.050304,-8810.098227,592.164754
4262.248742,-4219.173869,-8963.317327,-222.061783
4262.249067,-4737.318029,-8503.660028,296.082377
4262.249391,-5181.441594,-7277.907231,-740.205942
4262.249715,-1998.556043,-8044.002729,-888.247130
4262.250040,-2664.741391,-8427.050478,-444.123565
4262.250364,814.226536,-6741.640382,-1110.308913
4262.250689,2664.741391,-8197.221829,222.061783
4262.251013,6217.729913,-7431.126331,-518.144159
4262.251337,7031.956449,-8886.707777,518.144159
4262.251662,7402.059420,-8044.002729,-1628.453072
4262.251986,4145.153275,-10648.727422,74.020594
4262.252310,1258.350101,-9422.974625,-148.041188
4262.252635,0.000000,-9346.365076,-296.082377
4262.252959,-1924.535449,-8580.269578,0.000000
4262.253283,-3997.112087,-9269.755526,1258.350101
4262.253608,-2664.741391,-7507.735880,-1850.514855
4262.253932,-3627.009116,-8580.269578,0.000000
4262.254256,-5847.626942,-7124.688131,-2442.679609
4262.254581,-1998.556043,-8886.707777,814.226536
4262.254905,-1850.514855,-6128.763984,-444.123565
4262.255229,2664.741391,-10572.117872,666.185348
4262.255554,6957.935855,-7507.735880,-1702.473667
4262.255878,5551.544565,-9806.022374,-592.164754
4262.256202,6365.771101,-9806.022374,-1406.391290
4262.256527,4885.359217,-9269.755526,-1184.329507
4262.256851,2516.700203,-10265.679673,518.144159
4262.257175,-814.226536,-9193.145976,-444.123565
4262.257500,-2146.597232,-8810.098227,518.144159
4262.257824,-2072.576638,-8044.002729,222.061783
4262.258149,-4441.235652,-6894.859482,-1554.432478
4262.258473,-3701.029710,-8044.002729,-1554.432478
4262.258797,-4293.194464,-8044.002729,-962.267725
4262.259122,666.185348,-8503.660028,-962.267725
4262.259446,-444.123565,-7814.174080,-222.061783
4262.259770,3404.947333,-7660.954980,0.000000
4262.260095,4145.153275,-7814.174080,-592.164754
4262.260419,6513.812290,-9499.584175,-1110.308913
4262.260743,5477.523971,-9116.536426,-1332.370696
4262.261068,4737.318029,-10265.679673,-666.185348
4262.261392,-370.102971,-9269.755526,-148.041188
4262.261716,-666.185348,-9806.022374,-444.123565
4262.262041,-1702.473667,-8733.488677,-370.102971
4262.262365,-2664.741391,-8350.440928,0.000000
4262.262689,-2368.659014,-8197.221829,0.000000
4262.263014,-3330.926739,-7277.907231,-2368.659014
4262.263338,-1184.329507,-7967.393179,0.000000
4262.263662,-3034.844362,-7507.735880,-148.041188
4262.263987,370.102971,-8733.488677,-296.082377
4262.264311,1554.432478,-9039.926876,0.000000
4262.264635,3627.009116,-7124.688131,222.061783
4262.264960,9252.574275,-10342.289223,-1480.411884
4262.265284,3775.050304,-9269.755526,-1480.411884
4262.265608,3108.864956,-9116.536426,740.205942
4262.265933,814.226536,-8886.707777,1184.329507
4262.266257,-1850.514855,-9576.193725,1036.288319
4262.266582,-2146.597232,-8273.831378,1258.350101
4262.266906,-2738.761985,-7048.078582,148.041188
4262.267230,-4367.215058,-7737.564530,-1184.329507
4262.267555,-2812.782580,-8963.317327,148.041188
4262.267879,-3849.070898,-6511.811733,-1406.391290
4262.268203,-592.164754,-9269.755526,518.144159
4262.268528,444.123565,-7354.516781,-370.102971
4262.268852,3701.029710,-9269.755526,148.041188
4262.269176,5255.462188,-8733.488677,-1480.411884
4262.269501,5995.668130,-8733.488677,0.000000
4262.269825,3701.029710,-10035.851024,-888.247130
4262.270149,2368.659014,-8810.098227,222.061783
4262.270474,-296.082377,-9806.022374,962.267725
4262.270798,-1110.308913,-7890.783629,-370.102971
4262.271122,-2590.720797,-9269.755526,370.102971
4262.271447,-2294.638420,-7354.516781,-148.041188
4262.271771,-4293.194464,-8580.269578,-222.061783
4262.272095,-3330.926739,-7048.078582,-1924.535449
4262.272420,-3256.906145,-7431.126331,0.000000
4262.272744,-2368.659014,-7048.078582,-1110.308913
4262.273068,1924.535449,-8886.707777,370.102971
4262.273393,3330.926739,-8120.612279,-1184.329507
4262.273717,5773.606348,-8810.098227,0.000000
4262.274041,5551.544565,-8810.098227,-1036.288319
4262.274366,3775.050304,-9729.412825,-222.061783
4262.274690,1702.473667,-9116.536426,-666.185348
4262.275015,0.000000,-9116.536426,962.267725
4262.275339,-1850.514855,-8580.269578,148.041188
4262.275663,-2072.576638,-8044.002729,-592.164754
4262.275988,-1998.556043,-8350.440928,0.000000
4262.276312,-1998.556043,-8044.002729,-666.185348
4262.276636,-2146.597232,-7354.516781,-1332.370696
4262.276961,-1554.432478,-8120.612279,-370.102971
4262.277285,-1628.453072,-7584.345430,-370.102971
4262.277609,888.247130,-8350.440928,0.000000
4262.277934,2294.638420,-8656.879127,-962.267725
4262.278258,5329.482782,-9346.365076,-1332.370696
4262.278582,5477.523971,-8733.488677,-1480.411884
4262.278907,4515.256246,-9729.412825,-666.185348
4262.279231,592.164754,-9039.926876,666.185348
4262.279555,888.247130,-8503.660028,148.041188
4262.279880,-666.185348,-9499.584175,0.000000
4262.280204,-370.102971,-9346.365076,-666.185348
4262.280528,-2368.659014,-8656.879127,296.082377
4262.280853,-2368.659014,-8197.221829,-666.185348
4262.281177,-3182.885551,-7967.393179,-1628.453072
4262.281501,-2368.659014,-7890.783629,-740.205942
4262.281826,-2294.638420,-7507.735880,-1184.329507
4262.282150,666.185348,-9116.536426,666.185348
4262.282475,3923.091493,-7354.516781,-666.185348
4262.282799,0.000000,-9193.145976,-888.247130
4262.283123,8216.285956,-9346.365076,-888.247130
4262.283448,2738.761985,-8656.879127,-2220.617826
4262.283772,1850.514855,-9269.755526,-592.164754
4262.284096,1332.370696,-9116.536426,148.041188
4262.284421,-740.205942,-9116.536426,-370.102971
4262.284745,-1332.370696,-9806.022374,888.247130
4262.285069,-2220.617826,-6971.469032,-1924.535449
4262.285394,-3849.070898,-9499.584175,1036.288319
4262.285718,-4663.297435,-7277.907231,-1850.514855
4262.286042,-2812.782580,-8503.660028,-370.102971
4262.286367,-1702.473667,-7048.078582,-222.061783
4262.286691,74.020594,-7814.174080,962.267725
4262.287015,4663.297435,-8197.221829,-1628.453072
4262.287340,6957.935855,-8273.831378,-962.267725
4262.287664,7624.121203,-10189.070123,0.000000
4262.287988,4515.256246,-7967.393179,-1258.350101
4262.288313,4515.256246,-9729.412825,2368.659014
4262.288637,814.226536,-7660.954980,444.123565
4262.288961,518.144159,-10035.851024,296.082377
4262.289286,-3701.029710,-8656.879127,-888.247130
4262.289610,-4293.194464,-10342.289223,1036.288319
4262.289934,-5773.606348,-7584.345430,-1628.453072
4262.290259,-6735.874072,-7814.174080,-740.205942
4262.290583,-2960.823768,-8044.002729,0.000000
4262.290908,-740.205942,-6894.859482,666.185348
4262.291232,-666.185348,-9346.365076,0.000000
4262.291556,5181.441594,-7584.345430,-1332.370696
4262.291881,4663.297435,-9499.584175,-148.041188
4262.292205,4959.379811,-8503.660028,-1036.288319
4262.292529,5551.544565,-10035.851024,296.082377
4262.292854,1924.535449,-8810.098227,222.061783
4262.293178,740.205942,-9959.241474,1924.535449
4262.293502,-592.164754,-7890.783629,-1036.288319
4262.293827,-2738.761985,-8810.098227,1332.370696
4262.294151,-3552.988522,-6741.640382,-740.205942
4262.294475,-2812.782580,-9039.926876,-444.123565
4262.294800,-4737.318029,-7431.126331,-888.247130
4262.295124,-2738.761985,-6894.859482,-444.123565
4262.295448,1850.514855,-7124.688131,296.082377
4262.295773,2516.700203,-7814.174080,-888.247130
4262.296097,4219.173869,-9193.145976,-962.267725
4262.296421,6143.709319,-8273.831378,-1258.350101
4262.296746,5699.585753,-10342.289223,-222.061783
4262.297070,6439.791695,-8427.050478,-1702.473667
4262.297394,2146.597232,-8656.879127,444.123565
4262.297719,-666.185348,-10495.508323,1036.288319
4262.298043,-1258.350101,-8427.050478,-740.205942
4262.298367,-2368.659014,-10342.289223,222.061783
4262.298692,-5699.585753,-7354.516781,-444.123565
4262.299016,-5255.462188,-7660.954980,-740.205942
4262.299341,-4071.132681,-7507.735880,-814.226536
4262.299665,-2664.741391,-8503.660028,-740.205942
4262.299989,1110.308913,-8120.612279,74.020594
4262.300314,2368.659014,-7814.174080,-518.144159
4262.300638,4885.359217,-7201.297681,-370.102971
4262.300962,5921.647536,-8120.612279,0.000000
4262.301287,7254.018232,-9039.926876,-1480.411884
4262.301611,4811.338623,-9806.022374,-740.205942
4262.301935,4219.173869,-10035.851024,-148.041188
4262.302260,666.185348,-9039.926876,518.144159
4262.302584,-222.061783,-9346.365076,222.061783
4262.302908,-4663.297435,-8197.221829,-740.205942
4262.303233,-3923.091493,-8733.488677,370.102971
4262.303557,-4219.173869,-7584.345430,0.000000
4262.303881,-2146.597232,-7584.345430,-370.102971
4262.304206,-3923.091493,-6435.202183,-592.164754
4262.304530,444.123565,-7890.783629,-518.144159
4262.304854,4589.276840,-8044.002729,-592.164754
4262.305179,5847.626942,-8810.098227,148.041188
4262.305503,7772.162391,-8580.269578,-1406.391290
4262.305827,6957.935855,-8886.707777,0.000000
4262.306152,1702.473667,-9652.803275,-1702.473667
4262.306476,2664.741391,-11338.213370,888.247130
4262.306800,-1628.453072,-8580.269578,518.144159
4262.307125,-2738.761985,-9346.365076,74.020594
4262.307449,-4515.256246,-8044.002729,666.185348
4262.307774,-4145.153275,-7507.735880,-518.144159
4262.308098,-4293.194464,-7890.783629,-962.267725
4262.308422,-3849.070898,-7354.516781,-1110.308913
4262.308747,-2442.679609,-7584.345430,0.000000
4262.309071,-518.144159,-7431.126331,-1258.350101
4262.309395,2812.782580,-8886.707777,-148.041188
4262.309720,4367.215058,-8120.612279,-1406.391290
4262.310044,5995.668130,-9729.412825,0.000000
4262.310368,5033.400406,-8886.707777,-666.185348
4262.310693,5107.421000,-9806.022374,0.000000
4262.311017,444.123565,-9039.926876,814.226536
4262.311341,-74.020594,-8656.879127,740.205942
4262.311666,-3923.091493,-8350.440928,-592.164754
4262.311990,-4367.215058,-9959.241474,-444.123565
4262.312314,-4441.235652,-10342.289223,370.102971
4262.312639,-8734.430116,-4673.182538,-888.247130
4262.312963,-888.247130,-8427.050478,0.000000
4262.313287,-5921.647536,-7354.516781,-518.144159
4262.313612,296.082377,-7890.783629,740.205942
4262.313936,5995.668130,-7737.564530,-518.144159
4262.314260,6439.791695,-8580.269578,-370.102971
4262.314585,8216.285956,-8963.317327,0.000000
4262.314909,8438.347739,-8886.707777,-1554.432478
4262.315234,4367.215058,-10189.070123,0.000000
4262.315558,0.000000,-9882.631924,814.226536
4262.315882,-1184.329507,-8810.098227,1036.288319
4262.316207,-1998.556043,-8273.831378,444.123565
4262.316531,-3923.091493,-8580.269578,0.000000
4262.316855,-4737.318029,-8656.879127,-888.247130
4262.317180,-5107.421000,-7201.297681,-962.267725
4262.317504,-2368.659014,-8580.269578,444.123565
4262.317828,-1850.514855,-6741.640382,-1480.411884
4262.318153,0.000000,-8273.831378,-222.061783
4262.318477,3923.091493,-8503.660028,-592.164754
4262.318801,7105.977043,-9269.755526,-1480.411884
4262.319126,7476.080014,-9806.022374,-1110.308913
4262.319450,4737.318029,-9576.193725,-1036.288319
4262.319774,2368.659014,-9806.022374,-666.185348
4262.320099,0.000000,-9959.241474,-296.082377
4262.320423,740.205942,-9116.536426,0.000000
4262.320747,-1702.473667,-8963.317327,1406.391290
4262.321072,-2886.803174,-7584.345430,0.000000
4262.321396,-2960.823768,-8427.050478,-1702.473667
4262.321720,-2738.761985,-8503.660028,-1184.329507
4262.322045,-1850.514855,-8197.221829,0.000000
4262.322369,-148.041188,-6665.030833,-1554.432478
4262.322693,888.247130,-8810.098227,518.144159
4262.323018,4663.297435,-8350.440928,-814.226536
4262.323342,6513.812290,-8886.707777,-1998.556043
4262.323666,6513.812290,-9652.803275,-148.041188
4262.323991,2738.761985,-9346.365076,-814.226536
4262.324315,3256.906145,-9729.412825,-1036.288319
4262.324639,1036.288319,-8656.879127,0.000000
4262.324964,-3182.885551,-10495.508323,518.144159
4262.325288,-2516.700203,-7124.688131,-814.226536
4262.325612,-3478.967927,-9269.755526,370.102971
4262.325937,-3182.885551,-9422.974625,-740.205942
4262.326261,-4071.132681,-7277.907231,-1258.350101
4262.326585,-3404.947333,-8273.831378,0.000000
4262.326910,-2072.576638,-7277.907231,0.000000
4262.327234,2442.679609,-7431.126331,-518.144159
4262.327558,4145.153275,-8656.879127,-962.267725
4262.327883,6513.812290,-7967.393179,-1258.350101
4262.328207,5403.503377,-9116.536426,-666.185348
4262.328531,3997.112087,-9499.584175,-1406.391290
4262.328855,2664.741391,-9806.022374,592.164754
4262.329180,296.082377,-8503.660028,74.020594
4262.329504,-888.247130,-9039.926876,-444.123565
4262.329828,-444.123565,-9959.241474,-148.041188
4262.330153,-4367.215058,-8427.050478,0.000000
4262.330477,-5773.606348,-8273.831378,-740.205942
4262.330801,-5329.482782,-7814.174080,-1036.288319
4262.331126,-2664.741391,-8656.879127,0.000000
4262.331450,-1480.411884,-6435.202183,-518.144159
4262.331774,4811.338623,-8120.612279,-222.061783
4262.332099,4737.318029,-8963.317327,-1702.473667
4262.332423,6439.791695,-9193.145976,-1110.308913
4262.332747,5477.523971,-8580.269578,-2368.659014
4262.333072,3701.029710,-10035.851024,-148.041188
4262.333396,1998.556043,-8350.440928,296.082377
4262.333720,-1110.308913,-9806.022374,518.144159
4262.334045,-962.267725,-9729.412825,0.000000
4262.334369,-3997.112087,-8044.002729,0.000000
4262.334693,-4441.235652,-9499.584175,370.102971
4262.335018,-3997.112087,-8044.002729,-1776.494261
4262.335342,-3627.009116,-8044.002729,-296.082377
4262.335666,-3627.009116,-7048.078582,-296.082377
4262.335991,-1110.308913,-8273.831378,0.000000
4262.336315,1998.556043,-7354.516781,370.102971
4262.336639,4441.235652,-7814.174080,-1258.350101
4262.336964,5107.421000,-8810.098227,-370.102971
4262.337288,6365.771101,-9729.412825,-666.185348
4262.337612,3256.906145,-9652.803275,-444.123565
4262.337937,3627.009116,-10495.508323,814.226536
4262.338261,-1258.350101,-8273.831378,74.020594
4262.338585,0.000000,-10955.165621,74.020594
4262.338910,-3256.906145,-7354.516781,-296.082377
4262.339234,-2664.741391,-10572.117872,666.185348
4262.339558,-3997.112087,-6588.421283,-1776.494261
4262.339883,-3923.091493,-8503.660028,888.247130
4262.340207,-1998.556043,-7584.345430,-2516.700203
4262.340531,-370.102971,-8044.002729,962.267725
4262.340856,2368.659014,-7814.174080,-1184.329507
4262.341180,4367.215058,-8810.098227,0.000000
4262.341504,6365.771101,-8273.831378,-1628.453072
4262.341829,5921.647536,-9576.193725,-888.247130
4262.342153,4959.379811,-10035.851024,-296.082377
4262.342477,2516.700203,-9499.584175,-74.020594
4262.342802,1406.391290,-10035.851024,370.102971
4262.343126,-2294.638420,-8580.269578,222.061783
4262.343450,-2960.823768,-8886.707777,370.102971
4262.343775,-4663.297435,-7201.297681,-888.247130
4262.344099,-4441.235652,-9193.145976,0.000000
4262.344423,-4367.215058,-7354.516781,-1258.350101
4262.344748,-1332.370696,-7201.297681,592.164754
4262.345072,888.247130,-7277.907231,-1184.329507
4262.345396,4441.235652,-9346.365076,0.000000
4262.345721,4811.338623,-6894.859482,-740.205942
4262.346045,5699.585753,-8963.317327,0.000000
4262.346369,5477.523971,-9193.145976,-1554.432478
4262.346693,3997.112087,-10342.289223,-518.144159
4262.347018,444.123565,-10342.289223,148.041188
4262.347342,-888.247130,-9652.803275,0.000000
4262.347666,-1184.329507,-9116.536426,0.000000
4262.347991,-3182.885551,-9422.974625,1036.288319
4262.348315,-3849.070898,-8503.660028,-444.123565
4262.348639,-3701.029710,-7431.126331,-222.061783
4262.348964,-3404.947333,-7354.516781,296.082377
4262.349288,0.000000,-7431.126331,-666.185348
4262.349612,3108.864956,-6971.469032,296.082377
4262.349937,4515.256246,-7507.735880,-888.247130
4262.350261,6291.750507,-9729.412825,222.061783
4262.350585,6883.915261,-8580.269578,-1332.370696
4262.350910,3701.029710,-10112.460574,-296.082377
4262.351234,3108.864956,-9346.365076,-1332.370696
4262.351558,444.123565,-10189.070123,1406.391290
4262.351883,-2738.761985,-10035.851024,0.000000
4262.352207,-3034.844362,-8963.317327,0.000000
4262.352531,-2886.803174,-8656.879127,222.061783
4262.352856,-6513.812290,-7124.688131,-1258.350101
4262.353180,-2146.597232,-8120.612279,888.247130
4262.353504,-1998.556043,-6894.859482,-2220.617826
4262.353829,740.205942,-8503.660028,-222.061783
4262.354153,222.061783,-6511.811733,-1406.391290
4262.354477,4145.153275,-9959.241474,1480.411884
4262.354802,3997.112087,-7354.516781,-1332.370696
4262.355126,4811.338623,-9959.241474,-888.247130
4262.355450,4737.318029,-9806.022374,-1480.411884
4262.355775,2368.659014,-10035.851024,0.000000
4262.356099,-814.226536,-8503.660028,74.020594
4262.356423,-2220.617826,-9116.536426,1776.494261
4262.356748,-3256.906145,-8810.098227,-592.164754
4262.357072,-3478.967927,-9422.974625,592.164754
4262.357396,-3701.029710,-7431.126331,-222.061783
4262.357721,-3478.967927,-8503.660028,-666.185348
4262.358045,-1628.453072,-6665.030833,-1480.411884
4262.358369,-814.226536,-7814.174080,740.205942
4262.358694,2886.803174,-7967.393179,-518.144159
4262.359018,3552.988522,-7967.393179,-666.185348
4262.359342,5699.585753,-9499.584175,148.041188
4262.359667,5625.565159,-7967.393179,-1554.432478
4262.359991,4589.276840,-10189.070123,518.144159
4262.360315,2442.679609,-8733.488677,-1554.432478
4262.360640,2516.700203,-9193.145976,518.144159
4262.360964,-1628.453072,-9116.536426,222.061783
4262.361288,-1998.556043,-9346.365076,0.000000
4262.361613,-3108.864956,-8350.440928,-962.267725
4262.361937,-4515.256246,-9806.022374,740.205942
4262.362261,-4737.318029,-8044.002729,-1628.453072
4262.362586,-3701.029710,-7277.907231,-1258.350101
4262.362910,-1184.329507,-8886.707777,-888.247130
4262.363234,888.247130,-6665.030833,222.061783
4262.363559,4441.235652,-9499.584175,-814.226536
4262.363883,4959.379811,-7584.345430,-1258.350101
4262.364207,5699.585753,-10648.727422,222.061783
4262.364532,2960.823768,-8044.002729,-3034.844362
4262.364856,4145.153275,-11184.994271,1110.308913
4262.365180,-1554.432478,-7431.126331,-814.226536
4262.365504,-444.123565,-10648.727422,592.164754
4262.365829,-1850.514855,-7967.393179,-1036.288319
4262.366153,-3182.885551,-10342.289223,-74.020594
4262.366477,-3330.926739,-7890.783629,-1406.391290
4262.366802,-4219.173869,-7737.564530,74.020594
4262.367126,-2220.617826,-7814.174080,0.000000
4262.367450,-1554.432478,-7201.297681,0.000000
4262.367775,3330.926739,-7507.735880,-148.041188
4262.368099,3108.864956,-7890.783629,-1554.432478
4262.368423,7402.059420,-9806.022374,-888.247130
4262.368748,4663.297435,-8963.317327,-1554.432478
4262.369072,4367.215058,-10572.117872,-592.164754
4262.369396,1110.308913,-8427.050478,-666.185348
4262.369721,0.000000,-10801.946522,1998.556043
4262.370045,-1332.370696,-8044.002729,-814.226536
4262.370369,-1628.453072,-9116.536426,370.102971
4262.370694,-2664.741391,-9269.755526,0.000000
4262.371018,-3256.906145,-7890.783629,-666.185348
4262.371342,-3997.112087,-7354.516781,-1184.329507
4262.371667,-2294.638420,-8197.221829,370.102971
4262.371991,1110.308913,-6588.421283,74.020594
4262.372315,2146.597232,-7660.954980,1332.370696
4262.372640,8290.306550,-6741.640382,74.020594
4262.372964,3182.885551,-9882.631924,-1924.535449
4262.373288,4145.153275,-8197.221829,-1036.288319
4262.373613,2146.597232,-9806.022374,-518.144159
4262.373937,1036.288319,-7967.393179,-1332.370696
4262.374261,-1258.350101,-11338.213370,3108.864956
4262.374586,-2960.823768,-7890.783629,-1184.329507
4262.374910,-2294.638420,-10112.460574,888.247130
4262.375234,-2960.823768,-8350.440928,-1776.494261
4262.375559,-6069.688724,-10572.117872,888.247130
4262.375883,-4811.338623,-6665.030833,-1036.288319
4262.376207,-1628.453072,-7814.174080,-740.205942
4262.376532,814.226536,-7584.345430,962.267725
4262.376856,3552.988522,-7277.907231,-888.247130
4262.377180,5329.482782,-9193.145976,-1776.494261
4262.377505,4959.379811,-8427.050478,-666.185348
4262.377829,4811.338623,-9499.584175,-962.267725
4262.378153,4515.256246,-9882.631924,-814.226536
4262.378478,444.123565,-9806.022374,-222.061783
4262.378802,-444.123565,-10035.851024,222.061783
4262.379126,-1776.494261,-8273.831378,0.000000
4262.379451,-3849.070898,-8886.707777,666.185348
4262.379775,-3404.947333,-8120.612279,-592.164754
4262.380099,-4737.318029,-8733.488677,-222.061783
4262.380424,-2368.659014,-7277.907231,-1110.308913
4262.380748,-1184.329507,-7277.907231,0.000000
4262.381072,962.267725,-7584.345430,-518.144159
4262.381397,2812.782580,-8350.440928,-1628.453072
4262.381721,4293.194464,-9729.412825,-1110.308913
4262.382045,2886.803174,-8503.660028,-740.205942
4262.382370,3849.070898,-10035.851024,-296.082377
4262.382694,2664.741391,-8044.002729,-888.247130
4262.383018,518.144159,-9806.022374,1110.308913
4262.383342,-888.247130,-8656.879127,-888.247130
4262.383667,-888.247130,-9729.412825,0.000000
4262.383991,-2442.679609,-7354.516781,-666.185348
4262.384315,-1110.308913,-9806.022374,1110.308913
4262.384640,-3478.967927,-7660.954980,-2146.597232
4262.384964,0.000000,-8810.098227,1036.288319
4262.385288,-1924.535449,-6588.421283,-1776.494261
4262.385613,2294.638420,-8350.440928,296.082377
4262.385937,1702.473667,-6971.469032,-1036.288319
4262.386261,5403.503377,-9806.022374,444.123565
4262.386586,4589.276840,-8197.221829,-2516.700203
4262.386910,4663.297435,-9806.022374,-592.164754
4262.387234,2738.761985,-9422.974625,-370.102971
4262.387559,740.205942,-8427.050478,-518.144159
4262.387883,-740.205942,-10035.851024,1110.308913
4262.388207,-1480.411884,-7660.954980,-370.102971
4262.388532,-1110.308913,-9193.145976,1036.288319
4262.388856,-3256.906145,-7967.393179,-1776.494261
4262.389180,-1258.350101,-8733.488677,592.164754
4262.389505,-1850.514855,-6588.421283,-592.164754
4262.389829,-370.102971,-8120.612279,1480.411884
4262.390153,370.102971,-6971.469032,-962.267725
4262.390478,3478.967927,-8963.317327,-740.205942
4262.390802,3923.091493,-7201.297681,-592.164754
4262.391126,3256.906145,-9269.755526,74.020594
4262.391451,3552.988522,-8733.488677,-1924.535449
4262.391775,2738.761985,-8963.317327,1036.288319
4262.392099,814.226536,-9422.974625,-222.061783
4262.392424,-1110.308913,-9652.803275,-1406.391290
4262.392748,-592.164754,-9806.022374,518.144159
4262.393072,-3034.844362,-7814.174080,296.082377
4262.393397,-740.205942,-8886.707777,888.247130
4262.393721,-4737.318029,-8120.612279,-1110.308913
4262.394045,-2368.659014,-8120.612279,74.020594
4262.394370,-518.144159,-6128.763984,-296.082377
4262.394694,370.102971,-9269.755526,0.000000
4262.395018,4071.132681,-8350.440928,-296.082377
4262.395343,3923.091493,-7431.126331,-222.061783
4262.395667,3923.091493,-10189.070123,-1628.453072
4262.395991,1184.329507,-9806.022374,-1036.288319
4262.396316,2664.741391,-8810.098227,-740.205942
4262.396640,-1258.350101,-9806.022374,296.082377
4262.396964,-444.123565,-9959.241474,0.000000
4262.397289,-2516.700203,-8580.269578,296.082377
4262.397613,-2220.617826,-9422.974625,518.144159
4262.397937,-4219.173869,-7660.954980,-296.082377
4262.398262,-2220.617826,-8273.831378,-1406.391290
4262.398586,-2368.659014,-8427.050478,-814.226536
4262.398910,-518.144159,-7584.345430,0.000000
4262.399235,666.185348,-7967.393179,-962.267725
4262.399559,1850.514855,-8580.269578,148.041188
4262.399883,5181.441594,-7890.783629,148.041188
4262.400208,3552.988522,-8810.098227,-1924.535449
4262.400532,3552.988522,-10112.460574,-1036.288319
4262.400856,3256.906145,-10112.460574,-444.123565
4262.401180,-518.144159,-9576.193725,370.102971
4262.401505,-740.205942,-7431.126331,74.020594
4262.401829,74.020594,-10112.460574,-222.061783
4262.402153,-3182.885551,-9422.974625,-444.123565
4262.402478,-1480.411884,-8963.317327,222.061783
4262.402802,-4293.194464,-8580.269578,-1258.350101
4262.403126,-1924.535449,-7277.907231,74.020594
4262.403451,-666.185348,-7124.688131,814.226536
4262.403775,1924.535449,-7967.393179,-1110.308913
4262.404099,3182.885551,-8044.002729,-1258.350101
4262.404424,5403.503377,-9576.193725,-1110.308913
4262.404748,4959.379811,-8503.660028,-814.226536
4262.405072,4145.153275,-9116.536426,-518.144159
4262.405397,1554.432478,-8427.050478,-296.082377
4262.405721,666.185348,-9959.241474,666.185348
4262.406045,-1184.329507,-8273.831378,-666.185348
4262.406370,-3182.885551,-9499.584175,888.247130
4262.406694,-2146.597232,-7814.174080,74.020594
4262.407018,-2516.700203,-8733.488677,-222.061783
4262.407343,-3330.926739,-7967.393179,-1628.453072
4262.407667,-666.185348,-7660.954980,-222.061783
4262.407991,-444.123565,-7584.345430,-592.164754
4262.408316,1554.432478,-7048.078582,0.000000
4262.408640,4219.173869,-8273.831378,0.000000
4262.408964,4367.215058,-9039.926876,-2368.659014
4262.409289,4811.338623,-9499.584175,-962.267725
4262.409613,2738.761985,-9652.803275,-1258.350101
4262.409937,1406.391290,-9959.241474,370.102971
4262.410262,-1628.453072,-8350.440928,-148.041188
4262.410586,-2368.659014,-8886.707777,-740.205942
4262.410910,-1332.370696,-9806.022374,148.041188
4262.411235,-3478.967927,-8197.221829,0.000000
4262.411559,-1480.411884,-8963.317327,222.061783
4262.411883,-3404.947333,-6894.859482,-1554.432478
4262.412208,-1036.288319,-8810.098227,-148.041188
4262.412532,444.123565,-6052.154434,-1406.391290
4262.412856,2146.597232,-8733.488677,888.247130
4262.413181,4219.173869,-7201.297681,-1850.514855
4262.413505,5255.462188,-9269.755526,0.000000
4262.413829,4515.256246,-9193.145976,-1332.370696
4262.414154,2590.720797,-10495.508323,-222.061783
4262.414478,148.041188,-8350.440928,-370.102971
4262.414802,0.000000,-10495.508323,962.267725
4262.415127,-1406.391290,-8197.221829,-666.185348
4262.415451,-3108.864956,-9576.193725,370.102971
4262.415775,-3923.091493,-7507.735880,-1480.411884
4262.416100,-1998.556043,-9576.193725,0.000000
4262.416424,-1998.556043,-7277.907231,-2146.597232
4262.416748,-592.164754,-8810.098227,222.061783
4262.417073,-4071.132681,-6205.373534,-1110.308913
4262.417397,4071.132681,-8810.098227,1184.329507
4262.417721,2812.782580,-7584.345430,-3775.050304
4262.418046,5551.544565,-11951.089769,740.205942
4262.418370,4071.132681,-9576.193725,-1998.556043
4262.418694,814.226536,-9499.584175,-888.247130
4262.419019,1406.391290,-9806.022374,74.020594
4262.419343,-370.102971,-8580.269578,-296.082377
4262.419667,-3108.864956,-9422.974625,0.000000
4262.419991,-592.164754,-7967.393179,148.041188
4262.420316,-2960.823768,-8427.050478,888.247130
4262.420640,-3701.029710,-7890.783629,-1332.370696
4262.420964,-3182.885551,-9116.536426,962.267725
4262.421289,-1332.370696,-7814.174080,-1480.411884
4262.421613,1110.308913,-9422.974625,0.000000
4262.421937,1480.411884,-7277.907231,-370.102971
4262.422262,4589.276840,-9806.022374,-222.061783
4262.422586,3478.967927,-7584.345430,-1110.308913
4262.422910,1924.535449,-9806.022374,0.000000
4262.423235,2886.803174,-7967.393179,-814.226536
4262.423559,2516.700203,-10572.117872,444.123565
4262.423883,-444.123565,-9346.365076,0.000000
4262.424208,1110.308913,-10189.070123,74.020594
4262.424532,-2664.741391,-7354.516781,-592.164754
4262.424856,-2664.741391,-9116.536426,666.185348
4262.425181,-2368.659014,-8503.660028,296.082377
4262.425505,-4219.173869,-8197.221829,370.102971
4262.425829,-1554.432478,-7124.688131,-1258.350101
4262.426154,-296.082377,-6971.469032,-1258.350101
4262.426478,4367.215058,-8886.707777,1702.473667
4262.426802,1998.556043,-7431.126331,-1332.370696
4262.427127,6291.750507,-9652.803275,962.267725
4262.427451,2960.823768,-7431.126331,-1628.453072
4262.427775,2516.700203,-10418.898773,-740.205942
4262.428100,2960.823768,-8197.221829,148.041188
4262.428424,74.020594,-8810.098227,222.061783
4262.428748,-1110.308913,-8350.440928,-296.082377
4262.429073,-2812.782580,-9039.926876,888.247130
4262.429397,-4145.153275,-8044.002729,-592.164754
4262.429721,-2664.741391,-8197.221829,296.082377
4262.430046,-1332.370696,-6665.030833,-1258.350101
4262.430370,-1850.514855,-8273.831378,-370.102971
4262.430694,1406.391290,-7354.516781,-962.267725
4262.431019,2368.659014,-8044.002729,0.000000
4262.431343,2812.782580,-9039.926876,370.102971
4262.431667,7254.018232,-8197.221829,0.000000
4262.431992,4219.173869,-9039.926876,-222.061783
4262.432316,2220.617826,-10265.679673,-1702.473667
4262.432640,148.041188,-8733.488677,0.000000
4262.432965,-2220.617826,-10189.070123,0.000000
4262.433289,74.020594,-9422.974625,-518.144159
4262.433613,-740.205942,-9576.193725,-444.123565
4262.433938,-3478.967927,-8044.002729,74.020594
4262.434262,-3034.844362,-8886.707777,-370.102971
4262.434586,-2220.617826,-6665.030833,-2072.576638
4262.434911,-370.102971,-8427.050478,1036.288319
4262.435235,222.061783,-6435.202183,-888.247130
4262.435559,2590.720797,-9729.412825,-518.144159
4262.435884,3478.967927,-7507.735880,-1110.308913
4262.436208,4811.338623,-9729.412825,-296.082377
4262.436532,3923.091493,-8810.098227,-2368.659014
4262.436857,2368.659014,-9039.926876,370.102971
4262.437181,1998.556043,-8656.879127,518.144159
4262.437505,-1554.432478,-8580.269578,-962.267725
4262.437830,-1702.473667,-10265.679673,814.226536
4262.438154,-1184.329507,-7277.907231,-592.164754
4262.438478,-1924.535449,-9422.974625,-296.082377
4262.438803,-3404.947333,-8350.440928,-1406.391290
4262.439127,-1184.329507,-7048.078582,0.000000
4262.439451,-1406.391290,-8044.002729,74.020594
4262.439776,0.000000,-7737.564530,-592.164754
4262.440100,2146.597232,-9039.926876,444.123565
4262.440424,4737.318029,-7124.688131,-666.185348
4262.440749,5551.544565,-10418.898773,-444.123565
4262.441073,5107.421000,-9422.974625,-1184.329507
4262.441397,3478.967927,-7814.174080,370.102971
4262.441722,666.185348,-7584.345430,296.082377
4262.442046,-2368.659014,-8197.221829,1406.391290
4262.442370,3182.885551,-9729.412825,740.205942
4262.442695,-2368.659014,-9193.145976,814.226536
4262.443019,-5033.400406,-7584.345430,-666.185348
4262.443343,-3108.864956,-7737.564530,0.000000
4262.443668,-1258.350101,-8580.269578,-1110.308913
4262.443992,-1702.473667,-8427.050478,518.144159
4262.444316,-1110.308913,-6128.763984,-814.226536
4262.444641,3478.967927,-9652.803275,370.102971
4262.444965,4293.194464,-8120.612279,-1406.391290
4262.445289,6661.853478,-9806.022374,74.020594
4262.445614,4367.215058,-8350.440928,-1406.391290
4262.445938,1628.453072,-10648.727422,444.123565
4262.446262,1110.308913,-9729.412825,-814.226536
4262.446587,-296.082377,-8656.879127,222.061783
4262.446911,-2590.720797,-8656.879127,444.123565
4262.447235,-3256.906145,-7354.516781,-370.102971
4262.447560,-2146.597232,-9346.365076,1258.350101
4262.447884,-1332.370696,-6511.811733,-592.164754
4262.448208,-3849.070898,-8427.050478,-222.061783
4262.448533,740.205942,-7048.078582,-1332.370696
4262.448857,814.226536,-7814.174080,444.123565
4262.449181,3997.112087,-7737.564530,-962.267725
4262.449506,6883.915261,-9576.193725,74.020594
4262.449830,4441.235652,-7890.783629,-1998.556043
4262.450154,5033.400406,-11184.994271,0.000000
4262.450479,2072.576638,-8427.050478,-1850.514855
4262.450803,592.164754,-10418.898773,1184.329507
4262.451127,-2146.597232,-8273.831378,-370.102971
4262.451452,-2664.741391,-9806.022374,740.205942
4262.451776,-3849.070898,-7124.688131,-296.082377
4262.452100,-3330.926739,-9039.926876,-148.041188
4262.452425,-2590.720797,-8810.098227,-1258.350101
4262.452749,-4219.173869,-6128.763984,-148.041188
4262.453073,1332.370696,-8656.879127,666.185348
4262.453398,3108.864956,-7201.297681,-1702.473667
4262.453722,3775.050304,-9729.412825,296.082377
4262.454046,6587.832884,-7431.126331,-888.247130
4262.454370,5255.462188,-9499.584175,-814.226536
4262.454695,3330.926739,-9422.974625,-2220.617826
4262.455019,2368.659014,-10955.165621,-592.164754
4262.455343,-814.226536,-9193.145976,0.000000
4262.455668,-3330.926739,-9652.803275,-740.205942
4262.455992,-1998.556043,-8886.707777,814.226536
4262.456316,-3256.906145,-9422.974625,296.082377
4262.456641,-4811.338623,-8273.831378,-740.205942
4262.456965,-2590.720797,-8733.488677,-370.102971
4262.457289,-592.164754,-7354.516781,-1110.308913
4262.457614,1110.308913,-8044.002729,-222.061783
4262.457938,2442.679609,-6818.249932,0.000000
4262.458262,4367.215058,-9269.755526,-666.185348
4262.458587,5773.606348,-9039.926876,-444.123565
4262.458911,4145.153275,-8963.317327,-1554.432478
4262.459235,3552.988522,-9499.584175,0.000000
4262.459560,592.164754,-8656.879127,296.082377
4262.459884,-444.123565,-9499.584175,444.123565
4262.460208,222.061783,-8503.660028,0.000000
4262.460533,-1998.556043,-8810.098227,0.000000
4262.460857,-2738.761985,-8733.488677,-1110.308913
4262.461181,-1776.494261,-7814.174080,148.041188
4262.461506,-1776.494261,-7660.954980,-518.144159
4262.461830,-1628.453072,-7354.516781,-444.123565
4262.462154,518.144159,-7660.954980,740.205942
4262.462479,1332.370696,-6511.811733,-518.144159
4262.462803,5699.585753,-10265.679673,222.061783
4262.463127,3256.906145,-6971.469032,-1924.535449
4262.463452,5107.421000,-12027.699319,1110.308913
4262.463776,2368.659014,-6894.859482,-1776.494261
4262.464100,0.000000,-11568.042020,222.061783
4262.464425,-1776.494261,-7584.345430,-296.082377
4262.464749,-3108.864956,-8963.317327,1776.494261
4262.465073,-3552.988522,-7507.735880,-1184.329507
4262.465398,-2368.659014,-8963.317327,1924.535449
4262.465722,-2368.659014,-7431.126331,-444.123565
4262.466046,-2590.720797,-7431.126331,-444.123565
4262.466371,-296.082377,-8120.612279,-962.267725
4262.466695,148.041188,-6741.640382,-592.164754
4262.467019,3997.112087,-10189.070123,0.000000
4262.467344,4219.173869,-7814.174080,-1480.411884
4262.467668,5033.400406,-9499.584175,0.000000
4262.467992,1776.494261,-7201.297681,-1480.411884
4262.468317,2368.659014,-11031.775171,740.205942
4262.468641,740.205942,-8120.612279,-666.185348
4262.468965,-888.247130,-9806.022374,592.164754
4262.469290,-1184.329507,-8963.317327,-296.082377
4262.469614,-2738.761985,-8656.879127,-74.020594
4262.469938,-2368.659014,-8733.488677,666.185348
4262.470263,-1258.350101,-7584.345430,296.082377
4262.470587,-2294.638420,-8427.050478,-962.267725
4262.470911,0.000000,-7967.393179,74.020594
4262.471236,1998.556043,-7354.516781,-962.267725
4262.471560,3034.844362,-8656.879127,0.000000
4262.471884,3627.009116,-8350.440928,-296.082377
4262.472209,4737.318029,-9039.926876,0.000000
4262.472533,5255.462188,-8886.707777,-888.247130
4262.472857,2516.700203,-9422.974625,-370.102971
4262.473182,1702.473667,-9652.803275,-296.082377
4262.473506,-3330.926739,-7814.174080,148.041188
4262.473830,-1998.556043,-9193.145976,444.123565
4262.474155,-2220.617826,-7737.564530,-148.041188
4262.474479,-4737.318029,-9193.145976,-222.061783
4262.474803,-3997.112087,-8963.317327,-1184.329507
4262.475128,-3256.906145,-7277.907231,0.000000
4262.475452,-1850.514855,-7354.516781,-370.102971
4262.475776,4293.194464,-8427.050478,-444.123565
4262.476101,3849.070898,-8427.050478,888.247130
4262.476425,5033.400406,-6818.249932,-1036.288319
4262.476749,6291.750507,-8503.660028,-296.082377
4262.477074,3923.091493,-9576.193725,-962.267725
4262.477398,2812.782580,-10189.070123,-962.267725
4262.477722,592.164754,-8197.221829,-444.123565
4262.478047,-1776.494261,-9499.584175,296.082377
4262.478371,-2738.761985,-9116.536426,-1258.350101
4262.478695,-370.102971,-9652.803275,-222.061783
4262.479020,-4219.173869,-7584.345430,740.205942
4262.479344,-5847.626942,-8580.269578,-592.164754
4262.479668,-1776.494261,-8197.221829,-1406.391290
4262.479993,-296.082377,-9116.536426,740.205942
4262.480317,74.020594,-7048.078582,0.000000
4262.480641,3775.050304,-8580.269578,-888.247130
4262.480966,3108.864956,-8044.002729,-962.267725
4262.481290,4737.318029,-8427.050478,-370.102971
4262.481614,4145.153275,-8733.488677,-2590.720797
4262.481939,4071.132681,-11874.480219,518.144159
4262.482263,1554.432478,-8273.831378,-592.164754
4262.482587,-518.144159,-8580.269578,1554.432478
4262.482912,-1554.432478,-8580.269578,444.123565
4262.483236,-3182.885551,-8197.221829,518.144159
4262.483560,-2812.782580,-7737.564530,-296.082377
4262.483885,-4515.256246,-7890.783629,-296.082377
4262.484209,-3034.844362,-7277.907231,148.041188
4262.484533,592.164754,-7354.516781,-444.123565
4262.484858,2146.597232,-8350.440928,-296.082377
4262.485182,3256.906145,-8427.050478,222.061783
4262.485506,4737.318029,-7814.174080,-1554.432478
4262.485831,5921.647536,-10035.851024,370.102971
4262.486155,2738.761985,-7814.174080,-740.205942
4262.486479,2294.638420,-9652.803275,0.000000
4262.486804,296.082377,-9039.926876,296.082377
4262.487128,-1924.535449,-9806.022374,-592.164754
4262.487452,-3256.906145,-7354.516781,0.000000
4262.487777,-1776.494261,-7814.174080,592.164754
4262.488101,-3701.029710,-7967.393179,-444.123565
4262.488425,-1850.514855,-7814.174080,370.102971
4262.488750,518.144159,-7354.516781,74.020594
4262.489074,148.041188,-8580.269578,-222.061783
4262.489398,2664.741391,-7660.954980,-222.061783
4262.489723,4441.235652,-8656.879127,-814.226536
4262.490047,4515.256246,-9652.803275,-1406.391290
4262.490371,4737.318029,-10035.851024,-814.226536
4262.490695,3552.988522,-9346.365076,-666.185348
4262.491020,888.247130,-9116.536426,-444.123565
4262.491344,-666.185348,-9039.926876,0.000000
4262.491668,-1924.535449,-7967.393179,-666.185348
4262.491993,-1850.514855,-8963.317327,0.000000
4262.492317,-2516.700203,-7660.954980,-444.123565
4262.492641,-1924.535449,-8580.269578,0.000000
4262.492966,-2516.700203,-7584.345430,-296.082377
4262.493290,-1702.473667,-7584.345430,-148.041188
4262.493614,-296.082377,-8503.660028,-962.267725
4262.493939,2368.659014,-8350.440928,296.082377
4262.494263,4367.215058,-8427.050478,-740.205942
4262.494587,5403.503377,-8886.707777,-962.267725
4262.494912,4293.194464,-9652.803275,-962.267725
4262.495236,5995.668130,-8810.098227,-370.102971
4262.495560,-2294.638420,-9422.974625,-962.267725
4262.495885,1332.370696,-9039.926876,-518.144159
4262.496209,-5329.482782,-8273.831378,222.061783
4262.496533,-1258.350101,-9039.926876,-888.247130
4262.496858,-2442.679609,-9576.193725,222.061783
4262.497182,-3330.926739,-8886.707777,-1480.411884
4262.497506,-3997.112087,-7890.783629,-518.144159
4262.497831,-1702.473667,-8044.002729,-1776.494261
4262.498155,-370.102971,-10495.508323,592.164754
4262.498479,1332.370696,-6281.983084,-1184.329507
4262.498804,2442.679609,-9806.022374,1258.350101
4262.499128,3034.844362,-7967.393179,-2220.617826
4262.499452,5107.421000,-11261.603821,-518.144159
4262.499777,3034.844362,-9346.365076,-1628.453072
4262.500101,-740.205942,-10342.289223,-222.061783
4262.500425,-1776.494261,-8656.879127,-222.061783
4262.500750,0.000000,-8656.879127,296.082377
4262.501074,-3627.009116,-8273.831378,-370.102971
4262.501398,-444.123565,-8963.317327,666.185348
4262.501723,-3775.050304,-6588.421283,-888.247130
4262.502047,-3478.967927,-8273.831378,444.123565
4262.502371,518.144159,-7277.907231,-1036.288319
4262.502696,0.000000,-8427.050478,-370.102971
4262.503020,1332.370696,-7431.126331,518.144159
4262.503344,4441.235652,-7890.783629,-296.082377
4262.503669,3923.091493,-9039.926876,148.041188
4262.503993,3330.926739,-9039.926876,592.164754
4262.504317,3701.029710,-8733.488677,-1036.288319
4262.504642,1332.370696,-9039.926876,74.020594
4262.504966,666.185348,-8810.098227,296.082377
4262.505290,-1110.308913,-8273.831378,740.205942
4262.505615,-3330.926739,-7737.564530,-592.164754
4262.505939,148.041188,-9269.755526,740.205942
4262.506263,-3701.029710,-7890.783629,-222.061783
4262.506588,-2738.761985,-7354.516781,0.000000
4262.506912,-2442.679609,-7431.126331,-222.061783
4262.507236,-592.164754,-8197.221829,0.000000
4262.507561,2812.782580,-8656.879127,148.041188
4262.507885,2812.782580,-8733.488677,-1628.453072
4262.508209,4219.173869,-8350.440928,0.000000
4262.508534,5329.482782,-9193.145976,-740.205942
4262.508858,2886.803174,-9806.022374,-1110.308913
4262.509182,1480.411884,-9422.974625,0.000000
4262.509507,74.020594,-7967.393179,-1110.308913
4262.509831,-1702.473667,-10112.460574,-962.267725
4262.510155,-2072.576638,-7660.954980,-444.123565
4262.510480,-2220.617826,-9116.536426,1110.308913
4262.510804,-4589.276840,-7814.174080,-2146.597232
4262.511128,-3330.926739,-8197.221829,0.000000
4262.511453,-1702.473667,-7507.735880,-592.164754
4262.511777,1924.535449,-9269.755526,-518.144159
4262.512101,3256.906145,-8120.612279,-1702.473667
4262.512426,5181.441594,-9116.536426,-962.267725
4262.512750,5773.606348,-9346.365076,-1036.288319
4262.513074,4811.338623,-10418.898773,148.041188
4262.513399,2886.803174,-10801.946522,-1480.411884
4262.513723,0.000000,-9499.584175,-1628.453072
4262.514047,-2294.638420,-9116.536426,444.123565
4262.514372,-2146.597232,-8350.440928,-1554.432478
4262.514696,-1480.411884,-9269.755526,222.061783
4262.515020,-3108.864956,-7431.126331,-740.205942
4262.515345,-740.205942,-8427.050478,740.205942
4262.515669,-3627.009116,-7431.126331,-888.247130
4262.515993,1406.391290,-8197.221829,-370.102971
4262.516318,3330.926739,-7584.345430,-814.226536
4262.516642,3404.947333,-8197.221829,-814.226536
4262.516966,1850.514855,-8350.440928,-666.185348
4262.517291,4367.215058,-8886.707777,222.061783
4262.517615,5921.647536,-10878.556072,-1258.350101
4262.517939,1480.411884,-9652.803275,-1702.473667
4262.518264,740.205942,-9806.022374,0.000000
4262.518588,-2072.576638,-7890.783629,-1036.288319
4262.518912,-1184.329507,-8810.098227,-370.102971
4262.519237,-2368.659014,-8120.612279,0.000000
4262.519561,-5107.421000,-7660.954980,-518.144159
4262.519885,-3627.009116,-7814.174080,-296.082377
4262.520210,-3182.885551,-7277.907231,-1406.391290
4262.520534,1110.308913,-9806.022374,222.061783
4262.520858,888.247130,-6511.811733,-444.123565
4262.521183,3256.906145,-10035.851024,296.082377
4262.521507,3478.967927,-6665.030833,-1702.473667
4262.521831,5921.647536,-10572.117872,740.205942
4262.522156,2516.700203,-8810.098227,-814.226536
4262.522480,2664.741391,-10572.117872,518.144159
4262.522804,-1036.288319,-7890.783629,-1850.514855
4262.523129,-2442.679609,-10342.289223,1036.288319
4262.523453,-4145.153275,-7354.516781,-740.205942
4262.523777,-3256.906145,-8963.317327,444.123565
4262.524101,-2664.741391,-8044.002729,222.061783
4262.524426,-2590.720797,-7737.564530,518.144159
4262.524750,-1776.494261,-7737.564530,-740.205942
4262.525074,444.123565,-7890.783629,666.185348
4262.525398,2220.617826,-8427.050478,-148.041188
4262.525723,4219.173869,-8656.879127,0.000000
4262.526047,6143.709319,-7584.345430,222.061783
4262.526371,3552.988522,-8733.488677,-148.041188
4262.526695,3478.967927,-9499.584175,-888.247130
4262.527020,1332.370696,-8656.879127,-74.020594
4262.527344,74.020594,-9346.365076,0.000000
4262.527668,-1480.411884,-8197.221829,0.000000
4262.527993,-2442.679609,-8044.002729,0.000000
4262.528317,-3849.070898,-7967.393179,222.061783
4262.528641,-1702.473667,-8197.221829,-222.061783
4262.528965,0.000000,-7814.174080,888.247130
4262.529290,-1924.535449,-6128.763984,-1110.308913
4262.529614,-296.082377,-9193.145976,-1332.370696
4262.529938,1850.514855,-8427.050478,-888.247130
4262.530262,4145.153275,-7660.954980,0.000000
4262.530587,6513.812290,-9422.974625,-518.144159
4262.530911,5477.523971,-9652.803275,-444.123565
4262.531235,2368.659014,-8580.269578,-666.185348
4262.531559,222.061783,-9116.536426,-2442.679609
4262.531884,296.082377,-11108.384721,740.205942
4262.532208,-1036.288319,-8733.488677,-296.082377
4262.532532,-2590.720797,-8656.879127,-814.226536
4262.532856,-2442.679609,-8656.879127,-148.041188
4262.533181,-2738.761985,-7584.345430,-666.185348
4262.533505,-1998.556043,-7660.954980,-1184.329507
4262.533829,-740.205942,-7967.393179,-1036.288319
4262.534153,-222.061783,-8580.269578,444.123565
4262.534478,962.267725,-6588.421283,-1184.329507
4262.534802,4441.235652,-10189.070123,296.082377
4262.535126,4737.318029,-8197.221829,-2146.597232
4262.535451,6513.812290,-10342.289223,0.000000
4262.535775,3182.885551,-8656.879127,-1702.473667
4262.536099,1036.288319,-10878.556072,296.082377
4262.536423,148.041188,-8044.002729,-740.205942
4262.536748,-2738.761985,-8963.317327,-666.185348
4262.537072,-2294.638420,-8963.317327,-296.082377
4262.537396,-3775.050304,-7431.126331,-666.185348
4262.537720,-3404.947333,-7737.564530,-592.164754
4262.538045,-2812.782580,-8733.488677,-740.205942
4262.538369,-2664.741391,-8886.707777,-1184.329507
4262.538693,0.000000,-8733.488677,444.123565
4262.539017,2960.823768,-6741.640382,-1036.288319
4262.539342,3330.926739,-9499.584175,740.205942
4262.539666,7179.997637,-8886.707777,-1184.329507
4262.539990,4515.256246,-9422.974625,-666.185348
4262.540314,4071.132681,-11184.994271,370.102971
4262.540639,1554.432478,-7890.783629,-888.247130
4262.540963,-1184.329507,-9193.145976,370.102971
4262.541287,-666.185348,-8044.002729,666.185348
4262.541612,-1184.329507,-8120.612279,-888.247130
4262.541936,-1850.514855,-8656.879127,444.123565
4262.542260,-4959.379811,-8044.002729,-370.102971
4262.542584,-3849.070898,-8580.269578,-296.082377
4262.542909,-3404.947333,-7354.516781,370.102971
4262.543233,-518.144159,-8580.269578,888.247130
4262.543557,1036.288319,-6971.469032,-1184.329507
4262.543881,4811.338623,-8886.707777,0.000000
4262.544206,4145.153275,-8273.831378,-888.247130
4262.544530,5329.482782,-9806.022374,-370.102971
4262.544854,3256.906145,-8810.098227,592.164754
4262.545178,-1776.494261,-8503.660028,-148.041188
4262.545503,740.205942,-9422.974625,888.247130
4262.545827,-2146.597232,-8197.221829,-148.041188
4262.546151,-1850.514855,-9269.755526,-740.205942
4262.546475,-2664.741391,-7660.954980,-370.102971
4262.546800,-5107.421000,-8733.488677,518.144159
4262.547124,-2146.597232,-7967.393179,666.185348
4262.547448,-3923.091493,-6588.421283,-1110.308913
4262.547772,-296.082377,-9269.755526,296.082377
4262.548097,1850.514855,-8197.221829,-222.061783
4262.548421,3923.091493,-9039.926876,-740.205942
4262.548745,5033.400406,-7124.688131,-2072.576638
4262.549070,4737.318029,-11261.603821,74.020594
4262.549394,2368.659014,-9346.365076,-814.226536
4262.549718,1702.473667,-10112.460574,-814.226536
4262.550042,-1850.514855,-8886.707777,-222.061783
4262.550367,-1554.432478,-9193.145976,-296.082377
4262.550691,-2516.700203,-8350.440928,-962.267725
4262.551015,-2146.597232,-8963.317327,-518.144159
4262.551339,-3404.947333,-7354.516781,0.000000
4262.551664,-3997.112087,-8350.440928,-296.082377
4262.551988,-2960.823768,-7737.564530,-1850.514855
4262.552312,1554.432478,-9193.145976,0.000000
4262.552636,2368.659014,-7507.735880,-1480.411884
4262.552961,4589.276840,-9499.584175,0.000000
4262.553285,6291.750507,-8427.050478,-1554.432478
4262.553609,5551.544565,-10495.508323,-592.164754
4262.553933,3552.988522,-9116.536426,-1776.494261
4262.554258,1258.350101,-9422.974625,148.041188
4262.554582,296.082377,-8656.879127,-444.123565
4262.554906,-1850.514855,-9193.145976,-1110.308913
4262.555231,-1184.329507,-8963.317327,-1258.350101
4262.555555,-3256.906145,-8120.612279,-592.164754
4262.555879,-4441.235652,-7967.393179,296.082377
4262.556203,-3256.906145,-7890.783629,-962.267725
4262.556528,-1554.432478,-8197.221829,-962.267725
4262.556852,1480.411884,-8733.488677,222.061783
4262.557176,2146.597232,-7737.564530,-814.226536
4262.557500,5403.503377,-9652.803275,814.226536
4262.557825,5181.441594,-7201.297681,-1850.514855
4262.558149,7105.977043,-10955.165621,-666.185348
4262.558473,2960.823768,-9269.755526,-1406.391290
4262.558797,2220.617826,-9729.412825,814.226536
4262.559122,-1258.350101,-8044.002729,-814.226536
4262.559446,-1776.494261,-9959.241474,-1554.432478
4262.559770,-2590.720797,-9116.536426,148.041188
4262.560094,-2886.803174,-7277.907231,148.041188
4262.560419,-5625.565159,-8580.269578,0.000000
4262.560743,-5255.462188,-7277.907231,-518.144159
4262.561067,-296.082377,-9422.974625,-444.123565
4262.561391,3182.885551,-8197.221829,-962.267725
4262.561716,2812.782580,-8273.831378,-518.144159
4262.562040,5181.441594,-7660.954980,-592.164754
4262.562364,7476.080014,-8886.707777,-740.205942
4262.562689,5625.565159,-11491.432470,518.144159
4262.563013,4737.318029,-9729.412825,-1184.329507
4262.563337,814.226536,-9346.365076,0.000000
4262.563661,-814.226536,-8810.098227,370.102971
4262.563986,-3034.844362,-7354.516781,-1554.432478
4262.564310,-2294.638420,-8580.269578,222.061783
4262.564634,-4589.276840,-6894.859482,-444.123565
4262.564958,-3034.844362,-9729.412825,1036.288319
4262.565283,-5995.668130,-6128.763984,-518.144159
4262.565607,-2886.803174,-8580.269578,296.082377
4262.565931,1258.350101,-7967.393179,-296.082377
4262.566255,3923.091493,-8963.317327,666.185348
4262.566580,7105.977043,-8273.831378,-1332.370696
4262.566904,5995.668130,-9499.584175,-148.041188
4262.567228,4737.318029,-9576.193725,-1110.308913
4262.567552,2368.659014,-9422.974625,592.164754
4262.567877,148.041188,-9039.926876,296.082377
4262.568201,-2442.679609,-8580.269578,592.164754
4262.568525,-1628.453072,-7660.954980,74.020594
4262.568850,-2368.659014,-8350.440928,0.000000
4262.569174,-2664.741391,-7124.688131,-814.226536
4262.569498,-2146.597232,-8273.831378,444.123565
4262.569822,-2516.700203,-6818.249932,74.020594
4262.570147,592.164754,-8656.879127,74.020594
4262.570471,740.205942,-7737.564530,-592.164754
4262.570795,3478.967927,-9116.536426,-1110.308913
4262.571119,5773.606348,-8580.269578,-1258.350101
4262.571444,5403.503377,-9269.755526,370.102971
4262.571768,3256.906145,-9346.365076,-1332.370696
4262.572092,2294.638420,-9652.803275,-666.185348
4262.572416,1036.288319,-8503.660028,740.205942
4262.572741,-1332.370696,-8427.050478,592.164754
4262.573065,-2072.576638,-8427.050478,-1480.411884
4262.573389,-666.185348,-8963.317327,296.082377
4262.573713,-1628.453072,-7507.735880,-740.205942
4262.574038,-3404.947333,-7354.516781,-222.061783
4262.574362,-4219.173869,-7048.078582,-666.185348
4262.574686,-1258.350101,-9346.365076,518.144159
4262.575010,814.226536,-7967.393179,-1480.411884
4262.575335,4663.297435,-8810.098227,-148.041188
4262.575659,6439.791695,-9039.926876,0.000000
4262.575983,5181.441594,-8810.098227,296.082377
4262.576308,5403.503377,-9269.755526,-1850.514855
4262.576632,2664.741391,-10342.289223,0.000000
4262.576956,444.123565,-8810.098227,148.041188
4262.577280,-1628.453072,-8044.002729,-740.205942
4262.577605,-1184.329507,-8120.612279,-370.102971
4262.577929,-2368.659014,-8810.098227,444.123565
4262.578253,-3330.926739,-8886.707777,0.000000
4262.578577,-6513.812290,-7660.954980,0.000000
4262.578902,-2664.741391,-7354.516781,-222.061783
4262.579226,-222.061783,-8656.879127,-1480.411884
4262.579550,3034.844362,-8656.879127,0.000000
4262.579874,6735.874072,-9039.926876,-148.041188
4262.580199,6143.709319,-9346.365076,-1850.514855
4262.580523,5255.462188,-9346.365076,296.082377
4262.580847,4737.318029,-9652.803275,-370.102971
4262.581171,1776.494261,-9576.193725,-888.247130
4262.581496,814.226536,-8810.098227,0.000000
4262.581820,-1850.514855,-7660.954980,-592.164754
4262.582144,-2886.803174,-7967.393179,-444.123565
4262.582469,-2738.761985,-7354.516781,-148.041188
4262.582793,-3775.050304,-8120.612279,148.041188
4262.583117,-4145.153275,-7660.954980,-592.164754
4262.583441,-3330.926739,-8886.707777,-518.144159
4262.583766,-148.041188,-8120.612279,-296.082377
4262.584090,3627.009116,-7507.735880,0.000000
4262.584414,4071.132681,-8120.612279,-1258.350101
4262.584738,6291.750507,-9269.755526,74.020594
4262.585063,3849.070898,-9422.974625,-518.144159
4262.585387,2590.720797,-10265.679673,-888.247130
4262.585711,-592.164754,-9499.584175,-370.102971
4262.586035,-1850.514855,-8886.707777,518.144159
4262.586360,-962.267725,-7354.516781,-1036.288319
4262.586684,-1702.473667,-8427.050478,-148.041188
4262.587008,-888.247130,-8197.221829,-148.041188
4262.587332,-3923.091493,-7967.393179,74.020594
4262.587657,-2886.803174,-7507.735880,-222.061783
4262.587981,-3404.947333,-8197.221829,518.144159
4262.588305,222.061783,-8273.831378,518.144159
4262.588629,2886.803174,-8350.440928,-148.041188
4262.588954,4071.132681,-8810.098227,-1332.370696
4262.589278,6513.812290,-9576.193725,296.082377
4262.589602,2664.741391,-9039.926876,-1628.453072
4262.589927,2812.782580,-10495.508323,-222.061783
4262.590251,444.123565,-8580.269578,0.000000
4262.590575,-666.185348,-8503.660028,666.185348
4262.590899,0.000000,-8963.317327,-814.226536
4262.591224,-1850.514855,-8273.831378,-666.185348
4262.591548,-1554.432478,-8350.440928,148.041188
4262.591872,-3849.070898,-6741.640382,0.000000
4262.592196,-3404.947333,-8197.221829,592.164754
4262.592521,-1702.473667,-7354.516781,-148.041188
4262.592845,148.041188,-8963.317327,370.102971
4262.593169,1850.514855,-8197.221829,-666.185348
4262.593493,4737.318029,-9729.412825,-444.123565
4262.593818,5403.503377,-8503.660028,-1184.329507
4262.594142,3997.112087,-9039.926876,-814.226536
4262.594466,3034.844362,-10342.289223,-962.267725
4262.594790,888.247130,-8503.660028,-740.205942
4262.595115,1036.288319,-9346.365076,-370.102971
4262.595439,-1776.494261,-8044.002729,-222.061783
4262.595763,-1258.350101,-8733.488677,296.082377
4262.596088,-3478.967927,-7967.393179,-888.247130
4262.596412,-2960.823768,-8886.707777,296.082377
4262.596736,-3552.988522,-7354.516781,0.000000
4262.597060,-3552.988522,-7814.174080,0.000000
4262.597385,1998.556043,-10112.460574,-1036.288319
4262.597709,4441.235652,-7048.078582,666.185348
4262.598033,8068.244768,-8120.612279,-2368.659014
4262.598357,5699.585753,-9576.193725,518.144159
4262.598682,6069.688724,-8273.831378,-1184.329507
4262.599006,5329.482782,-11568.042020,370.102971
4262.599330,814.226536,-8350.440928,-2516.700203
4262.599654,592.164754,-11338.213370,444.123565
4262.599979,-1702.473667,-7431.126331,-1850.514855
4262.600303,-1850.514855,-9193.145976,148.041188
4262.600627,-2220.617826,-9193.145976,-1258.350101
4262.600951,-5403.503377,-7431.126331,296.082377
4262.601276,-4737.318029,-7967.393179,1036.288319
4262.601600,-1332.370696,-7584.345430,222.061783
4262.601924,2072.576638,-9346.365076,0.000000
4262.602248,2294.638420,-7277.907231,-1480.411884
4262.602573,5107.421000,-9576.193725,-222.061783
4262.602897,3108.864956,-7277.907231,-1036.288319
4262.603221,5773.606348,-11568.042020,-1258.350101
4262.603546,1850.514855,-9193.145976,-814.226536
4262.603870,2368.659014,-9346.365076,0.000000
4262.604194,-2664.741391,-9116.536426,592.164754
4262.604518,-1924.535449,-8044.002729,-814.226536
4262.604843,-2960.823768,-9039.926876,-370.102971
4262.605167,-2812.782580,-7048.078582,814.226536
4262.605491,-7402.059420,-7124.688131,222.061783
4262.605815,-1406.391290,-8810.098227,888.247130
4262.606140,-148.041188,-7354.516781,-2664.741391
4262.606464,666.185348,-9959.241474,-370.102971
4262.606788,1554.432478,-7814.174080,-814.226536
4262.607112,3478.967927,-7814.174080,-1554.432478
4262.607437,4737.318029,-9729.412825,-74.020594
4262.607761,3478.967927,-10265.679673,-2442.679609
4262.608085,2294.638420,-11414.822920,370.102971
4262.608409,-444.123565,-7354.516781,-1776.494261
4262.608734,-962.267725,-11108.384721,1776.494261
4262.609058,-2738.761985,-6511.811733,-2738.761985
4262.609382,-2442.679609,-10418.898773,1998.556043
4262.609707,-2442.679609,-5209.449386,-740.205942
4262.610031,-3034.844362,-8810.098227,2442.679609
4262.610355,-2664.741391,-6435.202183,-1184.329507
4262.610679,-296.082377,-7890.783629,592.164754
4262.611004,1998.556043,-7507.735880,-1110.308913
4262.611328,3256.906145,-8963.317327,-740.205942
4262.611652,4811.338623,-8580.269578,74.020594
4262.611976,4441.235652,-8503.660028,-1036.288319
4262.612301,3775.050304,-10955.165621,518.144159
4262.612625,1850.514855,-8963.317327,-888.247130
4262.612949,0.000000,-10035.851024,666.185348
4262.613273,-444.123565,-7201.297681,-2220.617826
4262.613598,1554.432478,-9269.755526,592.164754
4262.613922,-2220.617826,-7507.735880,-888.247130
4262.614246,-3256.906145,-8197.221829,222.061783
4262.614570,-4737.318029,-7660.954980,296.082377
4262.614895,-4663.297435,-7967.393179,-814.226536
4262.615219,0.000000,-9576.193725,-592.164754
4262.615543,814.226536,-8886.707777,222.061783
4262.615867,4145.153275,-8963.317327,222.061783
4262.616192,5181.441594,-8273.831378,-1850.514855
4262.616516,5403.503377,-10189.070123,518.144159
4262.616840,5995.668130,-8810.098227,-222.061783
4262.617165,2738.761985,-9269.755526,-1110.308913
4262.617489,1184.329507,-10035.851024,296.082377
4262.617813,370.102971,-6358.592633,-1184.329507
4262.618137,-740.205942,-8886.707777,-1036.288319
4262.618462,-1702.473667,-8810.098227,-666.185348
4262.618786,-3182.885551,-7048.078582,-222.061783
4262.619110,-2812.782580,-8350.440928,0.000000
4262.619434,-3034.844362,-8044.002729,-296.082377
4262.619759,-148.041188,-8427.050478,74.020594
4262.620083,1554.432478,-7890.783629,0.000000
4262.620407,3404.947333,-7890.783629,-1258.350101
4262.620731,4737.318029,-9882.631924,-370.102971
4262.621056,5921.647536,-8810.098227,-1184.329507
4262.621380,4515.256246,-9806.022374,-370.102971
4262.621704,3330.926739,-9193.145976,-1480.411884
4262.622028,962.267725,-9652.803275,296.082377
4262.622353,-592.164754,-7737.564530,-1110.308913
4262.622677,-2072.576638,-9269.755526,-740.205942
4262.623001,-3627.009116,-8656.879127,518.144159
4262.623325,-3997.112087,-6894.859482,74.020594
4262.623650,-5329.482782,-8656.879127,-370.102971
4262.623974,-2960.823768,-8120.612279,-2072.576638
4262.624298,0.000000,-9652.803275,1332.370696
4262.624623,-814.226536,-5669.106685,-148.041188
4262.624947,5033.400406,-9959.241474,-1258.350101
4262.625271,5551.544565,-8810.098227,0.000000
4262.625595,5181.441594,-9039.926876,148.041188
4262.625920,3182.885551,-8273.831378,-1628.453072
4262.626244,1332.370696,-9806.022374,0.000000
4262.626568,740.205942,-9116.536426,-518.144159
4262.626892,-1406.391290,-8044.002729,370.102971
4262.627217,-1998.556043,-8427.050478,-444.123565
4262.627541,-2368.659014,-9729.412825,1480.411884
4262.627865,-3923.091493,-6205.373534,-518.144159
4262.628189,-2442.679609,-9193.145976,1258.350101
4262.628514,-2072.576638,-7048.078582,-518.144159
4262.628838,592.164754,-9499.584175,962.267725
4262.629162,3034.844362,-7048.078582,-444.123565
4262.629486,5551.544565,-8733.488677,-222.061783
4262.629811,4367.215058,-8733.488677,-666.185348
4262.630135,3923.091493,-9499.584175,-296.082377
4262.630459,3923.091493,-9806.022374,-518.144159
4262.630783,740.205942,-9116.536426,-592.164754
4262.631108,-1332.370696,-8350.440928,-370.102971
4262.631432,-2220.617826,-8656.879127,74.020594
4262.631756,-2886.803174,-7967.393179,-740.205942
4262.632080,-2146.597232,-8427.050478,518.144159
4262.632405,-1850.514855,-7660.954980,0.000000
4262.632729,-2664.741391,-8886.707777,-222.061783
4262.633053,-1480.411884,-7124.688131,-1332.370696
4262.633377,-740.205942,-8733.488677,-296.082377
4262.633702,1110.308913,-8963.317327,-1554.432478
4262.634026,2886.803174,-8886.707777,-666.185348
4262.634350,3775.050304,-8810.098227,0.000000
4262.634674,1850.514855,-9729.412825,-1406.391290
4262.634999,-518.144159,-9499.584175,-814.226536
4262.635323,-888.247130,-8273.831378,0.000000
4262.635647,740.205942,-9959.241474,222.061783
4262.635971,1258.350101,-8733.488677,-1998.556043
4262.636296,444.123565,-9499.584175,-1332.370696
4262.636620,-2516.700203,-7354.516781,-740.205942
4262.636944,-3256.906145,-8273.831378,1850.514855
4262.637269,-1924.535449,-7431.126331,-370.102971
4262.637593,-1184.329507,-9499.584175,592.164754
4262.637917,1480.411884,-7967.393179,-962.267725
4262.638241,2738.761985,-8580.269578,814.226536
4262.638566,5403.503377,-8044.002729,-1110.308913
4262.638890,5181.441594,-9346.365076,74.020594
4262.639214,3182.885551,-9652.803275,-740.205942
4262.639538,370.102971,-9346.365076,74.020594
4262.639863,-296.082377,-10189.070123,0.000000
4262.640187,-592.164754,-8427.050478,-1258.350101
4262.640511,518.144159,-9576.193725,74.020594
4262.640835,-1036.288319,-6358.592633,-1628.453072
4262.641160,-2960.823768,-9806.022374,1036.288319
4262.641484,-1406.391290,-7124.688131,-1628.453072
4262.641808,-1924.535449,-8503.660028,-296.082377
4262.642132,-2664.741391,-8273.831378,0.000000
4262.642457,1628.453072,-8044.002729,518.144159
4262.642781,2886.803174,-7431.126331,-1258.350101
4262.643105,3701.029710,-9269.755526,-888.247130
4262.643429,4145.153275,-8963.317327,-592.164754
4262.643754,3330.926739,-9193.145976,370.102971
4262.644078,2072.576638,-9422.974625,-962.267725
4262.644402,666.185348,-10418.898773,-666.185348
4262.644726,740.205942,-8197.221829,-296.082377
4262.645051,-1554.432478,-8427.050478,-518.144159
4262.645375,-444.123565,-8886.707777,-1036.288319
4262.645699,-2072.576638,-7201.297681,-222.061783
4262.646023,-3034.844362,-9882.631924,0.000000
4262.646348,-4663.297435,-7584.345430,-444.123565
4262.646672,74.020594,-8580.269578,-370.102971
4262.646996,370.102971,-8656.879127,-222.061783
4262.647320,2664.741391,-8810.098227,-1184.329507
4262.647645,4589.276840,-10035.851024,-666.185348
4262.647969,4515.256246,-8427.050478,-148.041188
4262.648293,2590.720797,-9729.412825,-444.123565
4262.648617,1998.556043,-9729.412825,-1036.288319
4262.648942,962.267725,-9116.536426,74.020594
4262.649266,740.205942,-8656.879127,-740.205942
4262.649590,-1110.308913,-8963.317327,-592.164754
4262.649914,-1998.556043,-7737.564530,-296.082377
4262.650239,-2664.741391,-8427.050478,148.041188
4262.650563,-2590.720797,-8580.269578,296.082377
4262.650887,-2516.700203,-7737.564530,518.144159
4262.651211,-1554.432478,-8273.831378,814.226536
4262.651536,1850.514855,-7967.393179,518.144159
4262.651860,2368.659014,-8273.831378,-444.123565
4262.652184,4589.276840,-8810.098227,-1332.370696
4262.652509,4293.194464,-8120.612279,0.000000
4262.652833,2886.803174,-10189.070123,-222.061783
4262.653157,740.205942,-9806.022374,-444.123565
4262.653481,1406.391290,-8350.440928,-1184.329507
4262.653806,-888.247130,-9576.193725,0.000000
4262.654130,-1702.473667,-7967.393179,-888.247130
4262.654454,-2886.803174,-8580.269578,370.102971
4262.654778,-3404.947333,-7507.735880,-666.185348
4262.655103,-4145.153275,-8197.221829,1258.350101
4262.655427,-2072.576638,-7354.516781,-370.102971
4262.655751,444.123565,-9039.926876,370.102971
4262.656075,3552.988522,-7737.564530,-296.082377
4262.656400,3627.009116,-7737.564530,0.000000
4262.656724,4959.379811,-8963.317327,0.000000
4262.657048,6365.771101,-8656.879127,-888.247130
4262.657372,4811.338623,-10265.679673,-814.226536
4262.657697,592.164754,-8197.221829,-962.267725
4262.658021,-444.123565,-8427.050478,-296.082377
4262.658345,-2442.679609,-9039.926876,-518.144159
4262.658669,-3627.009116,-8197.221829,-222.061783
4262.658994,-814.226536,-8427.050478,0.000000
4262.659318,-2812.782580,-8656.879127,592.164754
4262.659642,-1776.494261,-7737.564530,-444.123565
4262.659966,-1998.556043,-7814.174080,-444.123565
4262.660291,740.205942,-8810.098227,592.164754
4262.660615,2886.803174,-8120.612279,-666.185348
4262.660939,3701.029710,-8886.707777,-148.041188
4262.661263,4219.173869,-8733.488677,74.020594
4262.661588,3997.112087,-9116.536426,-962.267725
4262.661912,4071.132681,-10035.851024,-666.185348
4262.662236,1480.411884,-8120.612279,-888.247130
4262.662560,-666.185348,-9499.584175,814.226536
4262.662885,-370.102971,-8427.050478,-962.267725
4262.663209,-592.164754,-9269.755526,-148.041188
4262.663533,-1332.370696,-8044.002729,-888.247130
4262.663857,-1776.494261,-7890.783629,0.000000
4262.664182,-1924.535449,-8120.612279,-296.082377
4262.664506,-296.082377,-8503.660028,0.000000
4262.664830,-296.082377,-8886.707777,-888.247130
4262.665154,1924.535449,-8503.660028,-148.041188
4262.665479,2516.700203,-8273.831378,-74.020594
4262.665803,5255.462188,-9499.584175,-1332.370696
4262.666127,3775.050304,-9269.755526,-740.205942
4262.666452,3775.050304,-9652.803275,-962.267725
4262.666776,1850.514855,-9576.193725,-444.123565
4262.667100,740.205942,-8886.707777,-1184.329507
4262.667424,-1332.370696,-9729.412825,-592.164754
4262.667749,-1924.535449,-7967.393179,-1702.473667
4262.668073,-1702.473667,-9193.145976,592.164754
4262.668397,-3404.947333,-7890.783629,-740.205942
4262.668721,-3034.844362,-8810.098227,0.000000
4262.669046,-2812.782580,-7890.783629,-444.123565
4262.669370,0.000000,-9576.193725,444.123565
4262.669694,0.000000,-7967.393179,-592.164754
4262.670018,2294.638420,-8427.050478,0.000000
4262.670343,2368.659014,-8197.221829,-1554.432478
4262.670667,2072.576638,-9269.755526,-222.061783
4262.670991,592.164754,-9882.631924,-740.205942
4262.671315,1184.329507,-10112.460574,222.061783
4262.671640,1702.473667,-8580.269578,74.020594
4262.671964,1110.308913,-7814.174080,0.000000
4262.672288,518.144159,-8580.269578,518.144159
4262.672612,-1850.514855,-7201.297681,-592.164754
4262.672937,-2146.597232,-8044.002729,222.061783
4262.673261,-2590.720797,-8503.660028,1554.432478
4262.673585,-3849.070898,-7660.954980,0.000000
4262.673909,444.123565,-8656.879127,370.102971
4262.674234,1554.432478,-6741.640382,444.123565
4262.674558,3997.112087,-8656.879127,0.000000
4262.674882,5403.503377,-7967.393179,-296.082377
4262.675206,3256.906145,-8963.317327,-296.082377
4262.675531,2516.700203,-10572.117872,222.061783
4262.675855,962.267725,-7814.174080,-222.061783
4262.676179,1406.391290,-9882.631924,814.226536
4262.676503,-3404.947333,-7584.345430,-1924.535449
4262.676828,-1924.535449,-9193.145976,370.102971
4262.677152,-3330.926739,-7660.954980,-1110.308913
4262.677476,-3330.926739,-8120.612279,-1332.370696
4262.677800,-4663.297435,-8503.660028,-444.123565
4262.678125,-2442.679609,-7507.735880,962.267725
4262.678449,-1332.370696,-9806.022374,592.164754
4262.678773,1998.556043,-7124.688131,-1998.556043
4262.679097,3330.926739,-10342.289223,592.164754
4262.679422,4959.379811,-7737.564530,-1628.453072
4262.679746,4515.256246,-11491.432470,-1110.308913
4262.680070,962.267725,-9269.755526,-1998.556043
4262.680395,592.164754,-9346.365076,148.041188
4262.680719,666.185348,-8350.440928,-1702.473667
4262.681043,-1776.494261,-9806.022374,-962.267725
4262.681367,-1480.411884,-8427.050478,-1184.329507
4262.681692,-740.205942,-9499.584175,0.000000
4262.682016,-4885.359217,-7737.564530,-1184.329507
4262.682340,-2886.803174,-8503.660028,-148.041188
4262.682664,-1998.556043,-8656.879127,-740.205942
4262.682989,888.247130,-8810.098227,-666.185348
4262.683313,3701.029710,-7277.907231,0.000000
4262.683637,6661.853478,-9422.974625,-444.123565
4262.683961,3404.947333,-8810.098227,0.000000
4262.684286,4145.153275,-10112.460574,-1258.350101
4262.684610,3182.885551,-10035.851024,0.000000
4262.684934,2368.659014,-9193.145976,-1258.350101
4262.685258,592.164754,-9806.022374,-1110.308913
4262.685583,-1554.432478,-8733.488677,-1850.514855
4262.685907,-3330.926739,-8886.707777,0.000000
4262.686231,-1332.370696,-7584.345430,-444.123565
4262.686555,-4293.194464,-7890.783629,0.000000
4262.686880,-3330.926739,-8427.050478,-592.164754
4262.687204,-2146.597232,-9116.536426,222.061783
4262.687528,666.185348,-8120.612279,148.041188
4262.687852,2220.617826,-7507.735880,-1998.556043
4262.688177,3552.988522,-10342.289223,0.000000
4262.688501,4737.318029,-7201.297681,-1036.288319
4262.688825,4367.215058,-10955.165621,-370.102971
4262.689149,1184.329507,-9499.584175,-1110.308913
4262.689474,0.000000,-9116.536426,-148.041188
4262.689798,-888.247130,-8580.269578,296.082377
4262.690122,-1776.494261,-9193.145976,-666.185348
4262.690446,-10140.821405,-7584.345430,-1406.391290
4262.690771,-1480.411884,-8580.269578,666.185348
4262.691095,-4071.132681,-6665.030833,74.020594
4262.691419,-4737.318029,-8886.707777,-1110.308913
4262.691743,2072.576638,-8580.269578,518.144159
4262.692068,-962.267725,-9193.145976,0.000000
4262.692392,3849.070898,-8656.879127,0.000000
4262.692716,7105.977043,-8503.660028,-814.226536
4262.693040,3182.885551,-10418.898773,814.226536
4262.693365,2886.803174,-7277.907231,-1036.288319
4262.693689,2146.597232,-10572.117872,-296.082377
4262.694013,-1036.288319,-8810.098227,370.102971
4262.694338,-2146.597232,-8044.002729,0.000000
4262.694662,-1998.556043,-8427.050478,0.000000
4262.694986,-5107.421000,-8273.831378,-296.082377
4262.695310,-1702.473667,-7737.564530,740.205942
4262.695635,-3108.864956,-7890.783629,74.020594
4262.695959,-3034.844362,-8886.707777,0.000000
4262.696283,1110.308913,-8656.879127,0.000000
4262.696607,1998.556043,-7660.954980,-370.102971
4262.696932,3997.112087,-8963.317327,0.000000
4262.697256,5181.441594,-8733.488677,0.000000
4262.697580,2368.659014,-8886.707777,0.000000
4262.697904,2294.638420,-9729.412825,-444.123565
4262.698229,0.000000,-9806.022374,-1110.308913
4262.698553,-1184.329507,-9576.193725,-814.226536
4262.698877,-1332.370696,-7507.735880,-1184.329507
4262.699201,-1184.329507,-8656.879127,-888.247130
4262.699526,-3034.844362,-8044.002729,0.000000
4262.699850,-3034.844362,-8044.002729,-444.123565
4262.700174,-740.205942,-8427.050478,-370.102971
4262.700498,-1258.350101,-7890.783629,74.020594
4262.700823,888.247130,-8503.660028,-1332.370696
4262.701147,2072.576638,-10035.851024,-148.041188
4262.701471,2442.679609,-8044.002729,-1554.432478
4262.701795,3182.885551,-10112.460574,518.144159
4262.702120,4515.256246,-8427.050478,-1850.514855
4262.702444,2442.679609,-10878.556072,-666.185348
4262.702768,1554.432478,-8656.879127,-1702.473667
4262.703092,1036.288319,-8810.098227,-148.041188
4262.703417,666.185348,-8120.612279,-1110.308913
4262.703741,888.247130,-7967.393179,-444.123565
4262.704065,-888.247130,-9422.974625,-444.123565
4262.704389,-1332.370696,-7431.126331,-222.061783
4262.704714,-3034.844362,-8580.269578,-666.185348
4262.705038,-3256.906145,-8273.831378,-1480.411884
4262.705362,74.020594,-8580.269578,296.082377
4262.705686,1628.453072,-6971.469032,-444.123565
4262.706011,3849.070898,-9116.536426,148.041188
4262.706335,2812.782580,-8350.440928,-518.144159
4262.706659,3923.091493,-9576.193725,0.000000
4262.706983,2812.782580,-9882.631924,-592.164754
4262.707308,2516.700203,-8427.050478,-888.247130
4262.707632,3108.864956,-10342.289223,592.164754
4262.707956,0.000000,-6511.811733,-814.226536
4262.708280,-1258.350101,-9499.584175,0.000000
4262.708605,-1554.432478,-8044.002729,74.020594
4262.708929,-2664.741391,-7507.735880,814.226536
4262.709253,-2072.576638,-7660.954980,74.020594
4262.709578,-3552.988522,-8503.660028,1480.411884
4262.709902,0.000000,-9193.145976,370.102971
4262.710226,1332.370696,-6971.469032,-592.164754
4262.710550,3256.906145,-8580.269578,0.000000
4262.710875,3923.091493,-7660.954980,0.000000
4262.711199,4293.194464,-9193.145976,888.247130
4262.711523,2294.638420,-7354.516781,-148.041188
4262.711847,2886.803174,-8733.488677,370.102971
4262.712172,3108.864956,-8044.002729,0.000000
4262.712496,370.102971,-9193.145976,-296.082377
4262.712820,-296.082377,-9193.145976,-518.144159
4262.713144,-2960.823768,-7814.174080,444.123565
4262.713469,-3034.844362,-6894.859482,74.020594
4262.713793,-5255.462188,-7967.393179,0.000000
4262.714117,-1850.514855,-8427.050478,74.020594
4262.714441,-296.082377,-7967.393179,296.082377
4262.714766,1924.535449,-8044.002729,-148.041188
4262.715090,3330.926739,-8427.050478,74.020594
4262.715414,4293.194464,-8810.098227,-1258.350101
4262.715738,4515.256246,-10572.117872,-814.226536
4262.716063,4145.153275,-9346.365076,-666.185348
4262.716387,3478.967927,-8733.488677,-814.226536
4262.716711,666.185348,-9269.755526,-814.226536
4262.717035,-2294.638420,-7967.393179,-888.247130
4262.717360,-3330.926739,-8810.098227,-518.144159
4262.717684,-4145.153275,-8503.660028,-740.205942
4262.718008,-3108.864956,-7967.393179,222.061783
4262.718332,-4663.297435,-7814.174080,1110.308913
4262.718657,-3627.009116,-7967.393179,-1184.329507
4262.718981,296.082377,-9959.241474,-666.185348
4262.719305,3034.844362,-7431.126331,-740.205942
4262.719629,6143.709319,-8580.269578,444.123565
4262.719954,5033.400406,-8427.050478,-1332.370696
4262.720278,5255.462188,-10648.727422,74.020594
4262.720602,3108.864956,-9422.974625,-1406.391290
4262.720926,2442.679609,-9882.631924,-962.267725
4262.721251,-222.061783,-9422.974625,-1036.288319
4262.721575,-2886.803174,-8886.707777,-592.164754
4262.721899,-4071.132681,-8580.269578,-1184.329507
4262.722223,-2590.720797,-7354.516781,-148.041188
4262.722548,-3330.926739,-6588.421283,740.205942
4262.722872,-3256.906145,-7967.393179,0.000000
4262.723196,-1850.514855,-8350.440928,-1036.288319
4262.723521,2442.679609,-9193.145976,-222.061783
4262.723845,3034.844362,-7354.516781,0.000000
4262.724169,5033.400406,-9116.536426,-666.185348
4262.724493,3849.070898,-8810.098227,74.020594
4262.724817,2664.741391,-9652.803275,-888.247130
4262.725142,1998.556043,-8886.707777,-1480.411884
4262.725466,-444.123565,-9039.926876,0.000000
4262.725790,-888.247130,-7890.783629,-814.226536
4262.726114,-2146.597232,-8503.660028,148.041188
4262.726439,-888.247130,-7277.907231,814.226536
4262.726763,-1480.411884,-7814.174080,888.247130
4262.727087,-1480.411884,-7354.516781,-518.144159
4262.727411,-1110.308913,-8273.831378,0.000000
4262.727735,1998.556043,-8963.317327,-1554.432478
4262.728060,2072.576638,-8120.612279,74.020594
4262.728384,1776.494261,-7967.393179,444.123565
4262.728708,1850.514855,-7814.174080,518.144159
4262.729032,6217.729913,-7660.954980,296.082377
4262.729356,3182.885551,-10342.289223,-370.102971
4262.729681,296.082377,-8044.002729,-1184.329507
4262.730005,-1406.391290,-9882.631924,370.102971
4262.730329,740.205942,-7201.297681,-592.164754
4262.730653,296.082377,-8810.098227,592.164754
4262.730978,-444.123565,-7277.907231,-222.061783
4262.731302,-2812.782580,-8810.098227,666.185348
4262.731626,-2368.659014,-7431.126331,74.020594
4262.731950,-1332.370696,-8886.707777,592.164754
4262.732274,-1628.453072,-8197.221829,-888.247130
4262.732599,962.267725,-9576.193725,-444.123565
4262.732923,2516.700203,-8503.660028,296.082377
4262.733247,1184.329507,-8810.098227,-74.020594
4262.733571,3923.091493,-8963.317327,-814.226536
4262.733895,2368.659014,-9882.631924,-1184.329507
4262.734220,592.164754,-8733.488677,-592.164754
4262.734544,666.185348,-8120.612279,-740.205942
4262.734868,-222.061783,-8656.879127,0.000000
4262.735192,-518.144159,-8580.269578,-1110.308913
4262.735516,-1184.329507,-9269.755526,-518.144159
4262.735841,-1258.350101,-7584.345430,222.061783
4262.736165,-1332.370696,-7890.783629,-518.144159
4262.736489,-2294.638420,-9116.536426,-1702.473667
4262.736813,-1036.288319,-8580.269578,-370.102971
4262.737138,-740.205942,-8197.221829,-1184.329507
4262.737462,1332.370696,-9576.193725,0.000000
4262.737786,2516.700203,-8197.221829,-1332.370696
4262.738110,3034.844362,-9193.145976,-296.082377
4262.738434,3552.988522,-9576.193725,-518.144159
4262.738759,1776.494261,-9729.412825,-888.247130
4262.739083,1480.411884,-8503.660028,-2072.576638
4262.739407,-148.041188,-8886.707777,-666.185348
4262.739731,-1776.494261,-9193.145976,-740.205942
4262.740055,-1258.350101,-8810.098227,-370.102971
4262.740380,-5403.503377,-7354.516781,-1776.494261
4262.740704,-5255.462188,-10495.508323,0.000000
4262.741028,-3627.009116,-7354.516781,-444.123565
4262.741352,-2146.597232,-8886.707777,-222.061783
4262.741676,222.061783,-8503.660028,-962.267725
4262.742001,2442.679609,-9346.365076,518.144159
4262.742325,4663.297435,-7201.297681,-518.144159
4262.742649,5551.544565,-10189.070123,370.102971
4262.742973,2220.617826,-8503.660028,-888.247130
4262.743298,2368.659014,-10342.289223,-148.041188
4262.743622,1332.370696,-8273.831378,-1406.391290
4262.743946,-962.267725,-10878.556072,222.061783
4262.744270,-1554.432478,-7737.564530,-962.267725
4262.744594,-3849.070898,-8197.221829,888.247130
4262.744919,-2738.761985,-8733.488677,592.164754
4262.745243,-1480.411884,-7814.174080,74.020594
4262.745567,-1258.350101,-7737.564530,1554.432478
4262.745891,296.082377,-7354.516781,-222.061783
4262.746215,2886.803174,-8197.221829,1110.308913
4262.746540,4441.235652,-7201.297681,-148.041188
4262.746864,4811.338623,-7660.954980,-444.123565
4262.747188,2368.659014,-9499.584175,444.123565
4262.747512,2960.823768,-8273.831378,-814.226536
4262.747837,740.205942,-8810.098227,222.061783
4262.748161,1332.370696,-8197.221829,-74.020594
4262.748485,-1406.391290,-9039.926876,-444.123565
4262.748809,-444.123565,-8273.831378,-1480.411884
4262.749133,-1406.391290,-9729.412825,1110.308913
4262.749458,-2886.803174,-7737.564530,-888.247130
4262.749782,-1184.329507,-8197.221829,666.185348
4262.750106,-2368.659014,-7584.345430,-592.164754
4262.750430,666.185348,-8427.050478,-666.185348
4262.750754,2812.782580,-7431.126331,-888.247130
4262.751079,2368.659014,-8273.831378,-740.205942
4262.751403,4737.318029,-8886.707777,518.144159
4262.751727,2812.782580,-7737.564530,0.000000
4262.752051,2220.617826,-9882.631924,-222.061783
4262.752375,1628.453072,-10112.460574,-518.144159
4262.752700,3701.029710,-9422.974625,-1702.473667
4262.753024,-2294.638420,-9346.365076,-1480.411884
4262.753348,-1480.411884,-8580.269578,-1628.453072
4262.753672,-1628.453072,-10035.851024,666.185348
