#time,accel_x,accel_y,accel_z
4549.823476,444.123565,-8580.269578,-296.082377
4549.823801,518.144159,-8427.050478,0.000000
4549.824125,444.123565,-8580.269578,0.000000
4549.824449,-222.061783,-8503.660028,-148.041188
4549.824773,296.082377,-8580.269578,0.000000
4549.825097,222.061783,-8810.098227,-148.041188
4549.825422,148.041188,-8273.831378,370.102971
4549.825746,296.082377,-8273.831378,666.185348
4549.826070,296.082377,-8503.660028,666.185348
4549.826394,518.144159,-8580.269578,740.205942
4549.826718,592.164754,-8427.050478,444.123565
4549.827043,518.144159,-8733.488677,518.144159
4549.827367,370.102971,-8580.269578,740.205942
4549.827691,518.144159,-8503.660028,740.205942
4549.828015,222.061783,-8197.221829,666.185348
4549.828340,296.082377,-8733.488677,740.205942
4549.828664,444.123565,-8580.269578,888.247130
4549.828988,370.102971,-8044.002729,740.205942
4549.829312,592.164754,-8580.269578,888.247130
4549.829636,74.020594,-8580.269578,666.185348
4549.829961,888.247130,-8886.707777,666.185348
4549.830285,592.164754,-8580.269578,444.123565
4549.830609,444.123565,-8886.707777,962.267725
4549.830933,296.082377,-8580.269578,666.185348
4549.831257,370.102971,-8656.879127,592.164754
4549.831582,222.061783,-8503.660028,444.123565
4549.831906,370.102971,-8580.269578,222.061783
4549.832230,444.123565,-8580.269578,296.082377
4549.832554,296.082377,-8427.050478,296.082377
4549.832878,222.061783,-8733.488677,740.205942
4549.833203,444.123565,-8350.440928,296.082377
4549.833527,666.185348,-8350.440928,0.000000
4549.833851,666.185348,-8580.269578,222.061783
4549.834175,888.247130,-9039.926876,296.082377
4549.834500,444.123565,-8810.098227,222.061783
4549.834824,444.123565,-8580.269578,0.000000
4549.835148,148.041188,-8963.317327,148.041188
4549.835472,370.102971,-8963.317327,-148.041188
4549.835796,370.102971,-8810.098227,0.000000
4549.836121,518.144159,-8733.488677,0.000000
4549.836445,296.082377,-8656.879127,-444.123565
4549.836769,296.082377,-8656.879127,0.000000
4549.837093,518.144159,-8044.002729,148.041188
4549.837417,592.164754,-8503.660028,-222.061783
4549.837742,592.164754,-8656.879127,-222.061783
4549.838066,592.164754,-8350.440928,-370.102971
4549.838390,444.123565,-9116.536426,-370.102971
4549.838714,148.041188,-8656.879127,-666.185348
4549.839038,296.082377,-8656.879127,-814.226536
4549.839363,74.020594,-8197.221829,-370.102971
4549.839687,222.061783,-8427.050478,-962.267725
4549.840011,296.082377,-8427.050478,-740.205942
4549.840335,814.226536,-8044.002729,-1036.288319
4549.840660,962.267725,-8733.488677,-1184.329507
4549.840984,814.226536,-8197.221829,-1184.329507
4549.841308,962.267725,-8580.269578,-814.226536
4549.841633,370.102971,-8580.269578,-1258.350101
4549.841957,296.082377,-8656.879127,-962.267725
4549.842281,296.082377,-8580.269578,-1258.350101
4549.842606,222.061783,-9193.145976,-1036.288319
4549.842930,518.144159,-8580.269578,-1332.370696
4549.843254,370.102971,-8963.317327,-962.267725
4549.843579,814.226536,-8656.879127,-1332.370696
4549.843903,740.205942,-8580.269578,-1258.350101
4549.844227,592.164754,-8656.879127,-1110.308913
4549.844552,740.205942,-8503.660028,-1406.391290
4549.844876,592.164754,-8503.660028,-888.247130
4549.845200,370.102971,-8810.098227,-1036.288319
4549.845525,296.082377,-8656.879127,-962.267725
4549.845849,444.123565,-9116.536426,-1036.288319
4549.846173,222.061783,-8656.879127,-888.247130
4549.846498,370.102971,-8963.317327,-814.226536
4549.846822,222.061783,-8580.269578,-814.226536
4549.847146,444.123565,-8656.879127,-962.267725
4549.847471,666.185348,-8427.050478,-962.267725
4549.847795,444.123565,-8810.098227,-814.226536
4549.848119,222.061783,-8350.440928,-1036.288319
4549.848443,296.082377,-9116.536426,-518.144159
4549.848768,148.041188,-8503.660028,-888.247130
4549.849092,222.061783,-8810.098227,-962.267725
4549.849416,0.000000,-8886.707777,-814.226536
4549.849741,222.061783,-8656.879127,0.000000
4549.850065,74.020594,-8427.050478,-592.164754
4549.850389,444.123565,-8886.707777,-814.226536
4549.850714,444.123565,-8350.440928,-888.247130
4549.851038,370.102971,-8656.879127,-592.164754
4549.851362,222.061783,-8197.221829,-666.185348
4549.851687,666.185348,-8656.879127,-518.144159
4549.852011,370.102971,-8656.879127,-592.164754
4549.852335,444.123565,-8503.660028,-370.102971
4549.852660,444.123565,-8503.660028,-444.123565
4549.852984,444.123565,-8810.098227,-444.123565
4549.853308,444.123565,-8810.098227,0.000000
4549.853633,296.082377,-8963.317327,-148.041188
4549.853957,370.102971,-8580.269578,222.061783
4549.854281,740.205942,-8580.269578,-444.123565
4549.854606,740.205942,-8733.488677,-148.041188
4549.854930,518.144159,-8810.098227,74.020594
4549.855254,740.205942,-8810.098227,0.000000
4549.855579,888.247130,-8656.879127,370.102971
4549.855903,666.185348,-8427.050478,370.102971
4549.856227,740.205942,-8580.269578,148.041188
4549.856552,962.267725,-8810.098227,370.102971
4549.856876,1036.288319,-8656.879127,518.144159
4549.857200,666.185348,-8733.488677,222.061783
4549.857524,518.144159,-8503.660028,666.185348
4549.857849,740.205942,-8656.879127,444.123565
4549.858173,666.185348,-8886.707777,296.082377
4549.858497,1036.288319,-8810.098227,518.144159
4549.858822,444.123565,-8733.488677,814.226536
4549.859146,370.102971,-8503.660028,740.205942
4549.859470,518.144159,-8656.879127,592.164754
4549.859795,888.247130,-9269.755526,370.102971
4549.860119,666.185348,-8427.050478,518.144159
4549.860443,444.123565,-8580.269578,888.247130
4549.860768,518.144159,-8656.879127,518.144159
4549.861092,1036.288319,-8044.002729,962.267725
4549.861416,296.082377,-8427.050478,740.205942
4549.861741,370.102971,-8427.050478,888.247130
4549.862065,518.144159,-8503.660028,888.247130
4549.862389,370.102971,-8810.098227,814.226536
4549.862714,296.082377,-8350.440928,814.226536
4549.863038,370.102971,-8580.269578,814.226536
4549.863362,518.144159,-8656.879127,518.144159
4549.863687,444.123565,-8273.831378,740.205942
4549.864011,222.061783,-7967.393179,962.267725
4549.864335,74.020594,-8197.221829,666.185348
4549.864660,0.000000,-8273.831378,518.144159
4549.864984,148.041188,-8580.269578,444.123565
4549.865308,296.082377,-8044.002729,444.123565
4549.865633,0.000000,-8273.831378,888.247130
4549.865957,0.000000,-8580.269578,518.144159
4549.866281,222.061783,-8580.269578,370.102971
4549.866605,740.205942,-8503.660028,296.082377
4549.866930,666.185348,-8656.879127,222.061783
4549.867254,740.205942,-8273.831378,518.144159
4549.867578,666.185348,-8503.660028,222.061783
4549.867903,444.123565,-8503.660028,148.041188
4549.868227,518.144159,-9116.536426,296.082377
4549.868551,222.061783,-8273.831378,0.000000
4549.868876,148.041188,-8580.269578,74.020594
4549.869200,370.102971,-8197.221829,0.000000
4549.869524,0.000000,-9116.536426,0.000000
4549.869849,74.020594,-8427.050478,-222.061783
4549.870173,0.000000,-8656.879127,-296.082377
4549.870497,370.102971,-8580.269578,-296.082377
4549.870822,370.102971,-8656.879127,-370.102971
4549.871146,296.082377,-8503.660028,-518.144159
4549.871470,518.144159,-8503.660028,-222.061783
4549.871795,518.144159,-8810.098227,-592.164754
4549.872119,296.082377,-8580.269578,-370.102971
4549.872443,74.020594,-8273.831378,-518.144159
4549.872768,222.061783,-8580.269578,-370.102971
4549.873092,74.020594,-8656.879127,-518.144159
4549.873416,148.041188,-8580.269578,-444.123565
4549.873741,296.082377,-8733.488677,-148.041188
4549.874065,148.041188,-8580.269578,-740.205942
4549.874389,296.082377,-8503.660028,-222.061783
4549.874714,740.205942,-8503.660028,-592.164754
4549.875038,740.205942,-8656.879127,-592.164754
4549.875362,962.267725,-8350.440928,-296.082377
4549.875686,666.185348,-8427.050478,-444.123565
4549.876011,444.123565,-8580.269578,0.000000
4549.876335,444.123565,-8503.660028,-296.082377
4549.876659,222.061783,-9193.145976,-444.123565
4549.876984,0.000000,-8427.050478,-518.144159
4549.877308,0.000000,-8810.098227,-222.061783
4549.877632,0.000000,-8350.440928,-296.082377
4549.877957,222.061783,-8580.269578,-296.082377
4549.878281,296.082377,-8580.269578,0.000000
4549.878605,740.205942,-8197.221829,0.000000
4549.878930,1036.288319,-8810.098227,-148.041188
4549.879254,1110.308913,-8503.660028,0.000000
4549.879578,962.267725,-9116.536426,74.020594
4549.879903,1036.288319,-8733.488677,74.020594
4549.880227,370.102971,-8350.440928,0.000000
4549.880551,148.041188,-8656.879127,0.000000
4549.880876,0.000000,-8963.317327,0.000000
4549.881200,-222.061783,-8427.050478,222.061783
4549.881524,-148.041188,-8427.050478,0.000000
4549.881849,0.000000,-8197.221829,148.041188
4549.882173,370.102971,-9039.926876,444.123565
4549.882497,222.061783,-8427.050478,518.144159
4549.882822,592.164754,-9039.926876,962.267725
4549.883146,592.164754,-8810.098227,666.185348
4549.883470,740.205942,-8810.098227,666.185348
4549.883795,592.164754,-9039.926876,592.164754
4549.884119,296.082377,-8733.488677,518.144159
4549.884443,148.041188,-8350.440928,592.164754
4549.884767,-222.061783,-8350.440928,370.102971
4549.885092,-814.226536,-9193.145976,444.123565
4549.885416,0.000000,-8656.879127,148.041188
4549.885740,0.000000,-8427.050478,222.061783
4549.886065,148.041188,-8810.098227,296.082377
4549.886389,518.144159,-8580.269578,222.061783
4549.886713,592.164754,-8886.707777,222.061783
4549.887038,1110.308913,-8580.269578,296.082377
4549.887362,962.267725,-8580.269578,222.061783
4549.887686,1036.288319,-8963.317327,222.061783
4549.888011,222.061783,-8120.612279,0.000000
4549.888335,0.000000,-8350.440928,-148.041188
4549.888659,-222.061783,-8427.050478,-592.164754
4549.888984,-444.123565,-8427.050478,-666.185348
4549.889308,-444.123565,-8886.707777,-296.082377
4549.889632,-148.041188,-8273.831378,-444.123565
4549.889957,148.041188,-8886.707777,0.000000
4549.890281,740.205942,-8733.488677,-222.061783
4549.890605,740.205942,-8580.269578,0.000000
4549.890930,1184.329507,-8886.707777,296.082377
4549.891254,1184.329507,-8427.050478,74.020594
4549.891578,1110.308913,-8273.831378,-222.061783
4549.891903,444.123565,-8580.269578,-666.185348
4549.892227,0.000000,-8733.488677,0.000000
4549.892551,148.041188,-8427.050478,-1036.288319
4549.892876,-296.082377,-8733.488677,-1258.350101
4549.893200,-148.041188,-8656.879127,-666.185348
4549.893524,0.000000,-8810.098227,-592.164754
4549.893849,0.000000,-8886.707777,0.000000
4549.894173,592.164754,-8427.050478,-518.144159
4549.894497,1332.370696,-8656.879127,-370.102971
4549.894821,1332.370696,-8427.050478,-296.082377
4549.895146,1406.391290,-8733.488677,0.000000
4549.895470,1258.350101,-8273.831378,-888.247130
4549.895794,444.123565,-8197.221829,-888.247130
4549.896119,0.000000,-8733.488677,-1480.411884
4549.896443,-592.164754,-8120.612279,-1258.350101
4549.896767,-518.144159,-8656.879127,-1184.329507
4549.897092,-592.164754,-8733.488677,-1406.391290
4549.897416,-222.061783,-8503.660028,-888.247130
4549.897740,148.041188,-8963.317327,-814.226536
4549.898065,814.226536,-9039.926876,-740.205942
4549.898389,1036.288319,-8503.660028,-518.144159
4549.898713,1406.391290,-8733.488677,-370.102971
4549.899038,1184.329507,-8503.660028,-592.164754
4549.899362,1406.391290,-8580.269578,-1258.350101
4549.899686,370.102971,-8273.831378,-1332.370696
4549.900011,0.000000,-8197.221829,-1332.370696
4549.900335,-370.102971,-8580.269578,-1554.432478
4549.900659,-814.226536,-8427.050478,-1332.370696
4549.900984,-592.164754,-8503.660028,-1110.308913
4549.901308,0.000000,-8503.660028,-1258.350101
4549.901632,444.123565,-8810.098227,-518.144159
4549.901957,888.247130,-8886.707777,-518.144159
4549.902281,1258.350101,-9116.536426,-296.082377
4549.902605,1036.288319,-8963.317327,-370.102971
4549.902930,1406.391290,-8886.707777,-518.144159
4549.903254,740.205942,-8656.879127,-888.247130
4549.903578,-444.123565,-8197.221829,-592.164754
4549.903902,-222.061783,-8350.440928,-1332.370696
4549.904227,-592.164754,-8273.831378,-1258.350101
4549.904551,-296.082377,-8197.221829,-1406.391290
4549.904875,-222.061783,-8963.317327,-296.082377
4549.905200,370.102971,-8273.831378,-592.164754
4549.905524,740.205942,-8963.317327,-296.082377
4549.905848,888.247130,-9422.974625,-296.082377
4549.906173,1258.350101,-9039.926876,0.000000
4549.906497,1184.329507,-8656.879127,74.020594
4549.906821,962.267725,-9039.926876,-222.061783
4549.907146,888.247130,-9039.926876,-592.164754
4549.907470,518.144159,-8810.098227,-666.185348
4549.907794,518.144159,-8197.221829,-740.205942
4549.908119,370.102971,-8350.440928,-962.267725
4549.908443,74.020594,-8886.707777,-1036.288319
4549.908767,518.144159,-8350.440928,-296.082377
4549.909092,444.123565,-8733.488677,-74.020594
4549.909416,1036.288319,-9422.974625,148.041188
4549.909740,1554.432478,-8656.879127,74.020594
4549.910065,1554.432478,-9193.145976,74.020594
4549.910389,1406.391290,-8810.098227,296.082377
4549.910713,1924.535449,-8580.269578,-296.082377
4549.911038,1184.329507,-8810.098227,-888.247130
4549.911362,370.102971,-8427.050478,-962.267725
4549.911686,-518.144159,-8427.050478,-1258.350101
4549.912011,444.123565,-7814.174080,-1036.288319
4549.912335,0.000000,-8350.440928,-1110.308913
4549.912659,222.061783,-8656.879127,-1110.308913
4549.912983,296.082377,-8733.488677,-444.123565
4549.913308,814.226536,-8886.707777,-444.123565
4549.913632,1184.329507,-8963.317327,0.000000
4549.913956,1850.514855,-9116.536426,0.000000
4549.914281,1110.308913,-9269.755526,-370.102971
4549.914605,1258.350101,-8810.098227,-666.185348
4549.914929,814.226536,-8427.050478,-1258.350101
4549.915254,296.082377,-8350.440928,-1184.329507
4549.915578,0.000000,-8350.440928,-1110.308913
4549.915902,-370.102971,-8120.612279,-1702.473667
4549.916227,74.020594,-8733.488677,-1184.329507
4549.916551,74.020594,-8197.221829,-1406.391290
4549.916875,592.164754,-9346.365076,-666.185348
4549.917200,518.144159,-9269.755526,-296.082377
4549.917524,888.247130,-9193.145976,-148.041188
4549.917848,888.247130,-9346.365076,0.000000
4549.918173,666.185348,-9193.145976,-592.164754
4549.918497,444.123565,-8580.269578,-888.247130
4549.918821,296.082377,-8886.707777,-1110.308913
4549.919146,148.041188,-8197.221829,-1184.329507
4549.919470,-888.247130,-8120.612279,-1628.453072
4549.919794,-518.144159,-8197.221829,-1628.453072
4549.920119,-518.144159,-8197.221829,-1258.350101
4549.920443,0.000000,-7890.783629,-1110.308913
4549.920767,0.000000,-8656.879127,-444.123565
4549.921092,518.144159,-9193.145976,-296.082377
4549.921416,1036.288319,-8886.707777,-370.102971
4549.921740,888.247130,-9116.536426,0.000000
4549.922064,1036.288319,-8810.098227,-444.123565
4549.922389,740.205942,-8656.879127,-666.185348
4549.922713,296.082377,-8044.002729,-1480.411884
4549.923037,0.000000,-7967.393179,-1332.370696
4549.923362,0.000000,-7814.174080,-1850.514855
4549.923686,-222.061783,-7660.954980,-1702.473667
4549.924010,148.041188,-8197.221829,-1332.370696
4549.924335,0.000000,-8197.221829,-666.185348
4549.924659,370.102971,-9039.926876,-444.123565
4549.924983,962.267725,-8886.707777,-74.020594
4549.925308,1258.350101,-8810.098227,-148.041188
4549.925632,1184.329507,-9422.974625,0.000000
4549.925956,1184.329507,-8733.488677,-222.061783
4549.926281,814.226536,-9039.926876,-666.185348
4549.926605,296.082377,-8503.660028,-1036.288319
4549.926929,148.041188,-8044.002729,-1332.370696
4549.927254,-370.102971,-7890.783629,-1554.432478
4549.927578,74.020594,-8733.488677,-1554.432478
4549.927902,0.000000,-8044.002729,-814.226536
4549.928227,0.000000,-8656.879127,-444.123565
4549.928551,592.164754,-8886.707777,0.000000
4549.928875,962.267725,-9193.145976,148.041188
4549.929200,1110.308913,-9269.755526,518.144159
4549.929524,1406.391290,-8656.879127,444.123565
4549.929848,962.267725,-9039.926876,-222.061783
4549.930173,296.082377,-8733.488677,-888.247130
4549.930497,370.102971,-8503.660028,-444.123565
4549.930821,0.000000,-7967.393179,-888.247130
4549.931145,-222.061783,-8120.612279,-814.226536
4549.931470,148.041188,-8197.221829,-962.267725
4549.931794,0.000000,-9193.145976,-296.082377
4549.932118,518.144159,-8656.879127,-444.123565
4549.932443,962.267725,-8963.317327,0.000000
4549.932767,1406.391290,-9269.755526,592.164754
4549.933091,1110.308913,-8963.317327,888.247130
4549.933416,888.247130,-9269.755526,222.061783
4549.933740,370.102971,-9116.536426,0.000000
4549.934064,296.082377,-8273.831378,-814.226536
4549.934389,0.000000,-8197.221829,-888.247130
4549.934713,-814.226536,-7737.564530,-1184.329507
4549.935037,-518.144159,-7814.174080,-1258.350101
4549.935362,-148.041188,-8197.221829,-888.247130
4549.935686,296.082377,-8350.440928,-740.205942
4549.936010,518.144159,-9116.536426,-592.164754
4549.936335,888.247130,-8886.707777,74.020594
4549.936659,666.185348,-9193.145976,444.123565
4549.936983,962.267725,-9346.365076,444.123565
4549.937308,666.185348,-9269.755526,0.000000
4549.937632,518.144159,-8810.098227,-370.102971
4549.937956,0.000000,-8427.050478,-666.185348
4549.938281,0.000000,-8273.831378,-962.267725
4549.938605,0.000000,-8044.002729,-1184.329507
4549.938929,444.123565,-8427.050478,-1480.411884
4549.939254,0.000000,-7967.393179,-1184.329507
4549.939578,740.205942,-8350.440928,-296.082377
4549.939902,814.226536,-8810.098227,0.000000
4549.940226,1258.350101,-9193.145976,0.000000
4549.940551,1406.391290,-9346.365076,370.102971
4549.940875,962.267725,-8963.317327,296.082377
4549.941200,888.247130,-9269.755526,0.000000
4549.941524,592.164754,-8503.660028,-518.144159
4549.941849,0.000000,-8273.831378,-666.185348
4549.942173,0.000000,-7890.783629,-1258.350101
4549.942498,-444.123565,-7967.393179,-1850.514855
4549.942822,0.000000,-7890.783629,-1258.350101
4549.943147,296.082377,-8120.612279,-518.144159
4549.943471,518.144159,-8120.612279,0.000000
4549.943796,814.226536,-8580.269578,-370.102971
4549.944120,962.267725,-9039.926876,0.000000
4549.944445,1702.473667,-9193.145976,0.000000
4549.944769,1036.288319,-8656.879127,-296.082377
4549.945094,814.226536,-8580.269578,0.000000
4549.945418,296.082377,-8273.831378,-1036.288319
4549.945743,222.061783,-8120.612279,-1332.370696
4549.946067,518.144159,-7890.783629,-1406.391290
4549.946392,0.000000,-7584.345430,-1554.432478
4549.946716,740.205942,-7814.174080,-1332.370696
4549.947041,518.144159,-7737.564530,-888.247130
4549.947365,888.247130,-9346.365076,-370.102971
4549.947690,1258.350101,-8503.660028,-222.061783
4549.948014,1258.350101,-9193.145976,148.041188
4549.948339,1110.308913,-9193.145976,74.020594
4549.948663,962.267725,-8963.317327,0.000000
4549.948988,518.144159,-8886.707777,-296.082377
4549.949312,148.041188,-8503.660028,-814.226536
4549.949637,222.061783,-8044.002729,-1480.411884
4549.949961,0.000000,-8273.831378,-1406.391290
4549.950286,0.000000,-7277.907231,-1036.288319
4549.950610,0.000000,-7967.393179,-1036.288319
4549.950935,370.102971,-8273.831378,-740.205942
4549.951259,666.185348,-8810.098227,0.000000
4549.951584,1110.308913,-9422.974625,444.123565
4549.951908,592.164754,-9346.365076,518.144159
4549.952233,1110.308913,-9269.755526,592.164754
4549.952557,370.102971,-9422.974625,222.061783
4549.952882,222.061783,-8656.879127,-370.102971
4549.953206,0.000000,-8350.440928,-592.164754
4549.953531,-148.041188,-8273.831378,-592.164754
4549.953855,74.020594,-7660.954980,-518.144159
4549.954180,0.000000,-8273.831378,-740.205942
4549.954504,74.020594,-7890.783629,370.102971
4549.954829,370.102971,-7814.174080,148.041188
4549.955153,592.164754,-8810.098227,444.123565
4549.955478,1184.329507,-8810.098227,444.123565
4549.955802,888.247130,-8963.317327,740.205942
4549.956127,666.185348,-9193.145976,962.267725
4549.956451,444.123565,-9116.536426,592.164754
4549.956776,370.102971,-8810.098227,0.000000
4549.957100,74.020594,-8350.440928,0.000000
4549.957425,-296.082377,-7890.783629,-222.061783
4549.957749,0.000000,-8120.612279,-666.185348
4549.958074,0.000000,-8044.002729,-370.102971
4549.958398,74.020594,-8197.221829,-148.041188
4549.958723,962.267725,-7967.393179,444.123565
4549.959047,814.226536,-8810.098227,444.123565
4549.959372,1184.329507,-9193.145976,962.267725
4549.959696,1110.308913,-9116.536426,814.226536
4549.960021,444.123565,-9269.755526,888.247130
4549.960345,592.164754,-9039.926876,370.102971
4549.960670,148.041188,-8273.831378,0.000000
4549.960994,74.020594,-8580.269578,0.000000
4549.961319,74.020594,-8350.440928,-814.226536
4549.961643,0.000000,-7737.564530,-1332.370696
4549.961968,0.000000,-8044.002729,-814.226536
4549.962292,518.144159,-8427.050478,0.000000
4549.962617,1036.288319,-8503.660028,222.061783
4549.962941,1036.288319,-8810.098227,740.205942
4549.963266,1406.391290,-8810.098227,592.164754
4549.963590,1184.329507,-9576.193725,518.144159
4549.963915,592.164754,-9193.145976,296.082377
4549.964239,518.144159,-8963.317327,222.061783
4549.964564,74.020594,-8427.050478,-370.102971
4549.964888,296.082377,-8503.660028,-592.164754
4549.965213,74.020594,-8120.612279,-962.267725
4549.965537,74.020594,-8044.002729,-740.205942
4549.965862,296.082377,-8197.221829,-962.267725
4549.966186,296.082377,-8580.269578,0.000000
4549.966511,740.205942,-8886.707777,296.082377
4549.966835,666.185348,-9116.536426,370.102971
4549.967160,1184.329507,-9729.412825,518.144159
4549.967484,666.185348,-9116.536426,740.205942
4549.967809,148.041188,-9193.145976,148.041188
4549.968133,0.000000,-9346.365076,-370.102971
4549.968458,-74.020594,-8197.221829,-814.226536
4549.968782,74.020594,-8197.221829,-1184.329507
4549.969107,0.000000,-8044.002729,-1258.350101
4549.969431,-444.123565,-7967.393179,-1332.370696
4549.969756,0.000000,-8427.050478,-592.164754
4549.970080,814.226536,-8503.660028,-740.205942
4549.970405,814.226536,-9193.145976,0.000000
4549.970729,1110.308913,-8886.707777,0.000000
4549.971054,1258.350101,-8810.098227,592.164754
4549.971378,814.226536,-9422.974625,444.123565
4549.971703,814.226536,-9193.145976,-148.041188
4549.972027,370.102971,-8580.269578,-592.164754
4549.972352,74.020594,-8044.002729,-592.164754
4549.972676,0.000000,-8120.612279,-814.226536
4549.973001,-370.102971,-8427.050478,-1184.329507
4549.973325,0.000000,-8120.612279,-740.205942
4549.973650,74.020594,-8197.221829,-592.164754
4549.973974,518.144159,-8733.488677,-222.061783
4549.974299,888.247130,-9269.755526,592.164754
4549.974623,962.267725,-8886.707777,814.226536
4549.974948,1036.288319,-9039.926876,814.226536
4549.975272,666.185348,-9039.926876,888.247130
4549.975597,370.102971,-9116.536426,518.144159
4549.975921,-296.082377,-8580.269578,0.000000
4549.976246,-518.144159,-8503.660028,-296.082377
4549.976570,-444.123565,-7967.393179,-444.123565
4549.976895,-222.061783,-7967.393179,-666.185348
4549.977219,-518.144159,-7737.564530,-148.041188
4549.977544,444.123565,-7967.393179,0.000000
4549.977868,666.185348,-8580.269578,592.164754
4549.978193,888.247130,-8580.269578,518.144159
4549.978517,1110.308913,-8963.317327,962.267725
4549.978842,1258.350101,-8580.269578,1110.308913
4549.979166,444.123565,-9116.536426,814.226536
4549.979491,444.123565,-8810.098227,296.082377
4549.979815,74.020594,-8580.269578,0.000000
4549.980140,-444.123565,-8427.050478,-296.082377
4549.980464,-888.247130,-8197.221829,-666.185348
4549.980789,-222.061783,-8273.831378,-296.082377
4549.981113,-222.061783,-8350.440928,0.000000
4549.981438,592.164754,-7890.783629,592.164754
4549.981762,518.144159,-8886.707777,518.144159
4549.982087,666.185348,-8656.879127,444.123565
4549.982411,1036.288319,-9193.145976,888.247130
4549.982736,814.226536,-9422.974625,370.102971
4549.983060,814.226536,-9193.145976,370.102971
4549.983385,-296.082377,-9193.145976,222.061783
4549.983709,-370.102971,-8580.269578,-370.102971
4549.984034,-666.185348,-8273.831378,-1036.288319
4549.984358,-592.164754,-7967.393179,-740.205942
4549.984683,-222.061783,-8503.660028,-962.267725
4549.985007,370.102971,-8197.221829,-518.144159
4549.985332,222.061783,-8273.831378,-148.041188
4549.985656,740.205942,-9729.412825,592.164754
4549.985981,1036.288319,-8963.317327,74.020594
4549.986305,1110.308913,-9269.755526,592.164754
4549.986630,666.185348,-9576.193725,666.185348
4549.986954,444.123565,-9269.755526,222.061783
4549.987279,-222.061783,-9039.926876,-222.061783
4549.987603,-444.123565,-8273.831378,-518.144159
4549.987928,-592.164754,-8580.269578,-1110.308913
4549.988252,-370.102971,-8273.831378,-666.185348
4549.988577,-148.041188,-7890.783629,-740.205942
4549.988901,222.061783,-8350.440928,-222.061783
4549.989226,592.164754,-8503.660028,0.000000
4549.989550,1184.329507,-9116.536426,222.061783
4549.989875,1480.411884,-9039.926876,148.041188
4549.990199,888.247130,-8963.317327,740.205942
4549.990524,888.247130,-9193.145976,222.061783
4549.990848,74.020594,-9039.926876,0.000000
4549.991173,-296.082377,-8656.879127,-888.247130
4549.991497,74.020594,-8580.269578,-1184.329507
4549.991822,-296.082377,-8044.002729,-1258.350101
4549.992146,-592.164754,-8273.831378,-1184.329507
4549.992471,148.041188,-8273.831378,-1406.391290
4549.992795,444.123565,-8120.612279,-888.247130
4549.993120,888.247130,-8427.050478,-740.205942
4549.993444,1036.288319,-8886.707777,0.000000
4549.993769,666.185348,-8886.707777,296.082377
4549.994093,1110.308913,-9729.412825,148.041188
4549.994418,518.144159,-8656.879127,0.000000
4549.994742,74.020594,-9039.926876,-222.061783
4549.995067,148.041188,-8427.050478,-888.247130
4549.995391,-222.061783,-7967.393179,-888.247130
4549.995716,-148.041188,-8197.221829,-1110.308913
4549.996040,0.000000,-7814.174080,-1110.308913
4549.996365,222.061783,-8120.612279,-962.267725
4549.996689,518.144159,-8273.831378,-666.185348
4549.997014,1480.411884,-8656.879127,148.041188
4549.997338,1036.288319,-8963.317327,370.102971
4549.997663,888.247130,-9193.145976,444.123565
4549.997987,1110.308913,-9039.926876,444.123565
4549.998312,592.164754,-9269.755526,444.123565
4549.998636,74.020594,-8810.098227,-296.082377
4549.998961,0.000000,-8120.612279,-592.164754
4549.999285,-444.123565,-8350.440928,-1110.308913
4549.999610,0.000000,-7967.393179,-1480.411884
4549.999934,-222.061783,-8503.660028,-1184.329507
4550.000259,0.000000,-8044.002729,-888.247130
4550.000583,740.205942,-8120.612279,-296.082377
4550.000908,814.226536,-9116.536426,-296.082377
4550.001232,888.247130,-8580.269578,444.123565
4550.001557,1036.288319,-8810.098227,296.082377
4550.001881,444.123565,-9346.365076,222.061783
4550.002206,666.185348,-8810.098227,296.082377
4550.002530,74.020594,-8656.879127,-148.041188
4550.002855,-296.082377,-8656.879127,-740.205942
4550.003179,-222.061783,-8197.221829,-1184.329507
4550.003504,0.000000,-8427.050478,-1110.308913
4550.003828,370.102971,-8197.221829,-888.247130
4550.004153,444.123565,-8044.002729,-592.164754
4550.004477,888.247130,-8427.050478,0.000000
4550.004802,1110.308913,-8886.707777,148.041188
4550.005126,1702.473667,-9269.755526,444.123565
4550.005451,1924.535449,-9269.755526,370.102971
4550.005775,1406.391290,-8810.098227,592.164754
4550.006100,666.185348,-9269.755526,0.000000
4550.006424,296.082377,-8886.707777,-666.185348
4550.006749,0.000000,-8197.221829,-666.185348
4550.007073,0.000000,-8656.879127,-1258.350101
4550.007398,0.000000,-8197.221829,-962.267725
4550.007722,222.061783,-8197.221829,-814.226536
4550.008047,296.082377,-8197.221829,-444.123565
4550.008371,1258.350101,-8273.831378,0.000000
4550.008696,1406.391290,-9193.145976,0.000000
4550.009020,1554.432478,-9346.365076,148.041188
4550.009345,1480.411884,-8886.707777,666.185348
4550.009669,1332.370696,-9652.803275,148.041188
4550.009994,444.123565,-9269.755526,0.000000
4550.010318,148.041188,-8273.831378,-888.247130
4550.010643,0.000000,-8503.660028,-962.267725
4550.010967,0.000000,-8273.831378,-1184.329507
4550.011292,0.000000,-8120.612279,-1036.288319
4550.011616,296.082377,-7967.393179,-888.247130
4550.011941,814.226536,-8273.831378,-666.185348
4550.012265,1110.308913,-8963.317327,0.000000
4550.012590,1776.494261,-8733.488677,74.020594
4550.012914,1036.288319,-9269.755526,444.123565
4550.013239,740.205942,-9193.145976,444.123565
4550.013563,592.164754,-8810.098227,0.000000
4550.013888,148.041188,-8503.660028,-444.123565
4550.014212,74.020594,-8580.269578,-888.247130
4550.014537,0.000000,-7967.393179,-1332.370696
4550.014861,-370.102971,-8427.050478,-1480.411884
4550.015186,74.020594,-7737.564530,-1480.411884
4550.015510,444.123565,-7890.783629,-1332.370696
4550.015835,814.226536,-8273.831378,-666.185348
4550.016159,1110.308913,-8427.050478,-370.102971
4550.016484,592.164754,-8963.317327,-222.061783
4550.016808,1110.308913,-8733.488677,-444.123565
4550.017133,814.226536,-8733.488677,0.000000
4550.017457,444.123565,-9269.755526,-518.144159
4550.017782,0.000000,-8733.488677,-888.247130
4550.018106,0.000000,-7814.174080,-962.267725
4550.018431,-444.123565,-8120.612279,-1554.432478
4550.018755,0.000000,-7660.954980,-1480.411884
4550.019080,592.164754,-8120.612279,-1702.473667
4550.019404,518.144159,-8427.050478,-962.267725
4550.019729,740.205942,-8197.221829,-592.164754
4550.020053,888.247130,-9193.145976,0.000000
4550.020378,1036.288319,-8733.488677,-222.061783
4550.020702,1110.308913,-8963.317327,222.061783
4550.021027,1184.329507,-9576.193725,0.000000
4550.021351,370.102971,-9193.145976,0.000000
4550.021676,-222.061783,-8810.098227,-666.185348
4550.022000,0.000000,-8273.831378,-1036.288319
4550.022325,370.102971,-8273.831378,-1184.329507
4550.022649,0.000000,-8044.002729,-1184.329507
4550.022974,296.082377,-7890.783629,-1184.329507
4550.023298,666.185348,-8044.002729,-666.185348
4550.023623,814.226536,-8733.488677,-592.164754
4550.023947,814.226536,-8810.098227,0.000000
4550.024272,1036.288319,-9039.926876,74.020594
4550.024596,814.226536,-8963.317327,222.061783
4550.024921,296.082377,-9039.926876,222.061783
4550.025245,814.226536,-9576.193725,-444.123565
4550.025570,0.000000,-8656.879127,-1110.308913
4550.025894,0.000000,-8427.050478,-1184.329507
4550.026219,444.123565,-8044.002729,-1702.473667
4550.026543,222.061783,-8120.612279,-1036.288319
4550.026868,518.144159,-8273.831378,-1036.288319
4550.027192,370.102971,-7660.954980,-814.226536
4550.027517,814.226536,-8963.317327,0.000000
4550.027841,1184.329507,-8810.098227,-444.123565
4550.028166,1406.391290,-9269.755526,222.061783
4550.028490,1036.288319,-9116.536426,370.102971
4550.028815,740.205942,-9039.926876,0.000000
4550.029139,444.123565,-8963.317327,-518.144159
4550.029464,296.082377,-8886.707777,-888.247130
4550.029788,370.102971,-8044.002729,-1036.288319
4550.030113,296.082377,-7967.393179,-1036.288319
4550.030437,296.082377,-8197.221829,-1110.308913
4550.030762,222.061783,-8044.002729,-962.267725
4550.031086,740.205942,-8580.269578,-518.144159
4550.031411,962.267725,-9039.926876,0.000000
4550.031735,1036.288319,-9193.145976,370.102971
4550.032060,814.226536,-9269.755526,740.205942
4550.032384,74.020594,-9039.926876,666.185348
4550.032709,518.144159,-9499.584175,0.000000
4550.033033,-148.041188,-9116.536426,-666.185348
4550.033358,0.000000,-7967.393179,-1036.288319
4550.033682,-148.041188,-7890.783629,-1258.350101
4550.034007,-222.061783,-8044.002729,-1480.411884
4550.034331,296.082377,-7737.564530,-1184.329507
4550.034656,296.082377,-8350.440928,-592.164754
4550.034980,444.123565,-8580.269578,-370.102971
4550.035305,666.185348,-8963.317327,-222.061783
4550.035629,592.164754,-8886.707777,222.061783
4550.035954,1258.350101,-9269.755526,518.144159
4550.036278,518.144159,-8963.317327,-148.041188
4550.036603,444.123565,-9576.193725,0.000000
4550.036927,74.020594,-8197.221829,-888.247130
4550.037252,-296.082377,-8427.050478,-592.164754
4550.037576,-222.061783,-8197.221829,-1258.350101
4550.037901,222.061783,-7814.174080,-1702.473667
4550.038225,444.123565,-7967.393179,-1036.288319
4550.038550,444.123565,-8044.002729,-666.185348
4550.038874,740.205942,-8656.879127,0.000000
4550.039199,1036.288319,-8733.488677,-222.061783
4550.039523,740.205942,-8963.317327,0.000000
4550.039848,962.267725,-9269.755526,0.000000
4550.040172,444.123565,-9116.536426,0.000000
4550.040497,296.082377,-8810.098227,0.000000
4550.040821,0.000000,-8273.831378,-1184.329507
4550.041146,0.000000,-8350.440928,-1332.370696
4550.041470,74.020594,-7890.783629,-1776.494261
4550.041795,148.041188,-8273.831378,-1776.494261
4550.042119,518.144159,-8580.269578,-1184.329507
4550.042443,592.164754,-8197.221829,-740.205942
4550.042767,740.205942,-8656.879127,-296.082377
4550.043092,740.205942,-8580.269578,-370.102971
4550.043416,1036.288319,-9039.926876,148.041188
4550.043740,1184.329507,-9116.536426,0.000000
4550.044065,666.185348,-9116.536426,0.000000
4550.044389,222.061783,-9116.536426,-518.144159
4550.044713,-148.041188,-8427.050478,-814.226536
4550.045038,-222.061783,-8963.317327,-1036.288319
4550.045362,-148.041188,-7967.393179,-1480.411884
4550.045686,0.000000,-8197.221829,-1258.350101
4550.046011,740.205942,-7967.393179,-1184.329507
4550.046335,666.185348,-8656.879127,-370.102971
4550.046659,888.247130,-8580.269578,0.000000
4550.046983,1110.308913,-9346.365076,0.000000
4550.047308,962.267725,-9193.145976,0.000000
4550.047632,592.164754,-9576.193725,148.041188
4550.047956,0.000000,-9422.974625,0.000000
4550.048281,74.020594,-9039.926876,-592.164754
4550.048605,74.020594,-8427.050478,-1406.391290
4550.048929,74.020594,-8427.050478,-1184.329507
4550.049254,-222.061783,-8580.269578,-1184.329507
4550.049578,370.102971,-8503.660028,-1332.370696
4550.049902,518.144159,-7890.783629,-1258.350101
4550.050227,962.267725,-8886.707777,-592.164754
4550.050551,1036.288319,-9116.536426,-592.164754
4550.050875,1184.329507,-8733.488677,296.082377
4550.051199,666.185348,-9193.145976,74.020594
4550.051524,814.226536,-9269.755526,148.041188
4550.051848,148.041188,-9116.536426,-592.164754
4550.052172,0.000000,-9039.926876,0.000000
4550.052497,-444.123565,-8350.440928,-1110.308913
4550.052821,0.000000,-8503.660028,-1110.308913
4550.053145,0.000000,-7967.393179,-1480.411884
4550.053470,222.061783,-8810.098227,-740.205942
4550.053794,740.205942,-8503.660028,-740.205942
4550.054118,1036.288319,-8733.488677,0.000000
4550.054443,962.267725,-8810.098227,222.061783
4550.054767,888.247130,-9346.365076,444.123565
4550.055091,1258.350101,-9193.145976,296.082377
4550.055415,666.185348,-9116.536426,296.082377
4550.055740,370.102971,-9039.926876,0.000000
4550.056064,0.000000,-8350.440928,-370.102971
4550.056388,296.082377,-8427.050478,-740.205942
4550.056713,0.000000,-7890.783629,-666.185348
4550.057037,148.041188,-8044.002729,-888.247130
4550.057361,518.144159,-8197.221829,-666.185348
4550.057686,592.164754,-8120.612279,-444.123565
4550.058010,740.205942,-8733.488677,148.041188
4550.058334,1110.308913,-8733.488677,0.000000
4550.058658,1110.308913,-9193.145976,740.205942
4550.058983,1110.308913,-8886.707777,370.102971
4550.059307,444.123565,-8810.098227,518.144159
4550.059631,370.102971,-8656.879127,-296.082377
4550.059956,0.000000,-8273.831378,-444.123565
4550.060280,148.041188,-8350.440928,-592.164754
4550.060604,0.000000,-8350.440928,-518.144159
4550.060929,148.041188,-8120.612279,-814.226536
4550.061253,518.144159,-7737.564530,-666.185348
4550.061577,814.226536,-8120.612279,-74.020594
4550.061902,1036.288319,-8733.488677,74.020594
4550.062226,1258.350101,-8273.831378,370.102971
4550.062550,1184.329507,-9116.536426,444.123565
4550.062874,740.205942,-8886.707777,814.226536
4550.063199,814.226536,-9116.536426,148.041188
4550.063523,222.061783,-8733.488677,0.000000
4550.063847,74.020594,-8044.002729,-888.247130
4550.064172,-222.061783,-8197.221829,-1110.308913
4550.064496,-296.082377,-8197.221829,-1110.308913
4550.064820,0.000000,-7967.393179,-962.267725
4550.065145,0.000000,-8580.269578,-666.185348
4550.065469,444.123565,-8656.879127,0.000000
4550.065793,740.205942,-8810.098227,370.102971
4550.066118,1110.308913,-9039.926876,296.082377
4550.066442,814.226536,-9039.926876,814.226536
4550.066766,814.226536,-9269.755526,296.082377
4550.067090,592.164754,-9346.365076,148.041188
4550.067415,0.000000,-8656.879127,-518.144159
4550.067739,-296.082377,-8503.660028,-518.144159
4550.068063,-370.102971,-8197.221829,-888.247130
4550.068388,-592.164754,-7814.174080,-1184.329507
4550.068712,222.061783,-8197.221829,-814.226536
4550.069036,296.082377,-7048.078582,-518.144159
4550.069361,666.185348,-8733.488677,0.000000
4550.069685,666.185348,-8810.098227,0.000000
4550.070009,888.247130,-8963.317327,666.185348
4550.070334,518.144159,-9116.536426,592.164754
4550.070658,814.226536,-8963.317327,518.144159
4550.070982,-296.082377,-9576.193725,-148.041188
4550.071306,-370.102971,-8810.098227,-370.102971
4550.071631,-666.185348,-8427.050478,-592.164754
4550.071955,-518.144159,-7890.783629,-888.247130
4550.072279,0.000000,-8044.002729,-666.185348
4550.072604,148.041188,-8044.002729,-740.205942
4550.072928,592.164754,-8120.612279,-222.061783
4550.073252,888.247130,-8580.269578,222.061783
4550.073577,1258.350101,-8733.488677,592.164754
4550.073901,962.267725,-8886.707777,370.102971
4550.074225,1110.308913,-9116.536426,740.205942
4550.074550,518.144159,-9269.755526,0.000000
4550.074874,296.082377,-9193.145976,-296.082377
4550.075198,0.000000,-8350.440928,-148.041188
4550.075522,-444.123565,-8503.660028,-888.247130
4550.075847,0.000000,-7890.783629,-962.267725
4550.076171,444.123565,-8273.831378,-1184.329507
4550.076495,296.082377,-8197.221829,-518.144159
4550.076820,666.185348,-7814.174080,-370.102971
4550.077144,888.247130,-8580.269578,740.205942
4550.077468,1036.288319,-8733.488677,296.082377
4550.077793,888.247130,-9193.145976,666.185348
4550.078117,740.205942,-9346.365076,444.123565
4550.078441,296.082377,-8963.317327,518.144159
4550.078766,0.000000,-8963.317327,0.000000
4550.079090,-518.144159,-8580.269578,-444.123565
4550.079414,-370.102971,-8273.831378,-518.144159
4550.079738,74.020594,-8273.831378,-888.247130
4550.080063,-296.082377,-8197.221829,-666.185348
4550.080387,666.185348,-8580.269578,74.020594
4550.080711,888.247130,-8350.440928,0.000000
4550.081036,888.247130,-8886.707777,444.123565
4550.081360,1036.288319,-8886.707777,222.061783
4550.081684,962.267725,-9422.974625,518.144159
4550.082009,0.000000,-8810.098227,592.164754
4550.082333,222.061783,-8963.317327,370.102971
4550.082657,-370.102971,-8656.879127,-296.082377
4550.082981,-148.041188,-8273.831378,-888.247130
4550.083306,0.000000,-8580.269578,-1258.350101
4550.083630,0.000000,-8120.612279,-1036.288319
4550.083954,0.000000,-8273.831378,-962.267725
4550.084279,592.164754,-8197.221829,-666.185348
4550.084603,962.267725,-8656.879127,-296.082377
4550.084927,1036.288319,-9116.536426,0.000000
4550.085252,1332.370696,-9116.536426,148.041188
4550.085576,740.205942,-8886.707777,592.164754
4550.085900,296.082377,-9116.536426,74.020594
4550.086225,444.123565,-9193.145976,148.041188
4550.086549,0.000000,-8427.050478,-814.226536
4550.086873,0.000000,-8503.660028,-592.164754
4550.087197,0.000000,-7814.174080,-1110.308913
4550.087522,296.082377,-8350.440928,-814.226536
4550.087846,296.082377,-7814.174080,-1036.288319
4550.088170,444.123565,-8273.831378,-296.082377
4550.088495,814.226536,-8656.879127,0.000000
4550.088819,1110.308913,-9039.926876,444.123565
4550.089143,814.226536,-9039.926876,666.185348
4550.089468,1036.288319,-9116.536426,888.247130
4550.089792,148.041188,-8810.098227,370.102971
4550.090116,370.102971,-9269.755526,0.000000
4550.090441,0.000000,-8503.660028,-518.144159
4550.090765,-370.102971,-8656.879127,-370.102971
4550.091089,-148.041188,-7890.783629,-666.185348
4550.091413,-222.061783,-8120.612279,-518.144159
4550.091738,592.164754,-7890.783629,-888.247130
4550.092062,592.164754,-8120.612279,0.000000
4550.092386,1036.288319,-8656.879127,518.144159
4550.092711,740.205942,-8656.879127,444.123565
4550.093035,666.185348,-9039.926876,888.247130
4550.093359,888.247130,-8350.440928,1036.288319
4550.093684,296.082377,-8886.707777,444.123565
4550.094008,0.000000,-8503.660028,222.061783
4550.094332,-222.061783,-8044.002729,-370.102971
4550.094657,0.000000,-8733.488677,-592.164754
4550.094981,-296.082377,-7814.174080,-444.123565
4550.095305,0.000000,-7737.564530,-666.185348
4550.095629,666.185348,-7967.393179,0.000000
4550.095954,1184.329507,-7814.174080,148.041188
4550.096278,1184.329507,-9269.755526,444.123565
4550.096602,888.247130,-8886.707777,518.144159
4550.096927,888.247130,-9116.536426,740.205942
4550.097251,370.102971,-9499.584175,518.144159
4550.097575,518.144159,-9269.755526,370.102971
4550.097900,74.020594,-8733.488677,-296.082377
4550.098224,-148.041188,-8350.440928,-592.164754
4550.098548,0.000000,-8273.831378,-740.205942
4550.098873,0.000000,-8886.707777,-962.267725
4550.099197,74.020594,-8120.612279,-666.185348
4550.099521,518.144159,-8503.660028,-296.082377
4550.099845,518.144159,-8656.879127,148.041188
4550.100170,1184.329507,-9576.193725,370.102971
4550.100494,888.247130,-8963.317327,222.061783
4550.100818,1036.288319,-9422.974625,592.164754
4550.101143,814.226536,-8886.707777,74.020594
4550.101467,296.082377,-9422.974625,222.061783
4550.101791,0.000000,-8197.221829,-370.102971
4550.102116,0.000000,-8810.098227,-666.185348
4550.102440,0.000000,-8580.269578,-888.247130
4550.102764,370.102971,-8197.221829,-592.164754
4550.103088,740.205942,-7890.783629,-1036.288319
4550.103413,666.185348,-8733.488677,-370.102971
4550.103737,888.247130,-8580.269578,-222.061783
4550.104061,962.267725,-9116.536426,148.041188
4550.104386,1110.308913,-9346.365076,0.000000
4550.104710,1184.329507,-9116.536426,518.144159
4550.105034,740.205942,-8886.707777,-296.082377
4550.105359,148.041188,-8656.879127,-370.102971
4550.105683,222.061783,-8656.879127,-1110.308913
4550.106007,296.082377,-8810.098227,-1184.329507
4550.106332,148.041188,-7967.393179,-1184.329507
4550.106656,222.061783,-8503.660028,-1480.411884
4550.106980,222.061783,-8044.002729,-1110.308913
4550.107304,1036.288319,-8503.660028,-814.226536
4550.107629,962.267725,-8886.707777,-370.102971
4550.107953,1332.370696,-8580.269578,148.041188
4550.108277,1110.308913,-9039.926876,0.000000
4550.108602,888.247130,-8886.707777,74.020594
4550.108926,740.205942,-8886.707777,0.000000
4550.109250,0.000000,-8963.317327,-370.102971
4550.109575,0.000000,-8273.831378,-666.185348
4550.109899,-518.144159,-8197.221829,-1184.329507
4550.110223,-444.123565,-8427.050478,-962.267725
4550.110548,0.000000,-7967.393179,-814.226536
4550.110872,518.144159,-8197.221829,-962.267725
4550.111196,666.185348,-8273.831378,-222.061783
4550.111520,962.267725,-8963.317327,296.082377
4550.111845,962.267725,-8733.488677,296.082377
4550.112169,1036.288319,-8886.707777,444.123565
4550.112493,888.247130,-8733.488677,222.061783
4550.112818,518.144159,-8656.879127,222.061783
4550.113142,222.061783,-9039.926876,0.000000
4550.113466,0.000000,-8427.050478,-592.164754
4550.113791,-222.061783,-8503.660028,-962.267725
4550.114115,0.000000,-7814.174080,-962.267725
4550.114439,666.185348,-8273.831378,-1332.370696
4550.114764,370.102971,-8120.612279,-888.247130
4550.115088,814.226536,-8273.831378,0.000000
4550.115412,740.205942,-8656.879127,74.020594
4550.115736,1258.350101,-8886.707777,518.144159
4550.116061,1184.329507,-9116.536426,518.144159
4550.116385,592.164754,-9116.536426,0.000000
4550.116709,592.164754,-8810.098227,148.041188
4550.117034,-148.041188,-8886.707777,-666.185348
4550.117358,0.000000,-8503.660028,-814.226536
4550.117682,0.000000,-8044.002729,-888.247130
4550.118007,0.000000,-8120.612279,-1110.308913
4550.118331,370.102971,-8044.002729,-888.247130
4550.118655,1110.308913,-8120.612279,0.000000
4550.118980,888.247130,-8503.660028,0.000000
4550.119304,1184.329507,-8656.879127,222.061783
4550.119628,1258.350101,-9116.536426,0.000000
4550.119952,1628.453072,-9346.365076,888.247130
4550.120277,814.226536,-8733.488677,74.020594
4550.120601,444.123565,-9116.536426,-222.061783
4550.120925,0.000000,-8503.660028,-666.185348
4550.121250,0.000000,-8503.660028,-1184.329507
4550.121574,-148.041188,-8427.050478,-1036.288319
4550.121898,0.000000,-8427.050478,-1110.308913
4550.122223,0.000000,-8120.612279,-740.205942
4550.122547,518.144159,-8427.050478,-740.205942
4550.122871,1332.370696,-8963.317327,-518.144159
4550.123195,962.267725,-8963.317327,-222.061783
4550.123520,1258.350101,-8580.269578,148.041188
4550.123844,740.205942,-9116.536426,0.000000
4550.124168,666.185348,-9116.536426,0.000000
4550.124493,148.041188,-9116.536426,-592.164754
4550.124817,0.000000,-8656.879127,-1110.308913
4550.125141,-666.185348,-8427.050478,-814.226536
4550.125466,-222.061783,-8273.831378,-962.267725
4550.125790,74.020594,-8273.831378,-1184.329507
4550.126114,370.102971,-7890.783629,-666.185348
4550.126439,740.205942,-8503.660028,-592.164754
4550.126763,1406.391290,-8733.488677,-518.144159
4550.127087,1702.473667,-9116.536426,518.144159
4550.127411,962.267725,-8810.098227,296.082377
4550.127736,518.144159,-8886.707777,518.144159
4550.128060,370.102971,-9039.926876,0.000000
4550.128384,0.000000,-8963.317327,-592.164754
4550.128709,-592.164754,-8120.612279,-592.164754
4550.129033,-370.102971,-8427.050478,-666.185348
4550.129357,-296.082377,-7660.954980,-962.267725
4550.129682,222.061783,-7967.393179,-888.247130
4550.130006,296.082377,-8273.831378,-814.226536
4550.130330,1258.350101,-7967.393179,0.000000
4550.130655,1258.350101,-8656.879127,74.020594
4550.130979,1258.350101,-8963.317327,0.000000
4550.131303,1702.473667,-8120.612279,518.144159
4550.131627,518.144159,-8886.707777,148.041188
4550.131952,444.123565,-8810.098227,-370.102971
4550.132276,0.000000,-8503.660028,-592.164754
4550.132600,-518.144159,-8503.660028,-1184.329507
4550.132925,0.000000,-7814.174080,-1332.370696
4550.133249,-148.041188,-7814.174080,-1332.370696
4550.133573,148.041188,-8120.612279,-1036.288319
4550.133898,888.247130,-7584.345430,-592.164754
4550.134222,814.226536,-8503.660028,-296.082377
4550.134546,888.247130,-8656.879127,-296.082377
4550.134871,740.205942,-8810.098227,0.000000
4550.135195,592.164754,-9193.145976,74.020594
4550.135519,0.000000,-8580.269578,0.000000
4550.135843,74.020594,-8963.317327,-666.185348
4550.136168,-148.041188,-8350.440928,-888.247130
4550.136492,0.000000,-8733.488677,-1258.350101
4550.136816,148.041188,-8197.221829,-1480.411884
4550.137141,740.205942,-8044.002729,-1480.411884
4550.137465,370.102971,-8044.002729,-1036.288319
4550.137789,1184.329507,-8197.221829,-296.082377
4550.138114,1036.288319,-8503.660028,-148.041188
4550.138438,1406.391290,-8733.488677,-148.041188
4550.138762,1110.308913,-9269.755526,-74.020594
4550.139087,814.226536,-9193.145976,148.041188
4550.139411,444.123565,-9576.193725,-444.123565
4550.139735,0.000000,-9729.412825,-444.123565
4550.140059,-222.061783,-7967.393179,-740.205942
4550.140384,0.000000,-8427.050478,-1258.350101
4550.140708,518.144159,-8273.831378,-1480.411884
4550.141032,0.000000,-8120.612279,-1406.391290
4550.141357,444.123565,-8810.098227,-1258.350101
4550.141681,1036.288319,-8350.440928,-814.226536
4550.142006,1184.329507,-9576.193725,-444.123565
4550.142330,1184.329507,-8963.317327,-444.123565
4550.142655,444.123565,-9729.412825,296.082377
4550.142979,592.164754,-9422.974625,0.000000
4550.143303,370.102971,-9039.926876,-296.082377
4550.143628,0.000000,-8656.879127,-1036.288319
4550.143952,0.000000,-8733.488677,-740.205942
4550.144276,74.020594,-8044.002729,-1332.370696
4550.144601,0.000000,-8044.002729,-1332.370696
4550.144925,444.123565,-8197.221829,-1184.329507
4550.145249,444.123565,-8044.002729,-888.247130
4550.145574,1184.329507,-8963.317327,-518.144159
4550.145898,888.247130,-8733.488677,74.020594
4550.146222,962.267725,-9116.536426,518.144159
4550.146547,1406.391290,-9269.755526,518.144159
4550.146871,888.247130,-9269.755526,148.041188
4550.147195,592.164754,-9193.145976,0.000000
4550.147520,0.000000,-8503.660028,-444.123565
4550.147844,148.041188,-8120.612279,-592.164754
4550.148168,-222.061783,-8580.269578,-888.247130
4550.148493,0.000000,-7890.783629,-740.205942
4550.148817,296.082377,-7660.954980,-740.205942
4550.149141,666.185348,-8044.002729,-370.102971
4550.149466,1110.308913,-8427.050478,0.000000
4550.149790,1036.288319,-8580.269578,592.164754
4550.150114,1036.288319,-8886.707777,370.102971
4550.150439,740.205942,-8656.879127,222.061783
4550.150763,666.185348,-9039.926876,74.020594
4550.151087,0.000000,-9499.584175,148.041188
4550.151412,-148.041188,-8273.831378,-740.205942
4550.151736,-592.164754,-8427.050478,-888.247130
4550.152060,-370.102971,-7737.564530,-962.267725
4550.152385,-148.041188,-8273.831378,-962.267725
4550.152709,296.082377,-8120.612279,-888.247130
4550.153033,592.164754,-8120.612279,-296.082377
4550.153358,962.267725,-8810.098227,0.000000
4550.153682,1036.288319,-8733.488677,148.041188
4550.154006,962.267725,-9193.145976,666.185348
4550.154331,1184.329507,-9039.926876,0.000000
4550.154655,518.144159,-8963.317327,222.061783
4550.154979,0.000000,-8810.098227,-444.123565
4550.155304,-592.164754,-8273.831378,-444.123565
4550.155628,-296.082377,-8427.050478,-1184.329507
4550.155952,-296.082377,-8120.612279,-1554.432478
4550.156277,148.041188,-7890.783629,-1184.329507
4550.156601,148.041188,-8120.612279,-962.267725
4550.156925,518.144159,-8427.050478,-296.082377
4550.157250,888.247130,-8503.660028,-518.144159
4550.157574,888.247130,-9346.365076,0.000000
4550.157898,1332.370696,-8580.269578,-296.082377
4550.158223,370.102971,-8733.488677,444.123565
4550.158547,74.020594,-9269.755526,-592.164754
4550.158871,0.000000,-8733.488677,-1036.288319
4550.159196,-296.082377,-8427.050478,-1258.350101
4550.159520,0.000000,-7967.393179,-1110.308913
4550.159844,-148.041188,-8273.831378,-1406.391290
4550.160169,222.061783,-8197.221829,-1258.350101
4550.160493,666.185348,-7890.783629,-888.247130
4550.160817,1406.391290,-8427.050478,-370.102971
4550.161142,1258.350101,-8580.269578,-222.061783
4550.161466,1776.494261,-9116.536426,0.000000
4550.161790,1406.391290,-8733.488677,0.000000
4550.162115,666.185348,-9116.536426,-148.041188
4550.162439,1332.370696,-9193.145976,-740.205942
4550.162763,148.041188,-8580.269578,-962.267725
4550.163088,0.000000,-8580.269578,-1036.288319
4550.163412,-148.041188,-8197.221829,-1258.350101
4550.163736,-296.082377,-8350.440928,-1184.329507
4550.164061,0.000000,-8197.221829,-962.267725
4550.164385,740.205942,-8273.831378,-666.185348
4550.164709,1258.350101,-8733.488677,0.000000
4550.165034,1332.370696,-8580.269578,222.061783
4550.165358,888.247130,-8350.440928,666.185348
4550.165682,592.164754,-9039.926876,592.164754
4550.166007,370.102971,-9269.755526,148.041188
4550.166331,0.000000,-9193.145976,0.000000
4550.166655,0.000000,-8350.440928,0.000000
4550.166980,-296.082377,-8580.269578,-666.185348
4550.167304,-518.144159,-8044.002729,-592.164754
4550.167628,0.000000,-8044.002729,-592.164754
4550.167953,370.102971,-7967.393179,-592.164754
4550.168277,888.247130,-8503.660028,0.000000
4550.168601,1406.391290,-8350.440928,222.061783
4550.168926,1184.329507,-8656.879127,370.102971
4550.169250,962.267725,-9193.145976,518.144159
4550.169574,888.247130,-9193.145976,222.061783
4550.169899,592.164754,-9499.584175,222.061783
4550.170223,-666.185348,-8963.317327,0.000000
4550.170547,-444.123565,-8886.707777,-444.123565
4550.170872,-222.061783,-8733.488677,-740.205942
4550.171196,-296.082377,-8197.221829,-740.205942
4550.171520,370.102971,-8273.831378,-666.185348
4550.171845,444.123565,-8197.221829,-296.082377
4550.172169,740.205942,-8120.612279,0.000000
4550.172493,1036.288319,-8886.707777,148.041188
4550.172818,1036.288319,-8810.098227,148.041188
4550.173142,962.267725,-8963.317327,518.144159
4550.173466,148.041188,-9193.145976,444.123565
4550.173791,296.082377,-8733.488677,518.144159
4550.174115,-444.123565,-8733.488677,-222.061783
4550.174439,-444.123565,-8656.879127,-592.164754
4550.174764,-370.102971,-7967.393179,-888.247130
4550.175088,0.000000,-7814.174080,-888.247130
4550.175412,518.144159,-7967.393179,-962.267725
4550.175737,666.185348,-7967.393179,-592.164754
4550.176061,1110.308913,-8886.707777,-148.041188
4550.176385,1110.308913,-8580.269578,0.000000
4550.176710,1184.329507,-8886.707777,148.041188
4550.177034,1258.350101,-9116.536426,296.082377
4550.177358,370.102971,-9193.145976,444.123565
4550.177683,518.144159,-8963.317327,0.000000
4550.178007,296.082377,-8886.707777,-740.205942
4550.178331,0.000000,-8427.050478,-518.144159
4550.178656,222.061783,-7814.174080,-1110.308913
4550.178980,-296.082377,-7890.783629,-1036.288319
4550.179304,592.164754,-9116.536426,-740.205942
4550.179629,814.226536,-8197.221829,-740.205942
4550.179953,1110.308913,-8733.488677,-444.123565
4550.180277,1184.329507,-8656.879127,-296.082377
4550.180602,962.267725,-8886.707777,444.123565
4550.180926,370.102971,-9039.926876,518.144159
4550.181250,666.185348,-9039.926876,222.061783
4550.181575,74.020594,-8886.707777,-148.041188
4550.181899,0.000000,-8580.269578,-888.247130
4550.182223,74.020594,-8580.269578,-1036.288319
4550.182548,0.000000,-7737.564530,-1110.308913
4550.182872,0.000000,-8273.831378,-1036.288319
4550.183196,444.123565,-8197.221829,-962.267725
4550.183521,592.164754,-8120.612279,-148.041188
4550.183845,1258.350101,-8580.269578,0.000000
4550.184169,1110.308913,-8733.488677,222.061783
4550.184494,1184.329507,-8656.879127,666.185348
4550.184818,370.102971,-8963.317327,518.144159
4550.185142,592.164754,-8733.488677,-148.041188
4550.185467,74.020594,-9269.755526,0.000000
4550.185791,0.000000,-7967.393179,-592.164754
4550.186115,-592.164754,-8427.050478,-666.185348
4550.186440,-888.247130,-7737.564530,-888.247130
4550.186764,0.000000,-8120.612279,-740.205942
4550.187088,370.102971,-8273.831378,-518.144159
4550.187413,518.144159,-8427.050478,74.020594
4550.187737,592.164754,-8810.098227,592.164754
4550.188061,814.226536,-9193.145976,296.082377
4550.188386,740.205942,-9039.926876,666.185348
4550.188710,518.144159,-8886.707777,444.123565
4550.189034,222.061783,-9039.926876,370.102971
4550.189359,-370.102971,-8580.269578,0.000000
4550.189683,-444.123565,-8350.440928,-370.102971
4550.190007,-518.144159,-7890.783629,-814.226536
4550.190332,-444.123565,-7814.174080,-888.247130
4550.190656,0.000000,-8044.002729,-444.123565
4550.190980,148.041188,-7814.174080,-296.082377
4550.191305,814.226536,-8273.831378,222.061783
4550.191629,888.247130,-8580.269578,222.061783
4550.191953,1036.288319,-9193.145976,592.164754
4550.192278,1184.329507,-8963.317327,222.061783
4550.192602,444.123565,-9193.145976,518.144159
4550.192926,0.000000,-8886.707777,0.000000
4550.193251,-370.102971,-8733.488677,-444.123565
4550.193575,296.082377,-8427.050478,-962.267725
4550.193899,-296.082377,-8273.831378,-962.267725
4550.194224,-296.082377,-8350.440928,-814.226536
4550.194548,74.020594,-8580.269578,-370.102971
4550.194872,740.205942,-8427.050478,-296.082377
4550.195197,1036.288319,-8810.098227,0.000000
4550.195521,1110.308913,-8656.879127,148.041188
4550.195845,1332.370696,-9269.755526,444.123565
4550.196170,1110.308913,-9193.145976,444.123565
4550.196494,740.205942,-9422.974625,592.164754
4550.196818,0.000000,-9346.365076,-222.061783
4550.197143,-148.041188,-8656.879127,-370.102971
4550.197467,-148.041188,-8656.879127,-814.226536
4550.197791,0.000000,-7737.564530,-148.041188
4550.198116,0.000000,-8120.612279,-666.185348
4550.198440,444.123565,-8197.221829,-740.205942
4550.198764,1110.308913,-8197.221829,-222.061783
4550.199089,1332.370696,-8886.707777,370.102971
4550.199413,1628.453072,-8963.317327,148.041188
4550.199737,1258.350101,-8580.269578,370.102971
4550.200062,1258.350101,-9039.926876,296.082377
4550.200386,444.123565,-9039.926876,148.041188
4550.200710,740.205942,-8886.707777,-518.144159
4550.201035,74.020594,-8656.879127,-592.164754
4550.201359,-296.082377,-8427.050478,-1184.329507
4550.201683,0.000000,-8197.221829,-1110.308913
4550.202008,296.082377,-8427.050478,-740.205942
4550.202332,370.102971,-8120.612279,-444.123565
4550.202656,962.267725,-8197.221829,0.000000
4550.202981,1258.350101,-8580.269578,0.000000
4550.203305,1554.432478,-8427.050478,148.041188
4550.203629,1184.329507,-9039.926876,518.144159
4550.203954,888.247130,-8810.098227,444.123565
4550.204278,962.267725,-8810.098227,0.000000
4550.204602,0.000000,-8963.317327,-370.102971
4550.204927,-222.061783,-7967.393179,-666.185348
4550.205251,-592.164754,-8427.050478,-888.247130
4550.205575,-444.123565,-7967.393179,-814.226536
4550.205900,148.041188,-7967.393179,-814.226536
4550.206224,518.144159,-7814.174080,-370.102971
4550.206548,1184.329507,-8350.440928,74.020594
4550.206873,1258.350101,-8197.221829,0.000000
4550.207197,1406.391290,-8963.317327,518.144159
4550.207521,1258.350101,-8273.831378,74.020594
4550.207846,962.267725,-9116.536426,74.020594
4550.208170,0.000000,-8963.317327,-296.082377
4550.208494,-222.061783,-8580.269578,-296.082377
4550.208819,-592.164754,-8197.221829,-814.226536
4550.209143,-296.082377,-8503.660028,-962.267725
4550.209467,-222.061783,-7660.954980,-962.267725
4550.209792,222.061783,-8350.440928,-888.247130
4550.210116,740.205942,-7737.564530,-444.123565
4550.210440,1258.350101,-8810.098227,0.000000
4550.210765,1036.288319,-8580.269578,222.061783
4550.211089,1184.329507,-8963.317327,518.144159
4550.211413,814.226536,-8963.317327,74.020594
4550.211738,592.164754,-9346.365076,296.082377
4550.212062,-296.082377,-8886.707777,0.000000
4550.212386,-666.185348,-8656.879127,-518.144159
4550.212711,-592.164754,-8580.269578,-814.226536
4550.213035,-296.082377,-8350.440928,-962.267725
4550.213359,370.102971,-8810.098227,-1036.288319
4550.213684,296.082377,-7814.174080,-666.185348
4550.214008,888.247130,-8503.660028,0.000000
4550.214332,1184.329507,-8503.660028,0.000000
4550.214657,1406.391290,-9039.926876,222.061783
4550.214981,1184.329507,-8886.707777,148.041188
4550.215305,962.267725,-9346.365076,518.144159
4550.215630,222.061783,-9116.536426,0.000000
4550.215954,-518.144159,-9116.536426,-222.061783
4550.216278,-814.226536,-8580.269578,-370.102971
4550.216603,-666.185348,-8580.269578,-666.185348
4550.216927,-148.041188,-8350.440928,-888.247130
4550.217251,74.020594,-8044.002729,-1036.288319
4550.217576,962.267725,-8120.612279,-296.082377
4550.217900,1036.288319,-8120.612279,-592.164754
4550.218224,1110.308913,-8656.879127,0.000000
4550.218549,1628.453072,-8963.317327,0.000000
4550.218873,1110.308913,-9193.145976,666.185348
4550.219197,740.205942,-8886.707777,222.061783
4550.219522,444.123565,-9116.536426,0.000000
4550.219846,-148.041188,-8580.269578,-444.123565
4550.220170,-444.123565,-8656.879127,-740.205942
4550.220495,0.000000,-8120.612279,-888.247130
4550.220819,-148.041188,-7890.783629,-1110.308913
4550.221143,222.061783,-8197.221829,-888.247130
4550.221468,740.205942,-7967.393179,-444.123565
4550.221792,1480.411884,-9039.926876,148.041188
4550.222116,1110.308913,-8656.879127,222.061783
4550.222441,1110.308913,-8963.317327,296.082377
4550.222765,1036.288319,-9039.926876,222.061783
4550.223089,444.123565,-8810.098227,148.041188
4550.223414,0.000000,-9116.536426,0.000000
4550.223738,-148.041188,-8810.098227,-518.144159
4550.224062,-444.123565,-7967.393179,-962.267725
4550.224387,-296.082377,-8580.269578,-1036.288319
4550.224711,-296.082377,-7737.564530,-814.226536
4550.225035,666.185348,-8273.831378,-740.205942
4550.225360,888.247130,-8044.002729,-740.205942
4550.225684,1184.329507,-8656.879127,148.041188
4550.226008,740.205942,-8503.660028,74.020594
4550.226333,888.247130,-9039.926876,148.041188
4550.226657,592.164754,-8503.660028,0.000000
4550.226981,592.164754,-9346.365076,0.000000
4550.227306,222.061783,-8810.098227,-444.123565
4550.227630,-444.123565,-8580.269578,-962.267725
4550.227954,-222.061783,-8733.488677,-1332.370696
4550.228279,0.000000,-8044.002729,-1406.391290
4550.228603,0.000000,-8120.612279,-1332.370696
4550.228927,1258.350101,-8503.660028,-1110.308913
4550.229252,814.226536,-8273.831378,-592.164754
4550.229576,814.226536,-9039.926876,-296.082377
4550.229900,888.247130,-8580.269578,-296.082377
4550.230225,1036.288319,-9193.145976,296.082377
4550.230549,888.247130,-9422.974625,0.000000
4550.230873,592.164754,-8886.707777,0.000000
4550.231198,0.000000,-9116.536426,-740.205942
4550.231522,-296.082377,-8656.879127,-814.226536
4550.231846,74.020594,-8503.660028,-1110.308913
4550.232171,0.000000,-8273.831378,-1480.411884
4550.232495,148.041188,-8044.002729,-1110.308913
4550.232819,444.123565,-8044.002729,-1036.288319
4550.233144,888.247130,-7584.345430,296.082377
4550.233468,1110.308913,-8503.660028,-296.082377
4550.233792,1702.473667,-8963.317327,-148.041188
4550.234117,1332.370696,-8810.098227,0.000000
4550.234441,814.226536,-9269.755526,74.020594
4550.234765,518.144159,-9269.755526,0.000000
4550.235090,74.020594,-8656.879127,-814.226536
4550.235414,0.000000,-8503.660028,-1036.288319
4550.235738,0.000000,-8120.612279,-1332.370696
4550.236063,-222.061783,-8503.660028,-814.226536
4550.236387,592.164754,-8044.002729,-1036.288319
4550.236711,740.205942,-8350.440928,-740.205942
4550.237036,1184.329507,-8350.440928,0.000000
4550.237360,1406.391290,-7660.954980,0.000000
4550.237684,1258.350101,-9039.926876,148.041188
4550.238009,1110.308913,-8886.707777,444.123565
4550.238333,370.102971,-9346.365076,0.000000
4550.238657,74.020594,-9346.365076,0.000000
4550.238982,-222.061783,-8503.660028,-666.185348
4550.239306,-444.123565,-8503.660028,-814.226536
4550.239630,-444.123565,-8273.831378,-1036.288319
4550.239955,0.000000,-8350.440928,-666.185348
4550.240279,370.102971,-7814.174080,-814.226536
4550.240603,740.205942,-8350.440928,-518.144159
4550.240928,1110.308913,-8810.098227,0.000000
4550.241252,1036.288319,-8427.050478,444.123565
4550.241576,888.247130,-9039.926876,888.247130
4550.241901,740.205942,-8963.317327,518.144159
4550.242225,296.082377,-9116.536426,222.061783
4550.242549,0.000000,-8963.317327,-74.020594
4550.242874,-148.041188,-8580.269578,-518.144159
4550.243198,-592.164754,-8427.050478,-740.205942
4550.243523,-222.061783,-8350.440928,-814.226536
4550.243847,-296.082377,-7814.174080,-1036.288319
4550.244171,296.082377,-8427.050478,-740.205942
4550.244496,888.247130,-7967.393179,-888.247130
4550.244820,962.267725,-8350.440928,0.000000
4550.245144,1184.329507,-8733.488677,0.000000
4550.245469,888.247130,-8886.707777,74.020594
4550.245793,962.267725,-8580.269578,148.041188
4550.246117,0.000000,-8810.098227,0.000000
4550.246442,-148.041188,-9116.536426,-518.144159
4550.246766,-592.164754,-8273.831378,-814.226536
4550.247091,-444.123565,-8503.660028,-1258.350101
4550.247415,0.000000,-7967.393179,-1332.370696
4550.247739,148.041188,-8273.831378,-1332.370696
4550.248064,592.164754,-8197.221829,-370.102971
4550.248388,962.267725,-8197.221829,-444.123565
4550.248712,1184.329507,-7967.393179,74.020594
4550.249037,1332.370696,-8656.879127,222.061783
4550.249361,888.247130,-9116.536426,444.123565
4550.249685,814.226536,-9116.536426,296.082377
4550.250010,814.226536,-9346.365076,-370.102971
4550.250334,74.020594,-8733.488677,-666.185348
4550.250659,-592.164754,-8427.050478,-962.267725
4550.250983,-370.102971,-8273.831378,-1184.329507
4550.251307,74.020594,-8273.831378,-1480.411884
4550.251632,1110.308913,-8120.612279,-1184.329507
4550.251956,1036.288319,-7967.393179,-814.226536
4550.252280,1110.308913,-8427.050478,-592.164754
4550.252605,1332.370696,-8733.488677,0.000000
4550.252929,1702.473667,-9039.926876,-148.041188
4550.253254,1036.288319,-9269.755526,0.000000
4550.253578,666.185348,-9422.974625,0.000000
4550.253902,296.082377,-8810.098227,-518.144159
4550.254227,-148.041188,-8733.488677,-666.185348
4550.254551,-222.061783,-8580.269578,-1258.350101
4550.254875,-222.061783,-8350.440928,-1332.370696
4550.255200,74.020594,-8197.221829,-1184.329507
4550.255524,444.123565,-8044.002729,-1110.308913
4550.255848,1184.329507,-8350.440928,-962.267725
4550.256173,1480.411884,-8503.660028,-444.123565
4550.256497,1332.370696,-9039.926876,-296.082377
4550.256822,962.267725,-8886.707777,0.000000
4550.257146,962.267725,-9806.022374,-370.102971
4550.257470,296.082377,-9422.974625,0.000000
4550.257795,-370.102971,-8963.317327,-666.185348
4550.258119,0.000000,-9039.926876,-888.247130
4550.258443,-296.082377,-8197.221829,-1258.350101
4550.258768,0.000000,-8350.440928,-1036.288319
4550.259092,0.000000,-8350.440928,-1258.350101
4550.259416,592.164754,-8044.002729,-962.267725
4550.259741,1110.308913,-8503.660028,-666.185348
4550.260065,1332.370696,-8733.488677,-518.144159
4550.260390,1110.308913,-9116.536426,0.000000
4550.260714,962.267725,-8810.098227,222.061783
4550.261038,814.226536,-9499.584175,148.041188
4550.261363,296.082377,-9499.584175,-222.061783
4550.261687,0.000000,-9422.974625,-370.102971
4550.262011,-370.102971,-8197.221829,-740.205942
4550.262336,-592.164754,-8503.660028,-1036.288319
4550.262660,-518.144159,-8273.831378,-1332.370696
4550.262984,0.000000,-8044.002729,-592.164754
4550.263309,296.082377,-8656.879127,-666.185348
4550.263633,1036.288319,-8656.879127,-148.041188
4550.263958,1332.370696,-8810.098227,296.082377
4550.264282,1406.391290,-8580.269578,222.061783
4550.264606,888.247130,-8810.098227,666.185348
4550.264931,666.185348,-8886.707777,0.000000
4550.265255,296.082377,-9193.145976,0.000000
4550.265579,0.000000,-9193.145976,-518.144159
4550.265904,-296.082377,-8733.488677,-592.164754
4550.266228,-222.061783,-8197.221829,-962.267725
4550.266552,222.061783,-7890.783629,-888.247130
4550.266877,370.102971,-8044.002729,-888.247130
4550.267201,740.205942,-7814.174080,-592.164754
4550.267526,1110.308913,-8656.879127,0.000000
4550.267850,1184.329507,-8733.488677,148.041188
4550.268174,1332.370696,-8733.488677,296.082377
4550.268499,1332.370696,-9422.974625,222.061783
4550.268823,444.123565,-9116.536426,296.082377
4550.269147,370.102971,-9116.536426,0.000000
4550.269472,-592.164754,-8580.269578,-518.144159
4550.269796,-370.102971,-9269.755526,-888.247130
4550.270121,-518.144159,-8273.831378,-1258.350101
4550.270445,-296.082377,-8197.221829,-888.247130
4550.270769,0.000000,-8120.612279,-296.082377
4550.271094,1036.288319,-7967.393179,-296.082377
4550.271418,1110.308913,-9039.926876,0.000000
4550.271742,1036.288319,-8580.269578,74.020594
4550.272067,1110.308913,-9116.536426,296.082377
4550.272391,962.267725,-8886.707777,592.164754
4550.272715,0.000000,-9269.755526,740.205942
4550.273040,-222.061783,-8963.317327,-222.061783
4550.273364,-444.123565,-8503.660028,-740.205942
4550.273689,-592.164754,-8427.050478,-1110.308913
4550.274013,-148.041188,-8427.050478,-888.247130
4550.274337,0.000000,-8044.002729,-962.267725
4550.274662,666.185348,-8503.660028,-666.185348
4550.274986,888.247130,-7967.393179,-518.144159
4550.275310,1258.350101,-8886.707777,0.000000
4550.275635,1184.329507,-8580.269578,148.041188
4550.275959,1110.308913,-8886.707777,296.082377
4550.276283,740.205942,-9193.145976,0.000000
4550.276608,148.041188,-8963.317327,-148.041188
4550.276932,370.102971,-8733.488677,-740.205942
4550.277257,-222.061783,-8733.488677,-888.247130
4550.277581,-518.144159,-8580.269578,-888.247130
4550.277905,-222.061783,-8120.612279,-1184.329507
4550.278230,222.061783,-7967.393179,-1110.308913
4550.278554,518.144159,-8197.221829,-592.164754
4550.278878,814.226536,-8197.221829,-666.185348
4550.279203,1110.308913,-8810.098227,222.061783
4550.279527,1184.329507,-8580.269578,0.000000
4550.279851,962.267725,-9039.926876,592.164754
4550.280176,592.164754,-8963.317327,148.041188
4550.280500,370.102971,-8886.707777,-222.061783
4550.280825,0.000000,-8350.440928,-666.185348
4550.281149,222.061783,-7814.174080,-222.061783
4550.281473,0.000000,-8350.440928,-814.226536
4550.281798,222.061783,-8197.221829,-740.205942
4550.282122,296.082377,-8044.002729,-666.185348
4550.282446,888.247130,-8580.269578,-740.205942
4550.282771,1258.350101,-8197.221829,0.000000
4550.283095,1184.329507,-8427.050478,0.000000
4550.283419,888.247130,-9193.145976,148.041188
4550.283744,888.247130,-9116.536426,444.123565
4550.284068,666.185348,-8810.098227,222.061783
4550.284393,0.000000,-9039.926876,-148.041188
4550.284717,-222.061783,-8503.660028,-370.102971
4550.285041,-222.061783,-8656.879127,-740.205942
4550.285366,74.020594,-8733.488677,-1332.370696
4550.285690,-222.061783,-8120.612279,-1184.329507
4550.286014,296.082377,-8273.831378,-814.226536
4550.286339,1036.288319,-8273.831378,0.000000
4550.286663,1036.288319,-8886.707777,-148.041188
4550.286988,1332.370696,-8810.098227,74.020594
4550.287312,1036.288319,-8733.488677,222.061783
4550.287636,962.267725,-9269.755526,444.123565
4550.287961,148.041188,-8963.317327,370.102971
4550.288285,222.061783,-9193.145976,370.102971
4550.288609,-370.102971,-8580.269578,-444.123565
4550.288934,-222.061783,-8580.269578,-666.185348
4550.289258,0.000000,-8427.050478,-814.226536
4550.289582,0.000000,-7584.345430,-518.144159
4550.289907,296.082377,-8120.612279,-370.102971
4550.290231,592.164754,-8273.831378,0.000000
4550.290556,1110.308913,-8810.098227,0.000000
4550.290880,1184.329507,-8963.317327,148.041188
4550.291204,814.226536,-8810.098227,444.123565
4550.291529,666.185348,-9116.536426,444.123565
4550.291853,518.144159,-9116.536426,74.020594
4550.292177,0.000000,-8886.707777,-518.144159
4550.292502,-222.061783,-8427.050478,-592.164754
4550.292826,-518.144159,-8580.269578,-888.247130
4550.293150,0.000000,-7890.783629,-814.226536
4550.293475,0.000000,-7967.393179,-888.247130
4550.293799,518.144159,-7814.174080,-296.082377
4550.294124,888.247130,-8197.221829,74.020594
4550.294448,1258.350101,-8656.879127,0.000000
4550.294772,1110.308913,-9116.536426,370.102971
4550.295097,888.247130,-9039.926876,444.123565
4550.295421,814.226536,-9193.145976,518.144159
4550.295745,296.082377,-8810.098227,0.000000
4550.296070,74.020594,-8810.098227,-740.205942
4550.296394,-296.082377,-8503.660028,-592.164754
4550.296718,-222.061783,-8580.269578,-814.226536
4550.297043,0.000000,-8044.002729,-592.164754
4550.297367,222.061783,-8044.002729,-592.164754
4550.297692,888.247130,-8120.612279,-370.102971
4550.298016,1036.288319,-7967.393179,0.000000
4550.298340,1332.370696,-8810.098227,222.061783
4550.298665,1184.329507,-8733.488677,370.102971
4550.298989,1110.308913,-9193.145976,518.144159
4550.299313,592.164754,-8963.317327,148.041188
4550.299638,0.000000,-8733.488677,-370.102971
4550.299962,0.000000,-8503.660028,-148.041188
4550.300287,-444.123565,-8197.221829,-814.226536
4550.300611,-518.144159,-8503.660028,-962.267725
4550.300935,0.000000,-7967.393179,-1480.411884
4550.301260,444.123565,-8273.831378,-592.164754
4550.301584,666.185348,-8197.221829,-444.123565
4550.301908,1184.329507,-8580.269578,-370.102971
4550.302233,1406.391290,-8580.269578,0.000000
4550.302557,1184.329507,-9422.974625,296.082377
4550.302881,814.226536,-8580.269578,148.041188
4550.303206,222.061783,-9039.926876,0.000000
4550.303530,0.000000,-8733.488677,-222.061783
4550.303855,-296.082377,-9269.755526,-296.082377
4550.304179,-518.144159,-8963.317327,-1110.308913
4550.304503,0.000000,-7967.393179,-962.267725
4550.304828,148.041188,-8197.221829,-1110.308913
4550.305152,296.082377,-8963.317327,-740.205942
4550.305476,888.247130,-8120.612279,-296.082377
4550.305801,1110.308913,-8580.269578,74.020594
4550.306125,1110.308913,-8733.488677,74.020594
4550.306449,1332.370696,-8963.317327,370.102971
4550.306774,592.164754,-9193.145976,148.041188
4550.307098,148.041188,-9116.536426,296.082377
4550.307423,-148.041188,-8963.317327,-592.164754
4550.307747,-518.144159,-9039.926876,-518.144159
4550.308071,-740.205942,-8656.879127,-592.164754
4550.308396,-148.041188,-8503.660028,-1110.308913
4550.308720,0.000000,-8197.221829,-592.164754
4550.309044,888.247130,-8197.221829,-592.164754
4550.309369,1258.350101,-8427.050478,-296.082377
4550.309693,1406.391290,-8580.269578,74.020594
4550.310017,1110.308913,-9193.145976,74.020594
4550.310342,1036.288319,-9193.145976,222.061783
4550.310666,740.205942,-9039.926876,296.082377
4550.310991,148.041188,-9346.365076,74.020594
4550.311315,-296.082377,-8656.879127,-296.082377
4550.311639,-296.082377,-8503.660028,-814.226536
4550.311964,0.000000,-8503.660028,-888.247130
4550.312288,-518.144159,-8120.612279,-592.164754
4550.312612,370.102971,-8503.660028,-222.061783
4550.312937,888.247130,-7737.564530,-518.144159
4550.313261,962.267725,-8427.050478,0.000000
4550.313585,1258.350101,-8580.269578,0.000000
4550.313910,1184.329507,-9193.145976,666.185348
4550.314234,666.185348,-8886.707777,518.144159
4550.314559,444.123565,-9116.536426,518.144159
4550.314883,148.041188,-8886.707777,74.020594
4550.315207,-592.164754,-8656.879127,0.000000
4550.315532,-222.061783,-8350.440928,-740.205942
4550.315856,-296.082377,-8503.660028,-592.164754
4550.316180,-222.061783,-8044.002729,-592.164754
4550.316505,592.164754,-8503.660028,-222.061783
4550.316829,888.247130,-8197.221829,-222.061783
4550.317154,1332.370696,-8656.879127,0.000000
4550.317478,1480.411884,-8503.660028,222.061783
4550.317802,888.247130,-9039.926876,740.205942
4550.318127,740.205942,-9039.926876,518.144159
4550.318451,518.144159,-8886.707777,222.061783
4550.318775,-518.144159,-8963.317327,-296.082377
4550.319100,-592.164754,-8580.269578,0.000000
4550.319424,-888.247130,-7737.564530,-518.144159
4550.319748,-222.061783,-8427.050478,-814.226536
4550.320073,0.000000,-8044.002729,-666.185348
4550.320397,296.082377,-8427.050478,-592.164754
4550.320722,666.185348,-8503.660028,0.000000
4550.321046,1184.329507,-8120.612279,74.020594
4550.321370,1628.453072,-9193.145976,222.061783
4550.321695,1332.370696,-8733.488677,74.020594
4550.322019,888.247130,-9193.145976,370.102971
4550.322343,0.000000,-9039.926876,-296.082377
4550.322668,0.000000,-9039.926876,0.000000
4550.322992,-296.082377,-8273.831378,-1110.308913
4550.323316,-222.061783,-8503.660028,-962.267725
4550.323641,-222.061783,-7890.783629,-962.267725
4550.323965,444.123565,-8273.831378,-1110.308913
4550.324290,814.226536,-7890.783629,-814.226536
4550.324614,1110.308913,-8733.488677,0.000000
4550.324938,1258.350101,-8580.269578,0.000000
4550.325263,1332.370696,-8733.488677,-296.082377
4550.325587,1110.308913,-9269.755526,0.000000
4550.325911,296.082377,-9039.926876,0.000000
4550.326236,-148.041188,-9193.145976,-370.102971
4550.326560,-518.144159,-8580.269578,-888.247130
4550.326884,-740.205942,-8733.488677,-1036.288319
4550.327209,-518.144159,-8350.440928,-1406.391290
4550.327533,74.020594,-8580.269578,-1332.370696
4550.327858,1036.288319,-7890.783629,-814.226536
4550.328182,740.205942,-8350.440928,-518.144159
4550.328506,962.267725,-8350.440928,-222.061783
4550.328831,1258.350101,-8503.660028,0.000000
4550.329155,1110.308913,-8886.707777,0.000000
4550.329479,1406.391290,-9039.926876,370.102971
4550.329804,518.144159,-9422.974625,148.041188
4550.330128,222.061783,-9116.536426,0.000000
4550.330452,-296.082377,-8044.002729,-814.226536
4550.330777,148.041188,-9193.145976,-1036.288319
4550.331101,0.000000,-7890.783629,-1184.329507
4550.331426,296.082377,-8120.612279,-592.164754
4550.331750,0.000000,-8120.612279,-814.226536
4550.332074,888.247130,-7967.393179,0.000000
4550.332399,962.267725,-8273.831378,-222.061783
4550.332723,740.205942,-8810.098227,0.000000
4550.333047,666.185348,-8886.707777,296.082377
4550.333372,740.205942,-8810.098227,518.144159
4550.333696,148.041188,-9039.926876,74.020594
4550.334021,0.000000,-8733.488677,-296.082377
4550.334345,-222.061783,-8810.098227,-888.247130
4550.334669,-296.082377,-8503.660028,-1110.308913
4550.334994,0.000000,-7737.564530,-1480.411884
4550.335318,-222.061783,-8273.831378,-1110.308913
4550.335642,444.123565,-7890.783629,-888.247130
4550.335967,814.226536,-8197.221829,-444.123565
4550.336291,962.267725,-8656.879127,-148.041188
4550.336615,1258.350101,-8810.098227,222.061783
4550.336940,1554.432478,-8963.317327,0.000000
4550.337264,666.185348,-9346.365076,74.020594
4550.337589,518.144159,-8963.317327,-370.102971
4550.337913,296.082377,-9193.145976,-592.164754
4550.338237,0.000000,-8427.050478,-740.205942
4550.338562,-370.102971,-8350.440928,-888.247130
4550.338886,-592.164754,-8656.879127,-740.205942
4550.339210,74.020594,-8886.707777,-296.082377
4550.339535,518.144159,-8120.612279,-592.164754
4550.339859,962.267725,-8656.879127,148.041188
4550.340183,1184.329507,-8810.098227,0.000000
4550.340508,1332.370696,-8963.317327,666.185348
4550.340832,1036.288319,-8963.317327,370.102971
4550.341157,888.247130,-9193.145976,148.041188
4550.341481,592.164754,-8810.098227,0.000000
4550.341805,-444.123565,-8580.269578,-296.082377
4550.342130,-592.164754,-8503.660028,-888.247130
4550.342454,-592.164754,-8273.831378,-1184.329507
4550.342778,222.061783,-8350.440928,-1110.308913
4550.343103,518.144159,-8120.612279,-1110.308913
4550.343427,592.164754,-8044.002729,-888.247130
4550.343752,1258.350101,-8503.660028,-148.041188
4550.344076,1406.391290,-8810.098227,0.000000
4550.344401,1258.350101,-8963.317327,0.000000
4550.344725,1184.329507,-9193.145976,-222.061783
4550.345050,962.267725,-9269.755526,0.000000
4550.345374,74.020594,-9039.926876,-296.082377
4550.345699,0.000000,-8963.317327,-740.205942
4550.346023,-296.082377,-8427.050478,-1036.288319
4550.346348,-296.082377,-8580.269578,-1258.350101
4550.346672,0.000000,-8197.221829,-888.247130
4550.346997,222.061783,-7814.174080,-518.144159
4550.347321,1036.288319,-8273.831378,-296.082377
4550.347646,1258.350101,-8503.660028,-518.144159
4550.347970,1184.329507,-8733.488677,0.000000
4550.348295,888.247130,-8963.317327,0.000000
4550.348619,814.226536,-9039.926876,222.061783
4550.348943,-222.061783,-8963.317327,-296.082377
4550.349268,0.000000,-9193.145976,-444.123565
4550.349592,-296.082377,-8503.660028,-666.185348
4550.349917,-296.082377,-8810.098227,-1036.288319
4550.350241,-222.061783,-8273.831378,-1036.288319
4550.350566,0.000000,-7967.393179,-740.205942
4550.350890,296.082377,-8120.612279,-740.205942
4550.351215,1036.288319,-8273.831378,-518.144159
4550.351539,1110.308913,-8350.440928,-518.144159
4550.351864,1628.453072,-9193.145976,-222.061783
4550.352188,1258.350101,-8733.488677,296.082377
4550.352513,740.205942,-9346.365076,0.000000
4550.352837,296.082377,-8656.879127,-148.041188
4550.353162,222.061783,-8503.660028,-444.123565
4550.353486,-444.123565,-8350.440928,-814.226536
4550.353811,0.000000,-8273.831378,-962.267725
4550.354135,0.000000,-8197.221829,-1036.288319
4550.354460,0.000000,-8120.612279,-666.185348
4550.354784,888.247130,-8273.831378,-814.226536
4550.355109,814.226536,-8197.221829,-222.061783
4550.355433,1332.370696,-8503.660028,0.000000
4550.355758,1110.308913,-8733.488677,296.082377
4550.356082,1036.288319,-9499.584175,296.082377
4550.356407,814.226536,-9039.926876,370.102971
4550.356731,444.123565,-8810.098227,-518.144159
4550.357055,0.000000,-8656.879127,-444.123565
4550.357380,-148.041188,-8580.269578,-740.205942
4550.357704,0.000000,-8197.221829,-592.164754
4550.358029,0.000000,-8197.221829,-962.267725
4550.358353,370.102971,-7814.174080,-962.267725
4550.358678,962.267725,-8273.831378,-592.164754
4550.359002,888.247130,-8503.660028,222.061783
4550.359327,1332.370696,-8580.269578,-148.041188
4550.359651,1332.370696,-8580.269578,-148.041188
4550.359976,814.226536,-9346.365076,296.082377
4550.360300,518.144159,-9422.974625,-296.082377
4550.360625,74.020594,-8886.707777,-222.061783
4550.360949,-592.164754,-8580.269578,-592.164754
4550.361274,-592.164754,-8580.269578,-1258.350101
4550.361598,-740.205942,-8273.831378,-1628.453072
4550.361923,0.000000,-8273.831378,-962.267725
4550.362247,370.102971,-7967.393179,-962.267725
4550.362572,1036.288319,-8503.660028,-370.102971
4550.362896,1258.350101,-8503.660028,-370.102971
4550.363221,1110.308913,-8810.098227,0.000000
4550.363545,1036.288319,-8963.317327,74.020594
4550.363870,740.205942,-9346.365076,74.020594
4550.364194,444.123565,-9269.755526,0.000000
4550.364519,-222.061783,-8886.707777,-222.061783
4550.364843,-666.185348,-8656.879127,-518.144159
4550.365167,-814.226536,-8350.440928,-814.226536
4550.365492,-592.164754,-8733.488677,-1258.350101
4550.365816,222.061783,-8120.612279,-814.226536
4550.366141,592.164754,-7660.954980,-370.102971
4550.366465,888.247130,-8580.269578,-370.102971
4550.366790,1184.329507,-8503.660028,-370.102971
4550.367114,1258.350101,-8810.098227,0.000000
4550.367439,1184.329507,-8273.831378,592.164754
4550.367763,592.164754,-8963.317327,0.000000
4550.368088,222.061783,-8963.317327,-222.061783
4550.368412,-296.082377,-8503.660028,-592.164754
4550.368737,-296.082377,-8810.098227,-592.164754
4550.369061,74.020594,-8197.221829,-1184.329507
4550.369386,0.000000,-8044.002729,-888.247130
4550.369710,222.061783,-8044.002729,-888.247130
4550.370035,814.226536,-8120.612279,-740.205942
4550.370359,1332.370696,-8580.269578,0.000000
4550.370684,1184.329507,-8580.269578,0.000000
4550.371008,962.267725,-8503.660028,0.000000
4550.371333,1110.308913,-8733.488677,222.061783
4550.371657,1036.288319,-8963.317327,74.020594
4550.371982,444.123565,-8810.098227,-148.041188
4550.372306,0.000000,-8580.269578,-740.205942
4550.372631,0.000000,-8656.879127,-592.164754
4550.372955,-148.041188,-8427.050478,-592.164754
4550.373279,-296.082377,-8580.269578,-814.226536
4550.373604,222.061783,-8503.660028,-592.164754
4550.373928,1036.288319,-7890.783629,-222.061783
4550.374253,1184.329507,-8733.488677,0.000000
4550.374577,1480.411884,-8350.440928,222.061783
4550.374902,1110.308913,-8886.707777,148.041188
4550.375226,1110.308913,-9193.145976,518.144159
4550.375551,370.102971,-8963.317327,148.041188
4550.375875,0.000000,-8810.098227,0.000000
4550.376200,74.020594,-8044.002729,-592.164754
4550.376524,-370.102971,-8350.440928,-666.185348
4550.376849,-296.082377,-8580.269578,-1332.370696
4550.377173,0.000000,-8120.612279,-592.164754
4550.377498,222.061783,-8197.221829,-740.205942
4550.377822,1036.288319,-8273.831378,-370.102971
4550.378147,1258.350101,-8427.050478,-148.041188
4550.378471,1406.391290,-8886.707777,0.000000
4550.378796,1258.350101,-8427.050478,74.020594
4550.379120,1036.288319,-9116.536426,74.020594
4550.379445,518.144159,-9193.145976,-444.123565
4550.379769,296.082377,-8963.317327,-518.144159
4550.380094,0.000000,-8656.879127,-814.226536
4550.380418,-444.123565,-8810.098227,-1184.329507
4550.380743,-370.102971,-8427.050478,-1184.329507
4550.381067,0.000000,-8350.440928,-1036.288319
4550.381391,296.082377,-8427.050478,-518.144159
4550.381716,1036.288319,-8427.050478,0.000000
4550.382040,1110.308913,-8810.098227,0.000000
4550.382365,1110.308913,-8427.050478,0.000000
4550.382689,962.267725,-9116.536426,0.000000
4550.383014,1036.288319,-9422.974625,0.000000
4550.383338,444.123565,-8810.098227,74.020594
4550.383663,-222.061783,-8733.488677,-592.164754
4550.383987,-740.205942,-8886.707777,-666.185348
4550.384312,-444.123565,-8044.002729,-888.247130
4550.384636,0.000000,-8656.879127,-740.205942
4550.384961,74.020594,-7890.783629,-666.185348
4550.385285,592.164754,-8044.002729,-148.041188
4550.385610,1110.308913,-8350.440928,-148.041188
4550.385934,1110.308913,-9346.365076,0.000000
4550.386259,1258.350101,-8963.317327,222.061783
4550.386583,1258.350101,-8810.098227,370.102971
4550.386908,666.185348,-8580.269578,222.061783
4550.387232,222.061783,-9422.974625,222.061783
4550.387557,0.000000,-8273.831378,-370.102971
4550.387881,-296.082377,-8427.050478,-444.123565
4550.388206,-444.123565,-8503.660028,-962.267725
4550.388530,74.020594,-8120.612279,-1036.288319
4550.388855,222.061783,-7967.393179,-962.267725
4550.389179,666.185348,-8120.612279,-296.082377
4550.389503,1110.308913,-8120.612279,-518.144159
4550.389828,1110.308913,-8733.488677,0.000000
4550.390152,1406.391290,-8503.660028,222.061783
4550.390477,666.185348,-8963.317327,296.082377
4550.390801,370.102971,-9499.584175,222.061783
4550.391126,0.000000,-8503.660028,-222.061783
4550.391450,0.000000,-8963.317327,0.000000
4550.391775,-592.164754,-8656.879127,-666.185348
4550.392099,-444.123565,-8580.269578,-666.185348
4550.392424,148.041188,-7967.393179,-666.185348
4550.392748,296.082377,-7967.393179,-296.082377
4550.393073,962.267725,-8350.440928,0.000000
4550.393397,666.185348,-8580.269578,222.061783
4550.393722,1036.288319,-8733.488677,296.082377
4550.394046,1036.288319,-8810.098227,444.123565
4550.394371,1110.308913,-9499.584175,814.226536
4550.394695,740.205942,-8810.098227,0.000000
4550.395020,148.041188,-8963.317327,0.000000
4550.395344,0.000000,-8733.488677,-444.123565
4550.395669,0.000000,-9039.926876,-888.247130
4550.395993,0.000000,-8503.660028,-1184.329507
4550.396318,0.000000,-8273.831378,-1110.308913
4550.396642,370.102971,-8656.879127,-740.205942
4550.396966,592.164754,-8197.221829,-444.123565
4550.397291,814.226536,-8810.098227,0.000000
4550.397615,814.226536,-8656.879127,0.000000
4550.397940,1036.288319,-8886.707777,0.000000
4550.398264,1036.288319,-9116.536426,0.000000
4550.398589,444.123565,-9039.926876,-370.102971
4550.398913,-148.041188,-8963.317327,-370.102971
4550.399238,-592.164754,-8733.488677,-962.267725
4550.399562,-370.102971,-8427.050478,-962.267725
4550.399887,-148.041188,-8350.440928,-1184.329507
4550.400211,0.000000,-8273.831378,-814.226536
4550.400536,592.164754,-7967.393179,-370.102971
4550.400860,888.247130,-8733.488677,-222.061783
4550.401185,1258.350101,-8810.098227,0.000000
4550.401509,1850.514855,-9193.145976,148.041188
4550.401834,1184.329507,-8810.098227,222.061783
4550.402158,740.205942,-9193.145976,296.082377
4550.402483,296.082377,-9193.145976,0.000000
4550.402807,444.123565,-9039.926876,0.000000
4550.403132,-296.082377,-8656.879127,-888.247130
4550.403456,-222.061783,-8273.831378,-740.205942
4550.403781,0.000000,-8044.002729,-1036.288319
4550.404105,518.144159,-8044.002729,-370.102971
4550.404430,666.185348,-8120.612279,-518.144159
4550.404754,1110.308913,-8427.050478,74.020594
4550.405078,1554.432478,-8427.050478,0.000000
4550.405403,962.267725,-8810.098227,74.020594
4550.405727,1036.288319,-8810.098227,814.226536
4550.406052,444.123565,-8733.488677,74.020594
4550.406376,0.000000,-9116.536426,74.020594
4550.406701,-518.144159,-8273.831378,-222.061783
4550.407025,-370.102971,-9116.536426,-444.123565
4550.407350,-296.082377,-7967.393179,-666.185348
4550.407674,0.000000,-8044.002729,-444.123565
4550.407999,148.041188,-8273.831378,-518.144159
4550.408323,740.205942,-8197.221829,0.000000
4550.408648,1406.391290,-8886.707777,0.000000
4550.408972,1258.350101,-8580.269578,74.020594
4550.409297,888.247130,-8886.707777,518.144159
4550.409621,814.226536,-9269.755526,222.061783
4550.409946,370.102971,-8580.269578,-296.082377
4550.410270,74.020594,-9039.926876,-296.082377
4550.410595,0.000000,-8503.660028,-666.185348
4550.410919,-518.144159,-8120.612279,-666.185348
4550.411244,0.000000,-7660.954980,-814.226536
4550.411568,-148.041188,-7967.393179,-888.247130
4550.411893,444.123565,-8350.440928,-518.144159
4550.412217,740.205942,-7814.174080,-518.144159
4550.412542,962.267725,-8733.488677,-296.082377
4550.412866,1036.288319,-8427.050478,0.000000
4550.413190,814.226536,-8733.488677,370.102971
4550.413515,666.185348,-9116.536426,74.020594
4550.413839,148.041188,-9039.926876,-222.061783
4550.414164,74.020594,-9652.803275,-222.061783
4550.414488,-740.205942,-8503.660028,-370.102971
4550.414813,-740.205942,-8427.050478,-888.247130
4550.415137,-444.123565,-8120.612279,-814.226536
4550.415462,296.082377,-8350.440928,-740.205942
4550.415786,518.144159,-8273.831378,-518.144159
4550.416111,1036.288319,-8580.269578,-222.061783
4550.416435,1258.350101,-8810.098227,0.000000
4550.416760,1332.370696,-8733.488677,148.041188
4550.417084,962.267725,-8963.317327,444.123565
4550.417409,888.247130,-9269.755526,0.000000
4550.417733,740.205942,-8886.707777,0.000000
4550.418058,222.061783,-8656.879127,-592.164754
4550.418382,0.000000,-8580.269578,-962.267725
4550.418707,222.061783,-8656.879127,-962.267725
4550.419031,0.000000,-8273.831378,-1184.329507
4550.419356,518.144159,-8427.050478,-740.205942
4550.419680,666.185348,-8427.050478,-296.082377
4550.420005,1110.308913,-8656.879127,0.000000
4550.420329,1258.350101,-8503.660028,0.000000
4550.420654,1184.329507,-8886.707777,0.000000
4550.420978,962.267725,-9193.145976,148.041188
4550.421302,592.164754,-9193.145976,296.082377
4550.421627,148.041188,-9269.755526,0.000000
4550.421951,0.000000,-8503.660028,-666.185348
4550.422276,-444.123565,-8580.269578,-370.102971
4550.422600,-666.185348,-9039.926876,-888.247130
4550.422925,0.000000,-8273.831378,-592.164754
4550.423249,296.082377,-7660.954980,-518.144159
4550.423574,814.226536,-8503.660028,-222.061783
4550.423898,962.267725,-8197.221829,0.000000
4550.424223,1036.288319,-8810.098227,0.000000
4550.424547,1332.370696,-9116.536426,0.000000
4550.424872,666.185348,-8810.098227,370.102971
4550.425196,74.020594,-9116.536426,0.000000
4550.425521,0.000000,-8810.098227,0.000000
4550.425845,-296.082377,-8656.879127,-444.123565
4550.426170,-296.082377,-8656.879127,-1036.288319
4550.426494,-444.123565,-8580.269578,-962.267725
4550.426819,74.020594,-7737.564530,-592.164754
4550.427143,148.041188,-8273.831378,-444.123565
4550.427468,888.247130,-8120.612279,-222.061783
4550.427792,1036.288319,-8733.488677,-148.041188
4550.428117,1110.308913,-8427.050478,148.041188
4550.428441,592.164754,-8886.707777,296.082377
4550.428766,592.164754,-8963.317327,74.020594
4550.429090,-148.041188,-8963.317327,-222.061783
4550.429414,0.000000,-9116.536426,-666.185348
4550.429739,-370.102971,-8810.098227,-518.144159
4550.430063,-370.102971,-8427.050478,-962.267725
4550.430388,-148.041188,-8503.660028,-1110.308913
4550.430712,296.082377,-7967.393179,-814.226536
4550.431037,592.164754,-9039.926876,-444.123565
4550.431361,888.247130,-8350.440928,-518.144159
4550.431686,1184.329507,-8503.660028,0.000000
4550.432010,1258.350101,-8810.098227,0.000000
4550.432335,1036.288319,-9193.145976,148.041188
4550.432659,1036.288319,-8733.488677,-222.061783
4550.432984,296.082377,-9116.536426,-148.041188
4550.433308,0.000000,-8580.269578,-370.102971
4550.433633,0.000000,-8350.440928,-444.123565
4550.433957,296.082377,-8197.221829,-740.205942
4550.434282,74.020594,-8350.440928,-740.205942
4550.434606,370.102971,-8273.831378,-962.267725
4550.434931,592.164754,-8350.440928,-148.041188
4550.435255,1110.308913,-8273.831378,0.000000
4550.435580,1110.308913,-8810.098227,0.000000
4550.435904,962.267725,-8810.098227,148.041188
4550.436229,962.267725,-9039.926876,296.082377
4550.436553,370.102971,-9039.926876,-370.102971
4550.436878,518.144159,-8656.879127,0.000000
4550.437202,0.000000,-8503.660028,-518.144159
4550.437526,0.000000,-8580.269578,-888.247130
4550.437851,0.000000,-8044.002729,-1110.308913
4550.438175,74.020594,-8580.269578,-888.247130
4550.438500,518.144159,-7967.393179,-888.247130
4550.438824,888.247130,-8273.831378,-518.144159
4550.439149,1110.308913,-8886.707777,-370.102971
4550.439473,1184.329507,-8580.269578,0.000000
4550.439798,1184.329507,-8810.098227,148.041188
4550.440122,444.123565,-9116.536426,0.000000
4550.440447,518.144159,-9116.536426,0.000000
4550.440771,0.000000,-8886.707777,-296.082377
4550.441096,0.000000,-8886.707777,-740.205942
4550.441420,-222.061783,-8580.269578,-1036.288319
4550.441745,-222.061783,-8656.879127,-1110.308913
4550.442069,-296.082377,-7967.393179,-666.185348
4550.442394,518.144159,-8120.612279,-296.082377
4550.442718,518.144159,-8580.269578,0.000000
4550.443043,740.205942,-8580.269578,0.000000
4550.443367,1332.370696,-8656.879127,0.000000
4550.443692,962.267725,-8963.317327,74.020594
4550.444016,740.205942,-8963.317327,148.041188
4550.444340,518.144159,-8963.317327,-370.102971
4550.444665,0.000000,-8963.317327,-370.102971
4550.444989,-370.102971,-8503.660028,-962.267725
4550.445314,-222.061783,-8350.440928,-1554.432478
4550.445638,222.061783,-7660.954980,-888.247130
4550.445962,148.041188,-8120.612279,-814.226536
4550.446287,962.267725,-8120.612279,-444.123565
4550.446611,1036.288319,-7660.954980,-222.061783
4550.446936,1258.350101,-8503.660028,-296.082377
4550.447260,1332.370696,-8810.098227,74.020594
4550.447585,888.247130,-9039.926876,148.041188
4550.447909,518.144159,-9039.926876,74.020594
4550.448233,222.061783,-8810.098227,-222.061783
4550.448558,-296.082377,-8886.707777,-444.123565
4550.448882,0.000000,-8427.050478,-592.164754
4550.449207,-148.041188,-8273.831378,-740.205942
4550.449531,222.061783,-9269.755526,-888.247130
4550.449855,0.000000,-8044.002729,-518.144159
4550.450180,888.247130,-8197.221829,-370.102971
4550.450504,666.185348,-8273.831378,0.000000
4550.450829,1110.308913,-8733.488677,222.061783
4550.451153,1110.308913,-8656.879127,518.144159
4550.451478,888.247130,-9039.926876,370.102971
4550.451802,592.164754,-8733.488677,74.020594
4550.452126,222.061783,-9116.536426,0.000000
4550.452451,-370.102971,-8273.831378,-296.082377
4550.452775,-518.144159,-8427.050478,-592.164754
4550.453100,-296.082377,-8427.050478,-1036.288319
4550.453424,0.000000,-8044.002729,-888.247130
4550.453748,444.123565,-7967.393179,-1184.329507
4550.454073,814.226536,-8273.831378,-518.144159
4550.454397,888.247130,-8273.831378,-222.061783
4550.454722,1258.350101,-8733.488677,0.000000
4550.455046,814.226536,-8580.269578,0.000000
4550.455371,1036.288319,-9346.365076,74.020594
4550.455695,296.082377,-8810.098227,-370.102971
4550.456019,0.000000,-8886.707777,-222.061783
4550.456344,-222.061783,-8503.660028,-962.267725
4550.456668,-370.102971,-8503.660028,-1036.288319
4550.456993,0.000000,-8427.050478,-1258.350101
4550.457317,222.061783,-8350.440928,-962.267725
4550.457641,370.102971,-8503.660028,-592.164754
4550.457966,1184.329507,-8427.050478,-740.205942
4550.458290,1110.308913,-8656.879127,0.000000
4550.458615,1702.473667,-8886.707777,-148.041188
4550.458939,1258.350101,-9039.926876,-222.061783
4550.459264,1036.288319,-9269.755526,74.020594
4550.459588,740.205942,-8580.269578,-296.082377
4550.459912,0.000000,-9039.926876,-592.164754
4550.460237,-148.041188,-8810.098227,-814.226536
4550.460561,-222.061783,-8580.269578,-1110.308913
4550.460886,222.061783,-8733.488677,-1480.411884
4550.461210,444.123565,-8197.221829,-1110.308913
4550.461534,1036.288319,-8427.050478,-444.123565
4550.461859,1036.288319,-8350.440928,-518.144159
4550.462183,1184.329507,-8656.879127,0.000000
4550.462508,1332.370696,-8503.660028,0.000000
4550.462832,1184.329507,-8886.707777,296.082377
4550.463157,296.082377,-8733.488677,0.000000
4550.463481,222.061783,-9422.974625,0.000000
4550.463805,0.000000,-8427.050478,-444.123565
4550.464130,-296.082377,-8580.269578,-814.226536
4550.464454,-296.082377,-8350.440928,-740.205942
4550.464779,74.020594,-8197.221829,-666.185348
4550.465103,740.205942,-8197.221829,-518.144159
4550.465428,814.226536,-7967.393179,-222.061783
4550.465752,1184.329507,-8580.269578,-370.102971
4550.466076,1332.370696,-8810.098227,0.000000
4550.466401,1036.288319,-8503.660028,148.041188
4550.466725,444.123565,-8810.098227,444.123565
4550.467050,74.020594,-9193.145976,74.020594
4550.467374,74.020594,-9116.536426,-222.061783
4550.467698,-444.123565,-8580.269578,-592.164754
4550.468023,-222.061783,-8503.660028,-370.102971
4550.468347,-296.082377,-8273.831378,-962.267725
4550.468672,74.020594,-8120.612279,-888.247130
4550.468996,592.164754,-7814.174080,-592.164754
4550.469321,1110.308913,-8044.002729,0.000000
4550.469645,1406.391290,-8503.660028,-296.082377
4550.469969,1406.391290,-8427.050478,0.000000
4550.470294,888.247130,-8656.879127,0.000000
4550.470618,518.144159,-9193.145976,148.041188
4550.470943,370.102971,-8963.317327,0.000000
4550.471267,0.000000,-8810.098227,-296.082377
4550.471591,-370.102971,-8656.879127,-740.205942
4550.471916,-444.123565,-8656.879127,-814.226536
4550.472240,-148.041188,-7967.393179,-740.205942
4550.472565,74.020594,-7967.393179,-814.226536
4550.472889,444.123565,-8350.440928,-592.164754
4550.473214,1110.308913,-8197.221829,-370.102971
4550.473538,1480.411884,-8503.660028,-370.102971
4550.473862,1184.329507,-8886.707777,-74.020594
4550.474187,1036.288319,-8733.488677,0.000000
4550.474511,592.164754,-8963.317327,0.000000
4550.474836,148.041188,-8963.317327,-148.041188
4550.475160,0.000000,-9039.926876,-370.102971
4550.475484,-296.082377,-8580.269578,-1110.308913
4550.475809,0.000000,-8580.269578,-888.247130
4550.476133,296.082377,-8273.831378,-1258.350101
4550.476458,962.267725,-8120.612279,-888.247130
4550.476782,1184.329507,-8044.002729,-518.144159
4550.477107,1110.308913,-8197.221829,-148.041188
4550.477431,1258.350101,-8810.098227,0.000000
4550.477755,1332.370696,-8503.660028,0.000000
4550.478080,888.247130,-9039.926876,222.061783
4550.478404,222.061783,-9116.536426,74.020594
4550.478729,296.082377,-8963.317327,-296.082377
4550.479053,0.000000,-9039.926876,-296.082377
4550.479377,-444.123565,-8273.831378,-740.205942
4550.479702,0.000000,-8580.269578,-962.267725
4550.480026,370.102971,-7967.393179,-1036.288319
4550.480351,370.102971,-8044.002729,-518.144159
4550.480675,1332.370696,-8120.612279,-1480.411884
4550.481000,962.267725,-8350.440928,0.000000
4550.481324,1332.370696,-8810.098227,-148.041188
4550.481648,1110.308913,-8963.317327,0.000000
4550.481973,740.205942,-8503.660028,296.082377
4550.482297,444.123565,-9116.536426,148.041188
4550.482622,0.000000,-8886.707777,-222.061783
4550.482946,-222.061783,-8733.488677,-592.164754
4550.483270,-370.102971,-8733.488677,-814.226536
4550.483595,74.020594,-8197.221829,-740.205942
4550.483919,-222.061783,-8044.002729,-962.267725
4550.484244,740.205942,-8656.879127,-592.164754
4550.484568,962.267725,-8120.612279,-444.123565
4550.484893,1332.370696,-9576.193725,-222.061783
4550.485217,1036.288319,-8503.660028,0.000000
4550.485541,814.226536,-9193.145976,444.123565
4550.485866,370.102971,-9346.365076,222.061783
4550.486190,148.041188,-9116.536426,148.041188
4550.486515,-370.102971,-8963.317327,-296.082377
4550.486839,-222.061783,-8886.707777,-592.164754
4550.487163,-222.061783,-8197.221829,-666.185348
4550.487488,-148.041188,-8503.660028,-888.247130
4550.487812,518.144159,-8350.440928,-888.247130
4550.488137,444.123565,-8044.002729,-518.144159
4550.488461,1036.288319,-8580.269578,-444.123565
4550.488786,962.267725,-8350.440928,-222.061783
4550.489110,1184.329507,-9346.365076,370.102971
4550.489434,1036.288319,-8580.269578,74.020594
4550.489759,518.144159,-8886.707777,74.020594
4550.490083,518.144159,-9116.536426,-296.082377
4550.490408,148.041188,-8656.879127,-296.082377
4550.490732,0.000000,-8350.440928,-444.123565
4550.491057,0.000000,-8503.660028,-1332.370696
4550.491381,148.041188,-8427.050478,-888.247130
4550.491705,222.061783,-8044.002729,-888.247130
4550.492030,592.164754,-7890.783629,-666.185348
4550.492354,1184.329507,-8120.612279,-370.102971
4550.492679,1258.350101,-8656.879127,0.000000
4550.493003,1036.288319,-8656.879127,0.000000
4550.493327,444.123565,-8886.707777,-222.061783
4550.493652,518.144159,-9346.365076,0.000000
4550.493976,0.000000,-8656.879127,-148.041188
4550.494301,-296.082377,-8886.707777,-222.061783
4550.494625,-444.123565,-8963.317327,-888.247130
4550.494950,74.020594,-8733.488677,-592.164754
4550.495274,222.061783,-8503.660028,-888.247130
4550.495598,666.185348,-8350.440928,-518.144159
4550.495923,740.205942,-8580.269578,-222.061783
4550.496247,1258.350101,-9039.926876,222.061783
4550.496572,888.247130,-8580.269578,0.000000
4550.496896,1036.288319,-8810.098227,148.041188
4550.497220,1110.308913,-9269.755526,592.164754
4550.497545,518.144159,-9346.365076,148.041188
4550.497869,296.082377,-9116.536426,0.000000
4550.498194,-370.102971,-8810.098227,0.000000
4550.498518,0.000000,-8350.440928,-518.144159
4550.498843,-296.082377,-8350.440928,-592.164754
4550.499167,0.000000,-8427.050478,-518.144159
4550.499491,592.164754,-8120.612279,-296.082377
4550.499816,740.205942,-8427.050478,-222.061783
4550.500140,1110.308913,-8656.879127,-148.041188
4550.500465,1554.432478,-8733.488677,0.000000
4550.500789,814.226536,-8810.098227,518.144159
4550.501113,666.185348,-8733.488677,74.020594
4550.501438,222.061783,-9039.926876,0.000000
4550.501762,0.000000,-8810.098227,0.000000
4550.502087,0.000000,-8580.269578,-666.185348
4550.502411,-222.061783,-8580.269578,-962.267725
4550.502736,148.041188,-8350.440928,-962.267725
4550.503060,222.061783,-7967.393179,-1036.288319
4550.503384,518.144159,-8044.002729,-518.144159
4550.503709,962.267725,-8120.612279,-740.205942
4550.504033,1332.370696,-8503.660028,-296.082377
4550.504358,1258.350101,-8656.879127,222.061783
4550.504682,1110.308913,-9269.755526,296.082377
4550.505006,888.247130,-9116.536426,0.000000
4550.505331,148.041188,-9116.536426,0.000000
4550.505655,-148.041188,-9116.536426,-592.164754
4550.505980,-148.041188,-8810.098227,-518.144159
4550.506304,-518.144159,-8656.879127,-222.061783
4550.506629,-222.061783,-8427.050478,-814.226536
4550.506953,74.020594,-8350.440928,-592.164754
4550.507277,296.082377,-8273.831378,-148.041188
4550.507602,888.247130,-8427.050478,148.041188
4550.507926,1110.308913,-8044.002729,74.020594
4550.508251,1184.329507,-8503.660028,370.102971
4550.508575,888.247130,-8886.707777,222.061783
4550.508899,592.164754,-8963.317327,370.102971
4550.509224,148.041188,-8810.098227,-148.041188
4550.509548,-222.061783,-8810.098227,-148.041188
4550.509873,-370.102971,-8503.660028,-370.102971
4550.510197,-222.061783,-8580.269578,-814.226536
4550.510522,-148.041188,-7967.393179,-740.205942
4550.510846,444.123565,-8503.660028,-888.247130
4550.511170,888.247130,-8273.831378,-370.102971
4550.511495,1258.350101,-8273.831378,-370.102971
4550.511819,1036.288319,-8427.050478,-296.082377
4550.512144,962.267725,-8656.879127,0.000000
4550.512468,888.247130,-8656.879127,-148.041188
4550.512792,814.226536,-8886.707777,-222.061783
4550.513117,0.000000,-8273.831378,0.000000
4550.513441,-296.082377,-8427.050478,-518.144159
4550.513766,-74.020594,-8580.269578,-592.164754
4550.514090,-740.205942,-8273.831378,-962.267725
4550.514415,-296.082377,-8580.269578,-740.205942
4550.514739,222.061783,-7814.174080,-444.123565
4550.515063,740.205942,-8427.050478,-148.041188
4550.515388,1036.288319,-8656.879127,-518.144159
4550.515712,1258.350101,-8656.879127,148.041188
4550.516037,1332.370696,-9193.145976,0.000000
4550.516361,888.247130,-8886.707777,0.000000
4550.516685,740.205942,-8963.317327,0.000000
4550.517010,0.000000,-8810.098227,-296.082377
4550.517334,0.000000,-7737.564530,-518.144159
4550.517659,0.000000,-8656.879127,-740.205942
4550.517983,0.000000,-8120.612279,-1258.350101
4550.518308,296.082377,-8197.221829,-740.205942
4550.518632,592.164754,-8503.660028,-592.164754
4550.518956,1406.391290,-8427.050478,-222.061783
4550.519281,1406.391290,-8197.221829,0.000000
4550.519605,1554.432478,-8580.269578,0.000000
4550.519930,1110.308913,-8886.707777,444.123565
4550.520254,1036.288319,-8580.269578,0.000000
4550.520579,370.102971,-9269.755526,148.041188
4550.520903,0.000000,-8656.879127,-370.102971
4550.521227,-592.164754,-9039.926876,-740.205942
4550.521552,-444.123565,-8273.831378,-666.185348
4550.521876,148.041188,-8197.221829,-592.164754
4550.522201,0.000000,-8120.612279,-370.102971
4550.522525,518.144159,-8120.612279,-370.102971
4550.522849,962.267725,-8273.831378,0.000000
4550.523174,1332.370696,-9116.536426,0.000000
4550.523498,1110.308913,-8427.050478,444.123565
4550.523823,1036.288319,-8810.098227,74.020594
4550.524147,666.185348,-8963.317327,148.041188
4550.524472,222.061783,-9576.193725,-444.123565
4550.524796,-222.061783,-8886.707777,-592.164754
4550.525120,-296.082377,-8580.269578,-666.185348
4550.525445,-370.102971,-8503.660028,-1184.329507
4550.525769,0.000000,-8273.831378,-962.267725
4550.526094,444.123565,-7814.174080,-518.144159
4550.526418,962.267725,-8503.660028,-370.102971
4550.526742,1332.370696,-8197.221829,-370.102971
4550.527067,1332.370696,-8503.660028,0.000000
4550.527391,1036.288319,-9039.926876,592.164754
4550.527716,666.185348,-8810.098227,0.000000
4550.528040,74.020594,-9193.145976,0.000000
4550.528365,0.000000,-9039.926876,-370.102971
4550.528689,-444.123565,-8503.660028,-222.061783
4550.529013,-518.144159,-8580.269578,-666.185348
4550.529338,-444.123565,-8273.831378,-740.205942
4550.529662,-148.041188,-8044.002729,-592.164754
4550.529987,666.185348,-8197.221829,-666.185348
4550.530311,666.185348,-8273.831378,-222.061783
4550.530635,1110.308913,-8503.660028,0.000000
4550.530960,1184.329507,-8580.269578,74.020594
4550.531284,740.205942,-8810.098227,518.144159
4550.531609,1036.288319,-8733.488677,-222.061783
4550.531933,296.082377,-9116.536426,0.000000
4550.532258,0.000000,-8810.098227,-296.082377
4550.532582,-222.061783,-8656.879127,-444.123565
4550.532906,296.082377,-8656.879127,-1036.288319
4550.533231,222.061783,-8350.440928,-888.247130
4550.533555,666.185348,-8120.612279,-888.247130
4550.533880,592.164754,-8044.002729,-666.185348
4550.534204,1480.411884,-8580.269578,-296.082377
4550.534528,1554.432478,-8503.660028,-222.061783
4550.534853,1406.391290,-8580.269578,74.020594
4550.535177,962.267725,-8733.488677,0.000000
4550.535502,740.205942,-8886.707777,0.000000
4550.535826,518.144159,-8886.707777,-148.041188
4550.536151,0.000000,-8810.098227,-592.164754
4550.536475,-148.041188,-8733.488677,-740.205942
4550.536799,-148.041188,-8350.440928,-1110.308913
4550.537124,148.041188,-8580.269578,-888.247130
4550.537448,74.020594,-7967.393179,-740.205942
4550.537773,740.205942,-8273.831378,-296.082377
4550.538097,888.247130,-8503.660028,-370.102971
4550.538421,1258.350101,-8503.660028,-444.123565
4550.538746,1110.308913,-9193.145976,222.061783
4550.539070,888.247130,-8733.488677,0.000000
4550.539395,592.164754,-8963.317327,0.000000
4550.539719,-74.020594,-8886.707777,-296.082377
4550.540044,-444.123565,-9346.365076,296.082377
4550.540368,-518.144159,-8273.831378,-814.226536
4550.540692,-296.082377,-8350.440928,-740.205942
4550.541017,74.020594,-8273.831378,-592.164754
4550.541341,370.102971,-8273.831378,-666.185348
4550.541666,814.226536,-8503.660028,-370.102971
4550.541990,962.267725,-8427.050478,-296.082377
4550.542314,1332.370696,-9039.926876,222.061783
4550.542639,1110.308913,-8810.098227,222.061783
4550.542963,1406.391290,-9269.755526,222.061783
4550.543288,222.061783,-8886.707777,-296.082377
4550.543612,74.020594,-8810.098227,-518.144159
4550.543937,-444.123565,-8963.317327,-592.164754
4550.544261,-296.082377,-9193.145976,-518.144159
4550.544585,-296.082377,-8503.660028,-1110.308913
4550.544910,74.020594,-8350.440928,-814.226536
4550.545234,370.102971,-7814.174080,-592.164754
4550.545558,962.267725,-8580.269578,-296.082377
4550.545883,1036.288319,-8273.831378,-370.102971
4550.546207,1036.288319,-8810.098227,0.000000
4550.546531,814.226536,-8963.317327,0.000000
4550.546856,444.123565,-9116.536426,148.041188
4550.547180,0.000000,-8810.098227,0.000000
4550.547505,-370.102971,-8963.317327,0.000000
4550.547829,-592.164754,-8656.879127,-444.123565
4550.548153,-592.164754,-8273.831378,-740.205942
4550.548478,74.020594,-8350.440928,-592.164754
4550.548802,222.061783,-7814.174080,-296.082377
4550.549126,1036.288319,-8120.612279,-444.123565
4550.549451,1332.370696,-7890.783629,0.000000
4550.549775,1184.329507,-8120.612279,0.000000
4550.550099,1258.350101,-8656.879127,222.061783
4550.550424,888.247130,-8580.269578,370.102971
4550.550748,518.144159,-8963.317327,74.020594
4550.551072,74.020594,-8886.707777,0.000000
4550.551397,222.061783,-8886.707777,0.000000
4550.551721,-148.041188,-8886.707777,-814.226536
4550.552046,-148.041188,-8733.488677,-518.144159
4550.552370,148.041188,-8273.831378,-1110.308913
4550.552694,444.123565,-7507.735880,-666.185348
4550.553019,1036.288319,-7584.345430,-370.102971
4550.553343,1110.308913,-8580.269578,0.000000
4550.553667,1406.391290,-8273.831378,-222.061783
4550.553992,1110.308913,-8656.879127,0.000000
4550.554316,740.205942,-9039.926876,-148.041188
4550.554640,0.000000,-8810.098227,222.061783
4550.554965,0.000000,-8810.098227,0.000000
4550.555289,-518.144159,-8733.488677,-370.102971
4550.555613,0.000000,-8197.221829,-740.205942
4550.555938,0.000000,-8733.488677,-888.247130
4550.556262,444.123565,-7814.174080,-814.226536
4550.556587,444.123565,-8273.831378,-518.144159
4550.556911,1110.308913,-8733.488677,-444.123565
4550.557235,1554.432478,-8273.831378,-592.164754
4550.557560,1184.329507,-8733.488677,0.000000
4550.557884,962.267725,-9039.926876,-296.082377
4550.558208,666.185348,-9039.926876,148.041188
4550.558533,296.082377,-9269.755526,0.000000
4550.558857,0.000000,-9116.536426,-222.061783
4550.559181,0.000000,-8580.269578,-592.164754
4550.559506,-222.061783,-8656.879127,-1036.288319
4550.559830,74.020594,-8580.269578,-962.267725
4550.560154,74.020594,-8273.831378,-962.267725
4550.560479,444.123565,-8273.831378,-666.185348
4550.560803,888.247130,-8427.050478,-518.144159
4550.561128,1184.329507,-8810.098227,-592.164754
4550.561452,814.226536,-8886.707777,0.000000
4550.561776,740.205942,-9346.365076,0.000000
4550.562101,814.226536,-8963.317327,-148.041188
4550.562425,0.000000,-9039.926876,-370.102971
4550.562749,0.000000,-8580.269578,-296.082377
4550.563074,-296.082377,-8886.707777,-666.185348
4550.563398,-222.061783,-8350.440928,-1258.350101
4550.563722,148.041188,-8427.050478,-1036.288319
4550.564047,74.020594,-7890.783629,-888.247130
4550.564371,962.267725,-8273.831378,-888.247130
4550.564695,1332.370696,-8503.660028,-518.144159
4550.565020,1258.350101,-8503.660028,0.000000
4550.565344,1110.308913,-8886.707777,0.000000
4550.565669,740.205942,-8886.707777,296.082377
4550.565993,740.205942,-8963.317327,0.000000
4550.566317,222.061783,-9039.926876,-296.082377
4550.566642,0.000000,-8810.098227,-222.061783
4550.566966,-740.205942,-8273.831378,-370.102971
4550.567290,-518.144159,-8733.488677,-666.185348
4550.567615,-222.061783,-8350.440928,-962.267725
4550.567939,148.041188,-7967.393179,-666.185348
4550.568263,888.247130,-8273.831378,-666.185348
4550.568588,888.247130,-8197.221829,0.000000
4550.568912,1184.329507,-8733.488677,0.000000
4550.569236,888.247130,-8273.831378,74.020594
4550.569561,666.185348,-8963.317327,0.000000
4550.569885,296.082377,-8733.488677,-148.041188
4550.570210,148.041188,-9039.926876,-296.082377
4550.570534,-296.082377,-8656.879127,-370.102971
4550.570858,-666.185348,-8656.879127,-962.267725
4550.571183,0.000000,-8350.440928,-1332.370696
4550.571507,0.000000,-8197.221829,-740.205942
4550.571831,222.061783,-8044.002729,-518.144159
4550.572156,814.226536,-8350.440928,-444.123565
4550.572480,1110.308913,-8273.831378,-222.061783
4550.572804,1406.391290,-8503.660028,0.000000
4550.573129,1406.391290,-9269.755526,0.000000
4550.573453,1036.288319,-9116.536426,74.020594
4550.573778,444.123565,-9039.926876,0.000000
4550.574102,0.000000,-9422.974625,0.000000
4550.574426,-444.123565,-8733.488677,-370.102971
4550.574751,-296.082377,-8427.050478,-814.226536
4550.575075,-222.061783,-8350.440928,-740.205942
4550.575399,-222.061783,-8580.269578,0.000000
4550.575724,444.123565,-8197.221829,-592.164754
4550.576048,962.267725,-8503.660028,-222.061783
4550.576372,1406.391290,-7967.393179,-222.061783
4550.576697,1258.350101,-8733.488677,0.000000
4550.577021,1406.391290,-8886.707777,0.000000
4550.577345,962.267725,-8810.098227,0.000000
4550.577670,0.000000,-8963.317327,0.000000
4550.577994,74.020594,-9039.926876,-444.123565
4550.578319,296.082377,-9039.926876,-888.247130
4550.578643,0.000000,-8656.879127,-666.185348
4550.578967,0.000000,-8197.221829,-814.226536
4550.579292,222.061783,-8427.050478,-888.247130
4550.579616,1036.288319,-8503.660028,-370.102971
4550.579940,740.205942,-8580.269578,-222.061783
4550.580265,1036.288319,-8733.488677,0.000000
4550.580589,1332.370696,-8273.831378,0.000000
4550.580913,740.205942,-9039.926876,296.082377
4550.581238,592.164754,-8810.098227,0.000000
4550.581562,296.082377,-8886.707777,-148.041188
4550.581886,0.000000,-9039.926876,-444.123565
4550.582211,-518.144159,-8733.488677,-592.164754
4550.582535,-814.226536,-8350.440928,-518.144159
4550.582860,0.000000,-8273.831378,-740.205942
4550.583184,296.082377,-7967.393179,-518.144159
4550.583508,740.205942,-8120.612279,-592.164754
4550.583833,1406.391290,-8810.098227,0.000000
4550.584157,1184.329507,-8197.221829,0.000000
4550.584481,1258.350101,-8580.269578,0.000000
4550.584806,666.185348,-8963.317327,0.000000
4550.585130,592.164754,-8656.879127,-222.061783
4550.585454,222.061783,-8810.098227,-222.061783
4550.585779,0.000000,-8810.098227,-592.164754
4550.586103,-370.102971,-8503.660028,-888.247130
4550.586427,0.000000,-8273.831378,-888.247130
4550.586752,0.000000,-7967.393179,-962.267725
4550.587076,518.144159,-8350.440928,-814.226536
4550.587401,1110.308913,-7890.783629,-444.123565
4550.587725,1184.329507,-8197.221829,0.000000
4550.588049,1258.350101,-8580.269578,0.000000
4550.588374,814.226536,-8580.269578,74.020594
4550.588698,666.185348,-8963.317327,0.000000
4550.589022,370.102971,-8810.098227,0.000000
4550.589347,-148.041188,-9193.145976,148.041188
4550.589671,-296.082377,-8656.879127,-666.185348
4550.589995,-518.144159,-8733.488677,-592.164754
4550.590320,-370.102971,-8273.831378,-814.226536
4550.590644,0.000000,-8503.660028,-814.226536
4550.590968,888.247130,-8810.098227,0.000000
4550.591293,962.267725,-8350.440928,-296.082377
4550.591617,1036.288319,-8503.660028,-370.102971
4550.591942,1184.329507,-8503.660028,0.000000
4550.592266,1110.308913,-9193.145976,0.000000
4550.592590,666.185348,-9039.926876,148.041188
4550.592915,0.000000,-8886.707777,-74.020594
4550.593239,0.000000,-9039.926876,-444.123565
4550.593563,-370.102971,-8427.050478,-888.247130
4550.593888,-222.061783,-8886.707777,-740.205942
4550.594212,0.000000,-8350.440928,-1184.329507
4550.594536,592.164754,-7890.783629,-740.205942
4550.594861,888.247130,-7890.783629,-666.185348
4550.595185,1554.432478,-7814.174080,-444.123565
4550.595509,1258.350101,-8273.831378,0.000000
4550.595834,1258.350101,-8963.317327,0.000000
4550.596158,888.247130,-8886.707777,74.020594
4550.596483,370.102971,-8963.317327,74.020594
4550.596807,0.000000,-9116.536426,-444.123565
4550.597131,-370.102971,-8733.488677,-592.164754
4550.597456,-518.144159,-8733.488677,-814.226536
4550.597780,-222.061783,-8580.269578,-888.247130
4550.598104,74.020594,-8197.221829,-740.205942
4550.598429,370.102971,-8580.269578,-666.185348
4550.598753,888.247130,-8197.221829,-814.226536
4550.599077,1332.370696,-8503.660028,-222.061783
4550.599402,1628.453072,-8197.221829,-296.082377
4550.599726,1554.432478,-8580.269578,148.041188
4550.600051,1036.288319,-8886.707777,0.000000
4550.600375,444.123565,-9116.536426,0.000000
4550.600699,0.000000,-9039.926876,-296.082377
4550.601024,-370.102971,-8963.317327,-814.226536
4550.601348,0.000000,-8656.879127,-592.164754
4550.601672,-148.041188,-8656.879127,-592.164754
4550.601997,0.000000,-8273.831378,-740.205942
4550.602321,814.226536,-7967.393179,-518.144159
4550.602645,1332.370696,-8273.831378,-518.144159
4550.602970,1258.350101,-8733.488677,74.020594
4550.603294,1406.391290,-8733.488677,0.000000
4550.603618,1258.350101,-8580.269578,370.102971
4550.603943,518.144159,-8580.269578,222.061783
4550.604267,0.000000,-9116.536426,0.000000
4550.604592,0.000000,-8963.317327,-148.041188
4550.604916,-666.185348,-8273.831378,-296.082377
4550.605240,-370.102971,-8503.660028,-888.247130
4550.605565,-518.144159,-8120.612279,-740.205942
4550.605889,148.041188,-7967.393179,-962.267725
4550.606213,814.226536,-7967.393179,-666.185348
4550.606538,1258.350101,-8733.488677,0.000000
4550.606862,1036.288319,-8350.440928,0.000000
4550.607186,888.247130,-8350.440928,0.000000
4550.607511,518.144159,-8580.269578,148.041188
4550.607835,592.164754,-9193.145976,0.000000
4550.608159,74.020594,-8656.879127,0.000000
4550.608484,0.000000,-8656.879127,-296.082377
4550.608808,-296.082377,-8656.879127,-888.247130
4550.609133,-370.102971,-8733.488677,-740.205942
4550.609457,296.082377,-8580.269578,-1184.329507
4550.609781,74.020594,-8197.221829,-740.205942
4550.610106,592.164754,-8120.612279,0.000000
4550.610430,814.226536,-8120.612279,-222.061783
4550.610754,1184.329507,-9116.536426,-222.061783
4550.611079,1110.308913,-8503.660028,0.000000
4550.611403,666.185348,-8963.317327,370.102971
4550.611727,518.144159,-8810.098227,74.020594
4550.612052,0.000000,-8733.488677,-296.082377
4550.612376,-444.123565,-9193.145976,-296.082377
4550.612700,-592.164754,-8350.440928,-666.185348
4550.613025,-222.061783,-8733.488677,-888.247130
4550.613349,74.020594,-8273.831378,-962.267725
4550.613674,518.144159,-8350.440928,0.000000
4550.613998,888.247130,-8580.269578,-370.102971
4550.614322,1184.329507,-8427.050478,0.000000
4550.614647,1480.411884,-8733.488677,0.000000
4550.614971,814.226536,-9269.755526,592.164754
4550.615295,814.226536,-8656.879127,74.020594
4550.615620,592.164754,-8963.317327,74.020594
4550.615944,0.000000,-9039.926876,0.000000
4550.616268,-296.082377,-8733.488677,-370.102971
4550.616593,-222.061783,-8580.269578,-888.247130
4550.616917,0.000000,-8427.050478,-740.205942
4550.617241,296.082377,-8197.221829,-814.226536
4550.617566,814.226536,-8427.050478,-740.205942
4550.617890,1554.432478,-8273.831378,-740.205942
4550.618215,1184.329507,-8580.269578,-296.082377
4550.618539,1702.473667,-8810.098227,0.000000
4550.618863,1110.308913,-8656.879127,222.061783
4550.619188,814.226536,-9193.145976,0.000000
4550.619512,444.123565,-8810.098227,-222.061783
4550.619836,296.082377,-9346.365076,-370.102971
4550.620161,-296.082377,-8963.317327,-666.185348
4550.620485,-444.123565,-8810.098227,-888.247130
4550.620809,-370.102971,-8427.050478,-518.144159
4550.621134,0.000000,-8273.831378,-666.185348
4550.621458,740.205942,-8197.221829,-296.082377
4550.621782,1110.308913,-8656.879127,-370.102971
4550.622107,1110.308913,-7967.393179,444.123565
4550.622431,1110.308913,-8810.098227,0.000000
4550.622756,814.226536,-9269.755526,296.082377
4550.623080,518.144159,-8733.488677,296.082377
4550.623404,0.000000,-9116.536426,222.061783
4550.623729,-370.102971,-8963.317327,-370.102971
4550.624053,-592.164754,-8656.879127,-296.082377
4550.624377,-518.144159,-8733.488677,-592.164754
4550.624702,-222.061783,-8273.831378,-666.185348
4550.625026,444.123565,-7967.393179,-814.226536
4550.625350,888.247130,-8197.221829,-518.144159
4550.625675,1110.308913,-8044.002729,0.000000
4550.625999,1110.308913,-8656.879127,74.020594
4550.626323,1628.453072,-8810.098227,148.041188
4550.626648,666.185348,-8656.879127,444.123565
4550.626972,592.164754,-9039.926876,222.061783
4550.627297,0.000000,-8886.707777,0.000000
4550.627621,-444.123565,-8656.879127,-222.061783
4550.627945,-296.082377,-8810.098227,-518.144159
4550.628270,-370.102971,-8120.612279,-814.226536
4550.628594,0.000000,-8503.660028,-1036.288319
4550.628918,518.144159,-8197.221829,-666.185348
4550.629243,814.226536,-7660.954980,-148.041188
4550.629567,962.267725,-8503.660028,-148.041188
4550.629891,1184.329507,-8656.879127,-222.061783
4550.630216,888.247130,-8656.879127,0.000000
4550.630540,962.267725,-8580.269578,296.082377
4550.630865,74.020594,-8886.707777,0.000000
4550.631189,-222.061783,-8733.488677,0.000000
4550.631513,-370.102971,-8963.317327,-296.082377
4550.631838,-296.082377,-8733.488677,-814.226536
4550.632162,0.000000,-8503.660028,-1036.288319
4550.632486,296.082377,-7967.393179,-666.185348
4550.632811,518.144159,-8197.221829,-814.226536
4550.633135,1184.329507,-8197.221829,-370.102971
4550.633459,1258.350101,-8656.879127,296.082377
4550.633784,1110.308913,-8503.660028,0.000000
4550.634108,962.267725,-8656.879127,0.000000
4550.634432,666.185348,-8810.098227,0.000000
4550.634757,740.205942,-9269.755526,-222.061783
4550.635081,0.000000,-8733.488677,-444.123565
4550.635406,-148.041188,-8810.098227,-740.205942
4550.635730,0.000000,-8580.269578,-888.247130
4550.636054,0.000000,-8197.221829,-740.205942
4550.636379,296.082377,-7814.174080,-962.267725
4550.636703,814.226536,-8427.050478,-592.164754
4550.637027,1332.370696,-8197.221829,-370.102971
4550.637352,1184.329507,-8733.488677,-222.061783
4550.637676,1702.473667,-8273.831378,296.082377
4550.638000,1036.288319,-9039.926876,148.041188
4550.638325,888.247130,-9039.926876,-296.082377
4550.638649,222.061783,-9039.926876,-296.082377
4550.638973,-148.041188,-8656.879127,-296.082377
4550.639298,-370.102971,-8580.269578,-592.164754
4550.639622,0.000000,-8120.612279,-962.267725
4550.639947,74.020594,-8810.098227,-962.267725
4550.640271,444.123565,-8350.440928,-740.205942
4550.640595,962.267725,-8350.440928,-592.164754
4550.640920,1258.350101,-8350.440928,-444.123565
4550.641244,1406.391290,-8810.098227,0.000000
4550.641568,1258.350101,-8656.879127,-370.102971
4550.641893,1036.288319,-9652.803275,-444.123565
4550.642217,444.123565,-8886.707777,-296.082377
4550.642541,148.041188,-9116.536426,-518.144159
4550.642866,-296.082377,-8733.488677,-444.123565
4550.643190,-592.164754,-9269.755526,-666.185348
