#time,accel_x,accel_y,accel_z
5705.842156,444.123565,-8656.879127,74.020594
5705.842480,592.164754,-8733.488677,444.123565
5705.842804,518.144159,-8580.269578,518.144159
5705.843129,370.102971,-9499.584175,888.247130
5705.843453,592.164754,-8580.269578,370.102971
5705.843778,666.185348,-8810.098227,296.082377
5705.844102,592.164754,-8656.879127,222.061783
5705.844426,666.185348,-8810.098227,370.102971
5705.844751,0.000000,-8733.488677,148.041188
5705.845075,296.082377,-8733.488677,148.041188
5705.845400,296.082377,-8580.269578,0.000000
5705.845724,370.102971,-8580.269578,0.000000
5705.846048,0.000000,-8886.707777,222.061783
5705.846373,148.041188,-8810.098227,148.041188
5705.846697,222.061783,-8886.707777,222.061783
5705.847022,148.041188,-8273.831378,0.000000
5705.847346,518.144159,-8273.831378,222.061783
5705.847670,518.144159,-8350.440928,-148.041188
5705.847995,518.144159,-8810.098227,0.000000
5705.848319,370.102971,-8733.488677,-370.102971
5705.848644,518.144159,-8656.879127,-222.061783
5705.848968,518.144159,-8503.660028,-666.185348
5705.849292,0.000000,-8733.488677,-296.082377
5705.849617,296.082377,-8656.879127,0.000000
5705.849941,74.020594,-8580.269578,-222.061783
5705.850266,666.185348,-8580.269578,-444.123565
5705.850590,148.041188,-8656.879127,-296.082377
5705.850914,296.082377,-8810.098227,-148.041188
5705.851239,444.123565,-8273.831378,-296.082377
5705.851563,444.123565,-8427.050478,-518.144159
5705.851888,0.000000,-8580.269578,-222.061783
5705.852212,370.102971,-8427.050478,-666.185348
5705.852536,444.123565,-8656.879127,-740.205942
5705.852861,518.144159,-9269.755526,-666.185348
5705.853185,148.041188,-8503.660028,-592.164754
5705.853510,296.082377,-8503.660028,-740.205942
5705.853834,370.102971,-8656.879127,-592.164754
5705.854158,666.185348,-8810.098227,-518.144159
5705.854483,592.164754,-8350.440928,-1110.308913
5705.854807,518.144159,-8273.831378,-666.185348
5705.855132,444.123565,-8656.879127,-444.123565
5705.855456,518.144159,-8503.660028,-666.185348
5705.855780,666.185348,-8963.317327,-740.205942
5705.856105,444.123565,-8580.269578,-814.226536
5705.856429,370.102971,-8733.488677,-592.164754
5705.856754,222.061783,-8810.098227,-740.205942
5705.857078,444.123565,-8810.098227,-740.205942
5705.857402,592.164754,-8503.660028,-740.205942
5705.857727,444.123565,-8810.098227,-666.185348
5705.858051,518.144159,-8656.879127,-444.123565
5705.858376,518.144159,-8733.488677,-370.102971
5705.858700,888.247130,-8656.879127,-1110.308913
5705.859024,370.102971,-8810.098227,-148.041188
5705.859349,444.123565,-8656.879127,-518.144159
5705.859673,444.123565,-8733.488677,-296.082377
5705.859998,370.102971,-8350.440928,-370.102971
5705.860322,222.061783,-8733.488677,-222.061783
5705.860646,148.041188,-8580.269578,-518.144159
5705.860971,592.164754,-8810.098227,-370.102971
5705.861295,222.061783,-8580.269578,-518.144159
5705.861620,444.123565,-8427.050478,-148.041188
5705.861944,296.082377,-8120.612279,-222.061783
5705.862268,370.102971,-8886.707777,0.000000
5705.862593,592.164754,-8273.831378,-444.123565
5705.862917,814.226536,-8963.317327,0.000000
5705.863242,518.144159,-8580.269578,-222.061783
5705.863566,592.164754,-8273.831378,0.000000
5705.863890,518.144159,-8580.269578,0.000000
5705.864215,592.164754,-8963.317327,222.061783
5705.864539,444.123565,-8656.879127,0.000000
5705.864864,370.102971,-8733.488677,74.020594
5705.865188,444.123565,-8197.221829,148.041188
5705.865512,518.144159,-8503.660028,222.061783
5705.865837,740.205942,-8503.660028,148.041188
5705.866161,814.226536,-8350.440928,148.041188
5705.866486,814.226536,-8810.098227,222.061783
5705.866810,370.102971,-8733.488677,222.061783
5705.867134,1110.308913,-8733.488677,444.123565
5705.867459,518.144159,-8427.050478,296.082377
5705.867783,666.185348,-8197.221829,296.082377
5705.868108,444.123565,-8733.488677,0.000000
5705.868432,592.164754,-8656.879127,740.205942
5705.868756,222.061783,-8580.269578,296.082377
5705.869081,296.082377,-8810.098227,296.082377
5705.869405,518.144159,-8503.660028,148.041188
5705.869730,592.164754,-8427.050478,444.123565
5705.870054,814.226536,-8350.440928,222.061783
5705.870378,296.082377,-8810.098227,518.144159
5705.870703,296.082377,-8656.879127,444.123565
5705.871027,444.123565,-8580.269578,444.123565
5705.871352,444.123565,-7890.783629,814.226536
5705.871676,74.020594,-8656.879127,370.102971
5705.872001,296.082377,-8427.050478,444.123565
5705.872325,0.000000,-8197.221829,296.082377
5705.872649,74.020594,-8580.269578,296.082377
5705.872974,148.041188,-8120.612279,370.102971
5705.873298,148.041188,-8580.269578,222.061783
5705.873623,74.020594,-8580.269578,444.123565
5705.873947,148.041188,-8503.660028,370.102971
5705.874271,296.082377,-8273.831378,592.164754
5705.874596,296.082377,-8350.440928,370.102971
5705.874920,296.082377,-8733.488677,444.123565
5705.875245,74.020594,-8503.660028,222.061783
5705.875569,518.144159,-8427.050478,148.041188
5705.875893,0.000000,-8656.879127,222.061783
5705.876218,0.000000,-8427.050478,0.000000
5705.876542,296.082377,-8503.660028,74.020594
5705.876867,0.000000,-8044.002729,0.000000
5705.877191,0.000000,-8427.050478,74.020594
5705.877515,0.000000,-8503.660028,0.000000
5705.877840,296.082377,-8733.488677,0.000000
5705.878164,296.082377,-8044.002729,0.000000
5705.878489,370.102971,-8427.050478,74.020594
5705.878813,0.000000,-8197.221829,0.000000
5705.879137,592.164754,-8580.269578,-370.102971
5705.879462,74.020594,-8733.488677,-296.082377
5705.879786,740.205942,-7814.174080,0.000000
5705.880111,518.144159,-8273.831378,-296.082377
5705.880435,296.082377,-8503.660028,-74.020594
5705.880759,370.102971,-8427.050478,-296.082377
5705.881084,222.061783,-8427.050478,0.000000
5705.881408,444.123565,-8120.612279,0.000000
5705.881733,222.061783,-8733.488677,0.000000
5705.882057,518.144159,-8580.269578,0.000000
5705.882381,148.041188,-8580.269578,0.000000
5705.882706,740.205942,-9039.926876,-296.082377
5705.883030,222.061783,-8273.831378,0.000000
5705.883355,518.144159,-8427.050478,-222.061783
5705.883679,296.082377,-8427.050478,-222.061783
5705.884003,296.082377,-8886.707777,148.041188
5705.884328,666.185348,-8810.098227,-148.041188
5705.884652,370.102971,-8350.440928,148.041188
5705.884977,592.164754,-8273.831378,0.000000
5705.885301,296.082377,-8733.488677,-148.041188
5705.885625,296.082377,-8580.269578,296.082377
5705.885950,296.082377,-8120.612279,370.102971
5705.886274,518.144159,-8197.221829,-222.061783
5705.886599,148.041188,-8503.660028,0.000000
5705.886923,518.144159,-8733.488677,-222.061783
5705.887247,74.020594,-8427.050478,-296.082377
5705.887572,518.144159,-8427.050478,-444.123565
5705.887896,444.123565,-8197.221829,-370.102971
5705.888221,740.205942,-8273.831378,-444.123565
5705.888545,666.185348,-8427.050478,0.000000
5705.888869,592.164754,-8427.050478,-148.041188
5705.889194,518.144159,-8503.660028,-148.041188
5705.889518,370.102971,-8580.269578,-296.082377
5705.889843,0.000000,-8503.660028,0.000000
5705.890167,518.144159,-8273.831378,-148.041188
5705.890491,296.082377,-8580.269578,-296.082377
5705.890816,0.000000,-8656.879127,-370.102971
5705.891140,-148.041188,-9269.755526,-740.205942
5705.891465,0.000000,-8580.269578,-296.082377
5705.891789,370.102971,-8810.098227,0.000000
5705.892113,370.102971,-9039.926876,-370.102971
5705.892438,666.185348,-9039.926876,-296.082377
5705.892762,740.205942,-8580.269578,0.000000
5705.893087,518.144159,-8580.269578,0.000000
5705.893411,592.164754,-8963.317327,0.000000
5705.893735,222.061783,-8427.050478,-370.102971
5705.894060,74.020594,-8580.269578,-592.164754
5705.894384,0.000000,-8810.098227,-740.205942
5705.894709,0.000000,-8656.879127,-814.226536
5705.895033,0.000000,-8886.707777,-518.144159
5705.895357,518.144159,-9116.536426,-962.267725
5705.895682,888.247130,-8886.707777,-740.205942
5705.896006,1036.288319,-8580.269578,-444.123565
5705.896331,1258.350101,-8886.707777,-296.082377
5705.896655,888.247130,-8963.317327,-370.102971
5705.896979,740.205942,-8963.317327,-444.123565
5705.897304,444.123565,-8656.879127,-814.226536
5705.897628,370.102971,-8656.879127,-740.205942
5705.897953,0.000000,-8656.879127,-962.267725
5705.898277,-148.041188,-8120.612279,-370.102971
5705.898601,-518.144159,-8886.707777,-962.267725
5705.898926,0.000000,-8580.269578,-962.267725
5705.899250,296.082377,-8580.269578,-888.247130
5705.899575,1036.288319,-8656.879127,-518.144159
5705.899899,888.247130,-8810.098227,-518.144159
5705.900223,1110.308913,-8656.879127,-888.247130
5705.900548,1480.411884,-8733.488677,-444.123565
5705.900872,592.164754,-8427.050478,-740.205942
5705.901197,592.164754,-9039.926876,-962.267725
5705.901521,-222.061783,-8503.660028,-962.267725
5705.901845,-666.185348,-8350.440928,-814.226536
5705.902170,-444.123565,-8580.269578,-962.267725
5705.902494,0.000000,-9039.926876,-1184.329507
5705.902819,0.000000,-8810.098227,-962.267725
5705.903143,444.123565,-8580.269578,-370.102971
5705.903467,888.247130,-8350.440928,-518.144159
5705.903792,1258.350101,-9422.974625,-518.144159
5705.904116,1480.411884,-8503.660028,-296.082377
5705.904441,1184.329507,-8580.269578,-444.123565
5705.904765,666.185348,-8963.317327,-592.164754
5705.905089,296.082377,-8350.440928,-666.185348
5705.905414,0.000000,-9346.365076,-444.123565
5705.905738,-592.164754,-8503.660028,-666.185348
5705.906063,-592.164754,-9193.145976,-740.205942
5705.906387,-222.061783,-9116.536426,-592.164754
5705.906711,0.000000,-8886.707777,444.123565
5705.907036,740.205942,-8963.317327,74.020594
5705.907360,1184.329507,-8810.098227,74.020594
5705.907685,1628.453072,-8733.488677,148.041188
5705.908009,1554.432478,-8886.707777,0.000000
5705.908333,962.267725,-8656.879127,148.041188
5705.908658,518.144159,-8656.879127,-296.082377
5705.908982,222.061783,-8273.831378,-444.123565
5705.909307,-444.123565,-8656.879127,-666.185348
5705.909631,-296.082377,-8656.879127,-962.267725
5705.909956,-370.102971,-8350.440928,-740.205942
5705.910280,-148.041188,-8503.660028,-444.123565
5705.910604,370.102971,-8503.660028,-518.144159
5705.910929,1258.350101,-8503.660028,148.041188
5705.911253,1184.329507,-8656.879127,-148.041188
5705.911578,1480.411884,-8427.050478,0.000000
5705.911902,1332.370696,-8656.879127,0.000000
5705.912226,666.185348,-8503.660028,-222.061783
5705.912551,666.185348,-8427.050478,-296.082377
5705.912875,74.020594,-8120.612279,-962.267725
5705.913200,0.000000,-8810.098227,-814.226536
5705.913524,296.082377,-8044.002729,-962.267725
5705.913848,592.164754,-8197.221829,-1184.329507
5705.914173,148.041188,-8810.098227,-814.226536
5705.914497,962.267725,-8350.440928,-148.041188
5705.914822,1258.350101,-8963.317327,0.000000
5705.915146,1924.535449,-8427.050478,0.000000
5705.915470,1628.453072,-9039.926876,0.000000
5705.915795,1406.391290,-8810.098227,-296.082377
5705.916119,666.185348,-8733.488677,-740.205942
5705.916444,148.041188,-9039.926876,-888.247130
5705.916768,0.000000,-8656.879127,-666.185348
5705.917092,-592.164754,-8503.660028,-1036.288319
5705.917417,-444.123565,-9193.145976,-1110.308913
5705.917741,0.000000,-8580.269578,-1258.350101
5705.918066,888.247130,-8503.660028,-296.082377
5705.918390,666.185348,-8886.707777,-518.144159
5705.918714,1036.288319,-9193.145976,-148.041188
5705.919039,962.267725,-8656.879127,-296.082377
5705.919363,666.185348,-9193.145976,222.061783
5705.919688,296.082377,-8580.269578,-666.185348
5705.920012,296.082377,-9039.926876,-814.226536
5705.920336,-222.061783,-8427.050478,-1036.288319
5705.920661,-444.123565,-8580.269578,-1406.391290
5705.920985,-296.082377,-9422.974625,-1628.453072
5705.921310,-296.082377,-8580.269578,-1332.370696
5705.921634,444.123565,-8580.269578,-1480.411884
5705.921958,518.144159,-8580.269578,-1036.288319
5705.922283,1332.370696,-8886.707777,-666.185348
5705.922607,1258.350101,-8656.879127,-592.164754
5705.922932,1480.411884,-8810.098227,-296.082377
5705.923256,888.247130,-8503.660028,-814.226536
5705.923580,888.247130,-9039.926876,-1110.308913
5705.923905,0.000000,-8197.221829,-1258.350101
5705.924229,-370.102971,-8503.660028,-1480.411884
5705.924554,-518.144159,-8580.269578,-1480.411884
5705.924878,-148.041188,-8503.660028,-1406.391290
5705.925202,222.061783,-8273.831378,-1184.329507
5705.925527,444.123565,-8810.098227,-962.267725
5705.925851,1110.308913,-8350.440928,-518.144159
5705.926176,1406.391290,-8503.660028,-296.082377
5705.926500,1258.350101,-8197.221829,0.000000
5705.926824,1332.370696,-8580.269578,-296.082377
5705.927149,740.205942,-8503.660028,-814.226536
5705.927473,222.061783,-8197.221829,-888.247130
5705.927798,-370.102971,-8503.660028,-1258.350101
5705.928122,-962.267725,-8427.050478,-1258.350101
5705.928446,-148.041188,-8350.440928,-1332.370696
5705.928771,-296.082377,-8503.660028,-1480.411884
5705.929095,814.226536,-8350.440928,-740.205942
5705.929419,888.247130,-8350.440928,-666.185348
5705.929744,1332.370696,-8656.879127,-222.061783
5705.930068,1480.411884,-8273.831378,-296.082377
5705.930392,1776.494261,-8886.707777,-148.041188
5705.930717,814.226536,-8580.269578,0.000000
5705.931041,370.102971,-8503.660028,-444.123565
5705.931366,-296.082377,-8733.488677,-814.226536
5705.931690,-592.164754,-8503.660028,-814.226536
5705.932014,-740.205942,-8503.660028,-962.267725
5705.932339,0.000000,-8427.050478,-888.247130
5705.932663,296.082377,-8427.050478,-592.164754
5705.932987,518.144159,-8427.050478,-296.082377
5705.933312,1036.288319,-8427.050478,-296.082377
5705.933636,1184.329507,-9039.926876,222.061783
5705.933960,1406.391290,-8810.098227,0.000000
5705.934285,1184.329507,-8273.831378,0.000000
5705.934609,518.144159,-8656.879127,-444.123565
5705.934933,74.020594,-8733.488677,-740.205942
5705.935258,-444.123565,-8120.612279,-740.205942
5705.935582,-666.185348,-8580.269578,-1110.308913
5705.935906,-518.144159,-8580.269578,-962.267725
5705.936231,-148.041188,-8503.660028,-518.144159
5705.936555,74.020594,-8886.707777,0.000000
5705.936879,962.267725,-8810.098227,0.000000
5705.937204,1554.432478,-8656.879127,-148.041188
5705.937528,1628.453072,-8733.488677,0.000000
5705.937852,1554.432478,-8580.269578,444.123565
5705.938177,740.205942,-8886.707777,222.061783
5705.938501,74.020594,-8044.002729,-148.041188
5705.938825,-222.061783,-8580.269578,-370.102971
5705.939150,-592.164754,-8733.488677,-666.185348
5705.939474,-666.185348,-8580.269578,-444.123565
5705.939798,-518.144159,-8656.879127,-370.102971
5705.940123,444.123565,-8503.660028,-222.061783
5705.940447,1036.288319,-8580.269578,0.000000
5705.940771,1110.308913,-8503.660028,148.041188
5705.941096,1554.432478,-8197.221829,666.185348
5705.941420,1332.370696,-8197.221829,518.144159
5705.941745,888.247130,-8733.488677,222.061783
5705.942069,518.144159,-8427.050478,0.000000
5705.942393,148.041188,-8503.660028,-370.102971
5705.942718,-444.123565,-8580.269578,-518.144159
5705.943042,-888.247130,-8503.660028,-666.185348
5705.943366,-444.123565,-8427.050478,-740.205942
5705.943691,-148.041188,-8197.221829,-518.144159
5705.944015,666.185348,-8580.269578,-370.102971
5705.944339,1258.350101,-8580.269578,-518.144159
5705.944664,1406.391290,-8503.660028,74.020594
5705.944988,1184.329507,-8044.002729,-222.061783
5705.945312,962.267725,-8733.488677,-222.061783
5705.945637,370.102971,-8350.440928,-518.144159
5705.945961,148.041188,-8656.879127,-814.226536
5705.946285,-296.082377,-8580.269578,-1258.350101
5705.946610,-962.267725,-8503.660028,-962.267725
5705.946934,-518.144159,-8580.269578,-1110.308913
5705.947258,0.000000,-8503.660028,-1258.350101
5705.947583,666.185348,-8733.488677,-888.247130
5705.947907,1110.308913,-8427.050478,-666.185348
5705.948231,1406.391290,-8350.440928,-148.041188
5705.948556,1554.432478,-8580.269578,-222.061783
5705.948880,1258.350101,-8503.660028,-222.061783
5705.949204,1036.288319,-8273.831378,-148.041188
5705.949529,444.123565,-8503.660028,-518.144159
5705.949853,-222.061783,-8427.050478,-962.267725
5705.950177,-592.164754,-8580.269578,-740.205942
5705.950502,-592.164754,-8350.440928,-1110.308913
5705.950826,0.000000,-8580.269578,-1110.308913
5705.951151,296.082377,-8886.707777,-962.267725
5705.951475,1258.350101,-8503.660028,-518.144159
5705.951799,1258.350101,-8273.831378,-296.082377
5705.952124,1332.370696,-9193.145976,-592.164754
5705.952448,1406.391290,-8810.098227,-444.123565
5705.952772,1110.308913,-8656.879127,-518.144159
5705.953097,592.164754,-8656.879127,-444.123565
5705.953421,-296.082377,-9116.536426,0.000000
5705.953745,-370.102971,-8656.879127,-444.123565
5705.954070,-444.123565,-8886.707777,-888.247130
5705.954394,0.000000,-8656.879127,-1036.288319
5705.954718,444.123565,-8886.707777,-666.185348
5705.955043,962.267725,-8427.050478,-592.164754
5705.955367,1258.350101,-8580.269578,-296.082377
5705.955691,1480.411884,-8656.879127,0.000000
5705.956016,1924.535449,-8427.050478,0.000000
5705.956340,888.247130,-8427.050478,74.020594
5705.956664,444.123565,-8963.317327,0.000000
5705.956989,-222.061783,-8503.660028,0.000000
5705.957313,-148.041188,-8733.488677,-148.041188
5705.957637,-592.164754,-8580.269578,0.000000
5705.957962,74.020594,-8733.488677,-814.226536
5705.958286,370.102971,-8810.098227,-518.144159
5705.958610,592.164754,-8503.660028,-370.102971
5705.958935,962.267725,-8733.488677,-148.041188
5705.959259,1036.288319,-8503.660028,0.000000
5705.959583,1332.370696,-8427.050478,74.020594
5705.959908,1258.350101,-8503.660028,0.000000
5705.960232,888.247130,-9039.926876,222.061783
5705.960556,444.123565,-8350.440928,-222.061783
5705.960881,0.000000,-8580.269578,-296.082377
5705.961205,-592.164754,-8810.098227,-666.185348
5705.961530,-296.082377,-8810.098227,-814.226536
5705.961854,296.082377,-8810.098227,-666.185348
5705.962178,222.061783,-8580.269578,-592.164754
5705.962503,666.185348,-8580.269578,-666.185348
5705.962827,1110.308913,-8656.879127,-444.123565
5705.963151,1628.453072,-8886.707777,-296.082377
5705.963476,1480.411884,-8810.098227,-222.061783
5705.963800,962.267725,-8733.488677,-222.061783
5705.964124,518.144159,-8656.879127,0.000000
5705.964449,74.020594,-8656.879127,-222.061783
5705.964773,0.000000,-8503.660028,-370.102971
5705.965097,-370.102971,-8733.488677,-740.205942
5705.965422,-296.082377,-8580.269578,-518.144159
5705.965746,0.000000,-8580.269578,-296.082377
5705.966070,592.164754,-9193.145976,-296.082377
5705.966395,1406.391290,-8656.879127,0.000000
5705.966719,1702.473667,-8810.098227,0.000000
5705.967043,1480.411884,-8580.269578,370.102971
5705.967368,1480.411884,-8656.879127,444.123565
5705.967692,592.164754,-8963.317327,370.102971
5705.968016,0.000000,-8580.269578,0.000000
5705.968341,-444.123565,-8733.488677,-296.082377
5705.968665,-444.123565,-8963.317327,-592.164754
5705.968989,-444.123565,-8733.488677,-296.082377
5705.969314,-592.164754,-8733.488677,-444.123565
5705.969638,0.000000,-8886.707777,-370.102971
5705.969962,1036.288319,-8810.098227,-222.061783
5705.970287,1480.411884,-8810.098227,0.000000
5705.970611,1628.453072,-8580.269578,148.041188
5705.970936,1258.350101,-8886.707777,370.102971
5705.971260,814.226536,-8733.488677,0.000000
5705.971584,296.082377,-8733.488677,0.000000
5705.971909,-370.102971,-8427.050478,-296.082377
5705.972233,-444.123565,-8733.488677,-222.061783
5705.972557,-1110.308913,-8733.488677,-666.185348
5705.972882,-370.102971,-8580.269578,-666.185348
5705.973206,148.041188,-8197.221829,0.000000
5705.973530,666.185348,-8427.050478,-222.061783
5705.973855,1110.308913,-8580.269578,0.000000
5705.974179,1332.370696,-8580.269578,518.144159
5705.974503,1406.391290,-8733.488677,296.082377
5705.974828,1332.370696,-8963.317327,370.102971
5705.975152,518.144159,-8963.317327,74.020594
5705.975476,0.000000,-8886.707777,0.000000
5705.975801,-444.123565,-8503.660028,0.000000
5705.976125,-740.205942,-8810.098227,-296.082377
5705.976449,-666.185348,-8733.488677,-296.082377
5705.976774,-370.102971,-8350.440928,0.000000
5705.977098,444.123565,-8886.707777,-148.041188
5705.977422,666.185348,-7967.393179,370.102971
5705.977747,1628.453072,-8656.879127,666.185348
5705.978071,1406.391290,-8503.660028,666.185348
5705.978395,1258.350101,-8810.098227,740.205942
5705.978720,518.144159,-8656.879127,222.061783
5705.979044,0.000000,-8350.440928,444.123565
5705.979368,-518.144159,-8733.488677,222.061783
5705.979693,-814.226536,-8886.707777,-296.082377
5705.980017,-740.205942,-8580.269578,-222.061783
5705.980341,-370.102971,-8044.002729,-296.082377
5705.980666,74.020594,-8350.440928,0.000000
5705.980990,518.144159,-8733.488677,296.082377
5705.981315,1332.370696,-8503.660028,296.082377
5705.981639,1480.411884,-8044.002729,1036.288319
5705.981963,1332.370696,-8733.488677,740.205942
5705.982288,962.267725,-9116.536426,592.164754
5705.982612,444.123565,-8810.098227,296.082377
5705.982936,-296.082377,-8580.269578,222.061783
5705.983261,-814.226536,-8656.879127,296.082377
5705.983585,-888.247130,-8656.879127,0.000000
5705.983909,-518.144159,-8580.269578,-296.082377
5705.984234,0.000000,-8273.831378,-148.041188
5705.984558,740.205942,-8503.660028,0.000000
5705.984882,1036.288319,-8503.660028,296.082377
5705.985207,1110.308913,-8273.831378,518.144159
5705.985531,1332.370696,-8656.879127,296.082377
5705.985855,1036.288319,-8656.879127,148.041188
5705.986180,518.144159,-8273.831378,592.164754
5705.986504,0.000000,-8656.879127,-148.041188
5705.986828,-296.082377,-8810.098227,-444.123565
5705.987153,-740.205942,-8733.488677,-518.144159
5705.987477,-518.144159,-8350.440928,-814.226536
5705.987801,-518.144159,-8350.440928,-518.144159
5705.988126,74.020594,-8580.269578,-370.102971
5705.988450,962.267725,-8350.440928,-444.123565
5705.988774,1554.432478,-8044.002729,-296.082377
5705.989099,1184.329507,-8427.050478,0.000000
5705.989423,1406.391290,-8656.879127,0.000000
5705.989747,814.226536,-8580.269578,74.020594
5705.990072,0.000000,-9193.145976,-148.041188
5705.990396,-222.061783,-8810.098227,-296.082377
5705.990720,-444.123565,-8886.707777,-592.164754
5705.991045,-370.102971,-8656.879127,-1036.288319
5705.991369,-518.144159,-8503.660028,-740.205942
5705.991694,222.061783,-8656.879127,-962.267725
5705.992018,740.205942,-8273.831378,-592.164754
5705.992342,814.226536,-8503.660028,-296.082377
5705.992667,1332.370696,-8733.488677,-296.082377
5705.992991,1184.329507,-8350.440928,-222.061783
5705.993315,888.247130,-8886.707777,0.000000
5705.993640,296.082377,-8427.050478,0.000000
5705.993964,0.000000,-8580.269578,-370.102971
5705.994288,-518.144159,-8733.488677,-666.185348
5705.994613,-444.123565,-8427.050478,-888.247130
5705.994937,-518.144159,-8656.879127,-518.144159
5705.995261,-370.102971,-8044.002729,-592.164754
5705.995586,370.102971,-8503.660028,-296.082377
5705.995910,888.247130,-8580.269578,-370.102971
5705.996234,1184.329507,-8427.050478,0.000000
5705.996559,1480.411884,-8120.612279,0.000000
5705.996883,962.267725,-8350.440928,74.020594
5705.997207,592.164754,-9269.755526,74.020594
5705.997532,0.000000,-8580.269578,0.000000
5705.997856,-296.082377,-8503.660028,-222.061783
5705.998180,-740.205942,-8733.488677,-592.164754
5705.998505,-666.185348,-8273.831378,-370.102971
5705.998829,0.000000,-8427.050478,-370.102971
5705.999153,222.061783,-8350.440928,-666.185348
5705.999478,888.247130,-8427.050478,-370.102971
5705.999802,1406.391290,-8580.269578,74.020594
5706.000126,1406.391290,-8427.050478,888.247130
5706.000451,1184.329507,-8733.488677,518.144159
5706.000775,666.185348,-8580.269578,148.041188
5706.001100,296.082377,-8503.660028,296.082377
5706.001424,-222.061783,-8963.317327,222.061783
5706.001748,-592.164754,-8733.488677,-148.041188
5706.002073,-592.164754,-8810.098227,-370.102971
5706.002397,-296.082377,-8656.879127,0.000000
5706.002721,0.000000,-8350.440928,-370.102971
5706.003046,740.205942,-8810.098227,0.000000
5706.003370,1258.350101,-8350.440928,74.020594
5706.003694,1554.432478,-8350.440928,666.185348
5706.004019,1258.350101,-8503.660028,444.123565
5706.004343,444.123565,-9269.755526,370.102971
5706.004667,444.123565,-8580.269578,74.020594
5706.004992,0.000000,-8503.660028,-518.144159
5706.005316,-296.082377,-8656.879127,-592.164754
5706.005640,-592.164754,-9269.755526,-370.102971
5706.005965,-518.144159,-8427.050478,-740.205942
5706.006289,74.020594,-8350.440928,-740.205942
5706.006613,592.164754,-8427.050478,-666.185348
5706.006938,1258.350101,-8350.440928,0.000000
5706.007262,1628.453072,-7890.783629,-296.082377
5706.007586,1628.453072,-8656.879127,74.020594
5706.007911,1406.391290,-7967.393179,-148.041188
5706.008235,962.267725,-8963.317327,-222.061783
5706.008559,444.123565,-8963.317327,-444.123565
5706.008884,-148.041188,-8810.098227,-296.082377
5706.009208,-518.144159,-8733.488677,-888.247130
5706.009532,-518.144159,-8580.269578,-740.205942
5706.009857,0.000000,-8427.050478,-962.267725
5706.010181,666.185348,-8427.050478,-518.144159
5706.010505,962.267725,-8427.050478,-148.041188
5706.010830,1184.329507,-8656.879127,0.000000
5706.011154,1406.391290,-8503.660028,-148.041188
5706.011479,1850.514855,-8273.831378,296.082377
5706.011803,1110.308913,-8580.269578,-222.061783
5706.012127,370.102971,-8503.660028,-222.061783
5706.012452,0.000000,-8503.660028,-148.041188
5706.012776,-296.082377,-9193.145976,-296.082377
5706.013100,-444.123565,-8427.050478,-666.185348
5706.013425,-148.041188,-8810.098227,-814.226536
5706.013749,296.082377,-8273.831378,-518.144159
5706.014073,740.205942,-8197.221829,-370.102971
5706.014398,1332.370696,-8656.879127,-370.102971
5706.014722,1702.473667,-8580.269578,0.000000
5706.015046,1406.391290,-8427.050478,-370.102971
5706.015371,962.267725,-8886.707777,-296.082377
5706.015695,444.123565,-8197.221829,0.000000
5706.016019,148.041188,-8886.707777,-444.123565
5706.016344,-370.102971,-8580.269578,-1036.288319
5706.016668,-592.164754,-8733.488677,-888.247130
5706.016992,-296.082377,-8963.317327,-888.247130
5706.017317,148.041188,-8427.050478,-962.267725
5706.017641,592.164754,-8503.660028,-592.164754
5706.017965,1036.288319,-8580.269578,-592.164754
5706.018290,1406.391290,-8044.002729,-148.041188
5706.018614,1776.494261,-8733.488677,-222.061783
5706.018938,1110.308913,-8350.440928,-444.123565
5706.019263,592.164754,-8810.098227,-296.082377
5706.019587,148.041188,-8580.269578,-740.205942
5706.019911,222.061783,-8656.879127,-666.185348
5706.020236,0.000000,-8580.269578,-1332.370696
5706.020560,-222.061783,-8810.098227,-1110.308913
5706.020885,74.020594,-8197.221829,-814.226536
5706.021209,444.123565,-9039.926876,-740.205942
5706.021533,1110.308913,-8656.879127,-370.102971
5706.021858,1628.453072,-8273.831378,0.000000
5706.022182,1480.411884,-8656.879127,-370.102971
5706.022506,1258.350101,-8350.440928,0.000000
5706.022831,962.267725,-8427.050478,-222.061783
5706.023155,222.061783,-8427.050478,-296.082377
5706.023479,-148.041188,-8503.660028,-814.226536
5706.023804,-370.102971,-8810.098227,-1036.288319
5706.024128,0.000000,-9039.926876,-370.102971
5706.024452,0.000000,-8427.050478,-888.247130
5706.024777,222.061783,-8580.269578,-666.185348
5706.025101,814.226536,-8656.879127,0.000000
5706.025425,1406.391290,-8580.269578,0.000000
5706.025750,1406.391290,-8656.879127,-222.061783
5706.026074,888.247130,-8350.440928,148.041188
5706.026398,888.247130,-8886.707777,-148.041188
5706.026723,444.123565,-8810.098227,-592.164754
5706.027047,-148.041188,-9039.926876,-370.102971
5706.027371,-296.082377,-9039.926876,-962.267725
5706.027696,-444.123565,-8656.879127,-888.247130
5706.028020,-370.102971,-8656.879127,-666.185348
5706.028344,-148.041188,-8350.440928,-296.082377
5706.028669,814.226536,-8580.269578,-592.164754
5706.028993,1332.370696,-8733.488677,-370.102971
5706.029317,1480.411884,-8886.707777,0.000000
5706.029642,1110.308913,-8886.707777,0.000000
5706.029966,1036.288319,-8503.660028,-222.061783
5706.030291,592.164754,-8656.879127,-222.061783
5706.030615,0.000000,-8810.098227,-666.185348
5706.030939,-666.185348,-8963.317327,-592.164754
5706.031264,-444.123565,-8733.488677,-592.164754
5706.031588,-592.164754,-9039.926876,-740.205942
5706.031912,74.020594,-8350.440928,-888.247130
5706.032237,740.205942,-8656.879127,-518.144159
5706.032561,1258.350101,-8810.098227,-592.164754
5706.032885,1258.350101,-8503.660028,-370.102971
5706.033210,1036.288319,-8810.098227,-296.082377
5706.033534,1110.308913,-8656.879127,-370.102971
5706.033859,592.164754,-8427.050478,-666.185348
5706.034183,148.041188,-8810.098227,-666.185348
5706.034507,-296.082377,-8503.660028,-888.247130
5706.034832,-518.144159,-8886.707777,-740.205942
5706.035156,-666.185348,-8733.488677,-1184.329507
5706.035480,0.000000,-8044.002729,-962.267725
5706.035805,444.123565,-8580.269578,-962.267725
5706.036129,1110.308913,-8427.050478,-962.267725
5706.036453,1406.391290,-8810.098227,-444.123565
5706.036778,1258.350101,-8120.612279,-148.041188
5706.037102,1036.288319,-8733.488677,0.000000
5706.037426,666.185348,-8656.879127,-518.144159
5706.037751,296.082377,-8810.098227,-444.123565
5706.038075,-148.041188,-8503.660028,-444.123565
5706.038400,-740.205942,-8810.098227,-888.247130
5706.038724,-740.205942,-8580.269578,-888.247130
5706.039048,-148.041188,-8427.050478,-740.205942
5706.039373,0.000000,-8656.879127,-814.226536
5706.039697,666.185348,-9039.926876,-814.226536
5706.040021,1184.329507,-8656.879127,-518.144159
5706.040346,1332.370696,-8350.440928,0.000000
5706.040670,1258.350101,-8273.831378,0.000000
5706.040994,1406.391290,-8580.269578,-518.144159
5706.041319,518.144159,-8733.488677,-370.102971
5706.041643,0.000000,-8427.050478,-592.164754
5706.041968,-444.123565,-8427.050478,-666.185348
5706.042292,-666.185348,-8580.269578,-740.205942
5706.042616,-370.102971,-8656.879127,-1332.370696
5706.042941,0.000000,-8963.317327,-888.247130
5706.043265,444.123565,-8656.879127,-666.185348
5706.043589,1110.308913,-8427.050478,-740.205942
5706.043914,1332.370696,-8273.831378,74.020594
5706.044238,1480.411884,-8273.831378,0.000000
5706.044562,1258.350101,-8733.488677,-444.123565
5706.044887,888.247130,-8656.879127,-296.082377
5706.045211,296.082377,-8427.050478,-518.144159
5706.045536,-444.123565,-8580.269578,-962.267725
5706.045860,-592.164754,-8656.879127,-814.226536
5706.046184,-296.082377,-8733.488677,-962.267725
5706.046509,-296.082377,-8503.660028,-814.226536
5706.046833,74.020594,-8197.221829,-888.247130
5706.047157,888.247130,-8656.879127,-740.205942
5706.047482,1184.329507,-8427.050478,-222.061783
5706.047806,1480.411884,-8503.660028,-296.082377
5706.048130,1332.370696,-8580.269578,-444.123565
5706.048455,1258.350101,-8580.269578,0.000000
5706.048779,222.061783,-8580.269578,-222.061783
5706.049103,0.000000,-8733.488677,-518.144159
5706.049428,-444.123565,-8656.879127,-666.185348
5706.049752,0.000000,-8656.879127,-888.247130
5706.050077,-370.102971,-8580.269578,-814.226536
5706.050401,0.000000,-8810.098227,-518.144159
5706.050725,666.185348,-8810.098227,-296.082377
5706.051050,1332.370696,-8810.098227,-148.041188
5706.051374,1184.329507,-8656.879127,0.000000
5706.051698,1628.453072,-8886.707777,0.000000
5706.052023,1184.329507,-8273.831378,0.000000
5706.052347,888.247130,-9422.974625,-518.144159
5706.052671,0.000000,-8886.707777,-370.102971
5706.052996,0.000000,-8580.269578,-666.185348
5706.053320,-444.123565,-8810.098227,-962.267725
5706.053645,-296.082377,-8733.488677,-1036.288319
5706.053969,-222.061783,-8580.269578,-740.205942
5706.054293,518.144159,-8733.488677,-666.185348
5706.054618,1110.308913,-8656.879127,-444.123565
5706.054942,1776.494261,-8580.269578,-444.123565
5706.055266,1776.494261,-8580.269578,0.000000
5706.055591,1258.350101,-8580.269578,0.000000
5706.055915,666.185348,-8963.317327,-444.123565
5706.056239,148.041188,-8580.269578,-592.164754
5706.056564,0.000000,-8886.707777,-740.205942
5706.056888,-370.102971,-8733.488677,-1184.329507
5706.057212,-666.185348,-8656.879127,-962.267725
5706.057537,-148.041188,-8733.488677,-962.267725
5706.057861,148.041188,-8580.269578,-740.205942
5706.058186,1110.308913,-8656.879127,-740.205942
5706.058510,1480.411884,-8503.660028,-370.102971
5706.058834,1554.432478,-8427.050478,0.000000
5706.059159,1036.288319,-8580.269578,0.000000
5706.059483,1110.308913,-9193.145976,0.000000
5706.059807,296.082377,-8503.660028,0.000000
5706.060132,148.041188,-8810.098227,-592.164754
5706.060456,-222.061783,-8733.488677,-814.226536
5706.060780,-444.123565,-8733.488677,-888.247130
5706.061105,-148.041188,-8580.269578,-666.185348
5706.061429,0.000000,-8273.831378,-740.205942
5706.061754,888.247130,-8886.707777,-370.102971
5706.062078,1184.329507,-8273.831378,-370.102971
5706.062402,1554.432478,-8350.440928,0.000000
5706.062727,1258.350101,-8503.660028,-296.082377
5706.063051,1184.329507,-8580.269578,0.000000
5706.063375,518.144159,-8503.660028,-444.123565
5706.063700,222.061783,-8810.098227,-148.041188
5706.064024,-370.102971,-8656.879127,-518.144159
5706.064348,-296.082377,-8580.269578,-740.205942
5706.064673,-296.082377,-8580.269578,-666.185348
5706.064997,0.000000,-8120.612279,-592.164754
5706.065322,666.185348,-8963.317327,-592.164754
5706.065646,962.267725,-8197.221829,-592.164754
5706.065970,1184.329507,-8273.831378,-222.061783
5706.066295,1110.308913,-8580.269578,0.000000
5706.066619,1258.350101,-8886.707777,0.000000
5706.066943,740.205942,-8427.050478,0.000000
5706.067268,444.123565,-8733.488677,0.000000
5706.067592,-222.061783,-8580.269578,-222.061783
5706.067916,-222.061783,-8810.098227,-518.144159
5706.068241,-296.082377,-8427.050478,-370.102971
5706.068565,-148.041188,-8427.050478,-518.144159
5706.068889,222.061783,-7890.783629,-370.102971
5706.069214,666.185348,-8273.831378,0.000000
5706.069538,1036.288319,-8273.831378,0.000000
5706.069863,1406.391290,-8580.269578,222.061783
5706.070187,1258.350101,-8503.660028,74.020594
5706.070511,888.247130,-8656.879127,74.020594
5706.070836,814.226536,-8427.050478,370.102971
5706.071160,0.000000,-8580.269578,74.020594
5706.071484,-296.082377,-8886.707777,0.000000
5706.071809,-592.164754,-8580.269578,-370.102971
5706.072133,-444.123565,-8733.488677,0.000000
5706.072457,0.000000,-8886.707777,-370.102971
5706.072782,370.102971,-8427.050478,-370.102971
5706.073106,888.247130,-8656.879127,-370.102971
5706.073431,962.267725,-8580.269578,222.061783
5706.073755,1184.329507,-8273.831378,148.041188
5706.074079,1110.308913,-8810.098227,0.000000
5706.074404,666.185348,-8810.098227,0.000000
5706.074728,0.000000,-8503.660028,-148.041188
5706.075052,0.000000,-9116.536426,-666.185348
5706.075377,-666.185348,-8656.879127,-814.226536
5706.075701,0.000000,-8733.488677,-962.267725
5706.076025,-222.061783,-8427.050478,-666.185348
5706.076350,222.061783,-8350.440928,-370.102971
5706.076674,1110.308913,-8580.269578,-370.102971
5706.076998,1332.370696,-8580.269578,0.000000
5706.077323,1480.411884,-8580.269578,148.041188
5706.077647,1332.370696,-8580.269578,222.061783
5706.077972,1184.329507,-9116.536426,222.061783
5706.078296,74.020594,-8733.488677,0.000000
5706.078620,0.000000,-8810.098227,0.000000
5706.078945,-740.205942,-8427.050478,-296.082377
5706.079269,-222.061783,-8733.488677,-444.123565
5706.079593,-296.082377,-8427.050478,-666.185348
5706.079918,0.000000,-8427.050478,-296.082377
5706.080242,74.020594,-8427.050478,-222.061783
5706.080566,1110.308913,-8427.050478,0.000000
5706.080891,1628.453072,-8427.050478,0.000000
5706.081215,1480.411884,-8963.317327,0.000000
5706.081540,888.247130,-8656.879127,222.061783
5706.081864,592.164754,-8886.707777,0.000000
5706.082188,296.082377,-8733.488677,0.000000
5706.082513,-592.164754,-8656.879127,-666.185348
5706.082837,-592.164754,-8733.488677,-666.185348
5706.083161,-666.185348,-8197.221829,-592.164754
5706.083486,296.082377,-8733.488677,-296.082377
5706.083810,148.041188,-8427.050478,0.000000
5706.084134,962.267725,-8350.440928,74.020594
5706.084459,1184.329507,-8580.269578,148.041188
5706.084783,1628.453072,-8886.707777,370.102971
5706.085108,962.267725,-8273.831378,592.164754
5706.085432,592.164754,-8963.317327,74.020594
5706.085756,0.000000,-8350.440928,148.041188
5706.086081,-370.102971,-8963.317327,0.000000
5706.086405,-592.164754,-9346.365076,-370.102971
5706.086729,-592.164754,-8197.221829,-370.102971
5706.087054,-370.102971,-8503.660028,-222.061783
5706.087378,74.020594,-8197.221829,-296.082377
5706.087702,962.267725,-8580.269578,148.041188
5706.088027,1184.329507,-8503.660028,148.041188
5706.088351,1406.391290,-8273.831378,148.041188
5706.088675,1258.350101,-8810.098227,148.041188
5706.089000,740.205942,-8580.269578,148.041188
5706.089324,222.061783,-8733.488677,0.000000
5706.089649,0.000000,-8963.317327,-518.144159
5706.089973,-370.102971,-8427.050478,-444.123565
5706.090297,-592.164754,-8273.831378,-740.205942
5706.090622,-444.123565,-9116.536426,-370.102971
5706.090946,-148.041188,-8350.440928,-296.082377
5706.091270,518.144159,-8810.098227,0.000000
5706.091595,962.267725,-8427.050478,0.000000
5706.091919,1258.350101,-8656.879127,444.123565
5706.092243,1258.350101,-8503.660028,370.102971
5706.092568,1036.288319,-9039.926876,370.102971
5706.092892,518.144159,-8733.488677,222.061783
5706.093217,0.000000,-8963.317327,74.020594
5706.093541,-222.061783,-8503.660028,0.000000
5706.093865,-740.205942,-8427.050478,-370.102971
5706.094190,-370.102971,-8810.098227,-222.061783
5706.094514,0.000000,-8580.269578,0.000000
5706.094838,296.082377,-8427.050478,-370.102971
5706.095163,1184.329507,-8503.660028,-148.041188
5706.095487,1480.411884,-8427.050478,222.061783
5706.095811,1406.391290,-8503.660028,370.102971
5706.096136,1258.350101,-8350.440928,222.061783
5706.096460,518.144159,-8580.269578,296.082377
5706.096784,222.061783,-8733.488677,0.000000
5706.097109,0.000000,-8580.269578,-296.082377
5706.097433,-666.185348,-8656.879127,-148.041188
5706.097758,-592.164754,-8733.488677,-296.082377
5706.098082,-370.102971,-8580.269578,-518.144159
5706.098406,148.041188,-8733.488677,-296.082377
5706.098731,740.205942,-8656.879127,-222.061783
5706.099055,1628.453072,-8886.707777,0.000000
5706.099379,1184.329507,-8580.269578,296.082377
5706.099704,1332.370696,-8580.269578,-222.061783
5706.100028,666.185348,-8963.317327,0.000000
5706.100352,148.041188,-8810.098227,0.000000
5706.100677,0.000000,-8197.221829,0.000000
5706.101001,-518.144159,-8810.098227,-370.102971
5706.101326,-148.041188,-8427.050478,-370.102971
5706.101650,-296.082377,-8656.879127,-888.247130
5706.101974,74.020594,-8886.707777,-222.061783
5706.102299,222.061783,-8503.660028,-518.144159
5706.102623,1110.308913,-8733.488677,0.000000
5706.102947,1184.329507,-8580.269578,0.000000
5706.103272,1406.391290,-9499.584175,-296.082377
5706.103596,888.247130,-8810.098227,0.000000
5706.103920,148.041188,-8656.879127,74.020594
5706.104245,370.102971,-8810.098227,-370.102971
5706.104569,-222.061783,-9039.926876,-518.144159
5706.104894,0.000000,-8656.879127,-666.185348
5706.105218,-296.082377,-8810.098227,-592.164754
5706.105542,-370.102971,-8656.879127,-444.123565
5706.105867,518.144159,-8580.269578,-296.082377
5706.106191,592.164754,-8810.098227,666.185348
5706.106515,1332.370696,-8350.440928,-296.082377
5706.106840,1628.453072,-8273.831378,0.000000
5706.107164,1332.370696,-8580.269578,74.020594
5706.107488,888.247130,-9269.755526,148.041188
5706.107813,74.020594,-9116.536426,-370.102971
5706.108137,-222.061783,-8810.098227,-444.123565
5706.108461,-148.041188,-8810.098227,-814.226536
5706.108786,-370.102971,-8580.269578,-888.247130
5706.109110,0.000000,-8427.050478,-740.205942
5706.109435,296.082377,-8503.660028,-518.144159
5706.109759,962.267725,-8580.269578,-370.102971
5706.110083,1184.329507,-8656.879127,-222.061783
5706.110408,1628.453072,-9346.365076,-148.041188
5706.110732,1628.453072,-8350.440928,0.000000
5706.111056,962.267725,-8810.098227,0.000000
5706.111381,370.102971,-8580.269578,-148.041188
5706.111705,296.082377,-9499.584175,-148.041188
5706.112029,0.000000,-9116.536426,-814.226536
5706.112354,-222.061783,-8656.879127,-666.185348
5706.112678,-148.041188,-8886.707777,-370.102971
5706.113003,222.061783,-8733.488677,-518.144159
5706.113327,666.185348,-8810.098227,-148.041188
5706.113651,888.247130,-8503.660028,0.000000
5706.113976,1332.370696,-8273.831378,-222.061783
5706.114300,1406.391290,-8580.269578,74.020594
5706.114624,1258.350101,-9116.536426,370.102971
5706.114949,888.247130,-8656.879127,0.000000
5706.115273,74.020594,-8656.879127,0.000000
5706.115597,-148.041188,-8656.879127,-740.205942
5706.115922,-370.102971,-9039.926876,-740.205942
5706.116246,-296.082377,-8810.098227,-666.185348
5706.116570,74.020594,-8656.879127,-740.205942
5706.116895,370.102971,-8580.269578,-592.164754
5706.117219,1036.288319,-8350.440928,-518.144159
5706.117544,1554.432478,-9116.536426,0.000000
5706.117868,1554.432478,-8273.831378,-370.102971
5706.118192,1184.329507,-8580.269578,-148.041188
5706.118517,962.267725,-8733.488677,-148.041188
5706.118841,370.102971,-8656.879127,370.102971
5706.119165,0.000000,-8580.269578,-444.123565
5706.119490,-296.082377,-8733.488677,-444.123565
5706.119814,-370.102971,-8580.269578,-518.144159
5706.120138,0.000000,-8503.660028,-666.185348
5706.120463,370.102971,-8580.269578,-740.205942
5706.120787,666.185348,-8733.488677,-296.082377
5706.121112,962.267725,-8197.221829,0.000000
5706.121436,1258.350101,-8733.488677,222.061783
5706.121760,1628.453072,-8044.002729,0.000000
5706.122085,814.226536,-8733.488677,0.000000
5706.122409,518.144159,-8886.707777,-370.102971
5706.122733,0.000000,-8810.098227,-296.082377
5706.123058,-222.061783,-8427.050478,-666.185348
5706.123382,-444.123565,-8656.879127,-666.185348
5706.123706,-444.123565,-8273.831378,-740.205942
5706.124031,296.082377,-8503.660028,-888.247130
5706.124355,888.247130,-8656.879127,-518.144159
5706.124680,1184.329507,-8273.831378,-296.082377
5706.125004,1184.329507,-8427.050478,74.020594
5706.125328,1036.288319,-8503.660028,-148.041188
5706.125653,740.205942,-8580.269578,0.000000
5706.125977,888.247130,-8580.269578,-222.061783
5706.126301,0.000000,-8580.269578,-444.123565
5706.126626,-370.102971,-8580.269578,-518.144159
5706.126950,-518.144159,-8580.269578,-962.267725
5706.127275,0.000000,-8427.050478,-962.267725
5706.127599,0.000000,-8503.660028,-592.164754
5706.127923,666.185348,-8810.098227,-740.205942
5706.128248,1036.288319,-8197.221829,-444.123565
5706.128572,1258.350101,-8427.050478,-296.082377
5706.128897,1628.453072,-8503.660028,-518.144159
5706.129221,1258.350101,-8580.269578,-296.082377
5706.129546,814.226536,-8580.269578,-814.226536
5706.129870,444.123565,-8733.488677,-370.102971
5706.130194,74.020594,-8120.612279,-518.144159
5706.130519,-370.102971,-8810.098227,-888.247130
5706.130843,-518.144159,-8580.269578,-1258.350101
5706.131168,0.000000,-8810.098227,-1184.329507
5706.131492,370.102971,-8197.221829,-740.205942
5706.131816,814.226536,-8733.488677,-222.061783
5706.132141,1110.308913,-8656.879127,0.000000
5706.132465,1406.391290,-8580.269578,-296.082377
5706.132790,1184.329507,-8503.660028,0.000000
5706.133114,888.247130,-8120.612279,148.041188
5706.133439,296.082377,-8733.488677,-74.020594
5706.133763,0.000000,-8503.660028,-370.102971
5706.134087,-296.082377,-8350.440928,-814.226536
5706.134412,-296.082377,-8886.707777,-518.144159
5706.134736,-222.061783,-8810.098227,-814.226536
5706.135061,296.082377,-8197.221829,-370.102971
5706.135385,518.144159,-8503.660028,-518.144159
5706.135709,1110.308913,-8350.440928,-518.144159
5706.136034,1554.432478,-8503.660028,0.000000
5706.136358,1406.391290,-8733.488677,-444.123565
5706.136683,1110.308913,-8580.269578,-148.041188
5706.137007,222.061783,-8273.831378,-296.082377
5706.137332,74.020594,-8886.707777,0.000000
5706.137656,0.000000,-8656.879127,-740.205942
5706.137980,-296.082377,-8503.660028,-888.247130
5706.138305,-444.123565,-8810.098227,-740.205942
5706.138629,0.000000,-8580.269578,-370.102971
5706.138954,222.061783,-8656.879127,-666.185348
5706.139278,962.267725,-8273.831378,-370.102971
5706.139603,1258.350101,-8503.660028,-296.082377
5706.139927,1406.391290,-8656.879127,-370.102971
5706.140251,888.247130,-8044.002729,148.041188
5706.140576,666.185348,-8580.269578,-148.041188
5706.140900,0.000000,-8580.269578,0.000000
5706.141225,-148.041188,-8273.831378,-740.205942
5706.141549,0.000000,-9422.974625,-740.205942
5706.141873,-592.164754,-8580.269578,-592.164754
5706.142198,-370.102971,-8733.488677,-740.205942
5706.142522,74.020594,-8427.050478,-666.185348
5706.142847,444.123565,-8350.440928,0.000000
5706.143171,1184.329507,-8656.879127,-74.020594
5706.143496,1406.391290,-8503.660028,-444.123565
5706.143820,1184.329507,-8580.269578,0.000000
5706.144144,888.247130,-8350.440928,-296.082377
5706.144469,296.082377,-8886.707777,-444.123565
5706.144793,-148.041188,-8656.879127,-592.164754
5706.145118,-370.102971,-8733.488677,-888.247130
5706.145442,-444.123565,-8350.440928,-888.247130
5706.145766,74.020594,-8886.707777,-740.205942
5706.146091,222.061783,-8503.660028,-444.123565
5706.146415,962.267725,-8427.050478,-592.164754
5706.146740,1480.411884,-8733.488677,-370.102971
5706.147064,1554.432478,-8580.269578,-222.061783
5706.147389,1406.391290,-8656.879127,0.000000
5706.147713,888.247130,-8580.269578,0.000000
5706.148037,814.226536,-8656.879127,-518.144159
5706.148362,148.041188,-8810.098227,-666.185348
5706.148686,222.061783,-9039.926876,-444.123565
5706.149011,-518.144159,-8656.879127,-814.226536
5706.149335,-370.102971,-8963.317327,-740.205942
5706.149660,0.000000,-8427.050478,-666.185348
5706.149984,1184.329507,-8427.050478,-444.123565
5706.150308,962.267725,-8656.879127,-296.082377
5706.150633,1332.370696,-8427.050478,222.061783
5706.150957,1406.391290,-8580.269578,0.000000
5706.151282,1480.411884,-8273.831378,0.000000
5706.151606,888.247130,-8580.269578,-296.082377
5706.151930,0.000000,-8503.660028,-592.164754
5706.152255,-222.061783,-8580.269578,-370.102971
5706.152579,-666.185348,-8197.221829,-740.205942
5706.152904,-592.164754,-8350.440928,-962.267725
5706.153228,-444.123565,-8580.269578,-962.267725
5706.153553,296.082377,-8656.879127,-666.185348
5706.153877,740.205942,-8656.879127,-666.185348
5706.154201,1258.350101,-8580.269578,0.000000
5706.154526,1406.391290,-8503.660028,-222.061783
5706.154850,1184.329507,-8733.488677,-222.061783
5706.155175,666.185348,-8503.660028,-444.123565
5706.155499,148.041188,-8810.098227,-518.144159
5706.155823,0.000000,-8503.660028,-444.123565
5706.156148,-666.185348,-8350.440928,-814.226536
5706.156472,-296.082377,-8963.317327,-962.267725
5706.156797,74.020594,-8656.879127,-1110.308913
5706.157121,370.102971,-8963.317327,-592.164754
5706.157446,518.144159,-8810.098227,-666.185348
5706.157770,888.247130,-8503.660028,0.000000
5706.158094,1406.391290,-8580.269578,0.000000
5706.158419,1258.350101,-8733.488677,-148.041188
5706.158743,1036.288319,-8733.488677,0.000000
5706.159068,444.123565,-8580.269578,-222.061783
5706.159392,0.000000,-8580.269578,-444.123565
5706.159717,-370.102971,-8503.660028,-370.102971
5706.160041,-296.082377,-8733.488677,-592.164754
5706.160365,-222.061783,-8503.660028,-740.205942
5706.160690,74.020594,-8886.707777,-666.185348
5706.161014,592.164754,-8886.707777,-592.164754
5706.161339,1332.370696,-7890.783629,148.041188
5706.161663,1258.350101,-8656.879127,74.020594
5706.161987,1258.350101,-8427.050478,0.000000
5706.162312,1110.308913,-8580.269578,74.020594
5706.162636,740.205942,-8503.660028,-148.041188
5706.162961,666.185348,-8350.440928,-296.082377
5706.163285,74.020594,-8580.269578,-518.144159
5706.163610,-74.020594,-8580.269578,-444.123565
5706.163934,74.020594,-8350.440928,-814.226536
5706.164258,-148.041188,-8886.707777,-518.144159
5706.164583,296.082377,-8120.612279,-592.164754
5706.164907,888.247130,-8350.440928,-74.020594
5706.165232,1110.308913,-8197.221829,-370.102971
5706.165556,1554.432478,-8656.879127,-222.061783
5706.165880,1110.308913,-8963.317327,-370.102971
5706.166205,740.205942,-8580.269578,-370.102971
5706.166529,444.123565,-8810.098227,-148.041188
5706.166854,0.000000,-9116.536426,-888.247130
5706.167178,0.000000,-8886.707777,-740.205942
5706.167503,-444.123565,-8886.707777,-888.247130
5706.167827,-148.041188,-8886.707777,-518.144159
5706.168151,222.061783,-8503.660028,-592.164754
5706.168476,814.226536,-9039.926876,0.000000
5706.168800,962.267725,-8580.269578,-518.144159
5706.169125,1480.411884,-8810.098227,-148.041188
5706.169449,1554.432478,-8580.269578,-296.082377
5706.169774,1406.391290,-8044.002729,0.000000
5706.170098,296.082377,-8427.050478,-592.164754
5706.170422,0.000000,-9116.536426,-518.144159
5706.170747,0.000000,-8503.660028,-888.247130
5706.171071,-518.144159,-9269.755526,-1258.350101
5706.171396,-148.041188,-8656.879127,-814.226536
5706.171720,0.000000,-8427.050478,-888.247130
5706.172044,296.082377,-8733.488677,-814.226536
5706.172369,666.185348,-8503.660028,-740.205942
5706.172693,1036.288319,-8886.707777,-740.205942
5706.173018,1406.391290,-8427.050478,-518.144159
5706.173342,1110.308913,-8580.269578,0.000000
5706.173667,740.205942,-9039.926876,-370.102971
5706.173991,518.144159,-8733.488677,-370.102971
5706.174315,222.061783,-8810.098227,-814.226536
5706.174640,-592.164754,-8810.098227,-888.247130
5706.174964,-370.102971,-8733.488677,-666.185348
5706.175289,-444.123565,-8580.269578,-962.267725
5706.175613,222.061783,-8427.050478,-518.144159
5706.175937,814.226536,-8427.050478,-296.082377
5706.176262,1258.350101,-8656.879127,-444.123565
5706.176586,1184.329507,-7890.783629,-222.061783
5706.176911,1480.411884,-8580.269578,-222.061783
5706.177235,814.226536,-8733.488677,-222.061783
5706.177560,370.102971,-8580.269578,0.000000
5706.177884,-148.041188,-8580.269578,-370.102971
5706.178208,-222.061783,-8810.098227,-370.102971
5706.178533,-296.082377,-8427.050478,-518.144159
5706.178857,-296.082377,-8427.050478,-740.205942
5706.179182,296.082377,-8350.440928,-296.082377
5706.179506,814.226536,-8427.050478,-370.102971
5706.179831,1332.370696,-8580.269578,148.041188
5706.180155,1332.370696,-7967.393179,222.061783
5706.180479,1258.350101,-8580.269578,370.102971
5706.180804,1110.308913,-8273.831378,518.144159
5706.181128,666.185348,-9269.755526,0.000000
5706.181453,148.041188,-8427.050478,0.000000
5706.181777,-518.144159,-8503.660028,0.000000
5706.182101,-740.205942,-8503.660028,-222.061783
5706.182426,-518.144159,-8273.831378,-222.061783
5706.182750,0.000000,-8350.440928,-222.061783
5706.183075,222.061783,-8656.879127,-370.102971
5706.183399,1110.308913,-8350.440928,-148.041188
5706.183724,1110.308913,-8197.221829,148.041188
5706.184048,1184.329507,-9039.926876,74.020594
5706.184372,1258.350101,-8580.269578,0.000000
5706.184697,962.267725,-8580.269578,222.061783
5706.185021,222.061783,-8886.707777,-222.061783
5706.185346,0.000000,-9576.193725,0.000000
5706.185670,-370.102971,-8503.660028,-592.164754
5706.185994,-518.144159,-8503.660028,-296.082377
5706.186319,0.000000,-8580.269578,-740.205942
5706.186643,148.041188,-8810.098227,-296.082377
5706.186968,1110.308913,-8580.269578,0.000000
5706.187292,888.247130,-8580.269578,0.000000
5706.187617,1480.411884,-8733.488677,444.123565
5706.187941,1480.411884,-8733.488677,74.020594
5706.188265,1110.308913,-9422.974625,296.082377
5706.188590,296.082377,-9116.536426,-148.041188
5706.188914,0.000000,-8963.317327,-222.061783
5706.189239,-444.123565,-8963.317327,-518.144159
5706.189563,-592.164754,-9269.755526,-222.061783
5706.189888,-222.061783,-8963.317327,-888.247130
5706.190212,74.020594,-8580.269578,-444.123565
5706.190536,814.226536,-8580.269578,0.000000
5706.190861,1036.288319,-8350.440928,-222.061783
5706.191185,1480.411884,-8886.707777,74.020594
5706.191510,1480.411884,-8733.488677,0.000000
5706.191834,1332.370696,-8656.879127,0.000000
5706.192158,740.205942,-8580.269578,-444.123565
5706.192483,-222.061783,-9269.755526,0.000000
5706.192807,-370.102971,-8273.831378,-592.164754
5706.193132,-296.082377,-8733.488677,-740.205942
5706.193456,-74.020594,-8580.269578,-740.205942
5706.193781,0.000000,-9193.145976,-518.144159
5706.194105,74.020594,-8580.269578,-592.164754
5706.194429,888.247130,-8580.269578,-148.041188
5706.194754,1332.370696,-8810.098227,-444.123565
5706.195078,1406.391290,-8656.879127,0.000000
5706.195403,1036.288319,-8580.269578,0.000000
5706.195727,518.144159,-8886.707777,296.082377
5706.196051,74.020594,-8656.879127,-148.041188
5706.196376,-444.123565,-8963.317327,-296.082377
5706.196700,-148.041188,-8810.098227,0.000000
5706.197025,-444.123565,-8963.317327,-296.082377
5706.197349,0.000000,-8350.440928,-74.020594
5706.197674,0.000000,-8197.221829,0.000000
5706.197998,592.164754,-8810.098227,0.000000
5706.198322,888.247130,-8273.831378,222.061783
5706.198647,1184.329507,-8656.879127,296.082377
5706.198971,1110.308913,-8656.879127,370.102971
5706.199296,666.185348,-8503.660028,222.061783
5706.199620,666.185348,-8580.269578,74.020594
5706.199945,0.000000,-8580.269578,0.000000
5706.200269,-222.061783,-8656.879127,-296.082377
5706.200593,-444.123565,-8810.098227,-666.185348
5706.200918,-148.041188,-8733.488677,74.020594
5706.201242,0.000000,-8197.221829,-370.102971
5706.201567,592.164754,-8427.050478,-444.123565
5706.201891,888.247130,-8273.831378,0.000000
5706.202215,1258.350101,-8427.050478,0.000000
5706.202540,962.267725,-8503.660028,0.000000
5706.202864,888.247130,-8810.098227,296.082377
5706.203189,444.123565,-8580.269578,74.020594
5706.203513,0.000000,-8427.050478,-148.041188
5706.203838,-370.102971,-8656.879127,74.020594
5706.204162,-222.061783,-8350.440928,-518.144159
5706.204486,0.000000,-8427.050478,-222.061783
5706.204811,74.020594,-8503.660028,-444.123565
5706.205135,592.164754,-8810.098227,74.020594
5706.205460,962.267725,-8273.831378,-296.082377
5706.205784,1184.329507,-8580.269578,0.000000
5706.206108,1110.308913,-8273.831378,-222.061783
5706.206433,1036.288319,-9039.926876,148.041188
5706.206757,444.123565,-8427.050478,0.000000
5706.207082,370.102971,-8733.488677,0.000000
5706.207406,-148.041188,-8886.707777,-518.144159
5706.207731,-296.082377,-8733.488677,-592.164754
5706.208055,0.000000,-8810.098227,-740.205942
5706.208379,0.000000,-8503.660028,-666.185348
5706.208704,444.123565,-8273.831378,-592.164754
5706.209028,1036.288319,-8656.879127,-592.164754
5706.209353,1036.288319,-8656.879127,-222.061783
5706.209677,888.247130,-8580.269578,0.000000
5706.210002,1258.350101,-8733.488677,-222.061783
5706.210326,814.226536,-8810.098227,0.000000
5706.210650,518.144159,-8886.707777,-296.082377
5706.210975,444.123565,-8963.317327,-444.123565
5706.211299,-74.020594,-8427.050478,-444.123565
5706.211624,-370.102971,-8580.269578,-740.205942
5706.211948,-296.082377,-8503.660028,-740.205942
5706.212272,666.185348,-7890.783629,-592.164754
5706.212597,592.164754,-8810.098227,-518.144159
5706.212921,1184.329507,-8503.660028,-148.041188
5706.213246,1184.329507,-8886.707777,-148.041188
5706.213570,1258.350101,-8733.488677,74.020594
5706.213895,888.247130,-8656.879127,148.041188
5706.214219,518.144159,-9039.926876,0.000000
5706.214543,222.061783,-8810.098227,0.000000
5706.214868,0.000000,-8810.098227,0.000000
5706.215192,-296.082377,-8503.660028,-222.061783
5706.215517,-222.061783,-8350.440928,-444.123565
5706.215841,74.020594,-8580.269578,-296.082377
5706.216165,444.123565,-8427.050478,-592.164754
5706.216490,740.205942,-8503.660028,296.082377
5706.216814,1036.288319,-8580.269578,0.000000
5706.217139,1184.329507,-8503.660028,296.082377
5706.217463,1184.329507,-8427.050478,0.000000
5706.217788,740.205942,-8886.707777,0.000000
5706.218112,296.082377,-8427.050478,-148.041188
5706.218436,-148.041188,-8733.488677,-444.123565
5706.218761,-666.185348,-8427.050478,-518.144159
5706.219085,-370.102971,-8427.050478,-148.041188
5706.219410,148.041188,-8197.221829,-518.144159
5706.219734,296.082377,-8350.440928,-444.123565
5706.220059,666.185348,-8044.002729,-74.020594
5706.220383,888.247130,-8733.488677,0.000000
5706.220707,1332.370696,-7660.954980,370.102971
5706.221032,1110.308913,-8810.098227,0.000000
5706.221356,814.226536,-8656.879127,0.000000
5706.221681,370.102971,-8733.488677,74.020594
5706.222005,-296.082377,-8810.098227,0.000000
5706.222329,-444.123565,-8580.269578,-370.102971
5706.222654,-222.061783,-8580.269578,-592.164754
5706.222978,-370.102971,-8733.488677,-592.164754
5706.223303,222.061783,-8350.440928,-370.102971
5706.223627,592.164754,-8197.221829,0.000000
5706.223952,1110.308913,-8580.269578,0.000000
5706.224276,1184.329507,-8656.879127,-148.041188
5706.224600,1406.391290,-9039.926876,-370.102971
5706.224925,1184.329507,-9039.926876,148.041188
5706.225249,444.123565,-8733.488677,0.000000
5706.225574,0.000000,-8963.317327,-222.061783
5706.225898,-222.061783,-8733.488677,-814.226536
5706.226222,-296.082377,-8810.098227,-888.247130
5706.226547,-296.082377,-8197.221829,-740.205942
5706.226871,296.082377,-8350.440928,-888.247130
5706.227196,592.164754,-8350.440928,-888.247130
5706.227520,1184.329507,-8580.269578,-370.102971
5706.227845,1332.370696,-8120.612279,-444.123565
5706.228169,1406.391290,-8656.879127,-444.123565
5706.228494,1184.329507,-8580.269578,-296.082377
5706.228818,962.267725,-8733.488677,-444.123565
5706.229143,296.082377,-9116.536426,-666.185348
5706.229467,0.000000,-8503.660028,-592.164754
5706.229792,0.000000,-8656.879127,-814.226536
5706.230116,-222.061783,-8503.660028,-888.247130
5706.230441,-222.061783,-8580.269578,-666.185348
5706.230765,518.144159,-8427.050478,-444.123565
5706.231090,888.247130,-8197.221829,-518.144159
5706.231414,1110.308913,-8580.269578,-296.082377
5706.231739,1480.411884,-8503.660028,-222.061783
5706.232063,1258.350101,-8886.707777,370.102971
5706.232387,592.164754,-8886.707777,74.020594
5706.232712,148.041188,-8886.707777,-296.082377
5706.233036,0.000000,-8886.707777,-148.041188
5706.233361,0.000000,-8656.879127,-666.185348
5706.233685,-518.144159,-8580.269578,-444.123565
5706.234010,-444.123565,-8120.612279,-592.164754
5706.234334,0.000000,-8427.050478,-296.082377
5706.234659,592.164754,-8350.440928,-370.102971
5706.234983,1110.308913,-8656.879127,74.020594
5706.235308,1702.473667,-8427.050478,0.000000
5706.235632,1258.350101,-8197.221829,0.000000
5706.235957,814.226536,-8656.879127,0.000000
5706.236281,814.226536,-8810.098227,0.000000
5706.236606,0.000000,-8733.488677,-370.102971
5706.236930,-518.144159,-8733.488677,-592.164754
5706.237255,-592.164754,-8810.098227,-592.164754
5706.237579,-222.061783,-8350.440928,-740.205942
5706.237904,-148.041188,-8427.050478,-444.123565
5706.238228,444.123565,-8273.831378,-592.164754
5706.238553,1110.308913,-8656.879127,-296.082377
5706.238877,1184.329507,-8733.488677,0.000000
5706.239202,1036.288319,-8273.831378,0.000000
5706.239526,962.267725,-8733.488677,0.000000
5706.239851,444.123565,-8963.317327,-74.020594
5706.240175,518.144159,-8656.879127,-444.123565
5706.240499,-296.082377,-8733.488677,-740.205942
5706.240824,-592.164754,-8580.269578,-814.226536
5706.241148,-370.102971,-8503.660028,-592.164754
5706.241473,-148.041188,-8580.269578,-814.226536
5706.241797,592.164754,-8580.269578,-814.226536
5706.242122,740.205942,-8733.488677,-666.185348
5706.242446,1628.453072,-8503.660028,0.000000
5706.242771,1110.308913,-8427.050478,-222.061783
5706.243095,1332.370696,-9193.145976,0.000000
5706.243420,962.267725,-8886.707777,-296.082377
5706.243744,444.123565,-9346.365076,-518.144159
5706.244069,-370.102971,-8580.269578,-666.185348
5706.244393,-148.041188,-8810.098227,-592.164754
5706.244718,-518.144159,-8810.098227,-1110.308913
5706.245042,-370.102971,-8580.269578,-518.144159
5706.245367,0.000000,-8656.879127,-1110.308913
5706.245691,666.185348,-8427.050478,-592.164754
5706.246016,1036.288319,-8197.221829,-296.082377
5706.246340,1110.308913,-8273.831378,0.000000
5706.246665,1184.329507,-8427.050478,-222.061783
5706.246989,1036.288319,-8810.098227,-592.164754
5706.247314,666.185348,-8810.098227,-518.144159
5706.247638,-222.061783,-8580.269578,-962.267725
5706.247963,-296.082377,-8733.488677,-814.226536
5706.248287,-666.185348,-8580.269578,-1110.308913
5706.248611,-74.020594,-8733.488677,-888.247130
5706.248936,74.020594,-8427.050478,-1036.288319
5706.249260,518.144159,-8350.440928,-592.164754
5706.249585,592.164754,-8273.831378,-740.205942
5706.249909,1258.350101,-8886.707777,-74.020594
5706.250234,1480.411884,-8350.440928,-370.102971
5706.250558,1628.453072,-8810.098227,0.000000
5706.250883,1036.288319,-8580.269578,-222.061783
5706.251207,370.102971,-8886.707777,0.000000
5706.251532,0.000000,-8810.098227,-592.164754
5706.251856,-370.102971,-9269.755526,-592.164754
5706.252181,0.000000,-8810.098227,-888.247130
5706.252505,-296.082377,-8963.317327,-814.226536
5706.252830,0.000000,-8273.831378,-444.123565
5706.253154,666.185348,-8503.660028,-666.185348
5706.253479,1036.288319,-8503.660028,0.000000
5706.253803,1406.391290,-8427.050478,0.000000
5706.254128,1332.370696,-8350.440928,0.000000
5706.254452,888.247130,-8656.879127,-222.061783
5706.254777,222.061783,-8810.098227,296.082377
5706.255101,0.000000,-8886.707777,-518.144159
5706.255426,-370.102971,-8580.269578,-740.205942
5706.255750,-222.061783,-8580.269578,-962.267725
5706.256074,-222.061783,-9039.926876,-444.123565
5706.256399,296.082377,-8350.440928,-666.185348
5706.256723,370.102971,-8427.050478,-370.102971
5706.257048,1406.391290,-8656.879127,-222.061783
5706.257372,1554.432478,-8503.660028,0.000000
5706.257697,1332.370696,-8427.050478,0.000000
5706.258021,814.226536,-8503.660028,148.041188
5706.258346,518.144159,-8580.269578,0.000000
5706.258670,0.000000,-8656.879127,-370.102971
5706.258995,-444.123565,-8503.660028,0.000000
5706.259319,-666.185348,-8733.488677,-1036.288319
5706.259644,-444.123565,-8656.879127,-740.205942
5706.259968,-222.061783,-8503.660028,-666.185348
5706.260293,444.123565,-8580.269578,-888.247130
5706.260617,1036.288319,-8350.440928,-592.164754
5706.260942,1406.391290,-8580.269578,-518.144159
5706.261266,1628.453072,-8886.707777,-370.102971
5706.261591,1184.329507,-8197.221829,-444.123565
5706.261915,666.185348,-8656.879127,-370.102971
5706.262240,148.041188,-8503.660028,-592.164754
5706.262564,0.000000,-8733.488677,-888.247130
5706.262889,-518.144159,-8580.269578,-1110.308913
5706.263213,74.020594,-8580.269578,-814.226536
5706.263538,0.000000,-8580.269578,-666.185348
5706.263862,222.061783,-8886.707777,-814.226536
5706.264186,1036.288319,-8427.050478,-518.144159
5706.264511,1332.370696,-9193.145976,-518.144159
5706.264835,1480.411884,-8580.269578,-296.082377
5706.265160,1184.329507,-8427.050478,0.000000
5706.265484,814.226536,-8886.707777,-370.102971
5706.265809,148.041188,-8350.440928,-296.082377
5706.266133,74.020594,-9039.926876,-740.205942
5706.266458,-444.123565,-8656.879127,-666.185348
5706.266782,-518.144159,-8656.879127,-518.144159
5706.267107,-518.144159,-8963.317327,-740.205942
5706.267431,222.061783,-9039.926876,-740.205942
5706.267756,740.205942,-8580.269578,-370.102971
5706.268080,1406.391290,-8656.879127,-296.082377
5706.268405,1406.391290,-8580.269578,-222.061783
5706.268729,1406.391290,-8503.660028,74.020594
5706.269054,1332.370696,-8656.879127,74.020594
5706.269378,666.185348,-8427.050478,-222.061783
5706.269703,-148.041188,-8886.707777,-148.041188
5706.270027,0.000000,-8350.440928,-518.144159
5706.270352,-370.102971,-8656.879127,-444.123565
5706.270676,-518.144159,-8580.269578,-740.205942
5706.271001,0.000000,-8427.050478,-592.164754
5706.271325,592.164754,-8427.050478,-518.144159
5706.271650,888.247130,-9039.926876,-296.082377
5706.271974,1332.370696,-8503.660028,-370.102971
5706.272298,1332.370696,-8503.660028,-296.082377
5706.272623,1036.288319,-8733.488677,-148.041188
5706.272947,592.164754,-8656.879127,-296.082377
5706.273272,0.000000,-8733.488677,-222.061783
5706.273596,0.000000,-8580.269578,-518.144159
5706.273921,-222.061783,-8733.488677,-740.205942
5706.274245,-370.102971,-8810.098227,-666.185348
5706.274570,370.102971,-8580.269578,-740.205942
5706.274894,518.144159,-8427.050478,-592.164754
5706.275219,888.247130,-8503.660028,-518.144159
5706.275543,1406.391290,-8273.831378,-222.061783
5706.275868,1332.370696,-8656.879127,148.041188
5706.276192,1258.350101,-8656.879127,0.000000
5706.276517,1036.288319,-8733.488677,-148.041188
5706.276841,592.164754,-8503.660028,-370.102971
5706.277166,-148.041188,-8580.269578,-296.082377
5706.277490,-296.082377,-8810.098227,-370.102971
5706.277815,-370.102971,-8656.879127,-814.226536
5706.278139,-148.041188,-8580.269578,-740.205942
5706.278464,74.020594,-8273.831378,-814.226536
5706.278788,1110.308913,-8503.660028,-370.102971
5706.279113,1184.329507,-8350.440928,0.000000
5706.279437,1406.391290,-8733.488677,148.041188
5706.279761,1406.391290,-8656.879127,0.000000
5706.280086,1258.350101,-8810.098227,592.164754
5706.280410,592.164754,-8810.098227,0.000000
5706.280735,74.020594,-8580.269578,-148.041188
5706.281059,0.000000,-8733.488677,-296.082377
5706.281384,-518.144159,-8656.879127,-518.144159
5706.281708,-518.144159,-8273.831378,-518.144159
5706.282033,0.000000,-8580.269578,-888.247130
5706.282357,666.185348,-8273.831378,-444.123565
5706.282682,740.205942,-8580.269578,-444.123565
5706.283006,1702.473667,-7967.393179,0.000000
5706.283331,1406.391290,-8503.660028,0.000000
5706.283655,1184.329507,-8656.879127,-296.082377
5706.283980,666.185348,-8656.879127,0.000000
5706.284304,0.000000,-8733.488677,-148.041188
5706.284629,222.061783,-8963.317327,-222.061783
5706.284953,-518.144159,-8503.660028,-518.144159
5706.285278,-296.082377,-8733.488677,-666.185348
5706.285602,-370.102971,-8273.831378,-666.185348
5706.285927,296.082377,-8273.831378,0.000000
5706.286251,740.205942,-8350.440928,0.000000
5706.286576,1184.329507,-8350.440928,-222.061783
5706.286900,1480.411884,-8427.050478,148.041188
5706.287225,1406.391290,-8733.488677,296.082377
5706.287549,888.247130,-8580.269578,74.020594
5706.287873,148.041188,-8580.269578,148.041188
5706.288198,-222.061783,-8733.488677,0.000000
5706.288522,-518.144159,-8503.660028,-444.123565
5706.288847,-444.123565,-8427.050478,-296.082377
5706.289171,-296.082377,-8350.440928,-296.082377
5706.289496,0.000000,-8580.269578,-370.102971
5706.289820,444.123565,-8273.831378,-222.061783
5706.290145,888.247130,-8503.660028,296.082377
5706.290469,1406.391290,-8810.098227,0.000000
5706.290794,1110.308913,-8350.440928,296.082377
5706.291118,1332.370696,-8503.660028,296.082377
5706.291443,666.185348,-8810.098227,148.041188
5706.291767,148.041188,-9039.926876,0.000000
5706.292092,-592.164754,-8733.488677,0.000000
5706.292416,-592.164754,-8810.098227,-296.082377
5706.292741,-740.205942,-8427.050478,-222.061783
5706.293065,0.000000,-8197.221829,-370.102971
5706.293390,0.000000,-8197.221829,-148.041188
5706.293714,666.185348,-8580.269578,0.000000
5706.294039,1110.308913,-8503.660028,0.000000
5706.294363,1554.432478,-8350.440928,-296.082377
5706.294688,1110.308913,-8503.660028,74.020594
5706.295012,518.144159,-8886.707777,0.000000
5706.295337,296.082377,-8810.098227,-222.061783
5706.295661,0.000000,-8350.440928,-444.123565
5706.295985,-148.041188,-8733.488677,-740.205942
5706.296310,-592.164754,-8580.269578,-814.226536
5706.296634,-222.061783,-8733.488677,-740.205942
5706.296959,0.000000,-8350.440928,-592.164754
5706.297283,740.205942,-8580.269578,-296.082377
5706.297608,1406.391290,-8580.269578,-444.123565
5706.297932,1702.473667,-8273.831378,0.000000
5706.298257,1332.370696,-8656.879127,0.000000
5706.298581,888.247130,-8197.221829,-296.082377
5706.298906,222.061783,-8580.269578,-296.082377
5706.299230,0.000000,-8886.707777,-370.102971
5706.299555,-444.123565,-8886.707777,-296.082377
5706.299879,-370.102971,-8886.707777,-592.164754
5706.300204,-444.123565,-8197.221829,-444.123565
5706.300528,0.000000,-8273.831378,-740.205942
5706.300853,444.123565,-8580.269578,-518.144159
5706.301177,1184.329507,-8656.879127,0.000000
5706.301502,1628.453072,-8120.612279,0.000000
5706.301826,1406.391290,-8810.098227,0.000000
5706.302151,1258.350101,-8656.879127,0.000000
5706.302475,740.205942,-8810.098227,-148.041188
5706.302800,222.061783,-9116.536426,-592.164754
5706.303124,-370.102971,-8963.317327,-296.082377
5706.303449,-444.123565,-8963.317327,-518.144159
5706.303773,-296.082377,-8427.050478,-370.102971
5706.304097,222.061783,-8580.269578,-740.205942
5706.304422,666.185348,-8427.050478,-962.267725
5706.304746,962.267725,-8503.660028,-296.082377
5706.305071,1332.370696,-8273.831378,-148.041188
5706.305395,1480.411884,-8503.660028,0.000000
5706.305720,1332.370696,-9116.536426,-296.082377
5706.306044,962.267725,-8963.317327,0.000000
5706.306369,148.041188,-8963.317327,222.061783
5706.306693,0.000000,-8886.707777,0.000000
5706.307018,-444.123565,-9039.926876,0.000000
5706.307342,-370.102971,-8580.269578,-370.102971
5706.307667,-148.041188,-8503.660028,-666.185348
5706.307991,148.041188,-8503.660028,-592.164754
5706.308316,592.164754,-7890.783629,-222.061783
5706.308640,1036.288319,-8503.660028,0.000000
5706.308965,1110.308913,-8427.050478,74.020594
5706.309289,1184.329507,-8503.660028,0.000000
5706.309614,888.247130,-8580.269578,148.041188
5706.309938,296.082377,-8503.660028,444.123565
5706.310263,0.000000,-8733.488677,0.000000
5706.310587,-222.061783,-8733.488677,-592.164754
5706.310912,-444.123565,-8580.269578,-444.123565
5706.311236,-518.144159,-8350.440928,-814.226536
5706.311560,0.000000,-8120.612279,-444.123565
5706.311885,148.041188,-8044.002729,-222.061783
5706.312209,740.205942,-8810.098227,-74.020594
5706.312534,1184.329507,-8656.879127,-74.020594
5706.312858,1184.329507,-8273.831378,74.020594
5706.313183,1110.308913,-8810.098227,0.000000
5706.313507,296.082377,-9116.536426,74.020594
5706.313832,74.020594,-9039.926876,0.000000
5706.314156,-666.185348,-8580.269578,-222.061783
5706.314481,-296.082377,-8503.660028,-592.164754
5706.314805,-222.061783,-8503.660028,-814.226536
5706.315130,148.041188,-8427.050478,-444.123565
5706.315454,370.102971,-8503.660028,-518.144159
5706.315779,814.226536,-8580.269578,0.000000
5706.316103,1184.329507,-8350.440928,148.041188
5706.316428,1554.432478,-8886.707777,74.020594
5706.316752,1036.288319,-8733.488677,370.102971
5706.317077,888.247130,-8886.707777,74.020594
5706.317401,518.144159,-8733.488677,74.020594
5706.317726,0.000000,-8733.488677,0.000000
5706.318050,0.000000,-8733.488677,-518.144159
5706.318375,0.000000,-9116.536426,0.000000
5706.318699,0.000000,-8197.221829,-296.082377
5706.319024,148.041188,-8350.440928,-444.123565
5706.319348,444.123565,-8503.660028,-148.041188
5706.319672,1110.308913,-8197.221829,0.000000
5706.319997,1480.411884,-8503.660028,148.041188
5706.320321,1332.370696,-8656.879127,148.041188
5706.320646,888.247130,-8810.098227,74.020594
5706.320970,518.144159,-8886.707777,296.082377
5706.321295,444.123565,-8503.660028,-370.102971
5706.321619,0.000000,-8886.707777,-740.205942
5706.321944,-296.082377,-8503.660028,-592.164754
5706.322268,-370.102971,-8044.002729,-666.185348
5706.322593,296.082377,-8350.440928,-814.226536
5706.322917,444.123565,-8120.612279,-666.185348
5706.323242,888.247130,-8350.440928,-296.082377
5706.323566,1258.350101,-8656.879127,-518.144159
5706.323891,962.267725,-8810.098227,0.000000
5706.324215,1184.329507,-8656.879127,-148.041188
5706.324540,666.185348,-8886.707777,0.000000
5706.324864,0.000000,-8656.879127,-444.123565
5706.325189,-222.061783,-9193.145976,-592.164754
5706.325513,-222.061783,-8197.221829,-518.144159
5706.325838,-666.185348,-8656.879127,-740.205942
5706.326162,-444.123565,-8810.098227,-740.205942
5706.326487,0.000000,-8273.831378,-518.144159
5706.326811,592.164754,-8427.050478,-666.185348
5706.327136,1184.329507,-8580.269578,-222.061783
5706.327460,1406.391290,-8427.050478,-296.082377
5706.327782,1184.329507,-8733.488677,0.000000
5706.328107,740.205942,-8580.269578,-148.041188
5706.328431,74.020594,-9422.974625,0.000000
5706.328756,-222.061783,-8963.317327,-444.123565
5706.329080,-296.082377,-8580.269578,-370.102971
5706.329405,-518.144159,-8580.269578,-814.226536
5706.329729,-296.082377,-8503.660028,-592.164754
5706.330054,222.061783,-8427.050478,-740.205942
5706.330378,666.185348,-8427.050478,-962.267725
5706.330703,1184.329507,-8350.440928,-370.102971
5706.331027,1332.370696,-8350.440928,74.020594
5706.331352,1258.350101,-8580.269578,-296.082377
5706.331676,1110.308913,-8273.831378,-74.020594
5706.332001,518.144159,-8503.660028,-296.082377
5706.332325,592.164754,-8810.098227,-518.144159
5706.332650,222.061783,-8350.440928,-740.205942
5706.332974,-444.123565,-8810.098227,-666.185348
5706.333298,-296.082377,-8273.831378,-814.226536
5706.333623,296.082377,-8120.612279,-740.205942
5706.333947,740.205942,-7814.174080,-592.164754
5706.334272,962.267725,-8197.221829,-296.082377
5706.334596,1258.350101,-8427.050478,-222.061783
5706.334921,1480.411884,-8733.488677,74.020594
5706.335245,1184.329507,-8656.879127,0.000000
5706.335570,1258.350101,-9039.926876,0.000000
5706.335894,518.144159,-8580.269578,-296.082377
5706.336219,0.000000,-8810.098227,-296.082377
5706.336543,-296.082377,-8733.488677,-592.164754
5706.336868,0.000000,-8503.660028,-518.144159
5706.337192,74.020594,-8656.879127,-518.144159
5706.337517,370.102971,-8427.050478,-666.185348
5706.337841,814.226536,-8427.050478,-370.102971
5706.338166,1332.370696,-8427.050478,-296.082377
5706.338490,1110.308913,-8963.317327,74.020594
5706.338815,1110.308913,-8656.879127,0.000000
5706.339139,888.247130,-9269.755526,0.000000
5706.339464,222.061783,-8350.440928,-148.041188
5706.339788,0.000000,-9039.926876,-518.144159
5706.340112,-518.144159,-8810.098227,-518.144159
5706.340437,-370.102971,-8733.488677,-518.144159
5706.340761,-222.061783,-8656.879127,-666.185348
5706.341086,444.123565,-8197.221829,-592.164754
5706.341410,296.082377,-8503.660028,-370.102971
5706.341735,666.185348,-8733.488677,0.000000
5706.342059,1406.391290,-8427.050478,0.000000
5706.342384,1110.308913,-9039.926876,222.061783
5706.342708,1110.308913,-8656.879127,-148.041188
5706.343033,222.061783,-8810.098227,0.000000
5706.343357,-74.020594,-8733.488677,-444.123565
5706.343682,-296.082377,-8503.660028,-444.123565
5706.344006,-222.061783,-8503.660028,-444.123565
5706.344331,-296.082377,-8503.660028,-666.185348
5706.344655,74.020594,-8427.050478,-518.144159
5706.344980,518.144159,-8580.269578,-444.123565
5706.345304,1258.350101,-8656.879127,0.000000
5706.345629,1406.391290,-8503.660028,0.000000
5706.345953,1258.350101,-8733.488677,0.000000
5706.346278,1184.329507,-8503.660028,148.041188
5706.346602,444.123565,-9193.145976,0.000000
5706.346926,74.020594,-8733.488677,74.020594
5706.347251,-296.082377,-8350.440928,-740.205942
5706.347575,-370.102971,-8427.050478,-518.144159
5706.347900,-370.102971,-8197.221829,-666.185348
5706.348224,-296.082377,-8963.317327,-148.041188
5706.348549,222.061783,-8120.612279,-370.102971
5706.348873,814.226536,-8197.221829,0.000000
5706.349198,1036.288319,-8503.660028,-296.082377
5706.349522,1110.308913,-8197.221829,0.000000
5706.349847,1184.329507,-8197.221829,74.020594
5706.350171,666.185348,-8580.269578,-222.061783
5706.350496,222.061783,-8810.098227,-592.164754
5706.350820,-296.082377,-8656.879127,-666.185348
5706.351145,-296.082377,-8580.269578,-962.267725
5706.351469,-222.061783,-8580.269578,-1258.350101
5706.351794,0.000000,-8427.050478,-962.267725
5706.352118,444.123565,-8273.831378,-740.205942
5706.352443,666.185348,-8350.440928,-370.102971
5706.352767,1184.329507,-8656.879127,-444.123565
5706.353091,1332.370696,-8580.269578,-148.041188
5706.353416,1406.391290,-8197.221829,0.000000
5706.353740,1258.350101,-9039.926876,-296.082377
5706.354065,444.123565,-8733.488677,-296.082377
5706.354389,0.000000,-8580.269578,-592.164754
5706.354714,-296.082377,-8810.098227,-888.247130
5706.355038,-518.144159,-8503.660028,-666.185348
5706.355363,-444.123565,-8886.707777,-740.205942
5706.355687,296.082377,-8580.269578,-592.164754
5706.356012,592.164754,-8580.269578,-518.144159
5706.356336,1110.308913,-8810.098227,-296.082377
5706.356661,1702.473667,-8350.440928,0.000000
5706.356985,1258.350101,-8503.660028,0.000000
5706.357310,1110.308913,-8810.098227,-148.041188
5706.357634,740.205942,-9039.926876,-518.144159
5706.357959,148.041188,-8503.660028,-518.144159
5706.358283,-296.082377,-8810.098227,-592.164754
5706.358608,-592.164754,-8963.317327,-740.205942
5706.358932,-296.082377,-8580.269578,-814.226536
5706.359257,0.000000,-8580.269578,-888.247130
5706.359581,518.144159,-8350.440928,-1036.288319
5706.359905,814.226536,-8886.707777,-666.185348
5706.360230,1480.411884,-8273.831378,-296.082377
5706.360554,1406.391290,-8580.269578,0.000000
5706.360879,1036.288319,-8580.269578,-444.123565
5706.361203,814.226536,-8656.879127,-148.041188
5706.361528,444.123565,-8656.879127,-518.144159
5706.361852,74.020594,-8886.707777,-296.082377
5706.362177,-222.061783,-9039.926876,-444.123565
5706.362501,74.020594,-8886.707777,-370.102971
5706.362826,0.000000,-8656.879127,-740.205942
5706.363150,370.102971,-8580.269578,-592.164754
5706.363475,814.226536,-8427.050478,-370.102971
5706.363799,1036.288319,-8197.221829,222.061783
5706.364124,1554.432478,-8503.660028,-296.082377
5706.364448,1406.391290,-8120.612279,0.000000
5706.364773,1036.288319,-8503.660028,-222.061783
5706.365097,1036.288319,-8886.707777,-444.123565
5706.365422,0.000000,-8656.879127,-518.144159
5706.365746,-370.102971,-8886.707777,-740.205942
5706.366070,-518.144159,-8427.050478,-666.185348
5706.366395,-444.123565,-8580.269578,-592.164754
5706.366719,0.000000,-8427.050478,-888.247130
5706.367044,592.164754,-8503.660028,-444.123565
5706.367368,592.164754,-8120.612279,-148.041188
5706.367693,814.226536,-8580.269578,-222.061783
5706.368017,888.247130,-8427.050478,148.041188
5706.368342,962.267725,-8656.879127,0.000000
5706.368666,666.185348,-8810.098227,-296.082377
5706.368991,74.020594,-9116.536426,-222.061783
5706.369315,-222.061783,-9422.974625,-296.082377
5706.369640,-444.123565,-8733.488677,-444.123565
5706.369964,-666.185348,-8580.269578,-592.164754
5706.370289,0.000000,-8656.879127,-296.082377
5706.370613,296.082377,-8350.440928,-296.082377
5706.370938,370.102971,-8503.660028,-222.061783
5706.371262,814.226536,-8503.660028,0.000000
5706.371587,1258.350101,-8273.831378,74.020594
5706.371911,1406.391290,-8733.488677,0.000000
5706.372236,518.144159,-8044.002729,-148.041188
5706.372560,74.020594,-8963.317327,0.000000
5706.372884,0.000000,-8580.269578,-296.082377
5706.373209,-444.123565,-8503.660028,-666.185348
5706.373533,-148.041188,-8963.317327,-740.205942
5706.373858,0.000000,-8273.831378,-888.247130
5706.374182,296.082377,-8503.660028,-592.164754
5706.374507,518.144159,-8503.660028,-296.082377
5706.374831,1258.350101,-8427.050478,-148.041188
5706.375156,1406.391290,-8656.879127,0.000000
5706.375480,1036.288319,-8427.050478,-222.061783
5706.375805,444.123565,-8963.317327,74.020594
5706.376129,222.061783,-8810.098227,-222.061783
5706.376454,-370.102971,-8886.707777,0.000000
5706.376778,-296.082377,-8580.269578,-814.226536
5706.377103,-518.144159,-9039.926876,-888.247130
5706.377427,-148.041188,-8580.269578,-962.267725
5706.377752,296.082377,-8044.002729,-518.144159
5706.378076,370.102971,-8273.831378,-666.185348
5706.378401,1036.288319,-8120.612279,-296.082377
5706.378725,1184.329507,-8197.221829,-444.123565
5706.379049,1332.370696,-8427.050478,-296.082377
5706.379374,888.247130,-8197.221829,0.000000
5706.379698,518.144159,-8810.098227,-148.041188
5706.380023,0.000000,-8656.879127,0.000000
5706.380347,-296.082377,-8810.098227,-666.185348
5706.380672,-444.123565,-8810.098227,-1184.329507
5706.380996,-296.082377,-8044.002729,-962.267725
5706.381321,0.000000,-8350.440928,-740.205942
5706.381645,296.082377,-8427.050478,-740.205942
5706.381970,1258.350101,-8886.707777,-370.102971
5706.382294,1332.370696,-8503.660028,-444.123565
5706.382619,1406.391290,-8580.269578,0.000000
5706.382943,888.247130,-8810.098227,0.000000
5706.383268,592.164754,-8886.707777,0.000000
5706.383592,148.041188,-8503.660028,-296.082377
5706.383917,-296.082377,-8810.098227,-666.185348
5706.384241,-518.144159,-9039.926876,-814.226536
5706.384566,-296.082377,-8656.879127,-592.164754
5706.384890,-148.041188,-8044.002729,-444.123565
5706.385215,222.061783,-8810.098227,-592.164754
5706.385539,666.185348,-8427.050478,-518.144159
5706.385863,1258.350101,-8503.660028,-444.123565
5706.386188,1258.350101,-8503.660028,-148.041188
5706.386512,1406.391290,-8503.660028,74.020594
5706.386837,740.205942,-8963.317327,-148.041188
5706.387161,222.061783,-8810.098227,0.000000
5706.387486,0.000000,-9039.926876,-444.123565
5706.387810,-518.144159,-8427.050478,-296.082377
5706.388135,-444.123565,-8580.269578,-222.061783
5706.388459,-296.082377,-8580.269578,-296.082377
5706.388784,222.061783,-8503.660028,-592.164754
5706.389108,518.144159,-8810.098227,0.000000
5706.389433,1184.329507,-8580.269578,-370.102971
5706.389757,1406.391290,-8503.660028,0.000000
5706.390082,1554.432478,-8656.879127,0.000000
5706.390406,1036.288319,-8733.488677,74.020594
5706.390731,592.164754,-8656.879127,0.000000
5706.391055,148.041188,-8963.317327,0.000000
5706.391380,-148.041188,-8580.269578,-74.020594
5706.391704,-518.144159,-8810.098227,-740.205942
5706.392028,-296.082377,-8197.221829,-370.102971
5706.392353,0.000000,-8273.831378,-666.185348
5706.392677,370.102971,-8427.050478,-592.164754
5706.393002,962.267725,-8197.221829,-370.102971
5706.393326,1332.370696,-8273.831378,-296.082377
5706.393651,1332.370696,-8886.707777,0.000000
5706.393975,888.247130,-8656.879127,0.000000
5706.394300,962.267725,-8810.098227,0.000000
5706.394624,444.123565,-8963.317327,-370.102971
5706.394949,148.041188,-8656.879127,-370.102971
5706.395273,-444.123565,-8350.440928,-518.144159
5706.395598,-370.102971,-8810.098227,-666.185348
5706.395922,0.000000,-8350.440928,-666.185348
5706.396247,814.226536,-8656.879127,-518.144159
5706.396571,592.164754,-8503.660028,-296.082377
5706.396896,962.267725,-8427.050478,0.000000
5706.397220,1332.370696,-8656.879127,0.000000
5706.397545,962.267725,-8503.660028,666.185348
5706.397869,888.247130,-8963.317327,0.000000
5706.398194,444.123565,-8810.098227,-148.041188
5706.398518,0.000000,-8810.098227,-222.061783
5706.398842,-444.123565,-8656.879127,-518.144159
5706.399167,-74.020594,-8580.269578,-370.102971
5706.399491,-222.061783,-8273.831378,-962.267725
5706.399816,148.041188,-8580.269578,-666.185348
5706.400140,518.144159,-8427.050478,-592.164754
5706.400465,888.247130,-8656.879127,370.102971
5706.400789,1332.370696,-8197.221829,0.000000
5706.401114,1332.370696,-8427.050478,0.000000
5706.401438,962.267725,-8886.707777,0.000000
5706.401763,444.123565,-8580.269578,-148.041188
5706.402087,0.000000,-9039.926876,0.000000
5706.402412,-370.102971,-8503.660028,-592.164754
5706.402736,-370.102971,-8733.488677,-666.185348
5706.403061,-666.185348,-8273.831378,-592.164754
5706.403385,74.020594,-8656.879127,-296.082377
5706.403710,222.061783,-8427.050478,-370.102971
5706.404034,740.205942,-8427.050478,-296.082377
5706.404359,1036.288319,-8273.831378,-222.061783
5706.404683,888.247130,-8197.221829,370.102971
5706.405008,888.247130,-8503.660028,-296.082377
5706.405332,814.226536,-8810.098227,0.000000
5706.405656,444.123565,-8733.488677,-296.082377
5706.405981,-222.061783,-8733.488677,-296.082377
5706.406305,-222.061783,-8580.269578,-592.164754
5706.406630,-222.061783,-8810.098227,-444.123565
5706.406954,0.000000,-8427.050478,-666.185348
5706.407279,74.020594,-8427.050478,-370.102971
5706.407603,1036.288319,-8656.879127,74.020594
5706.407928,1110.308913,-8350.440928,0.000000
5706.408252,1406.391290,-8427.050478,74.020594
5706.408577,1332.370696,-8810.098227,74.020594
5706.408901,1406.391290,-8656.879127,370.102971
5706.409226,222.061783,-8733.488677,148.041188
5706.409550,-148.041188,-8886.707777,0.000000
5706.409875,-296.082377,-8656.879127,0.000000
5706.410199,-296.082377,-8580.269578,-592.164754
5706.410524,-370.102971,-8503.660028,0.000000
5706.410848,0.000000,-8503.660028,-370.102971
5706.411173,518.144159,-8427.050478,0.000000
5706.411497,814.226536,-8350.440928,-296.082377
5706.411821,1628.453072,-8503.660028,74.020594
5706.412146,1258.350101,-8427.050478,0.000000
5706.412470,1110.308913,-8810.098227,0.000000
5706.412795,666.185348,-8886.707777,0.000000
5706.413119,0.000000,-8273.831378,-222.061783
5706.413444,0.000000,-8886.707777,-592.164754
5706.413768,-518.144159,-8963.317327,-666.185348
5706.414093,-296.082377,-8733.488677,-814.226536
5706.414417,-148.041188,-8503.660028,-888.247130
5706.414742,296.082377,-8197.221829,-666.185348
5706.415066,740.205942,-8427.050478,-592.164754
5706.415391,1184.329507,-8580.269578,-370.102971
5706.415715,1406.391290,-8580.269578,0.000000
5706.416040,962.267725,-8580.269578,-370.102971
5706.416364,888.247130,-9039.926876,-592.164754
5706.416689,592.164754,-8886.707777,-222.061783
5706.417013,0.000000,-8886.707777,-444.123565
5706.417338,-518.144159,-8810.098227,-592.164754
5706.417662,-444.123565,-8656.879127,-666.185348
5706.417987,-296.082377,-8427.050478,-666.185348
5706.418311,74.020594,-8503.660028,-592.164754
5706.418635,444.123565,-8427.050478,-666.185348
5706.418960,1036.288319,-8656.879127,0.000000
5706.419284,1258.350101,-8350.440928,0.000000
5706.419609,1480.411884,-8733.488677,0.000000
5706.419933,1036.288319,-8580.269578,0.000000
5706.420258,740.205942,-9193.145976,-370.102971
5706.420582,296.082377,-9039.926876,-592.164754
5706.420907,-370.102971,-8503.660028,-444.123565
5706.421231,-592.164754,-8656.879127,-518.144159
5706.421556,-592.164754,-8963.317327,-666.185348
5706.421880,0.000000,-8427.050478,-444.123565
5706.422205,518.144159,-8427.050478,-444.123565
5706.422529,814.226536,-8197.221829,0.000000
5706.422854,1036.288319,-8350.440928,-148.041188
5706.423178,1332.370696,-8963.317327,148.041188
5706.423503,1332.370696,-8656.879127,0.000000
5706.423827,814.226536,-8810.098227,0.000000
5706.424152,148.041188,-8427.050478,-370.102971
5706.424476,0.000000,-9652.803275,-222.061783
5706.424800,-666.185348,-8656.879127,-444.123565
5706.425125,-444.123565,-8350.440928,-370.102971
5706.425449,-296.082377,-8427.050478,-666.185348
5706.425774,0.000000,-8273.831378,-296.082377
5706.426098,444.123565,-8044.002729,0.000000
5706.426423,1036.288319,-8197.221829,-148.041188
5706.426747,1406.391290,-8580.269578,0.000000
5706.427072,1702.473667,-8503.660028,0.000000
5706.427396,814.226536,-8350.440928,74.020594
5706.427721,222.061783,-8810.098227,-148.041188
5706.428045,0.000000,-8810.098227,0.000000
5706.428370,-592.164754,-8656.879127,-222.061783
5706.428694,-296.082377,-8656.879127,-962.267725
5706.429019,-148.041188,-8350.440928,-1036.288319
5706.429343,74.020594,-8427.050478,-444.123565
5706.429668,370.102971,-8120.612279,0.000000
5706.429992,962.267725,-8273.831378,-148.041188
5706.430317,1184.329507,-8350.440928,0.000000
5706.430641,1480.411884,-8503.660028,0.000000
5706.430966,1258.350101,-8656.879127,0.000000
5706.431290,518.144159,-8733.488677,0.000000
5706.431614,-148.041188,-9116.536426,444.123565
5706.431939,-444.123565,-8810.098227,-148.041188
5706.432263,-518.144159,-8656.879127,-666.185348
5706.432587,-370.102971,-8580.269578,-962.267725
5706.432912,222.061783,-7890.783629,-74.020594
5706.433236,148.041188,-8197.221829,-370.102971
5706.433560,888.247130,-8503.660028,-370.102971
5706.433885,1110.308913,-8273.831378,-370.102971
5706.434209,1554.432478,-8350.440928,0.000000
5706.434534,1406.391290,-8427.050478,0.000000
5706.434858,740.205942,-8810.098227,0.000000
5706.435182,296.082377,-9116.536426,-148.041188
5706.435507,0.000000,-8733.488677,-370.102971
5706.435831,-592.164754,-8580.269578,-740.205942
5706.436155,-74.020594,-8580.269578,-888.247130
5706.436480,-148.041188,-8350.440928,-370.102971
5706.436804,222.061783,-8273.831378,-370.102971
5706.437128,814.226536,-8503.660028,-370.102971
5706.437453,1184.329507,-8197.221829,-296.082377
5706.437777,1554.432478,-8656.879127,-222.061783
5706.438101,1110.308913,-8886.707777,0.000000
5706.438426,592.164754,-9116.536426,74.020594
5706.438750,222.061783,-8733.488677,-296.082377
5706.439074,148.041188,-8733.488677,-518.144159
5706.439399,-296.082377,-8963.317327,-666.185348
5706.439723,-444.123565,-8580.269578,-888.247130
5706.440047,222.061783,-8733.488677,-518.144159
5706.440372,0.000000,-8273.831378,-666.185348
5706.440696,518.144159,-8350.440928,-296.082377
5706.441021,1258.350101,-8044.002729,-444.123565
5706.441345,1480.411884,-8503.660028,-148.041188
5706.441669,1110.308913,-8733.488677,0.000000
5706.441994,962.267725,-8503.660028,0.000000
5706.442318,296.082377,-8810.098227,0.000000
5706.442642,0.000000,-8963.317327,-148.041188
5706.442967,0.000000,-8656.879127,-296.082377
5706.443291,-518.144159,-8656.879127,-370.102971
5706.443615,-370.102971,-8350.440928,-666.185348
5706.443940,-222.061783,-8656.879127,-592.164754
5706.444264,518.144159,-8733.488677,0.000000
5706.444588,740.205942,-8273.831378,0.000000
5706.444913,1702.473667,-8886.707777,0.000000
5706.445237,1110.308913,-8197.221829,74.020594
5706.445561,1184.329507,-8886.707777,0.000000
5706.445886,518.144159,-8427.050478,-148.041188
5706.446210,296.082377,-8810.098227,0.000000
5706.446534,-296.082377,-8580.269578,-222.061783
5706.446859,-222.061783,-8656.879127,-222.061783
5706.447183,-592.164754,-8197.221829,-592.164754
5706.447508,0.000000,-8427.050478,-814.226536
5706.447832,370.102971,-8197.221829,-666.185348
5706.448156,1184.329507,-8503.660028,-518.144159
5706.448481,1480.411884,-8197.221829,-444.123565
5706.448805,1184.329507,-8427.050478,-148.041188
5706.449129,1332.370696,-8656.879127,-222.061783
5706.449454,592.164754,-8656.879127,-296.082377
5706.449778,444.123565,-9116.536426,-74.020594
5706.450102,74.020594,-8656.879127,-740.205942
5706.450427,-148.041188,-8503.660028,-444.123565
5706.450751,-592.164754,-8580.269578,-740.205942
5706.451075,0.000000,-8733.488677,-814.226536
5706.451400,888.247130,-8273.831378,-740.205942
5706.451724,888.247130,-8503.660028,-666.185348
5706.452048,1036.288319,-8427.050478,-370.102971
5706.452373,1332.370696,-8427.050478,-148.041188
5706.452697,1332.370696,-8963.317327,74.020594
5706.453022,1184.329507,-8503.660028,0.000000
5706.453346,518.144159,-9039.926876,-148.041188
5706.453670,148.041188,-8810.098227,-370.102971
5706.453995,0.000000,-8810.098227,-518.144159
5706.454319,-222.061783,-8886.707777,-888.247130
5706.454643,-222.061783,-8350.440928,-444.123565
5706.454968,0.000000,-8503.660028,-962.267725
5706.455292,814.226536,-8580.269578,-1036.288319
5706.455616,1110.308913,-8733.488677,0.000000
5706.455941,1036.288319,-8427.050478,-296.082377
5706.456265,1184.329507,-8656.879127,0.000000
5706.456589,1036.288319,-8810.098227,-296.082377
5706.456914,592.164754,-9039.926876,-296.082377
5706.457238,148.041188,-9116.536426,-222.061783
5706.457562,-148.041188,-8810.098227,-444.123565
5706.457887,-370.102971,-8886.707777,-592.164754
5706.458211,-222.061783,-8503.660028,-814.226536
5706.458535,0.000000,-8733.488677,-518.144159
5706.458860,444.123565,-8273.831378,-518.144159
5706.459184,888.247130,-8427.050478,-444.123565
5706.459509,962.267725,-8197.221829,-222.061783
5706.459833,1332.370696,-8273.831378,-222.061783
5706.460157,1184.329507,-8503.660028,-148.041188
5706.460482,740.205942,-8810.098227,-222.061783
5706.460806,296.082377,-8580.269578,-296.082377
5706.461130,-370.102971,-8886.707777,-518.144159
5706.461455,-148.041188,-8350.440928,-222.061783
5706.461779,0.000000,-8427.050478,-592.164754
5706.462103,0.000000,-8427.050478,-592.164754
5706.462428,518.144159,-8273.831378,-518.144159
5706.462752,962.267725,-8427.050478,-518.144159
5706.463076,962.267725,-8350.440928,0.000000
5706.463401,1110.308913,-8120.612279,-222.061783
5706.463725,1332.370696,-8580.269578,0.000000
5706.464049,1406.391290,-8197.221829,-148.041188
5706.464374,518.144159,-8733.488677,148.041188
5706.464698,0.000000,-8503.660028,-296.082377
5706.465023,-148.041188,-8427.050478,-370.102971
5706.465347,-296.082377,-8427.050478,-370.102971
5706.465671,0.000000,-8656.879127,-518.144159
5706.465996,222.061783,-8503.660028,-444.123565
5706.466320,444.123565,-8120.612279,-296.082377
5706.466644,962.267725,-8120.612279,-296.082377
5706.466969,1480.411884,-8733.488677,-296.082377
5706.467293,1184.329507,-8656.879127,0.000000
5706.467617,1036.288319,-8503.660028,-148.041188
5706.467942,444.123565,-8963.317327,74.020594
5706.468266,0.000000,-8963.317327,-222.061783
5706.468590,-222.061783,-8810.098227,-222.061783
5706.468915,-518.144159,-8656.879127,-518.144159
5706.469239,-296.082377,-8197.221829,-1110.308913
5706.469563,0.000000,-8427.050478,-666.185348
5706.469888,370.102971,-8503.660028,-444.123565
5706.470212,814.226536,-8733.488677,-444.123565
5706.470536,1036.288319,-8580.269578,-592.164754
5706.470861,1628.453072,-8656.879127,-148.041188
5706.471185,1480.411884,-8427.050478,0.000000
5706.471510,888.247130,-9116.536426,0.000000
5706.471834,370.102971,-8963.317327,-666.185348
5706.472158,148.041188,-9039.926876,-370.102971
5706.472483,0.000000,-9193.145976,-740.205942
5706.472807,0.000000,-8733.488677,-740.205942
5706.473131,0.000000,-8733.488677,-888.247130
5706.473456,222.061783,-8580.269578,-592.164754
5706.473780,592.164754,-8503.660028,-518.144159
5706.474104,1184.329507,-8656.879127,-592.164754
5706.474429,1480.411884,-9039.926876,-74.020594
5706.474753,1332.370696,-8273.831378,0.000000
5706.475077,1184.329507,-8886.707777,-296.082377
5706.475402,666.185348,-8886.707777,0.000000
5706.475726,444.123565,-8886.707777,-518.144159
5706.476050,-148.041188,-9039.926876,-666.185348
5706.476375,0.000000,-8580.269578,-666.185348
5706.476699,-296.082377,-8580.269578,-740.205942
5706.477023,74.020594,-8656.879127,-814.226536
5706.477348,518.144159,-8427.050478,-740.205942
5706.477672,1036.288319,-8580.269578,-740.205942
5706.477997,1036.288319,-8580.269578,-370.102971
5706.478321,1258.350101,-8427.050478,-592.164754
5706.478645,1110.308913,-8810.098227,-296.082377
5706.478970,740.205942,-8350.440928,-296.082377
5706.479294,444.123565,-9039.926876,-370.102971
5706.479618,-296.082377,-8197.221829,-740.205942
5706.479943,-296.082377,-8503.660028,-814.226536
5706.480267,-518.144159,-8656.879127,-518.144159
5706.480591,-222.061783,-8427.050478,-666.185348
5706.480916,222.061783,-8350.440928,-666.185348
5706.481240,962.267725,-8120.612279,-666.185348
5706.481564,962.267725,-8273.831378,0.000000
5706.481889,1258.350101,-8350.440928,0.000000
5706.482213,1036.288319,-8656.879127,148.041188
5706.482537,888.247130,-8733.488677,-222.061783
5706.482862,518.144159,-9039.926876,0.000000
5706.483186,0.000000,-8580.269578,-370.102971
5706.483511,-444.123565,-8580.269578,0.000000
5706.483835,-740.205942,-9039.926876,-222.061783
5706.484159,0.000000,-8350.440928,-296.082377
5706.484484,0.000000,-8197.221829,-518.144159
5706.484808,666.185348,-8350.440928,-296.082377
5706.485132,814.226536,-7814.174080,0.000000
5706.485457,962.267725,-8503.660028,74.020594
5706.485781,1406.391290,-8427.050478,-148.041188
5706.486105,1258.350101,-8350.440928,0.000000
5706.486430,740.205942,-8427.050478,-222.061783
5706.486754,-148.041188,-8197.221829,-370.102971
5706.487078,74.020594,-8656.879127,-296.082377
5706.487403,-592.164754,-8503.660028,-518.144159
5706.487727,-148.041188,-8350.440928,-666.185348
5706.488051,0.000000,-8810.098227,-740.205942
5706.488376,666.185348,-8120.612279,-740.205942
5706.488700,814.226536,-8044.002729,-370.102971
5706.489024,1184.329507,-8810.098227,0.000000
5706.489349,1184.329507,-8503.660028,0.000000
5706.489673,1554.432478,-8580.269578,-296.082377
5706.489998,592.164754,-8733.488677,-296.082377
5706.490322,370.102971,-8810.098227,-296.082377
5706.490646,-148.041188,-9116.536426,-148.041188
5706.490971,-148.041188,-8580.269578,-962.267725
5706.491295,0.000000,-8733.488677,-444.123565
5706.491619,0.000000,-8427.050478,-740.205942
5706.491944,444.123565,-8197.221829,-296.082377
5706.492268,666.185348,-8120.612279,-370.102971
5706.492592,962.267725,-8503.660028,-370.102971
5706.492917,1258.350101,-8580.269578,0.000000
5706.493241,1332.370696,-9193.145976,74.020594
5706.493565,666.185348,-8733.488677,-296.082377
5706.493890,444.123565,-9576.193725,-222.061783
5706.494214,0.000000,-8810.098227,-666.185348
5706.494538,-148.041188,-8810.098227,-740.205942
5706.494863,-296.082377,-9039.926876,-740.205942
5706.495187,-148.041188,-9346.365076,-888.247130
5706.495512,370.102971,-8580.269578,-888.247130
5706.495836,296.082377,-8427.050478,-666.185348
5706.496160,592.164754,-8656.879127,-592.164754
5706.496485,1184.329507,-8427.050478,-370.102971
5706.496809,1110.308913,-8656.879127,-518.144159
5706.497133,888.247130,-9039.926876,-296.082377
5706.497458,74.020594,-8733.488677,-296.082377
5706.497782,148.041188,-8963.317327,-370.102971
5706.498106,-370.102971,-8733.488677,0.000000
5706.498431,-222.061783,-9193.145976,-592.164754
5706.498755,-222.061783,-8580.269578,-740.205942
5706.499079,0.000000,-8427.050478,-592.164754
5706.499404,296.082377,-9039.926876,-518.144159
5706.499728,888.247130,-8120.612279,-222.061783
5706.500052,1036.288319,-8503.660028,-222.061783
5706.500377,1184.329507,-8580.269578,74.020594
5706.500701,1110.308913,-8427.050478,0.000000
5706.501025,740.205942,-8886.707777,370.102971
5706.501350,518.144159,-8656.879127,0.000000
5706.501674,0.000000,-8733.488677,0.000000
5706.501999,0.000000,-8427.050478,-148.041188
5706.502323,-222.061783,-9039.926876,-666.185348
5706.502647,0.000000,-8580.269578,-518.144159
5706.502972,222.061783,-8120.612279,-444.123565
5706.503296,666.185348,-8197.221829,-296.082377
5706.503620,888.247130,-8427.050478,-296.082377
5706.503945,1110.308913,-8350.440928,0.000000
5706.504269,1110.308913,-8197.221829,148.041188
5706.504593,1110.308913,-8733.488677,-296.082377
5706.504918,444.123565,-8886.707777,-148.041188
5706.505242,296.082377,-8886.707777,-222.061783
5706.505566,0.000000,-8733.488677,-666.185348
5706.505891,-296.082377,-8350.440928,-592.164754
5706.506215,0.000000,-8350.440928,-666.185348
5706.506539,74.020594,-8963.317327,-222.061783
5706.506864,888.247130,-8197.221829,-888.247130
5706.507188,962.267725,-8580.269578,-666.185348
5706.507513,1258.350101,-8120.612279,0.000000
5706.507837,1332.370696,-8886.707777,74.020594
5706.508161,1036.288319,-8810.098227,74.020594
5706.508486,444.123565,-8733.488677,0.000000
5706.508810,148.041188,-9116.536426,-148.041188
5706.509134,222.061783,-8886.707777,-518.144159
5706.509459,0.000000,-8963.317327,-518.144159
5706.509783,-222.061783,-8733.488677,-370.102971
5706.510107,0.000000,-8580.269578,-592.164754
5706.510432,74.020594,-8810.098227,-296.082377
5706.510756,592.164754,-8656.879127,-444.123565
5706.511080,1110.308913,-8656.879127,0.000000
5706.511405,1036.288319,-8350.440928,-370.102971
5706.511729,1036.288319,-8963.317327,0.000000
5706.512053,444.123565,-8810.098227,-370.102971
5706.512378,370.102971,-9039.926876,-370.102971
5706.512702,0.000000,-9039.926876,-370.102971
5706.513026,-518.144159,-8886.707777,-740.205942
5706.513351,-444.123565,-8810.098227,-740.205942
5706.513675,0.000000,-8886.707777,-962.267725
5706.514000,296.082377,-8503.660028,-666.185348
5706.514324,518.144159,-8580.269578,-518.144159
5706.514648,962.267725,-8350.440928,0.000000
5706.514973,1184.329507,-8580.269578,0.000000
5706.515297,1184.329507,-8733.488677,0.000000
5706.515621,962.267725,-8963.317327,0.000000
5706.515946,444.123565,-8963.317327,0.000000
5706.516270,0.000000,-8503.660028,0.000000
5706.516594,0.000000,-8810.098227,-296.082377
5706.516919,-296.082377,-8580.269578,-370.102971
5706.517243,0.000000,-8503.660028,-592.164754
5706.517567,296.082377,-8503.660028,-444.123565
5706.517892,444.123565,-8197.221829,296.082377
5706.518216,1036.288319,-8350.440928,74.020594
5706.518540,1184.329507,-8656.879127,74.020594
5706.518865,1184.329507,-8427.050478,222.061783
5706.519189,1184.329507,-8273.831378,222.061783
5706.519513,1110.308913,-8810.098227,222.061783
5706.519838,0.000000,-8427.050478,148.041188
5706.520162,-370.102971,-9116.536426,0.000000
5706.520487,-222.061783,-8656.879127,-148.041188
5706.520811,222.061783,-8503.660028,0.000000
5706.521135,0.000000,-8197.221829,-592.164754
5706.521460,666.185348,-8044.002729,-222.061783
5706.521784,888.247130,-8273.831378,0.000000
5706.522108,1184.329507,-8427.050478,-148.041188
5706.522433,1258.350101,-8273.831378,-148.041188
5706.522757,962.267725,-8656.879127,0.000000
5706.523081,962.267725,-8810.098227,0.000000
5706.523406,370.102971,-8503.660028,-296.082377
5706.523730,0.000000,-9193.145976,-296.082377
5706.524054,-296.082377,-8503.660028,-518.144159
5706.524379,-148.041188,-8733.488677,-370.102971
5706.524703,0.000000,-8580.269578,-740.205942
5706.525027,814.226536,-8963.317327,-296.082377
5706.525352,592.164754,-8503.660028,-518.144159
5706.525676,888.247130,-8810.098227,0.000000
5706.526001,1184.329507,-8580.269578,0.000000
5706.526325,1406.391290,-9422.974625,0.000000
5706.526649,592.164754,-8733.488677,74.020594
5706.526974,370.102971,-9193.145976,0.000000
5706.527298,0.000000,-8810.098227,-370.102971
5706.527622,0.000000,-8963.317327,-222.061783
5706.527947,-370.102971,-8733.488677,-592.164754
5706.528271,0.000000,-8503.660028,-518.144159
5706.528595,148.041188,-8350.440928,-740.205942
5706.528920,814.226536,-8580.269578,-518.144159
5706.529244,518.144159,-7814.174080,0.000000
5706.529568,1184.329507,-8580.269578,-370.102971
5706.529893,1480.411884,-8580.269578,-444.123565
5706.530217,1110.308913,-8733.488677,-222.061783
5706.530541,962.267725,-9346.365076,-518.144159
5706.530866,222.061783,-9039.926876,-592.164754
5706.531190,148.041188,-8886.707777,-814.226536
5706.531514,0.000000,-8963.317327,-888.247130
5706.531839,0.000000,-8503.660028,-962.267725
5706.532163,0.000000,-8427.050478,-740.205942
5706.532488,222.061783,-8427.050478,-814.226536
5706.532812,592.164754,-8273.831378,-666.185348
5706.533137,962.267725,-8733.488677,-592.164754
5706.533461,1332.370696,-8120.612279,-296.082377
5706.533785,592.164754,-8503.660028,0.000000
5706.534110,740.205942,-8963.317327,-592.164754
5706.534434,222.061783,-9039.926876,-592.164754
5706.534759,0.000000,-8963.317327,-666.185348
5706.535083,-444.123565,-8733.488677,-518.144159
5706.535408,-296.082377,-8503.660028,-814.226536
5706.535732,-222.061783,-8350.440928,-814.226536
5706.536057,296.082377,-8273.831378,-592.164754
5706.536381,518.144159,-8350.440928,-592.164754
5706.536705,1258.350101,-8427.050478,-222.061783
5706.537030,1480.411884,-7967.393179,0.000000
5706.537354,1110.308913,-8810.098227,-296.082377
5706.537679,962.267725,-7660.954980,148.041188
5706.538003,740.205942,-8503.660028,0.000000
5706.538328,0.000000,-8580.269578,-370.102971
5706.538652,-222.061783,-8120.612279,-222.061783
5706.538977,-222.061783,-8503.660028,-370.102971
5706.539301,-370.102971,-8427.050478,-518.144159
5706.539625,222.061783,-8044.002729,-370.102971
5706.539950,666.185348,-8273.831378,-296.082377
5706.540274,962.267725,-8197.221829,0.000000
5706.540599,1406.391290,-8656.879127,0.000000
5706.540923,1258.350101,-8503.660028,148.041188
5706.541248,814.226536,-8733.488677,74.020594
5706.541572,444.123565,-8656.879127,0.000000
5706.541897,296.082377,-8810.098227,-296.082377
5706.542221,-222.061783,-8886.707777,0.000000
5706.542545,-296.082377,-8503.660028,-148.041188
5706.542870,-222.061783,-8273.831378,-444.123565
5706.543194,222.061783,-8197.221829,-592.164754
5706.543519,740.205942,-8350.440928,-296.082377
5706.543843,888.247130,-8273.831378,-148.041188
5706.544168,962.267725,-8197.221829,-222.061783
5706.544492,1332.370696,-8656.879127,148.041188
5706.544817,1480.411884,-8656.879127,0.000000
5706.545141,666.185348,-8733.488677,0.000000
5706.545465,370.102971,-8733.488677,0.000000
5706.545790,296.082377,-8963.317327,0.000000
5706.546114,0.000000,-8656.879127,-148.041188
5706.546439,0.000000,-8580.269578,-296.082377
5706.546763,0.000000,-8656.879127,-592.164754
5706.547088,0.000000,-8656.879127,-370.102971
5706.547412,444.123565,-8197.221829,-296.082377
5706.547737,814.226536,-8810.098227,0.000000
5706.548061,1184.329507,-8886.707777,0.000000
5706.548385,1110.308913,-8810.098227,-222.061783
5706.548710,1036.288319,-8886.707777,-148.041188
5706.549034,1036.288319,-9193.145976,-296.082377
5706.549359,0.000000,-9039.926876,-370.102971
5706.549683,-222.061783,-9193.145976,-518.144159
5706.550008,0.000000,-8350.440928,-814.226536
5706.550332,-148.041188,-7890.783629,-1110.308913
5706.550657,222.061783,-8580.269578,-888.247130
5706.550981,296.082377,-8273.831378,-814.226536
5706.551305,740.205942,-8733.488677,-592.164754
5706.551630,962.267725,-8656.879127,-592.164754
5706.551954,1110.308913,-8656.879127,-148.041188
5706.552279,962.267725,-8810.098227,-222.061783
5706.552603,592.164754,-8810.098227,0.000000
5706.552928,148.041188,-9193.145976,-222.061783
5706.553252,0.000000,-8427.050478,-370.102971
5706.553577,-222.061783,-8580.269578,-296.082377
5706.553901,148.041188,-8656.879127,-518.144159
5706.554225,74.020594,-8503.660028,-148.041188
5706.554550,148.041188,-8350.440928,-444.123565
5706.554874,518.144159,-8580.269578,0.000000
5706.555199,1110.308913,-8273.831378,0.000000
5706.555523,1184.329507,-8580.269578,0.000000
5706.555848,962.267725,-8503.660028,-148.041188
5706.556172,518.144159,-8580.269578,0.000000
5706.556497,222.061783,-8733.488677,-222.061783
5706.556821,74.020594,-8810.098227,-370.102971
5706.557145,0.000000,-8120.612279,-592.164754
5706.557470,-296.082377,-8197.221829,-370.102971
5706.557794,0.000000,-8044.002729,-962.267725
5706.558119,222.061783,-8044.002729,-666.185348
5706.558443,518.144159,-8503.660028,-592.164754
5706.558768,888.247130,-8273.831378,-148.041188
5706.559092,962.267725,-8427.050478,-296.082377
5706.559417,1036.288319,-8427.050478,-74.020594
5706.559741,740.205942,-8580.269578,0.000000
5706.560065,666.185348,-8656.879127,0.000000
5706.560390,148.041188,-8733.488677,-592.164754
5706.560714,74.020594,-8733.488677,-370.102971
5706.561039,-370.102971,-8810.098227,-518.144159
5706.561363,0.000000,-8197.221829,-370.102971
5706.561688,0.000000,-7737.564530,0.000000
5706.562012,666.185348,-8580.269578,-296.082377
5706.562337,814.226536,-8273.831378,-444.123565
5706.562661,1184.329507,-8810.098227,0.000000
5706.562985,740.205942,-8503.660028,0.000000
5706.563310,1036.288319,-8580.269578,0.000000
5706.563634,370.102971,-8810.098227,-74.020594
5706.563959,74.020594,-8580.269578,-370.102971
5706.564283,0.000000,-9039.926876,-740.205942
5706.564608,-370.102971,-8580.269578,-444.123565
5706.564932,-296.082377,-8503.660028,-518.144159
5706.565257,-296.082377,-8656.879127,-1036.288319
5706.565581,592.164754,-8580.269578,-740.205942
5706.565905,296.082377,-7890.783629,-518.144159
5706.566230,1258.350101,-8886.707777,-444.123565
5706.566554,962.267725,-8427.050478,-296.082377
5706.566879,1110.308913,-8503.660028,0.000000
5706.567203,296.082377,-8810.098227,-666.185348
5706.567528,148.041188,-8810.098227,-444.123565
5706.567852,-222.061783,-8810.098227,-666.185348
5706.568177,0.000000,-8886.707777,-814.226536
5706.568501,0.000000,-8427.050478,-740.205942
5706.568825,-444.123565,-9193.145976,-1036.288319
5706.569150,592.164754,-8350.440928,-888.247130
5706.569474,814.226536,-8580.269578,-740.205942
5706.569799,1406.391290,-8350.440928,-666.185348
5706.570123,962.267725,-8580.269578,-148.041188
5706.570448,1258.350101,-8733.488677,-296.082377
5706.570772,592.164754,-8733.488677,-518.144159
5706.571097,592.164754,-8886.707777,-222.061783
5706.571421,0.000000,-8886.707777,-518.144159
5706.571745,0.000000,-8427.050478,-444.123565
5706.572070,-148.041188,-8580.269578,-518.144159
5706.572394,0.000000,-8273.831378,-444.123565
5706.572719,518.144159,-8580.269578,-296.082377
5706.573043,592.164754,-8886.707777,-666.185348
5706.573368,1258.350101,-8350.440928,-222.061783
5706.573692,1036.288319,-8503.660028,74.020594
5706.574017,1184.329507,-8580.269578,0.000000
5706.574341,962.267725,-8427.050478,0.000000
5706.574665,814.226536,-8810.098227,-148.041188
5706.574990,0.000000,-8580.269578,-296.082377
5706.575314,0.000000,-8273.831378,0.000000
5706.575639,-444.123565,-8503.660028,-296.082377
5706.575963,-148.041188,-9039.926876,-370.102971
5706.576288,148.041188,-8503.660028,-740.205942
5706.576612,222.061783,-8427.050478,-444.123565
5706.576937,962.267725,-8580.269578,-296.082377
5706.577261,814.226536,-9346.365076,0.000000
5706.577585,1406.391290,-8427.050478,0.000000
5706.577910,888.247130,-8503.660028,-370.102971
5706.578234,814.226536,-8963.317327,0.000000
5706.578559,296.082377,-8350.440928,-222.061783
5706.578883,0.000000,-8656.879127,-296.082377
5706.579208,-296.082377,-8656.879127,-518.144159
5706.579532,-370.102971,-8580.269578,-666.185348
5706.579857,0.000000,-8427.050478,-592.164754
5706.580181,370.102971,-9039.926876,-740.205942
5706.580505,518.144159,-8733.488677,-444.123565
5706.580830,1110.308913,-8503.660028,-296.082377
5706.581154,1332.370696,-8580.269578,0.000000
5706.581479,962.267725,-8656.879127,-370.102971
5706.581803,962.267725,-9269.755526,-74.020594
5706.582128,0.000000,-8580.269578,-222.061783
5706.582452,0.000000,-8580.269578,-592.164754
5706.582777,-148.041188,-8886.707777,-666.185348
5706.583101,-296.082377,-8656.879127,-814.226536
5706.583425,0.000000,-8580.269578,-1036.288319
5706.583750,148.041188,-8350.440928,-740.205942
5706.584074,444.123565,-8656.879127,-444.123565
5706.584399,1110.308913,-8273.831378,-222.061783
5706.584723,1184.329507,-8580.269578,-148.041188
5706.585048,1184.329507,-8810.098227,-518.144159
5706.585372,1406.391290,-8886.707777,-370.102971
5706.585697,518.144159,-8503.660028,-148.041188
5706.586021,222.061783,-8886.707777,-296.082377
5706.586345,0.000000,-8656.879127,-444.123565
5706.586670,0.000000,-8656.879127,-888.247130
5706.586994,0.000000,-8580.269578,-1036.288319
5706.587319,148.041188,-8427.050478,-814.226536
5706.587643,666.185348,-8350.440928,-888.247130
5706.587968,962.267725,-8350.440928,-666.185348
5706.588292,1110.308913,-8427.050478,-666.185348
5706.588617,888.247130,-8733.488677,-740.205942
5706.588941,1036.288319,-8350.440928,0.000000
5706.589265,740.205942,-8427.050478,0.000000
5706.589590,518.144159,-8733.488677,-370.102971
5706.589914,74.020594,-8580.269578,-666.185348
5706.590239,-296.082377,-8733.488677,-592.164754
5706.590563,-148.041188,-8350.440928,-814.226536
5706.590888,0.000000,-8427.050478,-296.082377
5706.591212,370.102971,-8350.440928,-592.164754
5706.591537,592.164754,-8656.879127,-666.185348
5706.591861,1110.308913,-8427.050478,-296.082377
5706.592185,1258.350101,-8580.269578,148.041188
5706.592510,1184.329507,-8580.269578,222.061783
5706.592834,888.247130,-8503.660028,148.041188
5706.593159,148.041188,-8733.488677,0.000000
5706.593483,148.041188,-8580.269578,0.000000
5706.593808,-296.082377,-8580.269578,-296.082377
5706.594132,-370.102971,-8810.098227,0.000000
5706.594457,-296.082377,-8427.050478,-444.123565
5706.594781,0.000000,-8656.879127,-148.041188
5706.595105,222.061783,-8273.831378,0.000000
5706.595430,666.185348,-8503.660028,74.020594
5706.595754,1258.350101,-8886.707777,296.082377
5706.596079,1332.370696,-8580.269578,222.061783
5706.596403,592.164754,-8810.098227,222.061783
5706.596728,444.123565,-8810.098227,74.020594
5706.597052,370.102971,-9269.755526,148.041188
5706.597377,-444.123565,-9039.926876,-370.102971
5706.597701,-296.082377,-8503.660028,-444.123565
5706.598025,-444.123565,-8503.660028,-370.102971
5706.598350,0.000000,-8656.879127,-666.185348
5706.598674,148.041188,-8580.269578,-222.061783
5706.598999,888.247130,-8580.269578,-370.102971
5706.599323,1184.329507,-7967.393179,-518.144159
5706.599648,1258.350101,-8350.440928,-296.082377
5706.599972,666.185348,-8886.707777,222.061783
5706.600297,962.267725,-8427.050478,-222.061783
5706.600621,296.082377,-8810.098227,-444.123565
5706.600945,0.000000,-8810.098227,-666.185348
5706.601270,-148.041188,-9729.412825,-444.123565
5706.601594,-444.123565,-8810.098227,-592.164754
5706.601919,74.020594,-8656.879127,-740.205942
5706.602243,518.144159,-8503.660028,-740.205942
5706.602568,592.164754,-8580.269578,-518.144159
5706.602892,1184.329507,-8656.879127,-296.082377
5706.603217,1332.370696,-8580.269578,0.000000
5706.603541,1110.308913,-8963.317327,0.000000
5706.603865,1036.288319,-8810.098227,-222.061783
5706.604190,74.020594,-9576.193725,-148.041188
5706.604514,-148.041188,-9039.926876,-518.144159
5706.604839,-296.082377,-8810.098227,-370.102971
5706.605163,-222.061783,-8886.707777,-814.226536
5706.605488,0.000000,-8580.269578,-962.267725
5706.605812,518.144159,-8886.707777,-888.247130
5706.606137,592.164754,-8503.660028,-888.247130
5706.606461,1258.350101,-8120.612279,-666.185348
5706.606785,1110.308913,-8273.831378,-740.205942
5706.607110,1332.370696,-8810.098227,-518.144159
5706.607434,1258.350101,-8503.660028,-666.185348
5706.607759,518.144159,-9039.926876,-666.185348
5706.608083,74.020594,-8580.269578,-518.144159
5706.608408,-370.102971,-8810.098227,-518.144159
5706.608732,-370.102971,-8810.098227,-370.102971
5706.609057,-222.061783,-8273.831378,-666.185348
5706.609381,370.102971,-8656.879127,-592.164754
5706.609705,296.082377,-8197.221829,-444.123565
5706.610030,666.185348,-8580.269578,-222.061783
5706.610354,740.205942,-8350.440928,0.000000
5706.610679,1184.329507,-8197.221829,-296.082377
5706.611003,962.267725,-8656.879127,222.061783
5706.611328,888.247130,-8427.050478,-370.102971
5706.611652,74.020594,-8656.879127,148.041188
5706.611977,-222.061783,-8733.488677,0.000000
5706.612301,-370.102971,-8810.098227,74.020594
5706.612625,-148.041188,-8197.221829,-296.082377
5706.612950,0.000000,-8273.831378,-592.164754
5706.613274,370.102971,-8120.612279,-370.102971
5706.613599,666.185348,-8120.612279,-296.082377
5706.613923,814.226536,-8656.879127,-370.102971
5706.614248,1332.370696,-8197.221829,-222.061783
5706.614572,1258.350101,-8427.050478,-370.102971
5706.614897,814.226536,-8810.098227,-222.061783
5706.615221,518.144159,-8886.707777,0.000000
5706.615545,444.123565,-8810.098227,-296.082377
5706.615870,222.061783,-8810.098227,-148.041188
5706.616194,-370.102971,-8427.050478,-592.164754
5706.616519,148.041188,-8963.317327,-444.123565
5706.616843,222.061783,-7814.174080,-222.061783
5706.617168,222.061783,-8427.050478,0.000000
5706.617492,814.226536,-8273.831378,0.000000
5706.617817,1332.370696,-8427.050478,0.000000
5706.618141,1184.329507,-8503.660028,74.020594
5706.618465,1110.308913,-8810.098227,444.123565
5706.618790,592.164754,-8733.488677,74.020594
5706.619114,370.102971,-8963.317327,74.020594
5706.619439,74.020594,-8886.707777,0.000000
5706.619763,-740.205942,-8733.488677,0.000000
5706.620088,0.000000,-8503.660028,-370.102971
5706.620412,0.000000,-8427.050478,-444.123565
5706.620737,370.102971,-8350.440928,-666.185348
5706.621061,592.164754,-8044.002729,-444.123565
5706.621385,1036.288319,-8197.221829,-444.123565
5706.621710,1036.288319,-8733.488677,-296.082377
5706.622034,1258.350101,-8427.050478,-296.082377
5706.622359,592.164754,-8810.098227,0.000000
5706.622683,370.102971,-8886.707777,0.000000
5706.623008,74.020594,-8810.098227,-518.144159
5706.623332,0.000000,-8886.707777,-666.185348
5706.623657,-296.082377,-8427.050478,-814.226536
5706.623981,-666.185348,-8197.221829,-740.205942
5706.624305,0.000000,-8733.488677,-592.164754
5706.624630,370.102971,-8273.831378,-592.164754
5706.624954,1036.288319,-8733.488677,-444.123565
5706.625279,962.267725,-8503.660028,-444.123565
5706.625603,1110.308913,-8886.707777,0.000000
5706.625928,740.205942,-8733.488677,-296.082377
5706.626252,444.123565,-8810.098227,0.000000
5706.626577,222.061783,-8733.488677,-444.123565
5706.626901,296.082377,-9346.365076,-444.123565
5706.627225,0.000000,-8656.879127,-518.144159
5706.627550,0.000000,-8427.050478,-444.123565
5706.627874,0.000000,-8273.831378,-444.123565
5706.628199,666.185348,-7660.954980,0.000000
5706.628523,888.247130,-8350.440928,-296.082377
5706.628848,1110.308913,-8350.440928,-222.061783
5706.629172,1258.350101,-8580.269578,0.000000
5706.629497,1036.288319,-8580.269578,74.020594
5706.629821,666.185348,-8503.660028,0.000000
5706.630145,370.102971,-8963.317327,-370.102971
5706.630470,222.061783,-8963.317327,-148.041188
5706.630794,0.000000,-8503.660028,-370.102971
5706.631119,-370.102971,-8044.002729,0.000000
5706.631443,222.061783,-8427.050478,-666.185348
5706.631768,518.144159,-8120.612279,-592.164754
5706.632092,962.267725,-8350.440928,-370.102971
5706.632417,1110.308913,-8580.269578,0.000000
5706.632741,1036.288319,-8580.269578,0.000000
5706.633065,666.185348,-8580.269578,-296.082377
5706.633390,666.185348,-8656.879127,-444.123565
5706.633714,74.020594,-8886.707777,-370.102971
5706.634038,296.082377,-8656.879127,-444.123565
5706.634363,-148.041188,-8886.707777,-296.082377
5706.634687,-592.164754,-8886.707777,-592.164754
5706.635011,0.000000,-8503.660028,-592.164754
5706.635336,592.164754,-7967.393179,-518.144159
5706.635660,888.247130,-8503.660028,-518.144159
5706.635984,814.226536,-8197.221829,-444.123565
5706.636309,1110.308913,-8427.050478,-148.041188
5706.636633,814.226536,-8503.660028,0.000000
5706.636958,1036.288319,-8733.488677,-296.082377
5706.637282,370.102971,-8810.098227,-370.102971
5706.637606,74.020594,-8656.879127,-296.082377
5706.637931,-148.041188,-8810.098227,-370.102971
5706.638255,-370.102971,-9039.926876,-370.102971
5706.638579,-148.041188,-8503.660028,-592.164754
5706.638904,148.041188,-8503.660028,-814.226536
5706.639228,666.185348,-8656.879127,-592.164754
5706.639552,1110.308913,-8810.098227,-296.082377
5706.639877,1184.329507,-8656.879127,-296.082377
5706.640201,1110.308913,-8350.440928,0.000000
5706.640525,962.267725,-9039.926876,-296.082377
5706.640850,370.102971,-8963.317327,-370.102971
5706.641174,518.144159,-8656.879127,0.000000
5706.641498,-148.041188,-8733.488677,-814.226536
5706.641823,0.000000,-8503.660028,-592.164754
5706.642147,-148.041188,-8273.831378,-740.205942
5706.642472,814.226536,-8886.707777,-814.226536
5706.642796,222.061783,-8656.879127,-666.185348
5706.643120,592.164754,-8427.050478,-148.041188
5706.643445,1036.288319,-8427.050478,-518.144159
5706.643769,1554.432478,-8427.050478,-296.082377
5706.644093,1184.329507,-8656.879127,-222.061783
5706.644418,962.267725,-8733.488677,0.000000
5706.644742,296.082377,-8503.660028,-296.082377
5706.645066,0.000000,-8810.098227,-148.041188
5706.645391,0.000000,-8503.660028,-370.102971
5706.645715,0.000000,-8733.488677,-444.123565
5706.646039,148.041188,-8580.269578,-518.144159
5706.646364,444.123565,-8350.440928,-370.102971
5706.646688,1258.350101,-8427.050478,-222.061783
5706.647013,1184.329507,-8427.050478,-148.041188
5706.647337,1332.370696,-8656.879127,-148.041188
5706.647661,1110.308913,-8733.488677,0.000000
5706.647986,1406.391290,-8427.050478,0.000000
5706.648310,518.144159,-8733.488677,-148.041188
5706.648634,74.020594,-8656.879127,-296.082377
5706.648959,-148.041188,-8580.269578,-148.041188
5706.649283,-370.102971,-8886.707777,-592.164754
5706.649607,-148.041188,-8580.269578,-444.123565
5706.649932,0.000000,-8197.221829,-296.082377
5706.650256,592.164754,-8273.831378,-370.102971
5706.650580,814.226536,-8273.831378,-222.061783
5706.650905,1258.350101,-8197.221829,0.000000
5706.651229,1258.350101,-8963.317327,222.061783
5706.651554,1036.288319,-8580.269578,148.041188
5706.651878,148.041188,-8656.879127,0.000000
5706.652202,0.000000,-8197.221829,-148.041188
5706.652527,-222.061783,-8733.488677,-222.061783
5706.652851,-370.102971,-8810.098227,-666.185348
5706.653175,-148.041188,-8580.269578,-444.123565
5706.653500,0.000000,-8503.660028,-370.102971
5706.653824,222.061783,-8273.831378,-74.020594
5706.654148,814.226536,-8427.050478,-444.123565
5706.654473,1110.308913,-8350.440928,-370.102971
5706.654797,1406.391290,-8580.269578,-148.041188
5706.655121,962.267725,-8427.050478,0.000000
5706.655446,740.205942,-8963.317327,-444.123565
5706.655770,74.020594,-8733.488677,0.000000
5706.656094,0.000000,-8963.317327,-444.123565
5706.656419,0.000000,-8810.098227,-888.247130
5706.656743,74.020594,-9039.926876,-518.144159
5706.657068,0.000000,-8580.269578,-592.164754
5706.657392,222.061783,-8197.221829,-222.061783
5706.657716,740.205942,-8350.440928,-370.102971
5706.658041,1332.370696,-8963.317327,-296.082377
5706.658365,1036.288319,-8427.050478,-148.041188
5706.658689,888.247130,-8656.879127,0.000000
5706.659014,740.205942,-8733.488677,-296.082377
5706.659338,740.205942,-8273.831378,74.020594
5706.659662,222.061783,-8656.879127,-296.082377
5706.659987,0.000000,-8810.098227,-518.144159
5706.660311,-370.102971,-8810.098227,-518.144159
5706.660635,0.000000,-8503.660028,-666.185348
