#time,accel_x,accel_y,accel_z
4006.317835,740.205942,-7890.783629,-1036.288319
4006.318160,1406.391290,-8810.098227,-1110.308913
4006.318485,444.123565,-8810.098227,-666.185348
4006.318809,444.123565,-9729.412825,-962.267725
4006.319134,-740.205942,-9422.974625,-1628.453072
4006.319459,-1258.350101,-9882.631924,-740.205942
4006.319783,-1258.350101,-9116.536426,-962.267725
4006.320108,-370.102971,-9116.536426,-1184.329507
4006.320433,-592.164754,-8886.707777,-1258.350101
4006.320758,518.144159,-8503.660028,-518.144159
4006.321082,148.041188,-8044.002729,-1776.494261
4006.321407,666.185348,-9039.926876,-1184.329507
4006.321732,-148.041188,-8273.831378,-1258.350101
4006.322056,0.000000,-9193.145976,-962.267725
4006.322381,-444.123565,-9116.536426,-1480.411884
4006.322706,-1628.453072,-9806.022374,-592.164754
4006.323031,-1702.473667,-9193.145976,-1184.329507
4006.323355,-2960.823768,-9806.022374,-444.123565
4006.323680,-3256.906145,-9116.536426,0.000000
4006.324005,-2664.741391,-8350.440928,-296.082377
4006.324329,-2516.700203,-9039.926876,-740.205942
4006.324654,-2664.741391,-8503.660028,-814.226536
4006.324979,-1776.494261,-8197.221829,-296.082377
4006.325304,-2812.782580,-7737.564530,-666.185348
4006.325628,-2960.823768,-8886.707777,-296.082377
4006.325953,-3478.967927,-8044.002729,-666.185348
4006.326278,-3701.029710,-8886.707777,0.000000
4006.326602,-4737.318029,-8580.269578,-666.185348
4006.326927,-4663.297435,-9116.536426,0.000000
4006.327251,-3923.091493,-8580.269578,-148.041188
4006.327575,-3627.009116,-8963.317327,0.000000
4006.327899,-3330.926739,-8350.440928,-740.205942
4006.328223,-2664.741391,-8810.098227,148.041188
4006.328548,-1924.535449,-7737.564530,740.205942
4006.328872,-2220.617826,-8044.002729,518.144159
4006.329196,-1480.411884,-8120.612279,370.102971
4006.329520,-1480.411884,-7737.564530,296.082377
4006.329845,-1332.370696,-8427.050478,666.185348
4006.330169,-1110.308913,-8197.221829,444.123565
4006.330493,-1110.308913,-8427.050478,740.205942
4006.330817,-1480.411884,-8427.050478,296.082377
4006.331141,-1702.473667,-8733.488677,814.226536
4006.331466,-1702.473667,-8427.050478,444.123565
4006.331790,-1258.350101,-8656.879127,222.061783
4006.332114,-1406.391290,-8427.050478,444.123565
4006.332438,-592.164754,-8503.660028,444.123565
4006.332763,-814.226536,-8197.221829,518.144159
4006.333087,-296.082377,-8197.221829,592.164754
4006.333411,-148.041188,-7890.783629,370.102971
4006.333735,-666.185348,-8120.612279,222.061783
4006.334059,-666.185348,-8044.002729,74.020594
4006.334384,-296.082377,-8273.831378,518.144159
4006.334708,-444.123565,-8273.831378,0.000000
4006.335032,-666.185348,-8427.050478,296.082377
4006.335356,222.061783,-8656.879127,-296.082377
4006.335681,518.144159,-8197.221829,-296.082377
4006.336005,1036.288319,-8273.831378,-666.185348
4006.336329,1480.411884,-8733.488677,-370.102971
4006.336653,2146.597232,-8273.831378,-666.185348
4006.336977,2220.617826,-8044.002729,-962.267725
4006.337302,2516.700203,-8810.098227,-370.102971
4006.337626,2368.659014,-8350.440928,-1184.329507
4006.337950,2516.700203,-8503.660028,-518.144159
4006.338274,2294.638420,-8580.269578,-1184.329507
4006.338599,2590.720797,-9422.974625,-740.205942
4006.338923,2812.782580,-8350.440928,-1406.391290
4006.339247,2368.659014,-9346.365076,-1184.329507
4006.339571,2812.782580,-9039.926876,-1332.370696
4006.339895,3108.864956,-8963.317327,-962.267725
4006.340220,3404.947333,-8580.269578,-1258.350101
4006.340544,3552.988522,-8810.098227,-888.247130
4006.340868,3997.112087,-8886.707777,-1258.350101
4006.341192,3478.967927,-8886.707777,-1406.391290
4006.341517,3256.906145,-8810.098227,-1406.391290
4006.341841,2368.659014,-9193.145976,-1554.432478
4006.342165,1998.556043,-9652.803275,-1776.494261
4006.342489,1480.411884,-9193.145976,-1480.411884
4006.342813,1110.308913,-9422.974625,-1258.350101
4006.343138,296.082377,-9346.365076,-1554.432478
4006.343462,592.164754,-9729.412825,-666.185348
4006.343786,740.205942,-8963.317327,-1110.308913
4006.344110,814.226536,-9116.536426,-962.267725
4006.344435,1258.350101,-8963.317327,-1184.329507
4006.344759,1110.308913,-9422.974625,-740.205942
4006.345083,814.226536,-8963.317327,-1110.308913
4006.345407,444.123565,-8810.098227,-666.185348
4006.345731,222.061783,-8810.098227,-740.205942
4006.346056,-592.164754,-8963.317327,-518.144159
4006.346380,-1036.288319,-9576.193725,222.061783
4006.346704,-1628.453072,-8886.707777,-222.061783
4006.347028,-1554.432478,-9193.145976,-148.041188
4006.347353,-1332.370696,-8886.707777,0.000000
4006.347677,-1628.453072,-8963.317327,444.123565
4006.348001,-740.205942,-8733.488677,222.061783
4006.348325,-222.061783,-8580.269578,222.061783
4006.348649,-222.061783,-7967.393179,370.102971
4006.348974,0.000000,-8197.221829,148.041188
4006.349298,-148.041188,-8427.050478,518.144159
4006.349622,-592.164754,-8503.660028,592.164754
4006.349946,-962.267725,-8656.879127,444.123565
4006.350271,-1702.473667,-8656.879127,444.123565
4006.350595,-1924.535449,-8197.221829,962.267725
4006.350919,-2220.617826,-8350.440928,518.144159
4006.351243,-2072.576638,-8580.269578,888.247130
4006.351568,-1554.432478,-8580.269578,962.267725
4006.351892,-1184.329507,-8656.879127,1406.391290
4006.352216,-444.123565,-8044.002729,666.185348
4006.352540,-222.061783,-7967.393179,962.267725
4006.352864,-222.061783,-7660.954980,518.144159
4006.353189,-370.102971,-8350.440928,592.164754
4006.353513,-962.267725,-7967.393179,370.102971
4006.353837,-1184.329507,-8197.221829,592.164754
4006.354161,-1184.329507,-8273.831378,518.144159
4006.354486,-1554.432478,-8503.660028,592.164754
4006.354810,-444.123565,-8503.660028,370.102971
4006.355134,-666.185348,-8273.831378,444.123565
4006.355458,148.041188,-8273.831378,0.000000
4006.355782,666.185348,-8120.612279,148.041188
4006.356107,1332.370696,-8120.612279,222.061783
4006.356431,1998.556043,-7890.783629,-148.041188
4006.356755,2368.659014,-8120.612279,-222.061783
4006.357079,2220.617826,-8350.440928,-222.061783
4006.357404,2516.700203,-8427.050478,-296.082377
4006.357728,2368.659014,-8273.831378,-222.061783
4006.358052,2368.659014,-8733.488677,-444.123565
4006.358376,2368.659014,-8810.098227,-740.205942
4006.358700,2072.576638,-8886.707777,-962.267725
4006.359025,2812.782580,-8427.050478,-444.123565
4006.359349,2294.638420,-8427.050478,-1480.411884
4006.359673,2886.803174,-8963.317327,-1332.370696
4006.359997,2368.659014,-8120.612279,-1036.288319
4006.360322,2442.679609,-9116.536426,-740.205942
4006.360646,2072.576638,-8580.269578,-1924.535449
4006.360970,2220.617826,-9116.536426,-1332.370696
4006.361294,1480.411884,-8580.269578,-1924.535449
4006.361618,1554.432478,-9346.365076,-1554.432478
4006.361943,592.164754,-8580.269578,-1702.473667
4006.362267,444.123565,-9422.974625,-1258.350101
4006.362591,370.102971,-8886.707777,-2146.597232
4006.362915,518.144159,-9652.803275,-1480.411884
4006.363240,814.226536,-8427.050478,-1702.473667
4006.363564,444.123565,-9269.755526,-1480.411884
4006.363888,888.247130,-9269.755526,-1406.391290
4006.364212,518.144159,-8810.098227,-1332.370696
4006.364536,1184.329507,-9346.365076,-1258.350101
4006.364861,740.205942,-9116.536426,-1406.391290
4006.365185,888.247130,-9269.755526,-740.205942
4006.365509,444.123565,-8886.707777,-962.267725
4006.365833,370.102971,-9499.584175,-296.082377
4006.366158,74.020594,-8963.317327,-888.247130
4006.366482,0.000000,-9576.193725,-222.061783
4006.366806,-296.082377,-8503.660028,-518.144159
4006.367130,-592.164754,-9116.536426,0.000000
4006.367454,-370.102971,-9039.926876,222.061783
4006.367779,-518.144159,-8733.488677,370.102971
4006.368103,-666.185348,-8733.488677,0.000000
4006.368427,-518.144159,-8580.269578,518.144159
4006.368751,-592.164754,-8273.831378,370.102971
4006.369076,-740.205942,-8503.660028,370.102971
4006.369400,-592.164754,-8350.440928,222.061783
4006.369724,-666.185348,-8810.098227,370.102971
4006.370048,-1110.308913,-8427.050478,518.144159
4006.370372,-1406.391290,-8197.221829,962.267725
4006.370697,-1480.411884,-8350.440928,888.247130
4006.371021,-1480.411884,-7814.174080,740.205942
4006.371345,-1110.308913,-8120.612279,740.205942
4006.371669,-370.102971,-7967.393179,1036.288319
4006.371994,-296.082377,-7890.783629,1184.329507
4006.372318,0.000000,-7814.174080,1036.288319
4006.372642,444.123565,-7507.735880,1406.391290
4006.372966,592.164754,-7814.174080,1110.308913
4006.373290,740.205942,-8044.002729,1332.370696
4006.373615,592.164754,-7660.954980,1184.329507
4006.373939,444.123565,-8273.831378,1554.432478
4006.374263,0.000000,-7890.783629,1110.308913
4006.374587,518.144159,-7967.393179,740.205942
4006.374912,222.061783,-7737.564530,814.226536
4006.375236,888.247130,-8350.440928,1036.288319
4006.375560,666.185348,-7584.345430,592.164754
4006.375884,1110.308913,-7584.345430,888.247130
4006.376208,888.247130,-7737.564530,0.000000
4006.376533,1110.308913,-8580.269578,592.164754
4006.376857,962.267725,-7890.783629,-296.082377
4006.377181,1406.391290,-8427.050478,296.082377
4006.377505,370.102971,-7814.174080,-148.041188
4006.377830,962.267725,-8963.317327,0.000000
4006.378154,888.247130,-8120.612279,-1036.288319
4006.378478,1036.288319,-9269.755526,-444.123565
4006.378802,1554.432478,-8273.831378,-962.267725
4006.379126,1554.432478,-8886.707777,-962.267725
4006.379451,1702.473667,-8886.707777,-1258.350101
4006.379775,1702.473667,-9116.536426,-666.185348
4006.380099,1850.514855,-9193.145976,-1702.473667
4006.380423,1924.535449,-9116.536426,-1406.391290
4006.380748,1924.535449,-9116.536426,-1332.370696
4006.381072,1258.350101,-9269.755526,-1628.453072
4006.381396,1332.370696,-9576.193725,-1850.514855
4006.381720,444.123565,-9039.926876,-1998.556043
4006.382044,592.164754,-9422.974625,-1850.514855
4006.382369,444.123565,-9499.584175,-1924.535449
4006.382693,740.205942,-9652.803275,-1850.514855
4006.383017,740.205942,-9346.365076,-2220.617826
4006.383341,592.164754,-9269.755526,-1628.453072
4006.383666,888.247130,-9499.584175,-1924.535449
4006.383990,1110.308913,-9193.145976,-1480.411884
4006.384314,1110.308913,-9422.974625,-1554.432478
4006.384638,888.247130,-9193.145976,-1554.432478
4006.384962,666.185348,-9193.145976,-1554.432478
4006.385287,296.082377,-9269.755526,-1258.350101
4006.385611,148.041188,-9116.536426,-1110.308913
4006.385935,666.185348,-9652.803275,-1332.370696
4006.386259,444.123565,-8886.707777,-1110.308913
4006.386584,518.144159,-8886.707777,-666.185348
4006.386908,296.082377,-8733.488677,-740.205942
4006.387232,888.247130,-9576.193725,0.000000
4006.387556,814.226536,-7967.393179,-592.164754
4006.387880,1036.288319,-8886.707777,0.000000
4006.388205,666.185348,-7967.393179,-518.144159
4006.388529,888.247130,-8886.707777,0.000000
4006.388853,370.102971,-8120.612279,-444.123565
4006.389177,74.020594,-8656.879127,592.164754
4006.389502,-740.205942,-7814.174080,0.000000
4006.389826,-814.226536,-8273.831378,518.144159
4006.390150,-1480.411884,-7584.345430,814.226536
4006.390474,-1332.370696,-8120.612279,888.247130
4006.390798,-1036.288319,-7967.393179,444.123565
4006.391123,-666.185348,-7737.564530,1258.350101
4006.391447,-370.102971,-7967.393179,888.247130
4006.391771,-666.185348,-7890.783629,814.226536
4006.392095,-222.061783,-7967.393179,1036.288319
4006.392420,-296.082377,-7660.954980,1110.308913
4006.392744,74.020594,-8273.831378,888.247130
4006.393068,-222.061783,-8044.002729,1258.350101
4006.393392,0.000000,-8197.221829,962.267725
4006.393716,-592.164754,-8273.831378,1184.329507
4006.394041,0.000000,-8197.221829,888.247130
4006.394365,-148.041188,-8197.221829,740.205942
4006.394689,148.041188,-8273.831378,1184.329507
4006.395013,444.123565,-8273.831378,666.185348
4006.395338,666.185348,-8120.612279,592.164754
4006.395662,740.205942,-8656.879127,444.123565
4006.395986,814.226536,-8656.879127,444.123565
4006.396310,666.185348,-8503.660028,0.000000
4006.396634,814.226536,-8580.269578,222.061783
4006.396959,518.144159,-8656.879127,0.000000
4006.397283,814.226536,-9039.926876,0.000000
4006.397607,518.144159,-9039.926876,-296.082377
4006.397931,444.123565,-8503.660028,0.000000
4006.398256,444.123565,-8733.488677,-666.185348
4006.398580,740.205942,-9269.755526,-148.041188
4006.398904,888.247130,-8963.317327,-962.267725
4006.399228,888.247130,-8733.488677,-666.185348
4006.399552,1332.370696,-9039.926876,-888.247130
4006.399877,1406.391290,-8886.707777,-888.247130
4006.400201,1702.473667,-9193.145976,-1184.329507
4006.400525,1184.329507,-8963.317327,-1184.329507
4006.400849,1332.370696,-9422.974625,-1480.411884
4006.401174,1184.329507,-9346.365076,-1480.411884
4006.401498,1702.473667,-8810.098227,-1554.432478
4006.401822,1036.288319,-9193.145976,-1554.432478
4006.402146,1036.288319,-9039.926876,-1332.370696
4006.402470,1702.473667,-9116.536426,-1702.473667
4006.402795,1480.411884,-9116.536426,-1258.350101
4006.403119,1628.453072,-9269.755526,-1036.288319
4006.403443,1480.411884,-8656.879127,-1554.432478
4006.403767,1554.432478,-9346.365076,-1554.432478
4006.404092,1110.308913,-8580.269578,-1406.391290
4006.404416,1406.391290,-9193.145976,-1480.411884
4006.404740,1110.308913,-9116.536426,-1702.473667
4006.405064,1036.288319,-8810.098227,-1036.288319
4006.405388,592.164754,-8810.098227,-1332.370696
4006.405713,74.020594,-9269.755526,-1036.288319
4006.406037,370.102971,-8810.098227,-1480.411884
4006.406361,0.000000,-8886.707777,-1332.370696
4006.406685,296.082377,-8886.707777,-962.267725
4006.407010,0.000000,-8886.707777,-148.041188
4006.407334,518.144159,-8886.707777,-518.144159
4006.407658,74.020594,-8350.440928,-1110.308913
4006.407982,740.205942,-9193.145976,-370.102971
4006.408306,74.020594,-7967.393179,-518.144159
4006.408631,296.082377,-9116.536426,0.000000
4006.408955,0.000000,-8503.660028,-296.082377
4006.409279,0.000000,-8810.098227,222.061783
4006.409603,0.000000,-8273.831378,0.000000
4006.409928,0.000000,-8810.098227,518.144159
4006.410252,-740.205942,-8427.050478,296.082377
4006.410576,-666.185348,-8273.831378,740.205942
4006.410900,-888.247130,-8197.221829,296.082377
4006.411224,-962.267725,-7354.516781,296.082377
4006.411549,-740.205942,-7967.393179,740.205942
4006.411873,-740.205942,-8427.050478,370.102971
4006.412197,-518.144159,-8273.831378,666.185348
4006.412521,-592.164754,-8120.612279,444.123565
4006.412846,0.000000,-7890.783629,666.185348
4006.413170,0.000000,-8197.221829,518.144159
4006.413494,0.000000,-8120.612279,740.205942
4006.413818,-296.082377,-7814.174080,518.144159
4006.414142,-296.082377,-7584.345430,888.247130
4006.414467,0.000000,-8197.221829,370.102971
4006.414791,222.061783,-8044.002729,518.144159
4006.415115,296.082377,-8197.221829,222.061783
4006.415439,518.144159,-8120.612279,666.185348
4006.415764,666.185348,-7814.174080,370.102971
4006.416088,740.205942,-8044.002729,296.082377
4006.416412,962.267725,-7584.345430,74.020594
4006.416736,1258.350101,-8273.831378,74.020594
4006.417060,1036.288319,-8350.440928,-296.082377
4006.417385,1184.329507,-8427.050478,74.020594
4006.417709,1184.329507,-8810.098227,0.000000
4006.418033,814.226536,-8656.879127,-444.123565
4006.418357,1036.288319,-9346.365076,-444.123565
4006.418682,518.144159,-8273.831378,-814.226536
4006.419006,444.123565,-8963.317327,-148.041188
4006.419330,148.041188,-8427.050478,-888.247130
4006.419654,296.082377,-8886.707777,-888.247130
4006.419978,518.144159,-8810.098227,-1184.329507
4006.420303,518.144159,-8580.269578,-962.267725
4006.420627,666.185348,-8810.098227,-1406.391290
4006.420951,814.226536,-9116.536426,-1184.329507
4006.421275,1184.329507,-9499.584175,-962.267725
4006.421600,444.123565,-8580.269578,-1332.370696
4006.421924,1332.370696,-9346.365076,-1406.391290
4006.422248,592.164754,-9422.974625,-1184.329507
4006.422572,1110.308913,-9116.536426,-1184.329507
4006.422896,888.247130,-9269.755526,-1554.432478
4006.423221,444.123565,-9269.755526,-1554.432478
4006.423545,444.123565,-9116.536426,-1184.329507
4006.423869,518.144159,-8810.098227,-1480.411884
4006.424193,888.247130,-9269.755526,-1184.329507
4006.424518,518.144159,-8733.488677,-1332.370696
4006.424842,444.123565,-9039.926876,-1554.432478
4006.425166,370.102971,-9269.755526,-1110.308913
4006.425490,296.082377,-9576.193725,-1036.288319
4006.425814,370.102971,-8886.707777,-962.267725
4006.426139,148.041188,-9116.536426,-814.226536
4006.426463,74.020594,-9499.584175,-740.205942
4006.426787,222.061783,-9116.536426,-666.185348
4006.427111,370.102971,-9193.145976,-444.123565
4006.427437,296.082377,-8733.488677,-592.164754
4006.427761,296.082377,-8886.707777,-74.020594
4006.428086,296.082377,-8427.050478,0.000000
4006.428410,74.020594,-8427.050478,0.000000
4006.428735,74.020594,-8427.050478,0.000000
4006.429059,296.082377,-8427.050478,0.000000
4006.429384,222.061783,-7967.393179,370.102971
4006.429708,148.041188,-8350.440928,0.000000
4006.430032,0.000000,-8197.221829,74.020594
4006.430357,222.061783,-8120.612279,444.123565
4006.430681,148.041188,-8120.612279,370.102971
4006.431006,296.082377,-8427.050478,592.164754
4006.431330,74.020594,-8197.221829,666.185348
4006.431654,296.082377,-8120.612279,740.205942
4006.431979,148.041188,-8044.002729,518.144159
4006.432303,592.164754,-8197.221829,814.226536
4006.432628,814.226536,-7660.954980,1036.288319
4006.432952,666.185348,-7890.783629,518.144159
4006.433277,740.205942,-8120.612279,666.185348
4006.433601,444.123565,-7967.393179,444.123565
4006.433925,148.041188,-8120.612279,222.061783
4006.434250,-222.061783,-8427.050478,370.102971
4006.434574,-592.164754,-8044.002729,222.061783
4006.434899,-518.144159,-8350.440928,592.164754
4006.435223,-592.164754,-8427.050478,444.123565
4006.435547,-222.061783,-8427.050478,0.000000
4006.435872,370.102971,-8427.050478,296.082377
4006.436196,444.123565,-7890.783629,0.000000
4006.436521,888.247130,-8656.879127,0.000000
4006.436845,888.247130,-8733.488677,-148.041188
4006.437170,1110.308913,-8810.098227,0.000000
4006.437494,370.102971,-8350.440928,-518.144159
4006.437818,0.000000,-8963.317327,0.000000
4006.438143,-296.082377,-9039.926876,-370.102971
4006.438467,74.020594,-9116.536426,-444.123565
4006.438792,148.041188,-8810.098227,-740.205942
4006.439116,444.123565,-9193.145976,-592.164754
4006.439440,518.144159,-8733.488677,-1184.329507
4006.439765,592.164754,-9193.145976,-666.185348
4006.440089,962.267725,-8810.098227,-1258.350101
4006.440414,962.267725,-9193.145976,-962.267725
4006.440738,888.247130,-9116.536426,-1406.391290
4006.441063,740.205942,-9806.022374,-740.205942
4006.441387,592.164754,-9269.755526,-1184.329507
4006.441711,296.082377,-9193.145976,-1036.288319
4006.442036,0.000000,-9422.974625,-814.226536
4006.442360,0.000000,-9116.536426,-962.267725
4006.442685,0.000000,-9422.974625,-1480.411884
4006.443009,0.000000,-9193.145976,-1110.308913
4006.443333,370.102971,-8963.317327,-962.267725
4006.443658,370.102971,-8656.879127,-1332.370696
4006.443982,888.247130,-9039.926876,-1036.288319
4006.444307,1184.329507,-8656.879127,-1332.370696
4006.444631,1184.329507,-8886.707777,-1036.288319
4006.444956,1184.329507,-8656.879127,-1258.350101
4006.445280,1702.473667,-8963.317327,-148.041188
4006.445604,1332.370696,-8810.098227,-888.247130
4006.445929,1554.432478,-9499.584175,-740.205942
4006.446253,740.205942,-8733.488677,-1036.288319
4006.446578,1110.308913,-8580.269578,0.000000
4006.446902,148.041188,-8197.221829,-888.247130
4006.447226,444.123565,-8580.269578,-222.061783
4006.447551,518.144159,-7737.564530,-444.123565
4006.447875,814.226536,-8733.488677,-370.102971
4006.448200,518.144159,-7507.735880,-370.102971
4006.448524,888.247130,-8427.050478,222.061783
4006.448849,740.205942,-8503.660028,0.000000
4006.449173,666.185348,-8350.440928,74.020594
4006.449497,666.185348,-7890.783629,0.000000
4006.449822,222.061783,-8580.269578,296.082377
4006.450146,-296.082377,-8273.831378,148.041188
4006.450471,-666.185348,-8733.488677,296.082377
4006.450795,-740.205942,-8427.050478,222.061783
4006.451119,-518.144159,-8273.831378,444.123565
4006.451444,-222.061783,-8273.831378,444.123565
4006.451768,-370.102971,-8273.831378,518.144159
4006.452093,148.041188,-8044.002729,222.061783
4006.452417,296.082377,-7814.174080,444.123565
4006.452742,592.164754,-8120.612279,296.082377
4006.453066,518.144159,-8503.660028,296.082377
4006.453390,296.082377,-8503.660028,148.041188
4006.453715,222.061783,-8427.050478,444.123565
4006.454039,0.000000,-9116.536426,518.144159
4006.454364,-740.205942,-8427.050478,0.000000
4006.454688,-296.082377,-8733.488677,74.020594
4006.455012,-592.164754,-8350.440928,222.061783
4006.455337,-222.061783,-8503.660028,370.102971
4006.455661,0.000000,-8427.050478,0.000000
4006.455986,592.164754,-8427.050478,518.144159
4006.456310,740.205942,-8120.612279,-592.164754
4006.456635,1110.308913,-8503.660028,-444.123565
4006.456959,1258.350101,-8427.050478,0.000000
4006.457283,592.164754,-8810.098227,0.000000
4006.457608,74.020594,-9193.145976,-370.102971
4006.457932,814.226536,-8810.098227,74.020594
4006.458257,74.020594,-8733.488677,-444.123565
4006.458581,0.000000,-8963.317327,-148.041188
4006.458905,444.123565,-8733.488677,-592.164754
4006.459230,592.164754,-8580.269578,-296.082377
4006.459554,592.164754,-7890.783629,-814.226536
4006.459879,1036.288319,-8427.050478,-814.226536
4006.460203,1702.473667,-8503.660028,-666.185348
4006.460528,1554.432478,-8273.831378,-370.102971
4006.460852,1628.453072,-8810.098227,-1258.350101
4006.461176,1480.411884,-8580.269578,-740.205942
4006.461501,1110.308913,-8580.269578,-1036.288319
4006.461825,888.247130,-8963.317327,-888.247130
4006.462150,444.123565,-8810.098227,-740.205942
4006.462474,592.164754,-9116.536426,-444.123565
4006.462798,370.102971,-8656.879127,-1110.308913
4006.463123,740.205942,-8580.269578,-592.164754
4006.463447,1036.288319,-8810.098227,-1110.308913
4006.463772,1480.411884,-8733.488677,-518.144159
4006.464096,1554.432478,-8733.488677,-888.247130
4006.464421,1258.350101,-8656.879127,-962.267725
4006.464745,1110.308913,-8503.660028,-1184.329507
4006.465069,1332.370696,-8427.050478,-444.123565
4006.465394,666.185348,-8963.317327,-814.226536
4006.465718,592.164754,-9193.145976,-740.205942
4006.466043,370.102971,-8810.098227,-666.185348
4006.466367,814.226536,-9346.365076,-592.164754
4006.466691,222.061783,-8427.050478,-1110.308913
4006.467016,1036.288319,-9269.755526,-296.082377
4006.467340,740.205942,-7890.783629,-666.185348
4006.467665,1036.288319,-9116.536426,-444.123565
4006.467989,814.226536,-8503.660028,-592.164754
4006.468314,1258.350101,-8733.488677,0.000000
4006.468638,74.020594,-8503.660028,-740.205942
4006.468962,296.082377,-9346.365076,0.000000
4006.469287,-148.041188,-8427.050478,-148.041188
4006.469611,-444.123565,-8963.317327,0.000000
4006.469936,-814.226536,-8810.098227,-444.123565
4006.470260,-444.123565,-8733.488677,222.061783
4006.470584,0.000000,-8503.660028,0.000000
4006.470909,0.000000,-8197.221829,222.061783
4006.471233,518.144159,-8273.831378,0.000000
4006.471558,148.041188,-8044.002729,74.020594
4006.471882,666.185348,-8120.612279,0.000000
4006.472207,370.102971,-7814.174080,0.000000
4006.472531,148.041188,-8580.269578,444.123565
4006.472855,0.000000,-7890.783629,74.020594
4006.473180,74.020594,-8427.050478,370.102971
4006.473504,0.000000,-7431.126331,222.061783
4006.473829,-296.082377,-8580.269578,518.144159
4006.474153,370.102971,-8120.612279,0.000000
4006.474477,962.267725,-8503.660028,518.144159
4006.474802,814.226536,-7890.783629,222.061783
4006.475126,962.267725,-7890.783629,370.102971
4006.475451,1258.350101,-8120.612279,-370.102971
4006.475775,1480.411884,-8273.831378,444.123565
4006.476100,962.267725,-8427.050478,0.000000
4006.476424,962.267725,-9116.536426,296.082377
4006.476748,518.144159,-8350.440928,0.000000
4006.477073,-296.082377,-8656.879127,74.020594
4006.477397,-370.102971,-8810.098227,-222.061783
4006.477722,-222.061783,-8427.050478,222.061783
4006.478046,-370.102971,-8580.269578,-222.061783
4006.478370,-370.102971,-8427.050478,-370.102971
4006.478695,0.000000,-8810.098227,-222.061783
4006.479019,0.000000,-8350.440928,-518.144159
4006.479344,444.123565,-8810.098227,-370.102971
4006.479668,222.061783,-8656.879127,-148.041188
4006.479993,444.123565,-8656.879127,-222.061783
4006.480317,444.123565,-8733.488677,-370.102971
4006.480641,592.164754,-9193.145976,-518.144159
4006.480966,296.082377,-9269.755526,-518.144159
4006.481290,74.020594,-9116.536426,-740.205942
4006.481615,74.020594,-9422.974625,-740.205942
4006.481939,0.000000,-8656.879127,-666.185348
4006.482263,222.061783,-8963.317327,-296.082377
4006.482588,666.185348,-8427.050478,-1036.288319
4006.482912,962.267725,-8963.317327,-1036.288319
4006.483237,1184.329507,-8733.488677,-962.267725
4006.483561,814.226536,-8427.050478,-592.164754
4006.483886,1110.308913,-8733.488677,-1036.288319
4006.484210,888.247130,-9269.755526,-592.164754
4006.484534,1036.288319,-8810.098227,-962.267725
4006.484859,666.185348,-8963.317327,-1110.308913
4006.485183,518.144159,-8886.707777,-592.164754
4006.485508,296.082377,-9346.365076,-814.226536
4006.485832,370.102971,-8886.707777,-592.164754
4006.486156,740.205942,-9116.536426,-666.185348
4006.486481,370.102971,-8580.269578,-518.144159
4006.486805,592.164754,-8503.660028,-518.144159
4006.487130,888.247130,-8427.050478,-370.102971
4006.487454,1036.288319,-8427.050478,-740.205942
4006.487779,740.205942,-8120.612279,-444.123565
4006.488103,1036.288319,-8427.050478,-444.123565
4006.488427,814.226536,-8656.879127,-296.082377
4006.488752,592.164754,-8886.707777,-370.102971
4006.489076,592.164754,-8503.660028,-296.082377
4006.489401,666.185348,-8580.269578,-148.041188
4006.489725,666.185348,-8886.707777,0.000000
4006.490049,518.144159,-8503.660028,-296.082377
4006.490374,518.144159,-8580.269578,74.020594
4006.490698,296.082377,-8197.221829,-370.102971
4006.491023,814.226536,-8120.612279,0.000000
4006.491347,888.247130,-8197.221829,0.000000
4006.491672,962.267725,-7967.393179,-74.020594
4006.491996,1258.350101,-8044.002729,0.000000
4006.492320,74.020594,-8044.002729,-222.061783
4006.492645,296.082377,-8350.440928,0.000000
4006.492969,0.000000,-8350.440928,0.000000
4006.493294,74.020594,-9422.974625,-222.061783
4006.493618,0.000000,-8503.660028,-444.123565
4006.493942,0.000000,-8733.488677,0.000000
4006.494267,0.000000,-8120.612279,0.000000
4006.494591,222.061783,-8350.440928,-222.061783
4006.494916,888.247130,-8886.707777,-222.061783
4006.495240,518.144159,-8120.612279,0.000000
4006.495565,666.185348,-8656.879127,-296.082377
4006.495889,0.000000,-8197.221829,-518.144159
4006.496213,148.041188,-9116.536426,962.267725
4006.496538,0.000000,-8503.660028,-666.185348
4006.496862,222.061783,-9193.145976,74.020594
4006.497187,0.000000,-8886.707777,-296.082377
4006.497511,-222.061783,-8733.488677,-296.082377
4006.497836,-518.144159,-8810.098227,-370.102971
4006.498160,0.000000,-9039.926876,-370.102971
4006.498484,74.020594,-8580.269578,-444.123565
4006.498809,-296.082377,-8733.488677,-74.020594
4006.499133,74.020594,-9422.974625,-444.123565
4006.499458,-370.102971,-8580.269578,-296.082377
4006.499782,0.000000,-9039.926876,-666.185348
4006.500106,-518.144159,-8810.098227,-444.123565
4006.500431,0.000000,-8886.707777,-296.082377
4006.500755,-370.102971,-8886.707777,-222.061783
4006.501080,-370.102971,-8886.707777,-518.144159
4006.501404,0.000000,-8733.488677,-444.123565
4006.501729,74.020594,-8656.879127,-444.123565
4006.502053,666.185348,-8580.269578,-518.144159
4006.502377,740.205942,-8733.488677,-666.185348
4006.502702,888.247130,-8733.488677,-518.144159
4006.503026,1036.288319,-8427.050478,-370.102971
4006.503351,1480.411884,-8503.660028,-444.123565
4006.503675,1554.432478,-8733.488677,-296.082377
4006.503999,1776.494261,-8503.660028,-444.123565
4006.504324,1184.329507,-8810.098227,-666.185348
4006.504648,1258.350101,-9499.584175,74.020594
4006.504973,962.267725,-8580.269578,-444.123565
4006.505297,592.164754,-8656.879127,-888.247130
4006.505622,740.205942,-8733.488677,0.000000
4006.505946,222.061783,-8350.440928,-296.082377
4006.506270,74.020594,-8810.098227,-962.267725
4006.506595,222.061783,-8427.050478,-592.164754
4006.506919,666.185348,-8503.660028,0.000000
4006.507244,518.144159,-8427.050478,-740.205942
4006.507568,666.185348,-7890.783629,0.000000
4006.507892,666.185348,-8886.707777,0.000000
4006.508217,222.061783,-8580.269578,-518.144159
4006.508541,148.041188,-9039.926876,-444.123565
4006.508866,148.041188,-8580.269578,-296.082377
4006.509190,0.000000,-8580.269578,-592.164754
4006.509515,0.000000,-8963.317327,-148.041188
4006.509839,-296.082377,-8810.098227,0.000000
4006.510163,0.000000,-8273.831378,0.000000
4006.510488,74.020594,-8350.440928,-518.144159
4006.510812,592.164754,-8197.221829,-296.082377
4006.511137,740.205942,-8503.660028,-444.123565
4006.511461,666.185348,-8503.660028,-222.061783
4006.511785,740.205942,-8580.269578,-148.041188
4006.512110,296.082377,-9039.926876,-222.061783
4006.512434,148.041188,-8350.440928,-222.061783
4006.512759,0.000000,-9039.926876,-370.102971
4006.513083,0.000000,-8733.488677,-222.061783
4006.513408,0.000000,-8810.098227,0.000000
4006.513732,0.000000,-8810.098227,-148.041188
4006.514056,74.020594,-8503.660028,0.000000
4006.514381,296.082377,-8350.440928,-222.061783
4006.514705,740.205942,-8733.488677,-296.082377
4006.515030,444.123565,-8350.440928,-222.061783
4006.515354,222.061783,-8503.660028,-222.061783
4006.515678,444.123565,-8503.660028,-296.082377
4006.516003,296.082377,-9652.803275,74.020594
4006.516327,-148.041188,-8273.831378,0.000000
4006.516652,0.000000,-8886.707777,-222.061783
4006.516976,148.041188,-8810.098227,-148.041188
4006.517301,148.041188,-8810.098227,-296.082377
4006.517625,592.164754,-8350.440928,-296.082377
4006.517949,370.102971,-8350.440928,-148.041188
4006.518274,666.185348,-8350.440928,0.000000
4006.518598,592.164754,-7967.393179,-296.082377
4006.518923,888.247130,-8427.050478,-222.061783
4006.519247,1036.288319,-8350.440928,-222.061783
4006.519571,888.247130,-8503.660028,0.000000
4006.519896,962.267725,-8350.440928,-444.123565
4006.520220,1406.391290,-8350.440928,-666.185348
4006.520545,1184.329507,-8503.660028,-518.144159
4006.520869,666.185348,-8886.707777,74.020594
4006.521194,222.061783,-8503.660028,-444.123565
4006.521518,296.082377,-8503.660028,-444.123565
4006.521842,0.000000,-8273.831378,-740.205942
4006.522167,370.102971,-8656.879127,-592.164754
4006.522491,0.000000,-8350.440928,-666.185348
4006.522816,666.185348,-8350.440928,-444.123565
4006.523140,370.102971,-8580.269578,-666.185348
4006.523464,1184.329507,-9039.926876,-518.144159
4006.523789,1036.288319,-8044.002729,-814.226536
4006.524113,1406.391290,-9039.926876,-296.082377
4006.524438,1110.308913,-9422.974625,-888.247130
4006.524762,1110.308913,-9269.755526,0.000000
4006.525087,222.061783,-8733.488677,-962.267725
4006.525411,370.102971,-8886.707777,-296.082377
4006.525735,0.000000,-8733.488677,-666.185348
4006.526060,296.082377,-9193.145976,-296.082377
4006.526384,444.123565,-8656.879127,-148.041188
4006.526709,222.061783,-8656.879127,-518.144159
4006.527033,518.144159,-8503.660028,-740.205942
4006.527357,370.102971,-9039.926876,-148.041188
4006.527682,740.205942,-8963.317327,-740.205942
4006.528006,518.144159,-8963.317327,-444.123565
4006.528330,370.102971,-9346.365076,-222.061783
4006.528655,-148.041188,-9116.536426,-370.102971
4006.528979,0.000000,-8886.707777,-222.061783
4006.529303,-518.144159,-8963.317327,-444.123565
4006.529627,0.000000,-9346.365076,0.000000
4006.529951,-296.082377,-8273.831378,-296.082377
4006.530276,-296.082377,-8963.317327,0.000000
4006.530600,0.000000,-8197.221829,-148.041188
4006.530924,888.247130,-8273.831378,-148.041188
4006.531248,740.205942,-8503.660028,-518.144159
4006.531573,888.247130,-8120.612279,-444.123565
4006.531897,888.247130,-8503.660028,0.000000
4006.532221,1036.288319,-8503.660028,0.000000
4006.532545,1184.329507,-8273.831378,-222.061783
4006.532870,1110.308913,-8580.269578,0.000000
4006.533194,1332.370696,-8273.831378,0.000000
4006.533518,444.123565,-8810.098227,0.000000
4006.533842,370.102971,-8656.879127,0.000000
4006.534166,0.000000,-7967.393179,-296.082377
4006.534491,592.164754,-9039.926876,-148.041188
4006.534815,-222.061783,-8120.612279,-222.061783
4006.535139,148.041188,-8963.317327,222.061783
4006.535463,0.000000,-7967.393179,-666.185348
4006.535788,740.205942,-8503.660028,222.061783
4006.536112,370.102971,-7814.174080,-740.205942
4006.536436,740.205942,-9269.755526,74.020594
4006.536760,74.020594,-7737.564530,-370.102971
4006.537085,222.061783,-9193.145976,0.000000
4006.537409,-518.144159,-8580.269578,-666.185348
4006.537733,-222.061783,-9499.584175,148.041188
4006.538057,-592.164754,-8044.002729,-518.144159
4006.538381,0.000000,-8963.317327,-148.041188
4006.538706,-666.185348,-8120.612279,-148.041188
4006.539030,222.061783,-8886.707777,74.020594
4006.539354,0.000000,-8197.221829,-444.123565
4006.539678,444.123565,-8580.269578,-370.102971
4006.540003,1184.329507,-8810.098227,-740.205942
4006.540327,814.226536,-8810.098227,0.000000
4006.540651,592.164754,-8503.660028,-592.164754
4006.540975,592.164754,-8656.879127,-444.123565
4006.541300,370.102971,-8580.269578,-296.082377
4006.541624,74.020594,-8580.269578,-592.164754
4006.541948,222.061783,-8733.488677,-444.123565
4006.542272,-222.061783,-8733.488677,0.000000
4006.542597,222.061783,-8733.488677,-444.123565
4006.542921,1258.350101,-8427.050478,-1036.288319
4006.543245,814.226536,-8886.707777,-444.123565
4006.543569,1110.308913,-8350.440928,-666.185348
4006.543893,888.247130,-8427.050478,-222.061783
4006.544218,814.226536,-8733.488677,-666.185348
4006.544542,740.205942,-8886.707777,-444.123565
4006.544866,518.144159,-8733.488677,-666.185348
4006.545190,444.123565,-8886.707777,-296.082377
4006.545515,296.082377,-8580.269578,-518.144159
4006.545839,518.144159,-8810.098227,-370.102971
4006.546163,814.226536,-8810.098227,-592.164754
4006.546487,814.226536,-8656.879127,-518.144159
4006.546812,814.226536,-8580.269578,-592.164754
4006.547136,1184.329507,-7584.345430,-148.041188
4006.547460,1406.391290,-8273.831378,-370.102971
4006.547784,1184.329507,-8503.660028,-222.061783
4006.548108,1110.308913,-8427.050478,-222.061783
4006.548433,1110.308913,-9269.755526,-296.082377
4006.548757,592.164754,-8580.269578,0.000000
4006.549081,1406.391290,-8580.269578,-296.082377
4006.549405,1258.350101,-8656.879127,-148.041188
4006.549730,740.205942,-8810.098227,-518.144159
4006.550054,222.061783,-8656.879127,0.000000
4006.550378,444.123565,-8963.317327,-296.082377
4006.550702,-148.041188,-7890.783629,-740.205942
4006.551027,296.082377,-8810.098227,0.000000
4006.551351,222.061783,-8197.221829,0.000000
4006.551675,370.102971,-8580.269578,-592.164754
4006.551999,518.144159,-8503.660028,-370.102971
4006.552323,666.185348,-8810.098227,0.000000
4006.552648,666.185348,-8350.440928,-666.185348
4006.552972,962.267725,-8733.488677,74.020594
4006.553296,666.185348,-8810.098227,-222.061783
4006.553620,444.123565,-9116.536426,-370.102971
4006.553945,222.061783,-8580.269578,-370.102971
4006.554269,222.061783,-8733.488677,0.000000
4006.554593,-222.061783,-8810.098227,-148.041188
4006.554917,0.000000,-8733.488677,-222.061783
4006.555242,296.082377,-8733.488677,-296.082377
4006.555566,-148.041188,-8273.831378,-222.061783
4006.555890,74.020594,-9193.145976,0.000000
4006.556214,444.123565,-8503.660028,0.000000
4006.556538,148.041188,-8810.098227,-148.041188
4006.556863,222.061783,-8886.707777,-740.205942
4006.557187,148.041188,-9116.536426,0.000000
4006.557511,0.000000,-8656.879127,0.000000
4006.557835,-296.082377,-8963.317327,74.020594
4006.558160,-740.205942,-8810.098227,-296.082377
4006.558484,-370.102971,-8733.488677,-148.041188
4006.558808,-370.102971,-8044.002729,-592.164754
4006.559132,0.000000,-8810.098227,0.000000
4006.559457,0.000000,-8656.879127,0.000000
4006.559781,222.061783,-7967.393179,148.041188
4006.560105,222.061783,-8044.002729,-444.123565
4006.560429,666.185348,-8273.831378,-444.123565
4006.560753,1258.350101,-8656.879127,-296.082377
4006.561078,740.205942,-8656.879127,-222.061783
4006.561402,740.205942,-8810.098227,0.000000
4006.561726,1258.350101,-8503.660028,0.000000
4006.562050,1184.329507,-8350.440928,-296.082377
4006.562375,1110.308913,-8963.317327,-444.123565
4006.562699,1110.308913,-8733.488677,-222.061783
4006.563023,444.123565,-8733.488677,-296.082377
4006.563347,148.041188,-7890.783629,-666.185348
4006.563672,518.144159,-8580.269578,0.000000
4006.563996,666.185348,-7507.735880,-444.123565
4006.564320,962.267725,-8580.269578,0.000000
4006.564644,814.226536,-8273.831378,-592.164754
4006.564968,1110.308913,-8810.098227,-370.102971
4006.565293,518.144159,-8197.221829,-814.226536
4006.565617,814.226536,-9039.926876,-518.144159
4006.565941,740.205942,-9116.536426,-296.082377
4006.566265,0.000000,-8886.707777,-296.082377
4006.566590,-222.061783,-8580.269578,-518.144159
4006.566914,0.000000,-9039.926876,0.000000
4006.567238,-370.102971,-8503.660028,-592.164754
4006.567562,0.000000,-8733.488677,-740.205942
4006.567887,296.082377,-8427.050478,-592.164754
4006.568211,0.000000,-8580.269578,-370.102971
4006.568535,444.123565,-8733.488677,-592.164754
4006.568859,518.144159,-8350.440928,-592.164754
4006.569183,814.226536,-8733.488677,-444.123565
4006.569508,592.164754,-8580.269578,-740.205942
4006.569832,592.164754,-9116.536426,74.020594
4006.570156,518.144159,-8733.488677,-444.123565
4006.570480,370.102971,-8656.879127,-592.164754
4006.570805,0.000000,-8503.660028,-666.185348
4006.571129,592.164754,-8503.660028,-370.102971
4006.571453,444.123565,-8197.221829,-518.144159
4006.571777,148.041188,-8503.660028,-296.082377
4006.572102,0.000000,-8580.269578,-444.123565
4006.572426,518.144159,-8580.269578,-296.082377
4006.572750,518.144159,-8503.660028,-888.247130
4006.573074,814.226536,-8733.488677,-222.061783
4006.573398,592.164754,-8810.098227,-370.102971
4006.573723,370.102971,-8810.098227,-370.102971
4006.574047,222.061783,-8503.660028,-592.164754
4006.574371,0.000000,-9039.926876,-222.061783
4006.574695,444.123565,-8963.317327,-296.082377
4006.575020,148.041188,-8656.879127,-296.082377
4006.575344,222.061783,-9193.145976,-370.102971
4006.575668,370.102971,-8580.269578,0.000000
4006.575992,518.144159,-8044.002729,-518.144159
4006.576317,592.164754,-8044.002729,-148.041188
4006.576641,814.226536,-8273.831378,0.000000
4006.576965,888.247130,-8273.831378,148.041188
4006.577289,1036.288319,-8427.050478,0.000000
4006.577613,814.226536,-8656.879127,-370.102971
4006.577938,814.226536,-8656.879127,0.000000
4006.578262,814.226536,-8427.050478,444.123565
4006.578586,888.247130,-8810.098227,148.041188
4006.578910,296.082377,-8503.660028,-222.061783
4006.579235,518.144159,-8503.660028,0.000000
4006.579559,222.061783,-8580.269578,-370.102971
4006.579883,444.123565,-8733.488677,-296.082377
4006.580207,148.041188,-8120.612279,-296.082377
4006.580532,74.020594,-8273.831378,-148.041188
4006.580856,296.082377,-8503.660028,-370.102971
4006.581180,444.123565,-8427.050478,0.000000
4006.581504,518.144159,-8427.050478,-444.123565
4006.581828,592.164754,-8580.269578,0.000000
4006.582153,518.144159,-8350.440928,-296.082377
4006.582477,518.144159,-9039.926876,-370.102971
4006.582801,222.061783,-8273.831378,-518.144159
4006.583125,592.164754,-8886.707777,0.000000
4006.583450,370.102971,-8273.831378,-444.123565
4006.583774,222.061783,-8810.098227,0.000000
4006.584098,518.144159,-8656.879127,-444.123565
4006.584422,444.123565,-8580.269578,-222.061783
4006.584747,0.000000,-8656.879127,-666.185348
4006.585071,74.020594,-9039.926876,-222.061783
4006.585395,148.041188,-8273.831378,-296.082377
4006.585719,222.061783,-9116.536426,-518.144159
4006.586043,148.041188,-8656.879127,-518.144159
4006.586368,74.020594,-9346.365076,-370.102971
4006.586692,222.061783,-9422.974625,0.000000
4006.587016,0.000000,-8656.879127,-444.123565
4006.587340,444.123565,-8810.098227,-444.123565
4006.587665,148.041188,-8656.879127,-592.164754
4006.587989,0.000000,-9116.536426,-592.164754
4006.588313,0.000000,-8733.488677,-444.123565
4006.588637,148.041188,-8656.879127,-296.082377
4006.588962,444.123565,-8273.831378,-444.123565
4006.589286,296.082377,-8580.269578,-518.144159
4006.589610,370.102971,-8427.050478,-370.102971
4006.589934,444.123565,-8503.660028,-518.144159
4006.590258,592.164754,-8273.831378,-666.185348
4006.590583,888.247130,-8733.488677,-592.164754
4006.590907,1110.308913,-8197.221829,-296.082377
4006.591231,1406.391290,-8350.440928,-370.102971
4006.591555,1406.391290,-8810.098227,-740.205942
4006.591880,1036.288319,-8656.879127,-518.144159
4006.592204,518.144159,-8580.269578,-296.082377
4006.592528,0.000000,-8120.612279,-740.205942
4006.592852,148.041188,-8580.269578,-592.164754
4006.593177,-444.123565,-8503.660028,0.000000
4006.593501,0.000000,-8733.488677,-592.164754
4006.593825,0.000000,-7890.783629,-518.144159
4006.594149,370.102971,-8503.660028,-222.061783
4006.594473,370.102971,-7967.393179,-814.226536
4006.594798,740.205942,-8810.098227,-518.144159
4006.595122,666.185348,-8503.660028,0.000000
4006.595446,296.082377,-8810.098227,-222.061783
4006.595770,74.020594,-8427.050478,-370.102971
4006.596095,-148.041188,-8427.050478,-148.041188
4006.596419,-296.082377,-8120.612279,-518.144159
4006.596743,-518.144159,-8963.317327,-222.061783
4006.597067,-74.020594,-8197.221829,-444.123565
4006.597392,0.000000,-8503.660028,0.000000
4006.597716,74.020594,-8120.612279,-518.144159
4006.598040,1184.329507,-8273.831378,0.000000
4006.598364,962.267725,-8197.221829,-666.185348
4006.598688,1110.308913,-8886.707777,-444.123565
4006.599013,1184.329507,-8810.098227,-592.164754
4006.599337,740.205942,-8886.707777,370.102971
4006.599661,0.000000,-8656.879127,-740.205942
4006.599985,74.020594,-8963.317327,0.000000
4006.600310,-74.020594,-8810.098227,-370.102971
4006.600634,-296.082377,-9269.755526,0.000000
4006.600958,-222.061783,-8273.831378,-296.082377
4006.601282,0.000000,-9039.926876,222.061783
4006.601607,148.041188,-8580.269578,-518.144159
4006.601931,370.102971,-8503.660028,0.000000
4006.602255,370.102971,-8656.879127,0.000000
4006.602579,444.123565,-8350.440928,0.000000
4006.602903,592.164754,-9116.536426,0.000000
4006.603228,444.123565,-8733.488677,-444.123565
4006.603552,148.041188,-9039.926876,148.041188
4006.603876,444.123565,-8963.317327,-370.102971
4006.604200,296.082377,-9039.926876,0.000000
4006.604525,296.082377,-8427.050478,-296.082377
4006.604849,592.164754,-8733.488677,-444.123565
4006.605173,1184.329507,-8656.879127,-518.144159
4006.605497,1036.288319,-8503.660028,-148.041188
4006.605822,1406.391290,-8503.660028,-444.123565
4006.606146,1924.535449,-8427.050478,0.000000
4006.606470,2072.576638,-8963.317327,-370.102971
4006.606794,1406.391290,-8810.098227,0.000000
4006.607118,1184.329507,-8427.050478,-296.082377
4006.607443,1036.288319,-8963.317327,-222.061783
4006.607767,1258.350101,-8580.269578,-296.082377
4006.608091,1110.308913,-8656.879127,0.000000
4006.608415,222.061783,-8503.660028,-814.226536
4006.608740,222.061783,-8810.098227,0.000000
4006.609064,0.000000,-8197.221829,-962.267725
4006.609388,148.041188,-8503.660028,-740.205942
4006.609712,74.020594,-8197.221829,-222.061783
4006.610037,0.000000,-8733.488677,-148.041188
4006.610361,370.102971,-8733.488677,-814.226536
4006.610685,888.247130,-8656.879127,-518.144159
4006.611009,962.267725,-8580.269578,-888.247130
4006.611333,888.247130,-8656.879127,-222.061783
4006.611658,962.267725,-8886.707777,-444.123565
4006.611982,592.164754,-8503.660028,-370.102971
4006.612306,888.247130,-8963.317327,-592.164754
4006.612630,666.185348,-8733.488677,-518.144159
4006.612955,518.144159,-8503.660028,-222.061783
4006.613279,222.061783,-8886.707777,-518.144159
4006.613603,296.082377,-9193.145976,-592.164754
4006.613927,0.000000,-8427.050478,-444.123565
4006.614252,0.000000,-8810.098227,-296.082377
4006.614576,0.000000,-8427.050478,-518.144159
4006.614900,74.020594,-8427.050478,-296.082377
4006.615224,222.061783,-8733.488677,-370.102971
4006.615549,0.000000,-8810.098227,-518.144159
4006.615873,0.000000,-9193.145976,-518.144159
4006.616197,-222.061783,-8656.879127,-592.164754
4006.616521,148.041188,-8580.269578,-296.082377
4006.616845,-592.164754,-8656.879127,-296.082377
4006.617170,-222.061783,-8963.317327,0.000000
4006.617494,-222.061783,-8350.440928,-518.144159
4006.617818,74.020594,-9116.536426,0.000000
4006.618142,0.000000,-8273.831378,-148.041188
4006.618467,296.082377,-8273.831378,-148.041188
4006.618791,370.102971,-8427.050478,-296.082377
4006.619115,666.185348,-8427.050478,0.000000
4006.619439,814.226536,-8273.831378,-444.123565
4006.619764,1110.308913,-8733.488677,148.041188
4006.620088,444.123565,-8120.612279,0.000000
4006.620412,962.267725,-8733.488677,-370.102971
4006.620736,962.267725,-8810.098227,-666.185348
4006.621060,1036.288319,-8580.269578,370.102971
4006.621385,1184.329507,-8503.660028,-592.164754
4006.621709,666.185348,-8350.440928,-296.082377
4006.622033,518.144159,-9193.145976,74.020594
4006.622357,518.144159,-8197.221829,-222.061783
4006.622682,222.061783,-8503.660028,-296.082377
4006.623006,148.041188,-8197.221829,-296.082377
4006.623330,370.102971,-8580.269578,0.000000
4006.623654,-222.061783,-8427.050478,-592.164754
4006.623979,74.020594,-8656.879127,0.000000
4006.624303,222.061783,-8503.660028,-740.205942
4006.624627,74.020594,-8810.098227,-296.082377
4006.624951,0.000000,-8963.317327,-222.061783
4006.625275,518.144159,-9039.926876,-296.082377
4006.625600,222.061783,-8503.660028,-518.144159
4006.625924,148.041188,-8733.488677,-444.123565
4006.626248,592.164754,-8120.612279,-296.082377
4006.626572,0.000000,-8886.707777,-370.102971
4006.626897,222.061783,-8503.660028,-518.144159
4006.627221,148.041188,-8580.269578,-222.061783
4006.627545,0.000000,-8427.050478,-222.061783
4006.627869,518.144159,-8656.879127,-370.102971
4006.628194,296.082377,-8886.707777,-370.102971
4006.628518,296.082377,-8810.098227,-370.102971
4006.628842,444.123565,-8656.879127,-444.123565
4006.629167,222.061783,-8656.879127,-518.144159
4006.629491,592.164754,-8886.707777,-296.082377
4006.629815,518.144159,-8810.098227,-592.164754
4006.630140,888.247130,-9116.536426,-370.102971
4006.630464,592.164754,-9116.536426,-666.185348
4006.630789,370.102971,-9116.536426,-222.061783
4006.631113,74.020594,-8427.050478,-592.164754
4006.631437,370.102971,-8963.317327,0.000000
4006.631762,666.185348,-8733.488677,-296.082377
4006.632086,222.061783,-9039.926876,0.000000
4006.632411,592.164754,-8580.269578,-222.061783
4006.632735,518.144159,-8427.050478,-370.102971
4006.633059,666.185348,-8810.098227,-444.123565
4006.633384,888.247130,-9269.755526,-148.041188
4006.633708,740.205942,-8656.879127,0.000000
4006.634032,444.123565,-8197.221829,-296.082377
4006.634357,592.164754,-9039.926876,-296.082377
4006.634681,518.144159,-8656.879127,-222.061783
4006.635006,666.185348,-8810.098227,-296.082377
4006.635330,592.164754,-8350.440928,0.000000
4006.635654,666.185348,-8580.269578,-296.082377
4006.635979,740.205942,-8503.660028,148.041188
4006.636303,814.226536,-8044.002729,148.041188
4006.636628,1110.308913,-8273.831378,-222.061783
4006.636952,1480.411884,-8810.098227,-222.061783
4006.637276,814.226536,-8197.221829,-296.082377
4006.637601,444.123565,-8886.707777,444.123565
4006.637925,0.000000,-7967.393179,-444.123565
4006.638249,518.144159,-8273.831378,-370.102971
4006.638574,148.041188,-8044.002729,-518.144159
4006.638898,74.020594,-8503.660028,0.000000
4006.639223,518.144159,-8044.002729,-370.102971
4006.639547,148.041188,-8503.660028,-148.041188
4006.639871,814.226536,-8427.050478,-888.247130
4006.640196,888.247130,-8580.269578,-296.082377
4006.640520,1184.329507,-8733.488677,-740.205942
4006.640845,888.247130,-8656.879127,0.000000
4006.641169,666.185348,-8350.440928,-444.123565
4006.641493,296.082377,-8656.879127,-148.041188
4006.641818,666.185348,-8350.440928,-222.061783
4006.642142,296.082377,-8810.098227,-592.164754
4006.642466,296.082377,-8810.098227,-148.041188
4006.642791,0.000000,-8656.879127,-296.082377
4006.643115,148.041188,-8886.707777,-296.082377
4006.643440,148.041188,-9039.926876,-518.144159
4006.643764,148.041188,-8963.317327,-370.102971
4006.644088,370.102971,-8503.660028,-444.123565
4006.644413,370.102971,-8580.269578,-370.102971
4006.644737,518.144159,-9193.145976,-148.041188
4006.645062,0.000000,-8733.488677,-518.144159
4006.645386,0.000000,-8656.879127,-666.185348
4006.645710,0.000000,-8733.488677,-444.123565
4006.646035,0.000000,-9193.145976,222.061783
4006.646359,222.061783,-8656.879127,-444.123565
4006.646683,0.000000,-8656.879127,-518.144159
4006.647008,148.041188,-8427.050478,-518.144159
4006.647332,296.082377,-8810.098227,-814.226536
4006.647657,518.144159,-8350.440928,-370.102971
4006.647981,666.185348,-8503.660028,-444.123565
4006.648305,740.205942,-8656.879127,-444.123565
4006.648630,1110.308913,-8810.098227,-444.123565
4006.648954,1110.308913,-8733.488677,-296.082377
4006.649279,1924.535449,-8580.269578,-518.144159
4006.649603,1702.473667,-8886.707777,-888.247130
4006.649927,1110.308913,-8733.488677,-666.185348
4006.650252,740.205942,-8810.098227,148.041188
4006.650576,592.164754,-8656.879127,-666.185348
4006.650901,444.123565,-8580.269578,-444.123565
4006.651225,148.041188,-8044.002729,-222.061783
4006.651549,222.061783,-8810.098227,-370.102971
4006.651874,370.102971,-8120.612279,-962.267725
4006.652198,444.123565,-8580.269578,0.000000
4006.652522,592.164754,-8427.050478,-740.205942
4006.652847,592.164754,-8656.879127,0.000000
4006.653171,666.185348,-8886.707777,-444.123565
4006.653496,740.205942,-8733.488677,0.000000
4006.653820,0.000000,-8503.660028,-592.164754
4006.654144,-370.102971,-8886.707777,-296.082377
4006.654469,0.000000,-8197.221829,-296.082377
4006.654793,-296.082377,-8733.488677,-148.041188
4006.655118,-370.102971,-8733.488677,-444.123565
4006.655442,0.000000,-8503.660028,0.000000
4006.655766,222.061783,-8810.098227,-444.123565
4006.656091,518.144159,-8656.879127,-148.041188
4006.656415,1036.288319,-8503.660028,-148.041188
4006.656739,1110.308913,-8427.050478,0.000000
4006.657064,666.185348,-8580.269578,0.000000
4006.657388,1036.288319,-8427.050478,0.000000
4006.657713,444.123565,-9039.926876,0.000000
4006.658037,0.000000,-8503.660028,0.000000
4006.658361,0.000000,-9039.926876,148.041188
4006.658686,0.000000,-8886.707777,0.000000
4006.659010,0.000000,-8503.660028,148.041188
4006.659335,0.000000,-8273.831378,0.000000
4006.659659,592.164754,-8810.098227,370.102971
4006.659983,518.144159,-8273.831378,-370.102971
4006.660308,666.185348,-8503.660028,0.000000
4006.660632,1110.308913,-8580.269578,-370.102971
4006.660956,370.102971,-8963.317327,0.000000
4006.661281,148.041188,-8580.269578,-222.061783
4006.661605,444.123565,-8427.050478,296.082377
4006.661930,0.000000,-8656.879127,-222.061783
4006.662254,0.000000,-8886.707777,-296.082377
4006.662578,0.000000,-8273.831378,-296.082377
4006.662903,222.061783,-8273.831378,0.000000
4006.663227,370.102971,-8733.488677,0.000000
4006.663552,814.226536,-8350.440928,0.000000
4006.663876,1036.288319,-8503.660028,0.000000
4006.664200,1184.329507,-8350.440928,-222.061783
4006.664525,1554.432478,-8580.269578,-222.061783
4006.664849,1480.411884,-8503.660028,0.000000
4006.665173,592.164754,-8427.050478,-444.123565
4006.665498,962.267725,-8427.050478,-222.061783
4006.665822,962.267725,-8886.707777,-592.164754
4006.666147,666.185348,-8810.098227,0.000000
4006.666471,444.123565,-8427.050478,-592.164754
4006.666795,518.144159,-8656.879127,-592.164754
4006.667120,444.123565,-8427.050478,-518.144159
4006.667444,444.123565,-8503.660028,-592.164754
4006.667769,296.082377,-8656.879127,-592.164754
4006.668093,444.123565,-8350.440928,-888.247130
4006.668417,814.226536,-8503.660028,-444.123565
4006.668742,814.226536,-8733.488677,-740.205942
4006.669066,518.144159,-9039.926876,-518.144159
4006.669390,888.247130,-8427.050478,-814.226536
4006.669715,814.226536,-8886.707777,-666.185348
4006.670039,518.144159,-9116.536426,-592.164754
4006.670364,296.082377,-8886.707777,-370.102971
4006.670688,592.164754,-8810.098227,-592.164754
4006.671012,296.082377,-8733.488677,-814.226536
4006.671337,666.185348,-8733.488677,-444.123565
4006.671661,740.205942,-8503.660028,-148.041188
4006.671986,592.164754,-8886.707777,-296.082377
4006.672310,148.041188,-8580.269578,-740.205942
4006.672634,148.041188,-9193.145976,-740.205942
4006.672959,-370.102971,-9193.145976,-962.267725
4006.673283,-666.185348,-9269.755526,-518.144159
4006.673607,-1110.308913,-8733.488677,74.020594
4006.673932,-1036.288319,-8886.707777,-518.144159
4006.674256,-592.164754,-8503.660028,-370.102971
4006.674581,222.061783,-8580.269578,0.000000
4006.674905,666.185348,-8197.221829,-592.164754
4006.675229,888.247130,-8427.050478,0.000000
4006.675554,888.247130,-8273.831378,0.000000
4006.675878,888.247130,-9039.926876,0.000000
4006.676203,222.061783,-7967.393179,-666.185348
4006.676527,0.000000,-8810.098227,296.082377
4006.676851,0.000000,-8427.050478,-592.164754
4006.677176,-222.061783,-9346.365076,74.020594
4006.677500,0.000000,-8733.488677,74.020594
4006.677825,222.061783,-8733.488677,-222.061783
4006.678149,592.164754,-7890.783629,-222.061783
4006.678473,1184.329507,-8273.831378,0.000000
4006.678798,1554.432478,-7814.174080,148.041188
4006.679122,2146.597232,-8350.440928,0.000000
4006.679446,2146.597232,-8427.050478,-296.082377
4006.679771,1628.453072,-8503.660028,-148.041188
4006.680095,740.205942,-8733.488677,148.041188
4006.680420,296.082377,-8580.269578,-222.061783
4006.680744,-296.082377,-8580.269578,148.041188
4006.681068,-888.247130,-8886.707777,0.000000
4006.681393,-814.226536,-8503.660028,148.041188
4006.681717,-1184.329507,-7890.783629,-296.082377
4006.682042,-222.061783,-8273.831378,296.082377
4006.682366,222.061783,-8120.612279,-444.123565
4006.682690,444.123565,-8273.831378,-444.123565
4006.683015,370.102971,-8273.831378,-296.082377
4006.683339,814.226536,-8350.440928,-222.061783
4006.683663,666.185348,-8886.707777,-444.123565
4006.683988,370.102971,-8733.488677,0.000000
4006.684312,148.041188,-8503.660028,-518.144159
4006.684637,-370.102971,-8963.317327,-148.041188
4006.684961,-666.185348,-8656.879127,-444.123565
4006.685285,0.000000,-8810.098227,-148.041188
4006.685610,-74.020594,-8733.488677,-666.185348
4006.685934,296.082377,-8503.660028,0.000000
4006.686259,592.164754,-8350.440928,-740.205942
4006.686583,592.164754,-8810.098227,-296.082377
4006.686907,740.205942,-8197.221829,-962.267725
4006.687232,1184.329507,-8963.317327,-296.082377
4006.687556,814.226536,-8656.879127,-518.144159
4006.687880,888.247130,-9193.145976,-518.144159
4006.688205,666.185348,-9116.536426,-592.164754
4006.688529,222.061783,-9346.365076,0.000000
4006.688854,148.041188,-9346.365076,-666.185348
4006.689178,0.000000,-8810.098227,-592.164754
4006.689502,0.000000,-8656.879127,-74.020594
4006.689827,0.000000,-8810.098227,-814.226536
4006.690151,0.000000,-8810.098227,-148.041188
4006.690476,0.000000,-8427.050478,-666.185348
4006.690800,666.185348,-8886.707777,-370.102971
4006.691124,592.164754,-8044.002729,-740.205942
4006.691449,666.185348,-9116.536426,0.000000
4006.691773,1110.308913,-8656.879127,-592.164754
4006.692097,1036.288319,-8963.317327,-518.144159
4006.692422,888.247130,-9039.926876,-296.082377
4006.692746,592.164754,-8886.707777,370.102971
4006.693071,444.123565,-8427.050478,-444.123565
4006.693395,666.185348,-8810.098227,-370.102971
4006.693719,518.144159,-7967.393179,-518.144159
4006.694044,888.247130,-8503.660028,0.000000
4006.694368,888.247130,-8044.002729,-370.102971
4006.694693,814.226536,-8273.831378,0.000000
4006.695017,1036.288319,-7660.954980,-444.123565
4006.695341,1406.391290,-8273.831378,0.000000
4006.695666,1554.432478,-8273.831378,-592.164754
4006.695990,1036.288319,-8503.660028,-370.102971
4006.696314,888.247130,-8503.660028,-148.041188
4006.696639,222.061783,-8580.269578,-740.205942
4006.696963,296.082377,-8886.707777,-148.041188
4006.697288,148.041188,-8580.269578,-370.102971
4006.697612,0.000000,-8503.660028,-296.082377
4006.697936,0.000000,-8733.488677,0.000000
4006.698261,148.041188,-8273.831378,0.000000
4006.698585,740.205942,-8580.269578,-148.041188
4006.698910,592.164754,-7967.393179,-222.061783
4006.699234,1036.288319,-8733.488677,74.020594
4006.699558,888.247130,-8044.002729,-444.123565
4006.699883,1480.411884,-9269.755526,0.000000
4006.700207,370.102971,-8580.269578,-518.144159
4006.700532,592.164754,-8886.707777,-148.041188
4006.700856,74.020594,-8503.660028,-592.164754
4006.701180,0.000000,-8963.317327,-222.061783
4006.701505,-370.102971,-8810.098227,-148.041188
4006.701829,-370.102971,-9116.536426,-296.082377
4006.702153,0.000000,-8580.269578,-222.061783
4006.702478,0.000000,-8656.879127,-222.061783
4006.702802,296.082377,-8963.317327,-296.082377
4006.703127,222.061783,-8273.831378,-148.041188
4006.703451,518.144159,-8656.879127,-370.102971
4006.703775,222.061783,-8810.098227,-370.102971
4006.704100,592.164754,-8427.050478,0.000000
4006.704424,222.061783,-8427.050478,-444.123565
4006.704749,0.000000,-8886.707777,-296.082377
4006.705073,0.000000,-8733.488677,-518.144159
4006.705397,-222.061783,-8886.707777,0.000000
4006.705722,148.041188,-8656.879127,-296.082377
4006.706046,222.061783,-8580.269578,-444.123565
4006.706370,666.185348,-8273.831378,0.000000
4006.706695,666.185348,-8273.831378,-148.041188
4006.707019,1110.308913,-8350.440928,-296.082377
4006.707344,1184.329507,-8580.269578,-296.082377
4006.707668,1110.308913,-8350.440928,-148.041188
4006.707992,1702.473667,-8656.879127,-592.164754
4006.708317,1702.473667,-9346.365076,-296.082377
4006.708641,1184.329507,-8810.098227,-222.061783
4006.708966,592.164754,-8350.440928,-370.102971
4006.709290,740.205942,-8580.269578,-74.020594
4006.709614,296.082377,-8350.440928,-370.102971
4006.709939,296.082377,-8503.660028,-370.102971
4006.710263,0.000000,-8044.002729,-370.102971
4006.710587,148.041188,-8810.098227,0.000000
4006.710912,0.000000,-8120.612279,-592.164754
4006.711236,-296.082377,-8350.440928,0.000000
4006.711561,296.082377,-8580.269578,-666.185348
4006.711885,74.020594,-8886.707777,-222.061783
4006.712209,0.000000,-8427.050478,-444.123565
4006.712534,444.123565,-9039.926876,0.000000
4006.712858,148.041188,-8503.660028,-370.102971
4006.713183,74.020594,-8810.098227,-370.102971
4006.713507,370.102971,-8503.660028,-444.123565
4006.713831,0.000000,-8810.098227,-370.102971
4006.714156,-296.082377,-8503.660028,-296.082377
4006.714480,148.041188,-8503.660028,-370.102971
4006.714804,296.082377,-8044.002729,-518.144159
4006.715129,370.102971,-8810.098227,-370.102971
4006.715453,370.102971,-8197.221829,-518.144159
4006.715778,740.205942,-8580.269578,-370.102971
4006.716102,740.205942,-8656.879127,-518.144159
4006.716426,740.205942,-8963.317327,-296.082377
4006.716751,222.061783,-8350.440928,-222.061783
4006.717075,444.123565,-8503.660028,-222.061783
4006.717400,666.185348,-8810.098227,-444.123565
4006.717724,592.164754,-8886.707777,0.000000
4006.718048,222.061783,-8733.488677,-296.082377
4006.718373,518.144159,-8580.269578,-518.144159
4006.718697,296.082377,-8656.879127,-296.082377
4006.719021,296.082377,-8503.660028,0.000000
4006.719346,444.123565,-8580.269578,-222.061783
4006.719670,814.226536,-8733.488677,-222.061783
4006.719995,666.185348,-8733.488677,-592.164754
4006.720319,518.144159,-8350.440928,-222.061783
4006.720643,666.185348,-8580.269578,0.000000
4006.720968,444.123565,-9039.926876,0.000000
4006.721292,518.144159,-8733.488677,-444.123565
4006.721617,518.144159,-8580.269578,-370.102971
4006.721941,814.226536,-8733.488677,0.000000
4006.722265,370.102971,-8273.831378,-148.041188
4006.722590,888.247130,-8503.660028,-296.082377
4006.722914,962.267725,-7890.783629,-296.082377
4006.723238,814.226536,-8503.660028,0.000000
4006.723563,740.205942,-8044.002729,-592.164754
4006.723887,1702.473667,-9116.536426,0.000000
4006.724212,1036.288319,-8120.612279,-444.123565
4006.724536,962.267725,-8733.488677,-444.123565
4006.724860,296.082377,-7967.393179,-518.144159
4006.725185,518.144159,-8733.488677,-222.061783
4006.725509,592.164754,-8197.221829,-814.226536
4006.725834,814.226536,-8963.317327,-148.041188
4006.726158,444.123565,-8273.831378,-592.164754
4006.726482,888.247130,-8656.879127,0.000000
4006.726807,518.144159,-8503.660028,-666.185348
4006.727131,814.226536,-8963.317327,-518.144159
4006.727456,666.185348,-8120.612279,-444.123565
4006.727780,518.144159,-9116.536426,0.000000
4006.728104,592.164754,-9269.755526,-1184.329507
4006.728429,222.061783,-8963.317327,0.000000
4006.728753,222.061783,-8886.707777,-888.247130
4006.729077,296.082377,-8886.707777,-148.041188
4006.729402,-296.082377,-9116.536426,-370.102971
4006.729726,370.102971,-8810.098227,-222.061783
4006.730050,222.061783,-8886.707777,-518.144159
4006.730375,0.000000,-8963.317327,-296.082377
4006.730699,0.000000,-8963.317327,-296.082377
4006.731023,296.082377,-8044.002729,-222.061783
4006.731347,222.061783,-8886.707777,-296.082377
4006.731672,-148.041188,-8580.269578,-370.102971
4006.731996,-296.082377,-9039.926876,0.000000
4006.732320,0.000000,-8810.098227,-666.185348
4006.732645,-222.061783,-9193.145976,-370.102971
4006.732969,-222.061783,-8810.098227,-296.082377
4006.733293,0.000000,-8580.269578,-296.082377
4006.733617,0.000000,-8580.269578,-296.082377
4006.733942,370.102971,-8580.269578,-666.185348
4006.734266,370.102971,-8733.488677,0.000000
4006.734590,296.082377,-8044.002729,-370.102971
4006.734915,296.082377,-8503.660028,0.000000
4006.735239,592.164754,-8580.269578,-666.185348
4006.735563,592.164754,-8427.050478,-148.041188
4006.735888,814.226536,-8580.269578,-148.041188
4006.736212,1036.288319,-8810.098227,-296.082377
4006.736536,1628.453072,-8886.707777,-296.082377
4006.736860,1702.473667,-8886.707777,0.000000
4006.737185,1406.391290,-8580.269578,-740.205942
4006.737509,1110.308913,-8733.488677,-222.061783
4006.737833,592.164754,-8350.440928,0.000000
4006.738158,222.061783,-8273.831378,-666.185348
4006.738482,0.000000,-8733.488677,0.000000
4006.738806,0.000000,-8427.050478,-296.082377
4006.739130,-296.082377,-8120.612279,-740.205942
4006.739455,0.000000,-8733.488677,592.164754
4006.739779,518.144159,-8273.831378,0.000000
4006.740103,518.144159,-8350.440928,-518.144159
4006.740428,148.041188,-8120.612279,-222.061783
4006.740752,962.267725,-9269.755526,0.000000
4006.741076,444.123565,-8733.488677,-666.185348
4006.741400,0.000000,-8733.488677,0.000000
4006.741725,0.000000,-8733.488677,-370.102971
4006.742049,-370.102971,-8503.660028,-444.123565
4006.742373,-296.082377,-8733.488677,-740.205942
4006.742698,0.000000,-8503.660028,-222.061783
4006.743022,0.000000,-8503.660028,-518.144159
4006.743346,296.082377,-8197.221829,-370.102971
4006.743671,888.247130,-7967.393179,-888.247130
4006.743995,1110.308913,-8503.660028,-296.082377
4006.744319,888.247130,-8503.660028,-666.185348
4006.744643,962.267725,-9116.536426,-444.123565
4006.744968,518.144159,-8886.707777,-518.144159
4006.745292,444.123565,-9039.926876,-592.164754
4006.745616,222.061783,-8656.879127,-740.205942
4006.745941,0.000000,-9193.145976,0.000000
4006.746265,-222.061783,-8733.488677,-518.144159
4006.746589,444.123565,-8733.488677,-814.226536
4006.746913,222.061783,-8656.879127,-296.082377
4006.747238,740.205942,-8580.269578,-592.164754
4006.747562,888.247130,-8350.440928,-888.247130
4006.747886,518.144159,-8963.317327,-370.102971
4006.748211,1036.288319,-8733.488677,-518.144159
4006.748535,370.102971,-9116.536426,-296.082377
4006.748859,148.041188,-8963.317327,0.000000
4006.749184,222.061783,-8656.879127,-296.082377
4006.749508,370.102971,-9039.926876,-370.102971
4006.749832,148.041188,-8963.317327,-444.123565
4006.750156,296.082377,-8733.488677,0.000000
4006.750481,518.144159,-8427.050478,-296.082377
4006.750805,1258.350101,-8350.440928,-370.102971
4006.751129,1184.329507,-8044.002729,-370.102971
4006.751454,962.267725,-8503.660028,-148.041188
4006.751778,1480.411884,-8044.002729,-148.041188
4006.752102,1110.308913,-8963.317327,0.000000
4006.752426,1184.329507,-8350.440928,0.000000
4006.752751,1406.391290,-8580.269578,-222.061783
4006.753075,962.267725,-8580.269578,-518.144159
4006.753399,740.205942,-8810.098227,-148.041188
4006.753724,0.000000,-8733.488677,-148.041188
4006.754048,0.000000,-8503.660028,-370.102971
4006.754372,-296.082377,-8044.002729,-370.102971
4006.754697,0.000000,-8503.660028,-296.082377
4006.755021,222.061783,-8656.879127,-592.164754
4006.755345,740.205942,-8350.440928,-222.061783
4006.755669,518.144159,-8350.440928,-370.102971
4006.755994,1110.308913,-8427.050478,-370.102971
4006.756318,962.267725,-8350.440928,-518.144159
4006.756642,1184.329507,-8810.098227,0.000000
4006.756967,666.185348,-8503.660028,-666.185348
4006.757291,444.123565,-9346.365076,148.041188
4006.757615,0.000000,-8503.660028,-518.144159
4006.757939,74.020594,-8886.707777,-222.061783
4006.758264,0.000000,-8580.269578,-814.226536
4006.758588,148.041188,-8733.488677,0.000000
4006.758912,370.102971,-8580.269578,-666.185348
4006.759237,814.226536,-9116.536426,0.000000
4006.759561,518.144159,-8197.221829,-370.102971
4006.759885,666.185348,-8580.269578,-370.102971
4006.760210,814.226536,-8963.317327,-296.082377
4006.760534,296.082377,-9039.926876,-444.123565
4006.760858,444.123565,-9269.755526,0.000000
4006.761182,-370.102971,-9039.926876,-296.082377
4006.761507,-444.123565,-8733.488677,0.000000
4006.761831,-888.247130,-8733.488677,-148.041188
4006.762155,74.020594,-8733.488677,0.000000
4006.762480,-518.144159,-8503.660028,-444.123565
4006.762804,0.000000,-8580.269578,0.000000
4006.763128,0.000000,-7890.783629,-370.102971
4006.763452,222.061783,-7660.954980,0.000000
4006.763777,740.205942,-8273.831378,-518.144159
4006.764101,518.144159,-8503.660028,0.000000
4006.764425,814.226536,-8503.660028,-518.144159
4006.764750,296.082377,-8733.488677,0.000000
4006.765074,592.164754,-8427.050478,-740.205942
4006.765398,740.205942,-9039.926876,-222.061783
4006.765722,592.164754,-8273.831378,-74.020594
4006.766047,962.267725,-8733.488677,0.000000
4006.766371,888.247130,-7890.783629,-592.164754
4006.766695,1406.391290,-8350.440928,0.000000
4006.767020,1036.288319,-7890.783629,-592.164754
4006.767344,1036.288319,-8350.440928,-148.041188
4006.767668,814.226536,-7737.564530,0.000000
4006.767993,814.226536,-8350.440928,-444.123565
4006.768317,296.082377,-8810.098227,-296.082377
4006.768641,0.000000,-8197.221829,-296.082377
4006.768965,0.000000,-9039.926876,-296.082377
4006.769290,-296.082377,-8044.002729,-370.102971
4006.769614,-444.123565,-9116.536426,0.000000
4006.769938,-518.144159,-8044.002729,-444.123565
4006.770263,0.000000,-8810.098227,-296.082377
4006.770587,296.082377,-7890.783629,-592.164754
4006.770911,666.185348,-8656.879127,0.000000
4006.771235,518.144159,-8350.440928,-370.102971
4006.771560,888.247130,-8503.660028,-444.123565
4006.771884,814.226536,-8427.050478,-518.144159
4006.772208,370.102971,-9039.926876,-444.123565
4006.772533,296.082377,-8503.660028,-592.164754
4006.772857,0.000000,-8503.660028,-370.102971
4006.773181,0.000000,-8886.707777,-296.082377
4006.773506,518.144159,-8427.050478,-592.164754
4006.773830,74.020594,-8656.879127,-518.144159
4006.774154,296.082377,-8503.660028,-370.102971
4006.774478,444.123565,-8656.879127,-296.082377
4006.774803,888.247130,-8733.488677,-444.123565
4006.775127,1036.288319,-8733.488677,0.000000
4006.775451,814.226536,-8656.879127,-740.205942
4006.775776,888.247130,-9116.536426,-370.102971
4006.776100,666.185348,-8120.612279,-296.082377
4006.776424,814.226536,-9193.145976,-370.102971
4006.776748,0.000000,-8733.488677,-592.164754
4006.777073,296.082377,-8886.707777,0.000000
4006.777397,0.000000,-8580.269578,-518.144159
4006.777721,296.082377,-8656.879127,-148.041188
4006.778046,296.082377,-8656.879127,0.000000
4006.778370,370.102971,-8733.488677,0.000000
4006.778694,592.164754,-8580.269578,-296.082377
4006.779019,1332.370696,-7967.393179,0.000000
4006.779343,1110.308913,-8350.440928,0.000000
4006.779667,1036.288319,-8503.660028,-296.082377
4006.779991,1036.288319,-8580.269578,-370.102971
4006.780316,592.164754,-8503.660028,-296.082377
4006.780640,888.247130,-8273.831378,-370.102971
4006.780964,444.123565,-8580.269578,-222.061783
4006.781289,444.123565,-8580.269578,-296.082377
4006.781613,296.082377,-8273.831378,0.000000
4006.781937,888.247130,-7890.783629,222.061783
4006.782261,888.247130,-7967.393179,-74.020594
4006.782586,1110.308913,-8580.269578,-222.061783
4006.782910,888.247130,-8120.612279,-370.102971
4006.783234,1036.288319,-8580.269578,0.000000
4006.783559,592.164754,-8120.612279,-666.185348
4006.783883,666.185348,-8197.221829,-148.041188
4006.784207,370.102971,-8273.831378,-370.102971
4006.784532,222.061783,-9116.536426,-370.102971
4006.784856,222.061783,-8656.879127,-222.061783
4006.785180,148.041188,-8810.098227,-222.061783
4006.785504,444.123565,-8886.707777,-518.144159
4006.785829,370.102971,-8503.660028,-296.082377
4006.786153,740.205942,-9422.974625,0.000000
4006.786477,888.247130,-8273.831378,-444.123565
4006.786802,666.185348,-8810.098227,-222.061783
4006.787126,518.144159,-8427.050478,-296.082377
4006.787450,518.144159,-9422.974625,0.000000
4006.787774,518.144159,-8580.269578,-518.144159
4006.788099,592.164754,-9116.536426,-222.061783
4006.788423,296.082377,-8963.317327,-370.102971
4006.788747,-148.041188,-8886.707777,0.000000
4006.789072,0.000000,-9116.536426,-370.102971
4006.789396,-148.041188,-9269.755526,-370.102971
4006.789720,0.000000,-8656.879127,-296.082377
4006.790045,-370.102971,-8580.269578,-148.041188
4006.790369,296.082377,-9499.584175,0.000000
4006.790693,-148.041188,-8580.269578,-370.102971
4006.791017,222.061783,-8656.879127,-222.061783
4006.791342,0.000000,-8656.879127,-666.185348
4006.791666,296.082377,-8963.317327,0.000000
4006.791990,0.000000,-8580.269578,-666.185348
4006.792315,148.041188,-8810.098227,0.000000
4006.792639,0.000000,-8273.831378,-666.185348
4006.792963,296.082377,-8810.098227,-444.123565
4006.793287,296.082377,-8120.612279,-444.123565
4006.793612,222.061783,-8963.317327,-148.041188
4006.793936,296.082377,-8580.269578,-592.164754
4006.794260,592.164754,-8273.831378,-296.082377
4006.794585,1036.288319,-7890.783629,-814.226536
4006.794909,1184.329507,-8427.050478,-148.041188
4006.795233,1480.411884,-8120.612279,-222.061783
4006.795557,1332.370696,-7967.393179,-222.061783
4006.795882,1776.494261,-8503.660028,-148.041188
4006.796206,888.247130,-8580.269578,-444.123565
4006.796530,962.267725,-8810.098227,-296.082377
4006.796855,444.123565,-8427.050478,-222.061783
4006.797179,0.000000,-8733.488677,-222.061783
4006.797503,-222.061783,-8886.707777,-222.061783
4006.797828,-222.061783,-8733.488677,0.000000
4006.798152,-518.144159,-8503.660028,-518.144159
4006.798476,0.000000,-8503.660028,0.000000
4006.798800,0.000000,-8886.707777,-296.082377
4006.799125,0.000000,-8427.050478,0.000000
4006.799449,222.061783,-8503.660028,-592.164754
4006.799773,0.000000,-8580.269578,-370.102971
4006.800098,518.144159,-8503.660028,-666.185348
4006.800422,-222.061783,-8503.660028,0.000000
4006.800746,0.000000,-8656.879127,-518.144159
4006.801070,-444.123565,-8733.488677,-444.123565
4006.801395,-148.041188,-8503.660028,-296.082377
4006.801719,0.000000,-8656.879127,-370.102971
4006.802043,518.144159,-8656.879127,-518.144159
4006.802368,518.144159,-8886.707777,-518.144159
4006.802692,740.205942,-8427.050478,-370.102971
4006.803016,592.164754,-9116.536426,-370.102971
4006.803341,592.164754,-8810.098227,-444.123565
4006.803665,888.247130,-8886.707777,-444.123565
4006.803989,444.123565,-8656.879127,-296.082377
4006.804313,296.082377,-8810.098227,-518.144159
4006.804638,518.144159,-8810.098227,-370.102971
4006.804962,296.082377,-8810.098227,-370.102971
4006.805286,444.123565,-8886.707777,-296.082377
4006.805611,518.144159,-8580.269578,-296.082377
4006.805935,740.205942,-8886.707777,-296.082377
4006.806259,814.226536,-8580.269578,-148.041188
4006.806583,740.205942,-8580.269578,-444.123565
4006.806908,740.205942,-8580.269578,-592.164754
4006.807232,666.185348,-8503.660028,0.000000
4006.807556,296.082377,-8273.831378,-148.041188
4006.807881,518.144159,-8810.098227,-518.144159
4006.808205,222.061783,-8580.269578,-296.082377
4006.808529,296.082377,-8733.488677,0.000000
4006.808854,296.082377,-8503.660028,0.000000
4006.809178,592.164754,-8656.879127,222.061783
4006.809502,296.082377,-8273.831378,-296.082377
4006.809826,962.267725,-8580.269578,0.000000
4006.810151,740.205942,-8197.221829,0.000000
4006.810475,962.267725,-8656.879127,0.000000
4006.810799,962.267725,-7660.954980,-222.061783
4006.811124,1406.391290,-8656.879127,0.000000
4006.811448,1110.308913,-8273.831378,-592.164754
4006.811772,740.205942,-8273.831378,-74.020594
4006.812096,518.144159,-8580.269578,-444.123565
4006.812421,-148.041188,-8427.050478,-148.041188
4006.812745,296.082377,-8427.050478,-296.082377
4006.813069,222.061783,-8197.221829,-296.082377
4006.813394,444.123565,-8580.269578,-592.164754
4006.813718,592.164754,-8503.660028,-518.144159
4006.814042,1110.308913,-8963.317327,-666.185348
4006.814367,1554.432478,-8044.002729,-740.205942
4006.814691,1406.391290,-8886.707777,-370.102971
4006.815015,1110.308913,-8656.879127,-370.102971
4006.815339,666.185348,-8810.098227,-370.102971
4006.815664,148.041188,-8886.707777,-370.102971
4006.815988,444.123565,-8733.488677,-370.102971
4006.816312,0.000000,-8963.317327,-370.102971
4006.816637,-296.082377,-8810.098227,-518.144159
4006.816961,0.000000,-8580.269578,-222.061783
4006.817285,370.102971,-8886.707777,-592.164754
4006.817609,148.041188,-8733.488677,-370.102971
4006.817934,222.061783,-8580.269578,-592.164754
4006.818258,592.164754,-8580.269578,-370.102971
4006.818582,148.041188,-7660.954980,-222.061783
4006.818907,370.102971,-8886.707777,-518.144159
4006.819231,-296.082377,-9116.536426,0.000000
4006.819555,-592.164754,-8656.879127,-370.102971
4006.819880,-370.102971,-8886.707777,-370.102971
4006.820204,-296.082377,-8656.879127,-444.123565
4006.820528,-518.144159,-8656.879127,0.000000
4006.820852,-370.102971,-8580.269578,-370.102971
4006.821177,74.020594,-8580.269578,0.000000
4006.821501,370.102971,-7814.174080,0.000000
4006.821825,296.082377,-8350.440928,-592.164754
4006.822150,518.144159,-8273.831378,-518.144159
4006.822474,888.247130,-8273.831378,-296.082377
4006.822798,740.205942,-8427.050478,0.000000
4006.823122,740.205942,-8273.831378,0.000000
4006.823447,888.247130,-8197.221829,-148.041188
4006.823771,1036.288319,-8656.879127,-296.082377
4006.824095,1110.308913,-8656.879127,-518.144159
4006.824420,1554.432478,-8503.660028,0.000000
4006.824744,1036.288319,-8197.221829,-370.102971
4006.825068,1110.308913,-8580.269578,0.000000
4006.825392,814.226536,-8350.440928,-592.164754
4006.825717,1110.308913,-8120.612279,0.000000
4006.826041,592.164754,-8427.050478,-518.144159
4006.826365,444.123565,-8886.707777,0.000000
4006.826690,0.000000,-8044.002729,-370.102971
4006.827014,148.041188,-8810.098227,-444.123565
4006.827338,-148.041188,-8273.831378,-592.164754
4006.827663,-222.061783,-9193.145976,0.000000
4006.827987,-296.082377,-8580.269578,-444.123565
4006.828311,148.041188,-8886.707777,0.000000
4006.828635,222.061783,-8886.707777,-814.226536
4006.828960,222.061783,-8963.317327,-222.061783
4006.829284,222.061783,-8273.831378,-592.164754
4006.829608,222.061783,-8656.879127,-148.041188
4006.829932,814.226536,-8503.660028,-444.123565
4006.830257,444.123565,-8427.050478,-148.041188
4006.830581,444.123565,-8427.050478,-296.082377
4006.830905,666.185348,-8503.660028,-592.164754
4006.831229,592.164754,-8733.488677,-370.102971
4006.831554,592.164754,-8350.440928,0.000000
4006.831878,444.123565,-8503.660028,-518.144159
4006.832202,592.164754,-8963.317327,-518.144159
4006.832526,444.123565,-8733.488677,-592.164754
4006.832851,1332.370696,-8733.488677,-296.082377
4006.833175,1110.308913,-8886.707777,-592.164754
4006.833499,518.144159,-8656.879127,-148.041188
4006.833823,962.267725,-8963.317327,0.000000
4006.834147,148.041188,-8197.221829,-296.082377
4006.834472,592.164754,-8886.707777,-370.102971
4006.834796,370.102971,-8580.269578,-444.123565
4006.835120,444.123565,-8733.488677,0.000000
4006.835444,0.000000,-8580.269578,-444.123565
4006.835769,0.000000,-8656.879127,-222.061783
4006.836093,222.061783,-8580.269578,-444.123565
4006.836417,370.102971,-8810.098227,-370.102971
4006.836741,296.082377,-8733.488677,-370.102971
4006.837065,814.226536,-8963.317327,-444.123565
4006.837390,592.164754,-8580.269578,-296.082377
4006.837714,296.082377,-8580.269578,-518.144159
4006.838038,740.205942,-8580.269578,-370.102971
4006.838362,666.185348,-8350.440928,-370.102971
4006.838687,1036.288319,-8580.269578,-296.082377
4006.839011,518.144159,-8503.660028,-296.082377
4006.839335,740.205942,-8656.879127,-444.123565
4006.839659,1036.288319,-8044.002729,-222.061783
4006.839984,888.247130,-8580.269578,0.000000
4006.840308,1110.308913,-8656.879127,-222.061783
4006.840632,814.226536,-8350.440928,-296.082377
4006.840956,740.205942,-8580.269578,-222.061783
4006.841280,518.144159,-7814.174080,-370.102971
4006.841605,592.164754,-8427.050478,-370.102971
4006.841929,518.144159,-8273.831378,-222.061783
4006.842253,222.061783,-8427.050478,-148.041188
4006.842577,518.144159,-8656.879127,-296.082377
4006.842902,518.144159,-8197.221829,-666.185348
4006.843226,1036.288319,-8810.098227,-296.082377
4006.843550,740.205942,-8427.050478,-666.185348
4006.843874,666.185348,-8963.317327,-148.041188
4006.844199,666.185348,-8580.269578,-592.164754
4006.844523,370.102971,-8963.317327,-222.061783
4006.844847,148.041188,-8656.879127,-814.226536
4006.845171,222.061783,-8810.098227,-222.061783
4006.845495,0.000000,-8580.269578,-666.185348
4006.845820,222.061783,-8886.707777,-296.082377
4006.846144,222.061783,-8580.269578,-740.205942
4006.846468,370.102971,-9039.926876,-518.144159
4006.846792,444.123565,-8427.050478,-666.185348
4006.847117,74.020594,-8886.707777,0.000000
4006.847441,592.164754,-8886.707777,-592.164754
4006.847765,444.123565,-8886.707777,0.000000
4006.848089,-222.061783,-8656.879127,-592.164754
4006.848413,148.041188,-9576.193725,0.000000
4006.848738,0.000000,-8427.050478,-370.102971
4006.849062,74.020594,-8963.317327,0.000000
4006.849386,-296.082377,-8886.707777,-444.123565
4006.849710,-148.041188,-9499.584175,-222.061783
4006.850035,148.041188,-8656.879127,-444.123565
4006.850359,296.082377,-8197.221829,-370.102971
4006.850683,370.102971,-8733.488677,-148.041188
4006.851007,148.041188,-8197.221829,-296.082377
4006.851332,518.144159,-8656.879127,-370.102971
4006.851656,222.061783,-8503.660028,-296.082377
4006.851980,444.123565,-8656.879127,-444.123565
4006.852304,444.123565,-8503.660028,-444.123565
4006.852628,814.226536,-9039.926876,-296.082377
4006.852953,518.144159,-8350.440928,-592.164754
4006.853277,814.226536,-8810.098227,-370.102971
4006.853601,1406.391290,-8044.002729,-592.164754
4006.853925,1184.329507,-8963.317327,74.020594
4006.854250,962.267725,-8197.221829,-592.164754
4006.854574,1110.308913,-8580.269578,0.000000
4006.854898,518.144159,-8273.831378,-518.144159
4006.855222,296.082377,-8503.660028,-444.123565
4006.855546,0.000000,-8886.707777,-370.102971
4006.855871,148.041188,-8503.660028,-370.102971
4006.856195,0.000000,-8580.269578,-444.123565
4006.856519,0.000000,-8580.269578,-222.061783
4006.856843,222.061783,-9193.145976,-444.123565
4006.857168,0.000000,-8580.269578,-296.082377
4006.857492,0.000000,-8503.660028,-444.123565
4006.857816,0.000000,-8044.002729,-222.061783
4006.858140,148.041188,-9652.803275,-148.041188
4006.858465,444.123565,-8503.660028,-296.082377
4006.858789,444.123565,-8886.707777,-518.144159
4006.859113,296.082377,-8886.707777,-296.082377
4006.859437,222.061783,-8350.440928,-814.226536
4006.859761,74.020594,-9269.755526,74.020594
4006.860086,296.082377,-8810.098227,-592.164754
4006.860410,444.123565,-8656.879127,-148.041188
4006.860734,296.082377,-8350.440928,-592.164754
4006.861058,0.000000,-9193.145976,0.000000
4006.861383,814.226536,-8656.879127,-370.102971
4006.861707,444.123565,-8580.269578,-518.144159
4006.862031,740.205942,-8656.879127,-370.102971
4006.862355,592.164754,-8810.098227,-666.185348
4006.862680,444.123565,-8810.098227,0.000000
4006.863004,444.123565,-8580.269578,-444.123565
4006.863328,370.102971,-8810.098227,-74.020594
4006.863652,222.061783,-8886.707777,-518.144159
4006.863976,814.226536,-8656.879127,-518.144159
4006.864301,0.000000,-9116.536426,0.000000
4006.864625,-74.020594,-8656.879127,-296.082377
4006.864949,296.082377,-8580.269578,0.000000
4006.865273,518.144159,-8810.098227,-222.061783
4006.865598,666.185348,-8733.488677,-296.082377
4006.865922,370.102971,-8350.440928,-666.185348
4006.866246,370.102971,-8427.050478,0.000000
4006.866570,592.164754,-8503.660028,-370.102971
4006.866894,518.144159,-8886.707777,-148.041188
4006.867219,740.205942,-8580.269578,-444.123565
4006.867543,888.247130,-8656.879127,-296.082377
4006.867867,1036.288319,-8427.050478,-148.041188
4006.868191,740.205942,-8273.831378,0.000000
4006.868516,1554.432478,-8656.879127,0.000000
4006.868840,888.247130,-8120.612279,-518.144159
4006.869164,1036.288319,-8580.269578,-148.041188
4006.869488,370.102971,-8580.269578,-222.061783
4006.869813,888.247130,-8427.050478,0.000000
4006.870137,370.102971,-8044.002729,-592.164754
4006.870461,592.164754,-8656.879127,0.000000
4006.870785,222.061783,-8273.831378,-444.123565
4006.871109,444.123565,-9039.926876,-296.082377
4006.871434,518.144159,-8427.050478,-666.185348
4006.871758,814.226536,-8810.098227,-296.082377
4006.872082,370.102971,-8427.050478,-518.144159
4006.872406,148.041188,-8656.879127,0.000000
4006.872731,740.205942,-8427.050478,-814.226536
4006.873055,962.267725,-8886.707777,-370.102971
4006.873379,740.205942,-8580.269578,-888.247130
4006.873703,740.205942,-9193.145976,0.000000
4006.874027,222.061783,-8580.269578,-518.144159
4006.874352,518.144159,-9116.536426,-296.082377
4006.874676,222.061783,-8810.098227,-666.185348
4006.875000,296.082377,-9193.145976,-222.061783
4006.875324,296.082377,-8733.488677,0.000000
4006.875649,222.061783,-9116.536426,-296.082377
4006.875973,222.061783,-8580.269578,-666.185348
4006.876297,0.000000,-8886.707777,-296.082377
4006.876621,222.061783,-8733.488677,-370.102971
4006.876946,0.000000,-8580.269578,-370.102971
4006.877270,0.000000,-9193.145976,-296.082377
4006.877594,-296.082377,-8886.707777,-148.041188
4006.877918,0.000000,-8810.098227,-740.205942
4006.878242,0.000000,-8733.488677,0.000000
4006.878567,-148.041188,-8503.660028,-222.061783
4006.878891,-222.061783,-8656.879127,0.000000
4006.879215,-222.061783,-8427.050478,-148.041188
4006.879539,296.082377,-8733.488677,-74.020594
4006.879864,222.061783,-8656.879127,-518.144159
4006.880188,0.000000,-7967.393179,-222.061783
4006.880512,444.123565,-8810.098227,-222.061783
4006.880836,518.144159,-8503.660028,-592.164754
4006.881161,1258.350101,-8580.269578,-222.061783
4006.881485,1036.288319,-8350.440928,-444.123565
4006.881809,1628.453072,-8580.269578,0.000000
4006.882133,1554.432478,-8273.831378,-370.102971
4006.882457,1406.391290,-8886.707777,-222.061783
4006.882782,666.185348,-8273.831378,-888.247130
4006.883106,592.164754,-9269.755526,-222.061783
4006.883430,0.000000,-7967.393179,-814.226536
4006.883754,0.000000,-8810.098227,962.267725
4006.884079,-296.082377,-7967.393179,-518.144159
4006.884403,148.041188,-8886.707777,-222.061783
4006.884727,592.164754,-7814.174080,-740.205942
4006.885051,740.205942,-9269.755526,518.144159
4006.885375,518.144159,-8044.002729,-666.185348
4006.885700,740.205942,-8810.098227,0.000000
4006.886024,444.123565,-8350.440928,-148.041188
4006.886348,0.000000,-8656.879127,0.000000
4006.886672,-370.102971,-8503.660028,-962.267725
4006.886997,-370.102971,-8810.098227,222.061783
4006.887321,-444.123565,-8120.612279,-370.102971
4006.887645,-444.123565,-9039.926876,-296.082377
4006.887969,296.082377,-8580.269578,0.000000
4006.888294,0.000000,-8656.879127,-518.144159
4006.888618,222.061783,-8427.050478,-518.144159
4006.888942,888.247130,-8733.488677,-370.102971
4006.889266,1036.288319,-7507.735880,0.000000
4006.889590,888.247130,-8963.317327,-444.123565
4006.889915,592.164754,-8503.660028,-740.205942
4006.890239,444.123565,-9039.926876,-148.041188
4006.890563,74.020594,-8273.831378,-518.144159
4006.890887,222.061783,-8656.879127,-518.144159
4006.891212,0.000000,-9039.926876,-222.061783
4006.891536,0.000000,-8656.879127,-444.123565
4006.891860,0.000000,-9039.926876,-444.123565
4006.892184,222.061783,-8273.831378,-148.041188
4006.892508,592.164754,-8427.050478,-222.061783
4006.892833,814.226536,-8733.488677,-666.185348
4006.893157,1110.308913,-8886.707777,-296.082377
4006.893481,1036.288319,-8350.440928,-518.144159
4006.893805,962.267725,-9039.926876,0.000000
4006.894130,592.164754,-8656.879127,-444.123565
4006.894454,370.102971,-9039.926876,0.000000
4006.894778,0.000000,-8580.269578,-666.185348
4006.895102,0.000000,-8656.879127,-444.123565
4006.895427,74.020594,-8503.660028,-518.144159
4006.895751,222.061783,-8350.440928,0.000000
4006.896075,518.144159,-8197.221829,-222.061783
4006.896399,1332.370696,-9039.926876,74.020594
4006.896723,1258.350101,-7967.393179,-222.061783
4006.897048,1628.453072,-8580.269578,-296.082377
4006.897372,1628.453072,-8273.831378,0.000000
4006.897696,1628.453072,-8273.831378,0.000000
4006.898020,1480.411884,-8656.879127,-222.061783
4006.898345,1332.370696,-8273.831378,-444.123565
4006.898669,1110.308913,-8886.707777,-296.082377
4006.898993,74.020594,-8503.660028,-518.144159
4006.899317,-518.144159,-8733.488677,0.000000
4006.899642,-518.144159,-8273.831378,-592.164754
4006.899966,-962.267725,-8273.831378,0.000000
4006.900290,-296.082377,-8656.879127,-222.061783
4006.900614,148.041188,-8503.660028,-148.041188
4006.900938,740.205942,-8503.660028,-148.041188
4006.901263,888.247130,-7967.393179,-592.164754
4006.901587,1554.432478,-8886.707777,-296.082377
4006.901911,1332.370696,-8273.831378,-740.205942
4006.902235,1184.329507,-8963.317327,0.000000
4006.902560,740.205942,-8273.831378,-592.164754
4006.902884,444.123565,-9193.145976,74.020594
4006.903208,-370.102971,-8503.660028,-518.144159
4006.903532,-222.061783,-8656.879127,0.000000
4006.903856,-592.164754,-8656.879127,-740.205942
4006.904181,0.000000,-8810.098227,0.000000
4006.904505,370.102971,-8197.221829,-148.041188
4006.904829,370.102971,-8427.050478,-74.020594
4006.905153,1036.288319,-8350.440928,-444.123565
4006.905478,1110.308913,-8733.488677,-148.041188
4006.905802,1036.288319,-9039.926876,-518.144159
4006.906126,222.061783,-8886.707777,-370.102971
4006.906450,0.000000,-9499.584175,-148.041188
4006.906775,-888.247130,-8656.879127,-370.102971
4006.907099,-592.164754,-9346.365076,0.000000
4006.907423,-1258.350101,-8656.879127,-666.185348
4006.907747,-370.102971,-9193.145976,-296.082377
4006.908071,-962.267725,-7890.783629,-370.102971
4006.908396,-148.041188,-8503.660028,0.000000
4006.908720,74.020594,-7737.564530,-370.102971
4006.909044,1036.288319,-8733.488677,0.000000
4006.909368,1110.308913,-8197.221829,-666.185348
4006.909693,1110.308913,-8886.707777,0.000000
4006.910017,1036.288319,-8503.660028,-370.102971
4006.910341,740.205942,-8580.269578,-222.061783
4006.910665,962.267725,-8656.879127,-148.041188
4006.910990,888.247130,-8810.098227,-296.082377
4006.911314,1184.329507,-8886.707777,-222.061783
4006.911638,518.144159,-8580.269578,-518.144159
4006.911962,962.267725,-9116.536426,-296.082377
4006.912286,370.102971,-8120.612279,0.000000
4006.912611,444.123565,-8044.002729,-592.164754
4006.912935,518.144159,-8197.221829,0.000000
4006.913259,740.205942,-8350.440928,-296.082377
4006.913583,888.247130,-8503.660028,-518.144159
4006.913908,962.267725,-8350.440928,0.000000
4006.914232,1184.329507,-8503.660028,-666.185348
4006.914556,444.123565,-8810.098227,-222.061783
4006.914880,444.123565,-8580.269578,-222.061783
4006.915204,0.000000,-9193.145976,0.000000
4006.915529,-740.205942,-8350.440928,-518.144159
4006.915853,-740.205942,-8810.098227,-296.082377
4006.916177,-592.164754,-9039.926876,-444.123565
4006.916501,-444.123565,-8656.879127,0.000000
4006.916826,0.000000,-8580.269578,-518.144159
4006.917150,370.102971,-8350.440928,0.000000
4006.917474,444.123565,-8273.831378,-666.185348
4006.917798,814.226536,-8810.098227,-666.185348
4006.918123,1258.350101,-8656.879127,-222.061783
4006.918447,1036.288319,-8580.269578,0.000000
4006.918771,888.247130,-8810.098227,-518.144159
4006.919095,814.226536,-9269.755526,-296.082377
4006.919419,296.082377,-9039.926876,0.000000
4006.919744,222.061783,-8886.707777,-592.164754
4006.920068,0.000000,-8810.098227,-148.041188
4006.920392,-370.102971,-9269.755526,370.102971
4006.920716,222.061783,-8350.440928,-592.164754
4006.921041,222.061783,-8580.269578,0.000000
4006.921365,592.164754,-8120.612279,-370.102971
4006.921689,1184.329507,-8733.488677,-296.082377
4006.922013,592.164754,-8733.488677,-592.164754
4006.922337,666.185348,-9193.145976,0.000000
4006.922662,518.144159,-8273.831378,-740.205942
4006.922986,592.164754,-9269.755526,0.000000
4006.923310,-222.061783,-9039.926876,0.000000
4006.923634,148.041188,-8810.098227,0.000000
4006.923959,-222.061783,-8350.440928,-592.164754
4006.924283,0.000000,-8580.269578,0.000000
4006.924607,370.102971,-8044.002729,-370.102971
4006.924931,296.082377,-8427.050478,0.000000
4006.925256,814.226536,-7814.174080,-296.082377
4006.925580,962.267725,-8197.221829,0.000000
4006.925904,1110.308913,-8350.440928,-296.082377
4006.926228,1184.329507,-8273.831378,-148.041188
4006.926552,1332.370696,-8580.269578,-222.061783
4006.926877,962.267725,-8427.050478,-370.102971
4006.927201,666.185348,-8580.269578,0.000000
4006.927525,74.020594,-8273.831378,-518.144159
4006.927849,592.164754,-8503.660028,0.000000
4006.928174,370.102971,-8273.831378,-444.123565
4006.928498,296.082377,-8427.050478,-148.041188
4006.928822,222.061783,-7967.393179,-888.247130
4006.929146,148.041188,-8580.269578,-518.144159
4006.929471,296.082377,-8197.221829,-370.102971
4006.929795,666.185348,-8197.221829,-444.123565
4006.930119,666.185348,-8503.660028,-740.205942
4006.930443,370.102971,-8656.879127,0.000000
4006.930767,592.164754,-8580.269578,-370.102971
4006.931092,296.082377,-8503.660028,-740.205942
4006.931416,518.144159,-9346.365076,0.000000
4006.931740,0.000000,-7660.954980,0.000000
4006.932064,370.102971,-9116.536426,-444.123565
4006.932389,74.020594,-8197.221829,-518.144159
4006.932713,148.041188,-9193.145976,-148.041188
4006.933037,74.020594,-8273.831378,-666.185348
4006.933361,518.144159,-8580.269578,-296.082377
4006.933685,518.144159,-8580.269578,-518.144159
4006.934010,296.082377,-9039.926876,-370.102971
4006.934334,370.102971,-8733.488677,-518.144159
4006.934658,0.000000,-8350.440928,-222.061783
4006.934982,-148.041188,-8886.707777,-518.144159
4006.935307,0.000000,-9039.926876,-370.102971
4006.935631,74.020594,-8580.269578,-148.041188
4006.935955,-148.041188,-9346.365076,0.000000
4006.936279,0.000000,-8733.488677,-518.144159
4006.936604,0.000000,-8656.879127,-444.123565
4006.936928,0.000000,-8810.098227,-296.082377
4006.937252,74.020594,-8580.269578,0.000000
4006.937576,0.000000,-8427.050478,-370.102971
4006.937900,74.020594,-8656.879127,-296.082377
4006.938225,74.020594,-8580.269578,-518.144159
4006.938549,74.020594,-8656.879127,-518.144159
4006.938873,444.123565,-8120.612279,-370.102971
4006.939197,444.123565,-8273.831378,-370.102971
4006.939522,518.144159,-8733.488677,-296.082377
4006.939846,888.247130,-8273.831378,-592.164754
4006.940170,1332.370696,-8273.831378,-518.144159
4006.940494,1406.391290,-8273.831378,-370.102971
4006.940819,1406.391290,-8273.831378,-296.082377
4006.941143,1480.411884,-8350.440928,-296.082377
4006.941467,1110.308913,-8733.488677,0.000000
4006.941791,444.123565,-8273.831378,0.000000
4006.942115,666.185348,-8733.488677,-74.020594
4006.942440,296.082377,-8503.660028,-296.082377
4006.942764,148.041188,-8810.098227,-222.061783
4006.943088,0.000000,-8044.002729,0.000000
4006.943412,0.000000,-8503.660028,-74.020594
4006.943737,444.123565,-8427.050478,-518.144159
4006.944061,0.000000,-8580.269578,-370.102971
4006.944385,-222.061783,-8656.879127,0.000000
4006.944709,0.000000,-8197.221829,-148.041188
4006.945033,148.041188,-8580.269578,-222.061783
4006.945358,148.041188,-8350.440928,-518.144159
4006.945682,74.020594,-8886.707777,0.000000
4006.946006,0.000000,-8197.221829,-592.164754
4006.946330,74.020594,-8733.488677,-222.061783
4006.946655,-444.123565,-8656.879127,-296.082377
4006.946979,74.020594,-8886.707777,-444.123565
4006.947303,222.061783,-8503.660028,-444.123565
4006.947627,444.123565,-8963.317327,-296.082377
4006.947952,518.144159,-8503.660028,-444.123565
4006.948276,592.164754,-8810.098227,-296.082377
4006.948600,370.102971,-8810.098227,-222.061783
4006.948924,518.144159,-8580.269578,-666.185348
4006.949248,814.226536,-8886.707777,-444.123565
4006.949573,444.123565,-8503.660028,0.000000
4006.949897,444.123565,-8886.707777,-444.123565
4006.950221,518.144159,-8733.488677,-296.082377
4006.950545,296.082377,-8427.050478,0.000000
4006.950870,296.082377,-8733.488677,-666.185348
4006.951194,296.082377,-8580.269578,-222.061783
4006.951518,666.185348,-8656.879127,-148.041188
4006.951842,222.061783,-8580.269578,-296.082377
4006.952167,222.061783,-8503.660028,-444.123565
4006.952491,370.102971,-8810.098227,-370.102971
4006.952815,444.123565,-8427.050478,-296.082377
4006.953139,296.082377,-8580.269578,-370.102971
4006.953463,444.123565,-8810.098227,-222.061783
4006.953788,296.082377,-8656.879127,0.000000
4006.954112,592.164754,-8733.488677,-370.102971
4006.954436,1036.288319,-8503.660028,-666.185348
4006.954760,962.267725,-8656.879127,-148.041188
4006.955085,1036.288319,-8580.269578,-296.082377
4006.955409,888.247130,-8580.269578,-222.061783
4006.955733,814.226536,-7814.174080,-370.102971
4006.956057,518.144159,-8350.440928,-296.082377
4006.956382,814.226536,-8273.831378,0.000000
4006.956706,592.164754,-8350.440928,-148.041188
4006.957030,666.185348,-8427.050478,0.000000
4006.957354,666.185348,-8197.221829,-444.123565
4006.957678,518.144159,-8656.879127,-296.082377
4006.958003,592.164754,-8350.440928,-370.102971
4006.958327,148.041188,-8580.269578,-518.144159
4006.958651,370.102971,-8427.050478,-592.164754
4006.958975,74.020594,-8656.879127,-222.061783
4006.959300,296.082377,-9039.926876,-518.144159
4006.959624,296.082377,-8273.831378,-518.144159
4006.959948,962.267725,-8656.879127,0.000000
4006.960272,222.061783,-8197.221829,-444.123565
4006.960596,666.185348,-9116.536426,0.000000
4006.960921,444.123565,-8197.221829,-592.164754
4006.961245,814.226536,-8886.707777,0.000000
4006.961569,296.082377,-8197.221829,-592.164754
4006.961893,814.226536,-9193.145976,0.000000
4006.962218,74.020594,-8273.831378,-370.102971
4006.962542,222.061783,-9116.536426,0.000000
4006.962866,148.041188,-9039.926876,-592.164754
4006.963190,148.041188,-9346.365076,-148.041188
4006.963515,74.020594,-8350.440928,-518.144159
4006.963839,148.041188,-9116.536426,-296.082377
4006.964163,74.020594,-8503.660028,-518.144159
4006.964487,222.061783,-9116.536426,-222.061783
4006.964811,222.061783,-8886.707777,-740.205942
4006.965136,-148.041188,-8810.098227,-222.061783
4006.965460,148.041188,-8580.269578,-592.164754
4006.965784,-296.082377,-8580.269578,-148.041188
4006.966108,222.061783,-8656.879127,-296.082377
4006.966433,0.000000,-8580.269578,-592.164754
4006.966757,148.041188,-8886.707777,-296.082377
4006.967081,0.000000,-8886.707777,-666.185348
4006.967405,444.123565,-8427.050478,-296.082377
4006.967730,370.102971,-8656.879127,-370.102971
4006.968054,444.123565,-8427.050478,-370.102971
4006.968378,444.123565,-8503.660028,-518.144159
4006.968702,666.185348,-8503.660028,-518.144159
4006.969026,1406.391290,-8580.269578,-222.061783
4006.969351,1480.411884,-8503.660028,0.000000
4006.969675,1110.308913,-8427.050478,-814.226536
4006.969999,1332.370696,-8656.879127,-370.102971
4006.970323,888.247130,-8197.221829,-296.082377
4006.970648,444.123565,-8350.440928,-666.185348
4006.970972,370.102971,-8656.879127,-148.041188
4006.971296,74.020594,-8503.660028,-370.102971
4006.971620,222.061783,-8656.879127,-592.164754
4006.971945,74.020594,-8350.440928,-222.061783
4006.972269,296.082377,-8656.879127,0.000000
4006.972593,148.041188,-8273.831378,-592.164754
4006.972917,444.123565,-8503.660028,-740.205942
4006.973241,222.061783,-8580.269578,0.000000
4006.973566,0.000000,-8580.269578,-518.144159
4006.973890,-296.082377,-8656.879127,-444.123565
4006.974214,-148.041188,-8886.707777,296.082377
4006.974538,-444.123565,-8350.440928,-148.041188
4006.974863,0.000000,-8886.707777,-518.144159
4006.975187,0.000000,-8733.488677,-222.061783
4006.975511,148.041188,-8733.488677,74.020594
4006.975835,0.000000,-8427.050478,-444.123565
4006.976159,296.082377,-8733.488677,-222.061783
4006.976484,296.082377,-8350.440928,-370.102971
4006.976808,814.226536,-8656.879127,0.000000
4006.977132,666.185348,-8427.050478,-740.205942
4006.977456,370.102971,-8733.488677,74.020594
4006.977781,592.164754,-8273.831378,-296.082377
4006.978105,222.061783,-8580.269578,-518.144159
4006.978429,518.144159,-8886.707777,-814.226536
4006.978753,296.082377,-8580.269578,-148.041188
4006.979078,370.102971,-8810.098227,-222.061783
4006.979402,74.020594,-8427.050478,0.000000
4006.979726,518.144159,-8810.098227,74.020594
4006.980050,296.082377,-8350.440928,-814.226536
4006.980374,592.164754,-8886.707777,0.000000
4006.980699,518.144159,-8427.050478,-74.020594
4006.981023,666.185348,-8810.098227,0.000000
4006.981347,592.164754,-8503.660028,-592.164754
4006.981671,740.205942,-8656.879127,-148.041188
4006.981996,814.226536,-8580.269578,-518.144159
4006.982320,370.102971,-8886.707777,-296.082377
4006.982644,740.205942,-8886.707777,-222.061783
4006.982968,518.144159,-8656.879127,0.000000
4006.983293,814.226536,-8733.488677,-148.041188
4006.983617,962.267725,-8427.050478,-296.082377
4006.983941,1332.370696,-8197.221829,0.000000
4006.984265,1332.370696,-8197.221829,-148.041188
4006.984589,1554.432478,-8350.440928,-370.102971
4006.984914,1406.391290,-8273.831378,0.000000
4006.985238,1776.494261,-8120.612279,-518.144159
4006.985562,1702.473667,-8427.050478,-518.144159
4006.985886,814.226536,-8503.660028,-296.082377
4006.986211,0.000000,-8656.879127,-222.061783
4006.986535,148.041188,-8427.050478,-814.226536
4006.986859,-888.247130,-8503.660028,-222.061783
4006.987183,-592.164754,-8810.098227,-148.041188
4006.987508,296.082377,-8044.002729,-148.041188
4006.987832,740.205942,-8120.612279,-814.226536
4006.988156,888.247130,-8427.050478,-296.082377
4006.988480,1258.350101,-8350.440928,-296.082377
4006.988804,1554.432478,-8503.660028,-814.226536
4006.989129,1480.411884,-8886.707777,-592.164754
4006.989453,888.247130,-8656.879127,-148.041188
4006.989777,296.082377,-8963.317327,-222.061783
4006.990101,0.000000,-8886.707777,-518.144159
4006.990426,-370.102971,-9116.536426,-518.144159
4006.990750,-740.205942,-8886.707777,-444.123565
4006.991074,-222.061783,-8656.879127,0.000000
4006.991398,0.000000,-8580.269578,-444.123565
4006.991722,222.061783,-8810.098227,-370.102971
4006.992047,592.164754,-8503.660028,-592.164754
4006.992371,962.267725,-9039.926876,-666.185348
4006.992695,1258.350101,-8656.879127,-592.164754
4006.993019,518.144159,-9193.145976,-296.082377
4006.993344,0.000000,-8963.317327,0.000000
4006.993668,-518.144159,-9039.926876,-74.020594
4006.993992,-296.082377,-9193.145976,-296.082377
4006.994316,-1110.308913,-8810.098227,-444.123565
4006.994641,-1184.329507,-8810.098227,-148.041188
4006.994965,-1332.370696,-8656.879127,-740.205942
4006.995289,444.123565,-8963.317327,0.000000
4006.995613,148.041188,-8273.831378,-592.164754
4006.995937,1036.288319,-8656.879127,-666.185348
4006.996262,1628.453072,-8273.831378,74.020594
4006.996586,2146.597232,-8733.488677,-1036.288319
4006.996910,814.226536,-8427.050478,-518.144159
4006.997234,592.164754,-8733.488677,148.041188
4006.997559,370.102971,-8197.221829,-222.061783
4006.997883,1406.391290,-8810.098227,0.000000
4006.998207,1406.391290,-8580.269578,0.000000
4006.998531,666.185348,-8580.269578,592.164754
4006.998856,1110.308913,-8350.440928,-888.247130
4006.999180,1036.288319,-8273.831378,-222.061783
4006.999504,296.082377,-8044.002729,0.000000
4006.999828,592.164754,-8427.050478,74.020594
4007.000152,666.185348,-8044.002729,0.000000
4007.000477,962.267725,-8656.879127,0.000000
4007.000801,296.082377,-7967.393179,-296.082377
4007.001125,1036.288319,-8733.488677,148.041188
4007.001449,740.205942,-8427.050478,-296.082377
4007.001774,296.082377,-8886.707777,-222.061783
4007.002098,0.000000,-8733.488677,-296.082377
4007.002422,0.000000,-8273.831378,74.020594
4007.002746,-148.041188,-8656.879127,-740.205942
4007.003070,-740.205942,-8810.098227,-666.185348
4007.003395,-370.102971,-8810.098227,0.000000
4007.003719,-148.041188,-8273.831378,-222.061783
4007.004043,148.041188,-8197.221829,0.000000
4007.004367,370.102971,-8350.440928,-148.041188
4007.004692,1036.288319,-8580.269578,-666.185348
4007.005016,888.247130,-8350.440928,-444.123565
4007.005340,962.267725,-8656.879127,-666.185348
4007.005664,888.247130,-8656.879127,-666.185348
4007.005989,666.185348,-9039.926876,-296.082377
4007.006313,444.123565,-9116.536426,-592.164754
4007.006637,0.000000,-9346.365076,-296.082377
4007.006961,74.020594,-8886.707777,-222.061783
4007.007285,0.000000,-8963.317327,-888.247130
4007.007610,0.000000,-8886.707777,0.000000
4007.007934,148.041188,-8350.440928,-666.185348
4007.008258,1110.308913,-9193.145976,-370.102971
4007.008582,888.247130,-8350.440928,-518.144159
4007.008907,1110.308913,-9039.926876,-370.102971
4007.009231,518.144159,-8503.660028,-888.247130
4007.009555,518.144159,-9269.755526,-74.020594
4007.009879,666.185348,-8733.488677,-592.164754
4007.010204,0.000000,-9346.365076,0.000000
4007.010528,0.000000,-8733.488677,-444.123565
4007.010852,0.000000,-9346.365076,0.000000
4007.011176,0.000000,-8580.269578,-296.082377
4007.011500,74.020594,-8886.707777,-444.123565
4007.011825,666.185348,-8197.221829,-296.082377
4007.012149,666.185348,-8350.440928,-222.061783
4007.012473,962.267725,-8427.050478,-222.061783
4007.012797,1406.391290,-8197.221829,-296.082377
4007.013122,1480.411884,-8580.269578,-592.164754
4007.013446,1110.308913,-8503.660028,-518.144159
4007.013770,1184.329507,-9346.365076,0.000000
4007.014094,962.267725,-8886.707777,-222.061783
4007.014419,592.164754,-8733.488677,-148.041188
4007.014743,814.226536,-8427.050478,-370.102971
4007.015067,666.185348,-8580.269578,-222.061783
4007.015391,666.185348,-8503.660028,-74.020594
4007.015715,444.123565,-8273.831378,-222.061783
4007.016040,222.061783,-8197.221829,-592.164754
4007.016364,592.164754,-8120.612279,0.000000
4007.016688,148.041188,-8044.002729,-296.082377
4007.017012,518.144159,-8810.098227,-518.144159
4007.017337,370.102971,-8273.831378,-148.041188
4007.017661,444.123565,-8580.269578,-74.020594
4007.017985,814.226536,-8503.660028,-740.205942
4007.018309,1036.288319,-8580.269578,-444.123565
4007.018633,740.205942,-8886.707777,0.000000
4007.018958,370.102971,-8044.002729,-148.041188
4007.019282,518.144159,-9116.536426,0.000000
4007.019606,0.000000,-8427.050478,-370.102971
4007.019930,0.000000,-8656.879127,-518.144159
4007.020255,74.020594,-8350.440928,-666.185348
4007.020579,148.041188,-8656.879127,-148.041188
4007.020903,222.061783,-8886.707777,-296.082377
4007.021227,222.061783,-9039.926876,-296.082377
4007.021552,296.082377,-8656.879127,-370.102971
4007.021876,222.061783,-8810.098227,0.000000
4007.022200,592.164754,-9193.145976,-444.123565
4007.022524,222.061783,-8810.098227,-296.082377
4007.022848,222.061783,-9193.145976,-222.061783
4007.023173,-222.061783,-8427.050478,-592.164754
4007.023497,222.061783,-9039.926876,-370.102971
4007.023821,-222.061783,-8580.269578,-444.123565
4007.024145,0.000000,-9116.536426,-148.041188
4007.024470,-148.041188,-8273.831378,-740.205942
4007.024794,0.000000,-8963.317327,74.020594
4007.025118,-148.041188,-8197.221829,-222.061783
4007.025442,370.102971,-8810.098227,-296.082377
4007.025767,666.185348,-8273.831378,-444.123565
4007.026091,518.144159,-8886.707777,0.000000
4007.026415,740.205942,-9193.145976,-740.205942
4007.026739,666.185348,-8427.050478,-296.082377
4007.027063,1184.329507,-8656.879127,-370.102971
4007.027388,962.267725,-8503.660028,-444.123565
4007.027712,1332.370696,-8886.707777,0.000000
4007.028036,888.247130,-8273.831378,-370.102971
4007.028360,1406.391290,-8273.831378,-518.144159
4007.028685,888.247130,-8503.660028,-518.144159
4007.029009,222.061783,-8120.612279,-740.205942
4007.029333,814.226536,-8273.831378,-148.041188
4007.029657,148.041188,-8427.050478,0.000000
4007.029982,74.020594,-8886.707777,-592.164754
4007.030306,74.020594,-8120.612279,-222.061783
4007.030630,592.164754,-9039.926876,-370.102971
4007.030955,0.000000,-8580.269578,-296.082377
4007.031279,222.061783,-8503.660028,0.000000
4007.031603,666.185348,-8580.269578,-222.061783
4007.031928,0.000000,-8733.488677,-592.164754
4007.032252,0.000000,-8810.098227,-444.123565
4007.032576,74.020594,-8810.098227,-296.082377
4007.032901,0.000000,-8427.050478,-296.082377
4007.033225,-370.102971,-8810.098227,-444.123565
4007.033550,592.164754,-8810.098227,0.000000
4007.033874,74.020594,-8427.050478,-370.102971
4007.034198,148.041188,-8963.317327,-296.082377
4007.034523,962.267725,-8350.440928,-370.102971
4007.034847,962.267725,-9346.365076,-370.102971
4007.035172,814.226536,-8503.660028,-518.144159
4007.035496,814.226536,-8580.269578,-370.102971
4007.035820,444.123565,-9039.926876,-444.123565
4007.036145,148.041188,-8656.879127,-370.102971
4007.036469,444.123565,-8273.831378,-370.102971
4007.036793,222.061783,-8810.098227,-296.082377
4007.037118,148.041188,-8656.879127,-296.082377
4007.037442,222.061783,-8503.660028,-592.164754
4007.037767,222.061783,-8656.879127,-296.082377
4007.038091,518.144159,-8580.269578,-666.185348
4007.038415,444.123565,-8886.707777,0.000000
4007.038740,444.123565,-8503.660028,-444.123565
4007.039064,444.123565,-8810.098227,-444.123565
4007.039389,-222.061783,-8886.707777,-518.144159
4007.039713,740.205942,-8733.488677,0.000000
4007.040037,296.082377,-8580.269578,-370.102971
4007.040362,370.102971,-8733.488677,-222.061783
4007.040686,666.185348,-8886.707777,-222.061783
4007.041010,666.185348,-8656.879127,-444.123565
4007.041335,592.164754,-8580.269578,0.000000
4007.041659,666.185348,-8580.269578,-222.061783
4007.041984,592.164754,-8733.488677,74.020594
4007.042308,1110.308913,-8503.660028,0.000000
4007.042632,962.267725,-8503.660028,-518.144159
4007.042957,1110.308913,-8580.269578,0.000000
4007.043281,1036.288319,-8273.831378,-370.102971
4007.043606,740.205942,-8810.098227,0.000000
4007.043930,592.164754,-8427.050478,-370.102971
4007.044254,592.164754,-8273.831378,-148.041188
4007.044579,296.082377,-8273.831378,-444.123565
4007.044903,518.144159,-8810.098227,0.000000
4007.045227,592.164754,-8120.612279,-592.164754
4007.045552,74.020594,-8810.098227,-518.144159
4007.045876,444.123565,-8580.269578,-222.061783
4007.046201,74.020594,-9193.145976,-518.144159
4007.046525,740.205942,-9116.536426,0.000000
4007.046849,0.000000,-8273.831378,-666.185348
4007.047174,148.041188,-9193.145976,222.061783
4007.047498,148.041188,-8120.612279,-888.247130
4007.047823,444.123565,-8963.317327,148.041188
4007.048147,222.061783,-8273.831378,-1036.288319
4007.048471,296.082377,-8963.317327,0.000000
4007.048796,444.123565,-8503.660028,-666.185348
4007.049120,370.102971,-8810.098227,296.082377
4007.049444,814.226536,-8733.488677,-666.185348
4007.049769,370.102971,-8733.488677,-222.061783
4007.050093,888.247130,-8886.707777,-666.185348
4007.050418,-148.041188,-9269.755526,-296.082377
4007.050742,370.102971,-9039.926876,-222.061783
4007.051066,-222.061783,-8427.050478,-592.164754
4007.051391,370.102971,-9269.755526,-222.061783
4007.051715,-74.020594,-8580.269578,-592.164754
4007.052040,222.061783,-9116.536426,0.000000
4007.052364,-148.041188,-8273.831378,-444.123565
4007.052688,222.061783,-9039.926876,0.000000
4007.053013,370.102971,-8580.269578,-740.205942
4007.053337,518.144159,-9116.536426,0.000000
4007.053661,296.082377,-8427.050478,-296.082377
4007.053986,74.020594,-8733.488677,-370.102971
4007.054310,0.000000,-8580.269578,-518.144159
4007.054635,0.000000,-8350.440928,-148.041188
4007.054959,370.102971,-8580.269578,-592.164754
4007.055283,296.082377,-8580.269578,0.000000
4007.055608,888.247130,-8427.050478,-518.144159
4007.055932,1480.411884,-8733.488677,-296.082377
4007.056257,1924.535449,-7737.564530,-222.061783
4007.056581,1850.514855,-8197.221829,-74.020594
4007.056905,1554.432478,-8427.050478,-370.102971
4007.057230,1332.370696,-8580.269578,0.000000
4007.057554,666.185348,-8963.317327,0.000000
4007.057878,0.000000,-8427.050478,0.000000
4007.058203,74.020594,-8580.269578,-296.082377
4007.058527,-148.041188,-8350.440928,222.061783
4007.058852,0.000000,-8427.050478,-370.102971
4007.059176,592.164754,-8503.660028,0.000000
4007.059500,518.144159,-8580.269578,0.000000
4007.059825,444.123565,-7967.393179,-518.144159
4007.060149,740.205942,-8503.660028,-370.102971
4007.060474,74.020594,-7967.393179,518.144159
4007.060798,222.061783,-8350.440928,-370.102971
4007.061122,-222.061783,-8886.707777,-666.185348
4007.061447,0.000000,-8733.488677,-518.144159
4007.061771,-518.144159,-8580.269578,-370.102971
4007.062095,0.000000,-9039.926876,-666.185348
4007.062420,-296.082377,-8580.269578,-148.041188
4007.062744,0.000000,-8503.660028,-222.061783
4007.063069,222.061783,-8273.831378,-592.164754
4007.063393,1036.288319,-8503.660028,-296.082377
4007.063717,814.226536,-8427.050478,-666.185348
4007.064042,1184.329507,-8503.660028,0.000000
4007.064366,888.247130,-8580.269578,-962.267725
4007.064691,740.205942,-8886.707777,-370.102971
4007.065015,0.000000,-8580.269578,-444.123565
4007.065339,0.000000,-9039.926876,-444.123565
4007.065664,0.000000,-8886.707777,-222.061783
4007.065988,-296.082377,-8656.879127,-518.144159
4007.066312,74.020594,-9116.536426,-296.082377
4007.066637,-296.082377,-8273.831378,0.000000
4007.066961,962.267725,-8886.707777,-444.123565
4007.067286,666.185348,-8350.440928,-888.247130
4007.067610,1480.411884,-8886.707777,0.000000
4007.067934,814.226536,-8427.050478,-592.164754
4007.068259,962.267725,-8810.098227,-296.082377
4007.068583,592.164754,-8503.660028,-370.102971
4007.068908,740.205942,-9039.926876,0.000000
4007.069232,222.061783,-8273.831378,-444.123565
4007.069556,296.082377,-8886.707777,-222.061783
4007.069881,444.123565,-8350.440928,-148.041188
4007.070205,296.082377,-8580.269578,-222.061783
4007.070530,740.205942,-8350.440928,-740.205942
4007.070854,962.267725,-8197.221829,0.000000
4007.071178,814.226536,-7814.174080,-296.082377
4007.071503,1184.329507,-8427.050478,0.000000
4007.071827,1554.432478,-7890.783629,-222.061783
4007.072151,1332.370696,-8503.660028,-296.082377
4007.072476,1036.288319,-8197.221829,-296.082377
4007.072800,1258.350101,-8580.269578,0.000000
4007.073125,888.247130,-8120.612279,222.061783
4007.073449,666.185348,-8273.831378,-148.041188
4007.073773,518.144159,-8427.050478,-444.123565
4007.074098,0.000000,-8886.707777,-222.061783
4007.074422,-444.123565,-8197.221829,-444.123565
4007.074747,74.020594,-9039.926876,0.000000
4007.075071,-148.041188,-8427.050478,-370.102971
4007.075395,148.041188,-8733.488677,-296.082377
4007.075720,222.061783,-8197.221829,-592.164754
4007.076044,1036.288319,-8886.707777,0.000000
4007.076368,1110.308913,-8427.050478,-518.144159
4007.076693,1258.350101,-8656.879127,0.000000
4007.077017,1258.350101,-9116.536426,-444.123565
4007.077342,1110.308913,-8963.317327,-592.164754
4007.077666,592.164754,-9346.365076,-444.123565
4007.077990,0.000000,-8427.050478,-370.102971
4007.078315,0.000000,-9193.145976,-296.082377
4007.078639,-222.061783,-8733.488677,-222.061783
4007.078964,370.102971,-9039.926876,-222.061783
4007.079288,0.000000,-8733.488677,-518.144159
4007.079612,222.061783,-9039.926876,-148.041188
4007.079937,444.123565,-8350.440928,-444.123565
4007.080261,1184.329507,-9116.536426,74.020594
4007.080585,666.185348,-8733.488677,-592.164754
4007.080910,666.185348,-9116.536426,-370.102971
4007.081234,222.061783,-9193.145976,-444.123565
4007.081559,-222.061783,-9269.755526,-222.061783
4007.081883,-518.144159,-8886.707777,-370.102971
4007.082207,-666.185348,-8350.440928,-518.144159
4007.082532,-370.102971,-8963.317327,0.000000
4007.082856,-888.247130,-8197.221829,-740.205942
4007.083181,0.000000,-8810.098227,-222.061783
4007.083505,222.061783,-7890.783629,-444.123565
4007.083829,740.205942,-8427.050478,-148.041188
4007.084154,888.247130,-8120.612279,-666.185348
4007.084478,1258.350101,-9269.755526,0.000000
4007.084802,962.267725,-8427.050478,-740.205942
4007.085127,888.247130,-8810.098227,-148.041188
4007.085451,666.185348,-8503.660028,-222.061783
4007.085776,740.205942,-8656.879127,-148.041188
4007.086100,592.164754,-8350.440928,-740.205942
4007.086424,370.102971,-8886.707777,0.000000
4007.086749,222.061783,-8503.660028,-222.061783
4007.087073,370.102971,-8350.440928,-296.082377
4007.087398,740.205942,-8580.269578,0.000000
4007.087722,740.205942,-8273.831378,-296.082377
4007.088046,666.185348,-8273.831378,-740.205942
4007.088371,518.144159,-8273.831378,0.000000
4007.088695,370.102971,-9039.926876,-74.020594
4007.089019,0.000000,-8503.660028,-370.102971
4007.089344,148.041188,-8580.269578,-444.123565
4007.089668,296.082377,-8886.707777,-296.082377
4007.089993,-370.102971,-8810.098227,-148.041188
4007.090317,-444.123565,-8733.488677,-148.041188
4007.090641,0.000000,-8733.488677,0.000000
4007.090966,-148.041188,-8273.831378,-444.123565
4007.091290,74.020594,-8656.879127,-444.123565
4007.091615,888.247130,-8273.831378,-444.123565
4007.091939,444.123565,-8273.831378,0.000000
4007.092263,222.061783,-8580.269578,-592.164754
4007.092588,888.247130,-8427.050478,-222.061783
4007.092912,1184.329507,-8273.831378,-592.164754
4007.093236,888.247130,-8810.098227,-518.144159
4007.093561,814.226536,-8963.317327,-296.082377
4007.093885,148.041188,-8810.098227,-222.061783
4007.094210,370.102971,-8810.098227,-370.102971
4007.094534,370.102971,-8733.488677,-814.226536
4007.094858,148.041188,-8886.707777,-518.144159
4007.095183,148.041188,-8886.707777,-370.102971
4007.095507,296.082377,-8580.269578,-592.164754
4007.095832,370.102971,-9193.145976,74.020594
4007.096156,666.185348,-8733.488677,-444.123565
4007.096480,1110.308913,-8580.269578,-666.185348
4007.096805,666.185348,-8886.707777,-518.144159
4007.097129,592.164754,-8810.098227,296.082377
4007.097453,444.123565,-8733.488677,-518.144159
4007.097778,296.082377,-9039.926876,-444.123565
4007.098102,222.061783,-8656.879127,-518.144159
4007.098427,518.144159,-8733.488677,-592.164754
4007.098751,518.144159,-8733.488677,-370.102971
4007.099075,518.144159,-8656.879127,-148.041188
4007.099400,370.102971,-8427.050478,-296.082377
4007.099724,888.247130,-8580.269578,-222.061783
4007.100049,1036.288319,-8273.831378,0.000000
4007.100373,1258.350101,-8197.221829,0.000000
4007.100697,888.247130,-8580.269578,-148.041188
4007.101022,1184.329507,-8580.269578,-222.061783
4007.101346,962.267725,-9499.584175,-296.082377
4007.101670,666.185348,-8503.660028,-148.041188
4007.101995,888.247130,-8733.488677,-370.102971
4007.102319,666.185348,-8350.440928,0.000000
4007.102644,740.205942,-8197.221829,-296.082377
4007.102968,370.102971,-8120.612279,-148.041188
4007.103292,444.123565,-8273.831378,-518.144159
4007.103617,518.144159,-8427.050478,-296.082377
4007.103941,370.102971,-8427.050478,-814.226536
4007.104266,666.185348,-8810.098227,444.123565
4007.104590,222.061783,-8503.660028,-740.205942
4007.104914,296.082377,-8580.269578,0.000000
4007.105239,74.020594,-8810.098227,-592.164754
4007.105563,666.185348,-9116.536426,0.000000
4007.105887,444.123565,-8427.050478,-740.205942
4007.106212,444.123565,-9039.926876,-296.082377
4007.106536,518.144159,-8350.440928,-666.185348
4007.106861,444.123565,-8580.269578,-222.061783
4007.107185,148.041188,-8350.440928,-296.082377
4007.107509,370.102971,-8427.050478,-222.061783
4007.107834,740.205942,-8810.098227,-518.144159
4007.108158,296.082377,-8503.660028,-444.123565
4007.108483,444.123565,-9269.755526,-222.061783
4007.108807,0.000000,-8503.660028,-296.082377
4007.109131,74.020594,-9193.145976,-370.102971
4007.109456,-296.082377,-8427.050478,-370.102971
4007.109780,0.000000,-8810.098227,-296.082377
4007.110104,0.000000,-8273.831378,-296.082377
4007.110429,296.082377,-8963.317327,-296.082377
4007.110753,444.123565,-8656.879127,-518.144159
4007.111078,518.144159,-8656.879127,-296.082377
4007.111402,222.061783,-8120.612279,-296.082377
4007.111726,0.000000,-8503.660028,-148.041188
4007.112051,74.020594,-8580.269578,-666.185348
4007.112375,0.000000,-8810.098227,-222.061783
4007.112700,222.061783,-8350.440928,0.000000
4007.113024,0.000000,-8580.269578,0.000000
4007.113348,0.000000,-8580.269578,-74.020594
4007.113673,518.144159,-8273.831378,0.000000
4007.113997,1184.329507,-8503.660028,-444.123565
4007.114321,1258.350101,-8273.831378,-148.041188
4007.114646,1924.535449,-8350.440928,0.000000
4007.114970,1998.556043,-8656.879127,-370.102971
4007.115295,1332.370696,-8350.440928,-592.164754
4007.115619,1702.473667,-8963.317327,-222.061783
4007.115943,370.102971,-8503.660028,-444.123565
4007.116268,148.041188,-8580.269578,-296.082377
4007.116592,-296.082377,-8427.050478,0.000000
4007.116917,-666.185348,-9039.926876,74.020594
4007.117241,-296.082377,-8197.221829,-518.144159
4007.117565,0.000000,-8810.098227,-148.041188
4007.117890,296.082377,-8197.221829,-518.144159
4007.118214,592.164754,-8733.488677,-222.061783
4007.118539,0.000000,-7814.174080,-222.061783
4007.118863,814.226536,-8733.488677,-222.061783
4007.119187,148.041188,-8427.050478,-666.185348
4007.119512,0.000000,-8580.269578,-148.041188
4007.119836,0.000000,-8120.612279,-518.144159
4007.120160,-666.185348,-9039.926876,-222.061783
4007.120485,-444.123565,-8580.269578,-666.185348
4007.120809,0.000000,-8810.098227,-296.082377
4007.121134,0.000000,-8580.269578,-814.226536
4007.121458,148.041188,-8580.269578,0.000000
4007.121782,814.226536,-8350.440928,-444.123565
4007.122107,1332.370696,-8580.269578,0.000000
4007.122431,1332.370696,-8733.488677,-592.164754
4007.122756,740.205942,-8733.488677,-592.164754
4007.123080,740.205942,-8810.098227,0.000000
4007.123404,148.041188,-8656.879127,-370.102971
4007.123729,296.082377,-8886.707777,-444.123565
4007.124053,-370.102971,-8503.660028,74.020594
4007.124377,-370.102971,-8886.707777,-370.102971
4007.124702,0.000000,-8886.707777,-444.123565
4007.125026,0.000000,-8733.488677,74.020594
4007.125351,296.082377,-8580.269578,-370.102971
4007.125675,444.123565,-8120.612279,-370.102971
4007.125999,518.144159,-8656.879127,-148.041188
4007.126324,888.247130,-8580.269578,-518.144159
4007.126648,962.267725,-8580.269578,-296.082377
4007.126973,444.123565,-8503.660028,-518.144159
4007.127297,444.123565,-8580.269578,-444.123565
4007.127621,518.144159,-8427.050478,-148.041188
4007.127946,592.164754,-8656.879127,-370.102971
4007.128270,518.144159,-7967.393179,148.041188
4007.128594,296.082377,-8580.269578,0.000000
4007.128919,518.144159,-8427.050478,0.000000
4007.129243,1036.288319,-8273.831378,0.000000
4007.129568,1184.329507,-8273.831378,-222.061783
4007.129892,1776.494261,-8273.831378,-222.061783
4007.130216,1406.391290,-8273.831378,0.000000
4007.130541,1480.411884,-8350.440928,0.000000
4007.130865,1406.391290,-8350.440928,-518.144159
4007.131190,888.247130,-8503.660028,-592.164754
4007.131514,222.061783,-8350.440928,0.000000
4007.131838,0.000000,-8810.098227,-296.082377
4007.132163,-592.164754,-8427.050478,-444.123565
4007.132487,-222.061783,-8350.440928,222.061783
4007.132811,-222.061783,-7967.393179,-222.061783
4007.133136,222.061783,-8810.098227,-518.144159
4007.133460,740.205942,-7890.783629,-296.082377
4007.133785,1110.308913,-8197.221829,-222.061783
4007.134109,962.267725,-8044.002729,-814.226536
4007.134433,1184.329507,-8810.098227,-222.061783
4007.134758,1184.329507,-8886.707777,-370.102971
4007.135082,666.185348,-8810.098227,-518.144159
4007.135407,0.000000,-8503.660028,-592.164754
4007.135731,0.000000,-8810.098227,-370.102971
4007.136056,-370.102971,-8656.879127,-296.082377
4007.136380,-296.082377,-8886.707777,-370.102971
4007.136704,0.000000,-8656.879127,-444.123565
