#time,accel_x,accel_y,accel_z
5693.098848,296.082377,-8656.879127,0.000000
5693.099172,518.144159,-8580.269578,0.000000
5693.099496,370.102971,-8197.221829,0.000000
5693.099821,370.102971,-8810.098227,0.000000
5693.100145,148.041188,-8580.269578,444.123565
5693.100469,444.123565,-8886.707777,0.000000
5693.100794,666.185348,-8733.488677,0.000000
5693.101118,296.082377,-8810.098227,148.041188
5693.101442,0.000000,-8503.660028,-74.020594
5693.101766,370.102971,-8580.269578,74.020594
5693.102091,296.082377,-8656.879127,0.000000
5693.102415,370.102971,-8810.098227,-148.041188
5693.102739,370.102971,-8656.879127,0.000000
5693.103064,296.082377,-8656.879127,0.000000
5693.103388,222.061783,-8503.660028,0.000000
5693.103712,444.123565,-8810.098227,0.000000
5693.104037,518.144159,-8656.879127,148.041188
5693.104361,962.267725,-8886.707777,0.000000
5693.104685,592.164754,-8963.317327,74.020594
5693.105010,666.185348,-8580.269578,74.020594
5693.105334,740.205942,-8733.488677,-148.041188
5693.105658,0.000000,-8963.317327,222.061783
5693.105983,222.061783,-8886.707777,-222.061783
5693.106307,296.082377,-8503.660028,0.000000
5693.106631,222.061783,-8503.660028,0.000000
5693.106955,444.123565,-8886.707777,-370.102971
5693.107280,666.185348,-8427.050478,-222.061783
5693.107604,666.185348,-8656.879127,-370.102971
5693.107928,592.164754,-8580.269578,-592.164754
5693.108253,666.185348,-8733.488677,-296.082377
5693.108577,222.061783,-8427.050478,148.041188
5693.108901,222.061783,-8580.269578,-592.164754
5693.109226,666.185348,-8656.879127,-666.185348
5693.109550,518.144159,-8810.098227,-740.205942
5693.109874,370.102971,-8350.440928,-370.102971
5693.110199,222.061783,-8656.879127,-666.185348
5693.110523,444.123565,-8733.488677,-740.205942
5693.110847,370.102971,-8580.269578,-592.164754
5693.111171,444.123565,-8580.269578,-444.123565
5693.111496,740.205942,-8810.098227,-444.123565
5693.111820,592.164754,-8580.269578,-444.123565
5693.112144,296.082377,-8810.098227,-444.123565
5693.112469,74.020594,-8503.660028,-296.082377
5693.112793,592.164754,-8350.440928,148.041188
5693.113117,592.164754,-8503.660028,-444.123565
5693.113442,370.102971,-8733.488677,-444.123565
5693.113766,370.102971,-8886.707777,-740.205942
5693.114090,444.123565,-9116.536426,-370.102971
5693.114415,518.144159,-8580.269578,-666.185348
5693.114739,370.102971,-8580.269578,-518.144159
5693.115063,592.164754,-8733.488677,-444.123565
5693.115387,444.123565,-8427.050478,-370.102971
5693.115712,518.144159,-8580.269578,0.000000
5693.116036,296.082377,-8427.050478,-518.144159
5693.116360,370.102971,-8656.879127,-518.144159
5693.116685,370.102971,-8503.660028,-518.144159
5693.117009,592.164754,-8427.050478,-518.144159
5693.117333,518.144159,-8810.098227,-370.102971
5693.117658,518.144159,-8503.660028,-296.082377
5693.117982,666.185348,-8656.879127,-444.123565
5693.118306,296.082377,-8656.879127,-518.144159
5693.118631,518.144159,-8656.879127,0.000000
5693.118955,370.102971,-8503.660028,0.000000
5693.119279,518.144159,-8580.269578,0.000000
5693.119603,666.185348,-8656.879127,0.000000
5693.119928,814.226536,-8580.269578,0.000000
5693.120252,444.123565,-8120.612279,0.000000
5693.120576,592.164754,-8427.050478,74.020594
5693.120901,296.082377,-8656.879127,74.020594
5693.121225,814.226536,-8733.488677,444.123565
5693.121549,518.144159,-8810.098227,0.000000
5693.121874,370.102971,-8503.660028,222.061783
5693.122198,518.144159,-8503.660028,0.000000
5693.122522,444.123565,-8427.050478,222.061783
5693.122847,518.144159,-8580.269578,148.041188
5693.123171,666.185348,-8656.879127,148.041188
5693.123495,740.205942,-8350.440928,222.061783
5693.123819,592.164754,-8503.660028,148.041188
5693.124144,296.082377,-9039.926876,592.164754
5693.124468,666.185348,-8350.440928,74.020594
5693.124792,666.185348,-8656.879127,222.061783
5693.125117,370.102971,-8427.050478,0.000000
5693.125441,518.144159,-8580.269578,444.123565
5693.125765,222.061783,-8580.269578,74.020594
5693.126090,222.061783,-8503.660028,296.082377
5693.126414,370.102971,-8197.221829,0.000000
5693.126738,518.144159,-8733.488677,74.020594
5693.127063,592.164754,-8350.440928,296.082377
5693.127387,444.123565,-8580.269578,148.041188
5693.127711,296.082377,-8656.879127,222.061783
5693.128036,296.082377,-8580.269578,444.123565
5693.128360,592.164754,-8963.317327,222.061783
5693.128684,0.000000,-8503.660028,148.041188
5693.129008,222.061783,-8503.660028,74.020594
5693.129333,370.102971,-8503.660028,74.020594
5693.129657,666.185348,-8427.050478,148.041188
5693.129981,296.082377,-8427.050478,148.041188
5693.130306,148.041188,-8350.440928,296.082377
5693.130630,518.144159,-8350.440928,370.102971
5693.130954,222.061783,-8350.440928,148.041188
5693.131279,148.041188,-8503.660028,296.082377
5693.131603,222.061783,-8427.050478,148.041188
5693.131927,74.020594,-8810.098227,0.000000
5693.132252,74.020594,-8503.660028,148.041188
5693.132576,0.000000,-8197.221829,296.082377
5693.132900,148.041188,-8427.050478,0.000000
5693.133224,222.061783,-8197.221829,0.000000
5693.133549,370.102971,-8273.831378,0.000000
5693.133873,444.123565,-7584.345430,148.041188
5693.134197,296.082377,-8273.831378,148.041188
5693.134522,148.041188,-8656.879127,222.061783
5693.134846,370.102971,-8273.831378,74.020594
5693.135170,148.041188,-8350.440928,0.000000
5693.135495,518.144159,-8427.050478,0.000000
5693.135819,0.000000,-8197.221829,0.000000
5693.136143,0.000000,-8656.879127,222.061783
5693.136468,74.020594,-8273.831378,74.020594
5693.136792,0.000000,-8350.440928,370.102971
5693.137116,444.123565,-8656.879127,-222.061783
5693.137440,444.123565,-8427.050478,-148.041188
5693.137765,370.102971,-8273.831378,222.061783
5693.138089,296.082377,-8503.660028,222.061783
5693.138413,592.164754,-8427.050478,0.000000
5693.138738,518.144159,-8503.660028,0.000000
5693.139062,518.144159,-8427.050478,148.041188
5693.139386,74.020594,-8733.488677,74.020594
5693.139711,148.041188,-8273.831378,296.082377
5693.140035,444.123565,-8503.660028,148.041188
5693.140359,518.144159,-8197.221829,-296.082377
5693.140684,444.123565,-8656.879127,0.000000
5693.141008,370.102971,-8427.050478,148.041188
5693.141332,296.082377,-8044.002729,222.061783
5693.141656,444.123565,-8427.050478,0.000000
5693.141981,740.205942,-8273.831378,0.000000
5693.142305,592.164754,-8350.440928,0.000000
5693.142629,518.144159,-8503.660028,-148.041188
5693.142954,74.020594,-8427.050478,-370.102971
5693.143278,370.102971,-8427.050478,0.000000
5693.143602,148.041188,-8120.612279,-296.082377
5693.143927,222.061783,-8273.831378,0.000000
5693.144251,296.082377,-8350.440928,-370.102971
5693.144575,444.123565,-8273.831378,148.041188
5693.144900,592.164754,-8273.831378,-148.041188
5693.145224,592.164754,-8886.707777,74.020594
5693.145548,740.205942,-8273.831378,0.000000
5693.145872,592.164754,-8350.440928,74.020594
5693.146197,370.102971,-8503.660028,0.000000
5693.146521,222.061783,-8273.831378,222.061783
5693.146845,814.226536,-8810.098227,0.000000
5693.147170,-148.041188,-8580.269578,0.000000
5693.147494,148.041188,-8733.488677,0.000000
5693.147818,0.000000,-8503.660028,0.000000
5693.148143,370.102971,-8580.269578,0.000000
5693.148467,370.102971,-8656.879127,0.000000
5693.148791,444.123565,-8656.879127,74.020594
5693.149116,740.205942,-8656.879127,0.000000
5693.149440,962.267725,-9499.584175,74.020594
5693.149764,666.185348,-8810.098227,0.000000
5693.150089,296.082377,-8503.660028,0.000000
5693.150413,74.020594,-9039.926876,0.000000
5693.150737,0.000000,-8350.440928,-370.102971
5693.151061,222.061783,-8810.098227,-666.185348
5693.151386,0.000000,-8580.269578,-148.041188
5693.151710,0.000000,-8656.879127,-222.061783
5693.152034,74.020594,-8810.098227,-444.123565
5693.152359,1110.308913,-8733.488677,-296.082377
5693.152683,740.205942,-8733.488677,-444.123565
5693.153007,814.226536,-8733.488677,-666.185348
5693.153332,666.185348,-8886.707777,-296.082377
5693.153656,518.144159,-9576.193725,-370.102971
5693.153980,666.185348,-8886.707777,-740.205942
5693.154305,370.102971,-8580.269578,-962.267725
5693.154629,370.102971,-8810.098227,-962.267725
5693.154953,0.000000,-8656.879127,-814.226536
5693.155277,74.020594,-8733.488677,-962.267725
5693.155602,0.000000,-8656.879127,-814.226536
5693.155926,222.061783,-8503.660028,-666.185348
5693.156250,592.164754,-8580.269578,-888.247130
5693.156575,444.123565,-8963.317327,-222.061783
5693.156899,444.123565,-8886.707777,-666.185348
5693.157223,740.205942,-8810.098227,-888.247130
5693.157548,444.123565,-8656.879127,-1184.329507
5693.157872,814.226536,-8810.098227,-1258.350101
5693.158196,444.123565,-8886.707777,-888.247130
5693.158521,148.041188,-8503.660028,-888.247130
5693.158845,222.061783,-8656.879127,-962.267725
5693.159169,0.000000,-8350.440928,-1184.329507
5693.159493,518.144159,-8886.707777,-666.185348
5693.159818,74.020594,-8273.831378,-1110.308913
5693.160142,296.082377,-8503.660028,-666.185348
5693.160466,592.164754,-8503.660028,-888.247130
5693.160791,666.185348,-8580.269578,-518.144159
5693.161115,666.185348,-8580.269578,-1036.288319
5693.161439,740.205942,-9269.755526,-1036.288319
5693.161764,518.144159,-8580.269578,-962.267725
5693.162088,592.164754,-8886.707777,-1036.288319
5693.162412,222.061783,-9039.926876,-1110.308913
5693.162737,296.082377,-8427.050478,-888.247130
5693.163061,444.123565,-8656.879127,-962.267725
5693.163385,296.082377,-8656.879127,-888.247130
5693.163709,592.164754,-8427.050478,-592.164754
5693.164034,370.102971,-8427.050478,-740.205942
5693.164358,518.144159,-8580.269578,-592.164754
5693.164682,814.226536,-8656.879127,-518.144159
5693.165007,814.226536,-8886.707777,-296.082377
5693.165331,592.164754,-8580.269578,-370.102971
5693.165655,740.205942,-8810.098227,-814.226536
5693.165980,592.164754,-8810.098227,-814.226536
5693.166304,444.123565,-8656.879127,-740.205942
5693.166628,518.144159,-8273.831378,-888.247130
5693.166953,518.144159,-8350.440928,-814.226536
5693.167277,444.123565,-8886.707777,-666.185348
5693.167601,296.082377,-8427.050478,-666.185348
5693.167925,296.082377,-8197.221829,0.000000
5693.168250,370.102971,-8580.269578,-370.102971
5693.168574,888.247130,-8427.050478,-518.144159
5693.168898,666.185348,-8273.831378,0.000000
5693.169223,518.144159,-8656.879127,-148.041188
5693.169547,814.226536,-8503.660028,-518.144159
5693.169871,814.226536,-8503.660028,-740.205942
5693.170196,296.082377,-8503.660028,-1036.288319
5693.170520,222.061783,-9116.536426,-740.205942
5693.170844,148.041188,-8810.098227,-888.247130
5693.171169,296.082377,-9116.536426,-518.144159
5693.171493,296.082377,-8350.440928,-592.164754
5693.171817,666.185348,-8733.488677,-666.185348
5693.172142,1258.350101,-8963.317327,-592.164754
5693.172466,444.123565,-8656.879127,-518.144159
5693.172790,666.185348,-8886.707777,-444.123565
5693.173114,518.144159,-8580.269578,-740.205942
5693.173439,592.164754,-8810.098227,-592.164754
5693.173763,666.185348,-8580.269578,-814.226536
5693.174087,296.082377,-8810.098227,-518.144159
5693.174412,296.082377,-8886.707777,-666.185348
5693.174736,518.144159,-8656.879127,-444.123565
5693.175060,740.205942,-9116.536426,-592.164754
5693.175385,740.205942,-9039.926876,-518.144159
5693.175709,1036.288319,-8427.050478,-296.082377
5693.176033,592.164754,-8963.317327,-222.061783
5693.176358,740.205942,-8503.660028,0.000000
5693.176682,148.041188,-8886.707777,-370.102971
5693.177006,444.123565,-8810.098227,-296.082377
5693.177330,148.041188,-8503.660028,-666.185348
5693.177655,444.123565,-8733.488677,-666.185348
5693.177979,74.020594,-8580.269578,-518.144159
5693.178304,222.061783,-8580.269578,-518.144159
5693.178628,518.144159,-8810.098227,-814.226536
5693.178953,592.164754,-8733.488677,-962.267725
5693.179277,592.164754,-8197.221829,-518.144159
5693.179602,370.102971,-8580.269578,-962.267725
5693.179927,740.205942,-8886.707777,-740.205942
5693.180251,740.205942,-8503.660028,-1036.288319
5693.180576,370.102971,-8427.050478,-518.144159
5693.180900,222.061783,-8503.660028,-1036.288319
5693.181225,370.102971,-8886.707777,-666.185348
5693.181549,148.041188,-8273.831378,-888.247130
5693.181874,444.123565,-8427.050478,-814.226536
5693.182199,666.185348,-8656.879127,-814.226536
5693.182523,666.185348,-8427.050478,-444.123565
5693.182848,148.041188,-8273.831378,-296.082377
5693.183172,222.061783,-8427.050478,-370.102971
5693.183497,814.226536,-9116.536426,-222.061783
5693.183822,666.185348,-8427.050478,-444.123565
5693.184146,814.226536,-8503.660028,-814.226536
5693.184471,0.000000,-8733.488677,-518.144159
5693.184795,370.102971,-8580.269578,-370.102971
5693.185120,0.000000,-8656.879127,-814.226536
5693.185444,370.102971,-8273.831378,-814.226536
5693.185769,222.061783,-8427.050478,-888.247130
5693.186094,296.082377,-8197.221829,-296.082377
5693.186418,0.000000,-8197.221829,-962.267725
5693.186743,74.020594,-8503.660028,-518.144159
5693.187067,296.082377,-8273.831378,-444.123565
5693.187392,222.061783,-8350.440928,-962.267725
5693.187717,370.102971,-7967.393179,-962.267725
5693.188041,74.020594,-8503.660028,-666.185348
5693.188366,666.185348,-8656.879127,-962.267725
5693.188690,444.123565,-8273.831378,-518.144159
5693.189015,296.082377,-8427.050478,-814.226536
5693.189339,370.102971,-8503.660028,-814.226536
5693.189664,370.102971,-8273.831378,-518.144159
5693.189989,148.041188,-8580.269578,-592.164754
5693.190313,370.102971,-8580.269578,-666.185348
5693.190638,148.041188,-8656.879127,-518.144159
5693.190962,296.082377,-8503.660028,-666.185348
5693.191287,296.082377,-8503.660028,-518.144159
5693.191611,444.123565,-8733.488677,0.000000
5693.191936,888.247130,-9039.926876,-740.205942
5693.192261,296.082377,-8503.660028,-148.041188
5693.192585,740.205942,-8503.660028,-592.164754
5693.192910,592.164754,-8656.879127,-370.102971
5693.193234,592.164754,-8350.440928,-444.123565
5693.193559,222.061783,-8733.488677,-148.041188
5693.193884,518.144159,-8503.660028,-666.185348
5693.194208,296.082377,-8656.879127,-148.041188
5693.194533,148.041188,-8503.660028,-370.102971
5693.194857,0.000000,-8350.440928,148.041188
5693.195182,148.041188,-8273.831378,-518.144159
5693.195506,518.144159,-8656.879127,0.000000
5693.195831,148.041188,-8044.002729,-666.185348
5693.196156,370.102971,-8963.317327,-666.185348
5693.196480,444.123565,-7890.783629,-666.185348
5693.196805,370.102971,-8580.269578,-444.123565
5693.197129,148.041188,-8503.660028,-666.185348
5693.197454,296.082377,-8580.269578,-518.144159
5693.197779,296.082377,-8580.269578,-518.144159
5693.198103,518.144159,-8580.269578,-740.205942
5693.198428,666.185348,-8580.269578,-444.123565
5693.198752,370.102971,-8427.050478,-518.144159
5693.199077,666.185348,-8273.831378,-222.061783
5693.199401,148.041188,-8197.221829,-444.123565
5693.199726,370.102971,-8580.269578,-518.144159
5693.200051,222.061783,-8273.831378,0.000000
5693.200375,518.144159,-8197.221829,-518.144159
5693.200700,444.123565,-8503.660028,-370.102971
5693.201024,666.185348,-8197.221829,-592.164754
5693.201349,444.123565,-8580.269578,-518.144159
5693.201674,518.144159,-8810.098227,-518.144159
5693.201998,444.123565,-8810.098227,-740.205942
5693.202323,592.164754,-8810.098227,-444.123565
5693.202647,370.102971,-8580.269578,-592.164754
5693.202972,148.041188,-8886.707777,-518.144159
5693.203296,444.123565,-8963.317327,-666.185348
5693.203621,148.041188,-8350.440928,-148.041188
5693.203946,296.082377,-8810.098227,-444.123565
5693.204270,222.061783,-8044.002729,-370.102971
5693.204595,592.164754,-8886.707777,-148.041188
5693.204919,518.144159,-8656.879127,-592.164754
5693.205244,592.164754,-8427.050478,-518.144159
5693.205568,518.144159,-8886.707777,-592.164754
5693.205893,666.185348,-8656.879127,-518.144159
5693.206218,666.185348,-8273.831378,-814.226536
5693.206542,814.226536,-8810.098227,-814.226536
5693.206867,518.144159,-8656.879127,-518.144159
5693.207191,518.144159,-8427.050478,-740.205942
5693.207516,740.205942,-8733.488677,-740.205942
5693.207841,518.144159,-8503.660028,-962.267725
5693.208165,592.164754,-8810.098227,-592.164754
5693.208490,444.123565,-8120.612279,-1036.288319
5693.208814,740.205942,-8350.440928,-222.061783
5693.209139,592.164754,-8656.879127,-444.123565
5693.209463,444.123565,-8733.488677,0.000000
5693.209788,370.102971,-8350.440928,-592.164754
5693.210113,592.164754,-8580.269578,-296.082377
5693.210437,1184.329507,-8656.879127,-444.123565
5693.210762,666.185348,-8580.269578,-592.164754
5693.211086,518.144159,-8580.269578,-222.061783
5693.211411,444.123565,-8427.050478,-222.061783
5693.211736,888.247130,-9116.536426,222.061783
5693.212060,74.020594,-8503.660028,0.000000
5693.212385,370.102971,-8656.879127,0.000000
5693.212709,74.020594,-8273.831378,0.000000
5693.213034,444.123565,-8273.831378,-296.082377
5693.213358,296.082377,-8810.098227,0.000000
5693.213683,740.205942,-8580.269578,-296.082377
5693.214008,518.144159,-8273.831378,0.000000
5693.214332,592.164754,-8580.269578,-592.164754
5693.214657,666.185348,-8503.660028,74.020594
5693.214981,666.185348,-8733.488677,-592.164754
5693.215306,666.185348,-9116.536426,-518.144159
5693.215631,592.164754,-8733.488677,-370.102971
5693.215955,518.144159,-9193.145976,74.020594
5693.216280,444.123565,-8656.879127,-518.144159
5693.216604,666.185348,-8656.879127,-370.102971
5693.216929,370.102971,-8656.879127,-370.102971
5693.217253,592.164754,-8733.488677,74.020594
5693.217578,666.185348,-8350.440928,-296.082377
5693.217903,740.205942,-8427.050478,-296.082377
5693.218227,222.061783,-8810.098227,-148.041188
5693.218552,814.226536,-8197.221829,0.000000
5693.218876,1110.308913,-9269.755526,-444.123565
5693.219201,444.123565,-9116.536426,0.000000
5693.219526,518.144159,-8810.098227,0.000000
5693.219850,518.144159,-8963.317327,0.000000
5693.220175,666.185348,-8963.317327,-592.164754
5693.220499,370.102971,-8733.488677,-370.102971
5693.220824,518.144159,-8810.098227,0.000000
5693.221148,296.082377,-8350.440928,-148.041188
5693.221473,370.102971,-8886.707777,0.000000
5693.221798,0.000000,-8427.050478,-518.144159
5693.222122,518.144159,-8656.879127,0.000000
5693.222447,0.000000,-8350.440928,-296.082377
5693.222771,296.082377,-8733.488677,-222.061783
5693.223096,814.226536,-8120.612279,0.000000
5693.223420,296.082377,-8810.098227,-222.061783
5693.223745,666.185348,-8656.879127,-370.102971
5693.224070,444.123565,-8656.879127,-518.144159
5693.224394,740.205942,-8886.707777,-222.061783
5693.224719,296.082377,-8120.612279,-296.082377
5693.225043,0.000000,-8733.488677,-296.082377
5693.225368,518.144159,-8503.660028,0.000000
5693.225693,222.061783,-8810.098227,-222.061783
5693.226017,74.020594,-8656.879127,-148.041188
5693.226342,148.041188,-8656.879127,74.020594
5693.226666,222.061783,-8810.098227,74.020594
5693.226991,370.102971,-8810.098227,0.000000
5693.227315,518.144159,-8350.440928,444.123565
5693.227640,666.185348,-8580.269578,0.000000
5693.227965,518.144159,-8656.879127,148.041188
5693.228289,222.061783,-8810.098227,0.000000
5693.228614,666.185348,-8886.707777,0.000000
5693.228938,370.102971,-8656.879127,0.000000
5693.229263,444.123565,-8886.707777,0.000000
5693.229588,148.041188,-8733.488677,222.061783
5693.229912,74.020594,-8580.269578,148.041188
5693.230237,222.061783,-8350.440928,148.041188
5693.230561,518.144159,-8427.050478,222.061783
5693.230886,370.102971,-8656.879127,148.041188
5693.231210,592.164754,-8503.660028,222.061783
5693.231535,296.082377,-8273.831378,74.020594
5693.231860,296.082377,-8350.440928,74.020594
5693.232184,444.123565,-8733.488677,0.000000
5693.232509,370.102971,-8656.879127,-222.061783
5693.232833,296.082377,-8656.879127,-370.102971
5693.233158,222.061783,-8580.269578,-296.082377
5693.233483,296.082377,-8580.269578,0.000000
5693.233807,74.020594,-8810.098227,74.020594
5693.234132,518.144159,-8656.879127,-444.123565
5693.234456,222.061783,-8733.488677,-148.041188
5693.234781,296.082377,-8273.831378,0.000000
5693.235105,296.082377,-7967.393179,0.000000
5693.235430,370.102971,-8503.660028,74.020594
5693.235755,296.082377,-9422.974625,0.000000
5693.236079,444.123565,-8963.317327,0.000000
5693.236404,148.041188,-8656.879127,148.041188
5693.236728,296.082377,-8810.098227,148.041188
5693.237053,0.000000,-8963.317327,222.061783
5693.237377,444.123565,-8503.660028,0.000000
5693.237702,370.102971,-8427.050478,-370.102971
5693.238027,518.144159,-8656.879127,-222.061783
5693.238351,0.000000,-8580.269578,0.000000
5693.238676,0.000000,-8886.707777,0.000000
5693.239000,74.020594,-8503.660028,0.000000
5693.239325,74.020594,-8503.660028,0.000000
5693.239650,370.102971,-8273.831378,-222.061783
5693.239974,296.082377,-8733.488677,222.061783
5693.240299,222.061783,-8580.269578,370.102971
5693.240623,222.061783,-8427.050478,0.000000
5693.240948,148.041188,-8733.488677,0.000000
5693.241272,222.061783,-8656.879127,-222.061783
5693.241597,518.144159,-8733.488677,-296.082377
5693.241922,222.061783,-8427.050478,-222.061783
5693.242246,370.102971,-8963.317327,0.000000
5693.242571,370.102971,-8656.879127,0.000000
5693.242895,518.144159,-9422.974625,74.020594
5693.243220,296.082377,-8503.660028,0.000000
5693.243545,222.061783,-8733.488677,0.000000
5693.243869,370.102971,-8350.440928,0.000000
5693.244194,148.041188,-8350.440928,0.000000
5693.244518,0.000000,-8656.879127,148.041188
5693.244843,222.061783,-8656.879127,0.000000
5693.245167,222.061783,-8350.440928,0.000000
5693.245492,0.000000,-8580.269578,0.000000
5693.245817,148.041188,-8963.317327,222.061783
5693.246141,148.041188,-8503.660028,74.020594
5693.246466,814.226536,-8733.488677,0.000000
5693.246790,518.144159,-8273.831378,-296.082377
5693.247115,0.000000,-8656.879127,444.123565
5693.247440,296.082377,-8810.098227,0.000000
5693.247764,370.102971,-8427.050478,0.000000
5693.248089,592.164754,-8503.660028,0.000000
5693.248413,222.061783,-8427.050478,-222.061783
5693.248738,444.123565,-8197.221829,0.000000
5693.249062,0.000000,-8350.440928,0.000000
5693.249387,444.123565,-8503.660028,0.000000
5693.249712,370.102971,-8503.660028,-296.082377
5693.250036,1110.308913,-8810.098227,-148.041188
5693.250361,370.102971,-8810.098227,0.000000
5693.250685,222.061783,-8656.879127,0.000000
5693.251010,592.164754,-8810.098227,74.020594
5693.251334,370.102971,-8886.707777,-296.082377
5693.251659,370.102971,-8963.317327,-518.144159
5693.251984,296.082377,-8656.879127,-370.102971
5693.252308,148.041188,-8273.831378,0.000000
5693.252633,74.020594,-8503.660028,-296.082377
5693.252957,148.041188,-8810.098227,0.000000
5693.253282,148.041188,-8503.660028,0.000000
5693.253607,592.164754,-8580.269578,0.000000
5693.253931,0.000000,-8427.050478,0.000000
5693.254256,592.164754,-8503.660028,0.000000
5693.254580,296.082377,-8427.050478,0.000000
5693.254905,370.102971,-8656.879127,-518.144159
5693.255229,74.020594,-8886.707777,-222.061783
5693.255554,222.061783,-8886.707777,222.061783
5693.255879,296.082377,-8427.050478,-296.082377
5693.256203,0.000000,-8580.269578,-370.102971
5693.256528,296.082377,-8733.488677,-370.102971
5693.256852,296.082377,-8427.050478,-296.082377
5693.257177,0.000000,-8197.221829,-296.082377
5693.257502,74.020594,-8350.440928,0.000000
5693.257826,518.144159,-8197.221829,0.000000
5693.258151,370.102971,-8120.612279,-296.082377
5693.258475,814.226536,-7814.174080,0.000000
5693.258800,296.082377,-8580.269578,-370.102971
5693.259124,444.123565,-8197.221829,-296.082377
5693.259449,370.102971,-8733.488677,-444.123565
5693.259774,592.164754,-8886.707777,-444.123565
5693.260098,814.226536,-8656.879127,0.000000
5693.260423,666.185348,-8580.269578,-370.102971
5693.260747,592.164754,-8503.660028,-370.102971
5693.261072,740.205942,-8580.269578,-296.082377
5693.261397,740.205942,-8273.831378,-592.164754
5693.261721,592.164754,-8197.221829,-296.082377
5693.262046,592.164754,-8197.221829,-518.144159
5693.262370,592.164754,-8580.269578,-148.041188
5693.262695,592.164754,-7967.393179,0.000000
5693.263019,518.144159,-8503.660028,-148.041188
5693.263344,592.164754,-8503.660028,-444.123565
5693.263669,666.185348,-8350.440928,-222.061783
5693.263993,592.164754,-8580.269578,-666.185348
5693.264318,888.247130,-8350.440928,-444.123565
5693.264642,666.185348,-8427.050478,-370.102971
5693.264967,592.164754,-8503.660028,-518.144159
5693.265291,740.205942,-8350.440928,-444.123565
5693.265616,740.205942,-8656.879127,-962.267725
5693.265941,592.164754,-8427.050478,-444.123565
5693.266265,518.144159,-8350.440928,-666.185348
5693.266590,444.123565,-8733.488677,-518.144159
5693.266914,814.226536,-8427.050478,-518.144159
5693.267239,666.185348,-8656.879127,-666.185348
5693.267564,444.123565,-8733.488677,-666.185348
5693.267888,518.144159,-8656.879127,-370.102971
5693.268213,444.123565,-8733.488677,-592.164754
5693.268537,888.247130,-8886.707777,-740.205942
5693.268862,592.164754,-8810.098227,-592.164754
5693.269186,666.185348,-8580.269578,-518.144159
5693.269511,370.102971,-8810.098227,-518.144159
5693.269836,444.123565,-8810.098227,-222.061783
5693.270160,222.061783,-9116.536426,-592.164754
5693.270485,222.061783,-8580.269578,-740.205942
5693.270809,148.041188,-8580.269578,-814.226536
5693.271134,444.123565,-8733.488677,-444.123565
5693.271459,444.123565,-8656.879127,-222.061783
5693.271783,518.144159,-8733.488677,-444.123565
5693.272108,814.226536,-8273.831378,-740.205942
5693.272432,740.205942,-8580.269578,-592.164754
5693.272757,666.185348,-8580.269578,-814.226536
5693.273081,518.144159,-8580.269578,-518.144159
5693.273406,518.144159,-8810.098227,-370.102971
5693.273731,666.185348,-8580.269578,-518.144159
5693.274055,888.247130,-8886.707777,-888.247130
5693.274380,296.082377,-8656.879127,-518.144159
5693.274704,444.123565,-8503.660028,-222.061783
5693.275029,592.164754,-8273.831378,-518.144159
5693.275354,444.123565,-8503.660028,-148.041188
5693.275678,666.185348,-8044.002729,-148.041188
5693.276003,814.226536,-8580.269578,-296.082377
5693.276327,518.144159,-8503.660028,-370.102971
5693.276652,740.205942,-8503.660028,0.000000
5693.276976,518.144159,-9116.536426,-370.102971
5693.277301,666.185348,-8503.660028,-592.164754
5693.277626,518.144159,-8810.098227,-370.102971
5693.277950,666.185348,-8733.488677,-518.144159
5693.278275,666.185348,-9039.926876,-592.164754
5693.278599,444.123565,-8580.269578,-592.164754
5693.278924,666.185348,-8656.879127,-444.123565
5693.279248,370.102971,-8273.831378,-666.185348
5693.279573,814.226536,-8810.098227,-444.123565
5693.279898,444.123565,-8044.002729,-370.102971
5693.280222,518.144159,-8810.098227,-148.041188
5693.280547,592.164754,-8427.050478,-370.102971
5693.280871,370.102971,-8350.440928,-296.082377
5693.281196,592.164754,-9039.926876,0.000000
5693.281521,222.061783,-8503.660028,-518.144159
5693.281845,444.123565,-8810.098227,-296.082377
5693.282167,444.123565,-8427.050478,-592.164754
5693.282492,444.123565,-9729.412825,-370.102971
5693.282816,444.123565,-8810.098227,-592.164754
5693.283141,148.041188,-8810.098227,-592.164754
5693.283465,222.061783,-8427.050478,0.000000
5693.283790,370.102971,-8197.221829,-592.164754
5693.284114,74.020594,-8733.488677,0.000000
5693.284439,296.082377,-8503.660028,-518.144159
5693.284763,518.144159,-8810.098227,-370.102971
5693.285088,370.102971,-8656.879127,-370.102971
5693.285412,592.164754,-8197.221829,0.000000
5693.285737,74.020594,-8733.488677,-222.061783
5693.286061,518.144159,-8810.098227,-592.164754
5693.286386,222.061783,-9039.926876,-962.267725
5693.286710,518.144159,-8886.707777,-592.164754
5693.287035,444.123565,-8273.831378,-592.164754
5693.287359,592.164754,-8733.488677,-666.185348
5693.287684,222.061783,-8810.098227,-814.226536
5693.288008,370.102971,-8886.707777,-814.226536
5693.288333,222.061783,-8656.879127,-1184.329507
5693.288657,370.102971,-8733.488677,-888.247130
5693.288982,296.082377,-8733.488677,-888.247130
5693.289307,592.164754,-8656.879127,-592.164754
5693.289631,444.123565,-8580.269578,-1184.329507
5693.289956,518.144159,-8656.879127,-962.267725
5693.290280,740.205942,-8580.269578,-888.247130
5693.290605,148.041188,-8656.879127,-888.247130
5693.290929,444.123565,-9193.145976,-962.267725
5693.291254,444.123565,-8503.660028,-1036.288319
5693.291578,370.102971,-9116.536426,-1036.288319
5693.291903,444.123565,-8733.488677,-1110.308913
5693.292227,296.082377,-8733.488677,-666.185348
5693.292552,518.144159,-8963.317327,-888.247130
5693.292876,370.102971,-8656.879127,-814.226536
5693.293201,296.082377,-8120.612279,-1036.288319
5693.293525,296.082377,-8810.098227,-666.185348
5693.293850,0.000000,-8656.879127,-518.144159
5693.294174,296.082377,-8733.488677,-740.205942
5693.294499,296.082377,-8427.050478,-962.267725
5693.294823,666.185348,-8656.879127,-666.185348
5693.295148,592.164754,-8656.879127,-962.267725
5693.295472,592.164754,-8656.879127,-740.205942
5693.295797,592.164754,-8503.660028,-666.185348
5693.296121,370.102971,-8503.660028,-518.144159
5693.296446,518.144159,-8503.660028,-592.164754
5693.296770,74.020594,-8427.050478,-296.082377
5693.297095,148.041188,-8580.269578,-518.144159
5693.297419,370.102971,-8350.440928,-592.164754
5693.297744,296.082377,-8580.269578,-518.144159
5693.298068,444.123565,-8503.660028,-74.020594
5693.298393,740.205942,-8503.660028,-444.123565
5693.298717,370.102971,-8350.440928,-296.082377
5693.299042,370.102971,-8120.612279,0.000000
5693.299366,740.205942,-8427.050478,-296.082377
5693.299691,740.205942,-8580.269578,-296.082377
5693.300016,370.102971,-8656.879127,-518.144159
5693.300340,444.123565,-8886.707777,-370.102971
5693.300665,296.082377,-8503.660028,-370.102971
5693.300989,518.144159,-8733.488677,0.000000
5693.301314,0.000000,-8733.488677,-444.123565
5693.301638,444.123565,-8503.660028,-148.041188
5693.301963,296.082377,-8350.440928,-444.123565
5693.302287,444.123565,-9039.926876,-74.020594
5693.302612,296.082377,-8580.269578,0.000000
5693.302936,518.144159,-8273.831378,0.000000
5693.303261,296.082377,-8656.879127,0.000000
5693.303585,370.102971,-8580.269578,-296.082377
5693.303910,666.185348,-8963.317327,-296.082377
5693.304234,222.061783,-8580.269578,-370.102971
5693.304559,222.061783,-8963.317327,-222.061783
5693.304883,74.020594,-8810.098227,-148.041188
5693.305208,0.000000,-8963.317327,0.000000
5693.305532,222.061783,-8733.488677,-518.144159
5693.305857,518.144159,-8810.098227,-370.102971
5693.306181,444.123565,-8580.269578,-518.144159
5693.306506,444.123565,-8810.098227,-296.082377
5693.306830,444.123565,-8810.098227,-666.185348
5693.307155,296.082377,-8427.050478,-592.164754
5693.307479,444.123565,-8656.879127,-666.185348
5693.307804,592.164754,-8197.221829,-592.164754
5693.308128,222.061783,-8503.660028,-740.205942
5693.308453,370.102971,-8733.488677,-740.205942
5693.308777,814.226536,-8810.098227,-740.205942
5693.309102,888.247130,-8963.317327,-814.226536
5693.309426,518.144159,-8580.269578,-740.205942
5693.309751,518.144159,-8886.707777,-518.144159
5693.310076,444.123565,-8273.831378,-740.205942
5693.310400,666.185348,-8810.098227,-370.102971
5693.310725,592.164754,-8503.660028,-666.185348
5693.311049,518.144159,-8503.660028,-518.144159
5693.311374,296.082377,-7967.393179,-444.123565
5693.311698,592.164754,-8427.050478,-370.102971
5693.312023,444.123565,-8350.440928,-222.061783
5693.312347,740.205942,-8273.831378,-296.082377
5693.312672,370.102971,-8580.269578,-666.185348
5693.312996,370.102971,-8656.879127,-148.041188
5693.313321,592.164754,-8427.050478,-666.185348
5693.313645,666.185348,-8427.050478,-222.061783
5693.313970,518.144159,-8656.879127,-814.226536
5693.314294,296.082377,-8503.660028,-592.164754
5693.314619,444.123565,-8427.050478,-518.144159
5693.314943,666.185348,-8273.831378,-740.205942
5693.315268,518.144159,-8963.317327,-370.102971
5693.315592,222.061783,-8503.660028,-592.164754
5693.315917,888.247130,-8656.879127,-592.164754
5693.316241,296.082377,-8427.050478,-814.226536
5693.316566,592.164754,-8273.831378,0.000000
5693.316890,296.082377,-8120.612279,-666.185348
5693.317215,444.123565,-8733.488677,-370.102971
5693.317539,296.082377,-8350.440928,-1036.288319
5693.317864,444.123565,-9193.145976,0.000000
5693.318188,592.164754,-8044.002729,-518.144159
5693.318513,296.082377,-8580.269578,-296.082377
5693.318837,518.144159,-8656.879127,0.000000
5693.319162,592.164754,-8580.269578,-296.082377
5693.319486,814.226536,-8273.831378,-518.144159
5693.319811,370.102971,-8427.050478,-148.041188
5693.320136,296.082377,-8503.660028,0.000000
5693.320460,370.102971,-8580.269578,-370.102971
5693.320785,444.123565,-8273.831378,-296.082377
5693.321109,444.123565,-9039.926876,-518.144159
5693.321434,740.205942,-8503.660028,-518.144159
5693.321758,370.102971,-8427.050478,-148.041188
5693.322083,222.061783,-8733.488677,-592.164754
5693.322407,592.164754,-8810.098227,0.000000
5693.322732,814.226536,-8427.050478,-518.144159
5693.323056,740.205942,-8733.488677,-444.123565
5693.323381,444.123565,-8503.660028,-148.041188
5693.323705,592.164754,-8733.488677,-740.205942
5693.324030,370.102971,-8503.660028,-296.082377
5693.324354,444.123565,-8197.221829,-518.144159
5693.324679,518.144159,-8580.269578,-444.123565
5693.325003,814.226536,-8656.879127,-296.082377
5693.325328,148.041188,-8427.050478,0.000000
5693.325652,370.102971,-8733.488677,0.000000
5693.325977,444.123565,-8503.660028,-222.061783
5693.326301,888.247130,-8733.488677,-444.123565
5693.326626,518.144159,-8503.660028,-370.102971
5693.326950,444.123565,-8733.488677,-222.061783
5693.327275,444.123565,-8350.440928,-222.061783
5693.327599,222.061783,-8810.098227,-370.102971
5693.327924,592.164754,-8197.221829,-148.041188
5693.328248,370.102971,-8656.879127,-222.061783
5693.328573,740.205942,-8427.050478,0.000000
5693.328897,222.061783,-8044.002729,222.061783
5693.329222,888.247130,-8427.050478,148.041188
5693.329546,370.102971,-8427.050478,0.000000
5693.329871,592.164754,-8810.098227,74.020594
5693.330195,370.102971,-8733.488677,-296.082377
5693.330520,518.144159,-8886.707777,0.000000
5693.330845,444.123565,-8427.050478,-296.082377
5693.331169,370.102971,-8733.488677,0.000000
5693.331494,296.082377,-8810.098227,-148.041188
5693.331818,518.144159,-8733.488677,-296.082377
5693.332143,666.185348,-8733.488677,0.000000
5693.332467,296.082377,-8810.098227,0.000000
5693.332792,370.102971,-8733.488677,-296.082377
5693.333116,222.061783,-8656.879127,-222.061783
5693.333441,444.123565,-8580.269578,0.000000
5693.333765,444.123565,-8120.612279,0.000000
5693.334090,148.041188,-8656.879127,-222.061783
5693.334414,444.123565,-8503.660028,-148.041188
5693.334739,148.041188,-8503.660028,-148.041188
5693.335063,518.144159,-8656.879127,-444.123565
5693.335388,518.144159,-8580.269578,-222.061783
5693.335712,74.020594,-8503.660028,0.000000
5693.336037,296.082377,-8733.488677,-444.123565
5693.336361,518.144159,-9269.755526,370.102971
5693.336686,222.061783,-8580.269578,-148.041188
5693.337010,370.102971,-8810.098227,0.000000
5693.337335,296.082377,-8427.050478,148.041188
5693.337659,222.061783,-8656.879127,0.000000
5693.337984,148.041188,-8350.440928,222.061783
5693.338308,518.144159,-8427.050478,222.061783
5693.338633,74.020594,-8350.440928,0.000000
5693.338957,222.061783,-8580.269578,0.000000
5693.339282,148.041188,-8733.488677,74.020594
5693.339606,370.102971,-8656.879127,-296.082377
5693.339931,296.082377,-8427.050478,0.000000
5693.340255,370.102971,-8503.660028,-296.082377
5693.340580,74.020594,-9499.584175,74.020594
5693.340905,74.020594,-8273.831378,-296.082377
5693.341229,296.082377,-8350.440928,-370.102971
5693.341554,296.082377,-8350.440928,-148.041188
5693.341878,0.000000,-8350.440928,-518.144159
5693.342203,148.041188,-8273.831378,-370.102971
5693.342527,370.102971,-8427.050478,222.061783
5693.342852,74.020594,-8350.440928,-370.102971
5693.343176,444.123565,-8427.050478,-222.061783
5693.343501,148.041188,-8273.831378,0.000000
5693.343825,444.123565,-8656.879127,0.000000
5693.344150,518.144159,-8656.879127,-222.061783
5693.344474,296.082377,-8580.269578,0.000000
5693.344799,592.164754,-9039.926876,296.082377
5693.345123,74.020594,-8656.879127,0.000000
5693.345448,222.061783,-8886.707777,0.000000
5693.345772,148.041188,-8350.440928,222.061783
5693.346097,444.123565,-8350.440928,74.020594
5693.346421,0.000000,-8656.879127,222.061783
5693.346746,296.082377,-8427.050478,296.082377
5693.347070,444.123565,-8427.050478,222.061783
5693.347395,222.061783,-8350.440928,0.000000
5693.347719,296.082377,-8503.660028,222.061783
5693.348044,222.061783,-8503.660028,0.000000
5693.348368,370.102971,-9039.926876,0.000000
5693.348693,370.102971,-8733.488677,-518.144159
5693.349017,740.205942,-9039.926876,74.020594
5693.349342,444.123565,-8810.098227,-222.061783
5693.349666,370.102971,-8810.098227,0.000000
5693.349991,296.082377,-8810.098227,-148.041188
5693.350315,148.041188,-8810.098227,-296.082377
5693.350640,370.102971,-8580.269578,-296.082377
5693.350964,148.041188,-8197.221829,-370.102971
5693.351289,592.164754,-8656.879127,0.000000
5693.351614,222.061783,-8350.440928,0.000000
5693.351938,296.082377,-9422.974625,370.102971
5693.352263,370.102971,-8656.879127,0.000000
5693.352587,444.123565,-8963.317327,0.000000
5693.352912,148.041188,-8656.879127,-148.041188
5693.353236,296.082377,-9346.365076,0.000000
5693.353561,370.102971,-8810.098227,74.020594
5693.353885,518.144159,-8580.269578,-296.082377
5693.354210,0.000000,-8886.707777,-222.061783
5693.354534,444.123565,-8810.098227,0.000000
5693.354859,222.061783,-9039.926876,0.000000
5693.355183,296.082377,-8656.879127,148.041188
5693.355508,444.123565,-8656.879127,74.020594
5693.355832,222.061783,-8656.879127,0.000000
5693.356157,370.102971,-9116.536426,518.144159
5693.356481,444.123565,-8273.831378,0.000000
5693.356806,444.123565,-8656.879127,-296.082377
5693.357130,444.123565,-8656.879127,-222.061783
5693.357455,444.123565,-8963.317327,-370.102971
5693.357779,296.082377,-8810.098227,-296.082377
5693.358104,518.144159,-8810.098227,-370.102971
5693.358428,296.082377,-8503.660028,-296.082377
5693.358753,518.144159,-8810.098227,-222.061783
5693.359077,296.082377,-8427.050478,-296.082377
5693.359402,370.102971,-8886.707777,-222.061783
5693.359726,296.082377,-8427.050478,-222.061783
5693.360051,222.061783,-8503.660028,0.000000
5693.360375,148.041188,-8503.660028,-148.041188
5693.360700,444.123565,-8580.269578,-222.061783
5693.361024,666.185348,-8656.879127,-296.082377
5693.361349,444.123565,-8810.098227,-370.102971
5693.361674,518.144159,-8733.488677,-370.102971
5693.361998,592.164754,-8810.098227,-222.061783
5693.362323,666.185348,-8810.098227,-370.102971
5693.362647,592.164754,-8656.879127,0.000000
5693.362972,444.123565,-8810.098227,-370.102971
5693.363296,888.247130,-8580.269578,-296.082377
5693.363621,222.061783,-8656.879127,-296.082377
5693.363945,0.000000,-8886.707777,0.000000
5693.364270,444.123565,-8427.050478,-370.102971
5693.364594,814.226536,-9039.926876,0.000000
5693.364919,518.144159,-8580.269578,-296.082377
5693.365243,222.061783,-8580.269578,-74.020594
5693.365568,444.123565,-8503.660028,-296.082377
5693.365892,296.082377,-8580.269578,-518.144159
5693.366217,518.144159,-8810.098227,-888.247130
5693.366541,444.123565,-8580.269578,-444.123565
5693.366866,444.123565,-8044.002729,-518.144159
5693.367190,518.144159,-8580.269578,-296.082377
5693.367515,518.144159,-8963.317327,-74.020594
5693.367839,592.164754,-8580.269578,-740.205942
5693.368164,814.226536,-8503.660028,-518.144159
5693.368488,370.102971,-8656.879127,-222.061783
5693.368813,296.082377,-8197.221829,-592.164754
5693.369137,740.205942,-8503.660028,0.000000
5693.369462,444.123565,-8197.221829,-444.123565
5693.369786,518.144159,-9039.926876,-74.020594
5693.370111,888.247130,-8197.221829,-296.082377
5693.370435,592.164754,-8503.660028,74.020594
5693.370760,740.205942,-8733.488677,-296.082377
5693.371084,518.144159,-8656.879127,-148.041188
5693.371409,740.205942,-8656.879127,0.000000
5693.371734,592.164754,-9346.365076,0.000000
5693.372058,222.061783,-9116.536426,0.000000
5693.372383,296.082377,-8580.269578,0.000000
5693.372707,444.123565,-8503.660028,0.000000
5693.373032,296.082377,-8503.660028,-370.102971
5693.373356,666.185348,-8503.660028,-74.020594
5693.373681,740.205942,-8273.831378,0.000000
5693.374005,592.164754,-8503.660028,-296.082377
5693.374330,666.185348,-8656.879127,-296.082377
5693.374654,666.185348,-8580.269578,-222.061783
5693.374979,666.185348,-8886.707777,0.000000
5693.375303,148.041188,-8733.488677,-666.185348
5693.375628,370.102971,-8656.879127,0.000000
5693.375952,962.267725,-8886.707777,-222.061783
5693.376277,296.082377,-8810.098227,-518.144159
5693.376601,370.102971,-8656.879127,-370.102971
5693.376926,518.144159,-8810.098227,-370.102971
5693.377250,518.144159,-8580.269578,-370.102971
5693.377575,370.102971,-8427.050478,-296.082377
5693.377899,222.061783,-8580.269578,-222.061783
5693.378224,518.144159,-8044.002729,-148.041188
5693.378548,444.123565,-8886.707777,-370.102971
5693.378873,518.144159,-8273.831378,-296.082377
5693.379197,222.061783,-8733.488677,-148.041188
5693.379522,518.144159,-8733.488677,-296.082377
5693.379846,444.123565,-8656.879127,-444.123565
5693.380171,666.185348,-8427.050478,-222.061783
5693.380495,222.061783,-8733.488677,-370.102971
5693.380820,222.061783,-8580.269578,-518.144159
5693.381144,222.061783,-8810.098227,-444.123565
5693.381469,592.164754,-8580.269578,-518.144159
5693.381793,370.102971,-8044.002729,-666.185348
5693.382118,518.144159,-8886.707777,-518.144159
5693.382442,296.082377,-8580.269578,-370.102971
5693.382767,296.082377,-8580.269578,-666.185348
5693.383091,740.205942,-9039.926876,-666.185348
5693.383415,518.144159,-8273.831378,-814.226536
5693.383740,814.226536,-8886.707777,-666.185348
5693.384064,592.164754,-8503.660028,-814.226536
5693.384389,888.247130,-8580.269578,-888.247130
5693.384713,518.144159,-8580.269578,-740.205942
5693.385038,518.144159,-8503.660028,-814.226536
5693.385362,740.205942,-8733.488677,-888.247130
5693.385687,740.205942,-8580.269578,-888.247130
5693.386011,740.205942,-8580.269578,-740.205942
5693.386336,370.102971,-8503.660028,-444.123565
5693.386660,592.164754,-8427.050478,-444.123565
5693.386985,518.144159,-8427.050478,-518.144159
5693.387309,962.267725,-8733.488677,-814.226536
5693.387634,888.247130,-8350.440928,-518.144159
5693.387958,444.123565,-8503.660028,-592.164754
5693.388283,444.123565,-8427.050478,-296.082377
5693.388607,518.144159,-8580.269578,-666.185348
5693.388931,592.164754,-8810.098227,-592.164754
5693.389256,370.102971,-8656.879127,-592.164754
5693.389580,592.164754,-8580.269578,-740.205942
5693.389905,222.061783,-8273.831378,-444.123565
5693.390229,-222.061783,-8197.221829,-296.082377
5693.390554,148.041188,-8427.050478,-222.061783
5693.390878,444.123565,-8273.831378,-592.164754
5693.391203,518.144159,-8273.831378,-148.041188
5693.391527,296.082377,-8733.488677,-740.205942
5693.391852,296.082377,-8350.440928,-370.102971
5693.392176,518.144159,-8350.440928,-888.247130
5693.392501,222.061783,-8580.269578,-814.226536
5693.392825,370.102971,-8810.098227,-592.164754
5693.393150,74.020594,-8656.879127,-296.082377
5693.393474,296.082377,-8580.269578,-444.123565
5693.393799,222.061783,-8350.440928,-740.205942
5693.394123,518.144159,-8886.707777,-592.164754
5693.394447,518.144159,-8733.488677,-888.247130
5693.394772,444.123565,-8427.050478,-814.226536
5693.395096,148.041188,-8350.440928,-666.185348
5693.395421,370.102971,-8273.831378,-444.123565
5693.395745,666.185348,-9193.145976,-148.041188
5693.396070,444.123565,-8350.440928,-296.082377
5693.396394,444.123565,-8503.660028,-296.082377
5693.396719,518.144159,-8580.269578,-296.082377
5693.397043,444.123565,-8580.269578,-296.082377
5693.397368,148.041188,-8580.269578,-148.041188
5693.397692,518.144159,-8733.488677,-666.185348
5693.398017,592.164754,-8656.879127,-370.102971
5693.398341,444.123565,-8503.660028,-740.205942
5693.398666,296.082377,-9116.536426,-74.020594
5693.398990,518.144159,-8503.660028,-296.082377
5693.399314,518.144159,-8427.050478,-370.102971
5693.399639,518.144159,-8580.269578,-518.144159
5693.399963,74.020594,-8197.221829,-370.102971
5693.400288,296.082377,-8350.440928,-74.020594
5693.400612,666.185348,-8197.221829,-518.144159
5693.400937,666.185348,-8656.879127,-592.164754
5693.401261,888.247130,-8656.879127,-666.185348
5693.401586,296.082377,-8273.831378,-518.144159
5693.401910,370.102971,-8733.488677,-962.267725
5693.402235,518.144159,-8810.098227,-666.185348
5693.402559,740.205942,-8656.879127,-592.164754
5693.402884,370.102971,-8427.050478,-666.185348
5693.403208,370.102971,-8580.269578,-370.102971
5693.403533,592.164754,-8580.269578,-444.123565
5693.403857,518.144159,-8733.488677,-370.102971
5693.404182,444.123565,-8810.098227,-370.102971
5693.404506,296.082377,-8580.269578,-518.144159
5693.404830,740.205942,-8427.050478,-222.061783
5693.405155,592.164754,-8350.440928,-148.041188
5693.405479,222.061783,-8656.879127,-444.123565
5693.405804,370.102971,-8427.050478,0.000000
5693.406128,370.102971,-8886.707777,-592.164754
5693.406453,148.041188,-8886.707777,-370.102971
5693.406777,296.082377,-8886.707777,-222.061783
5693.407102,370.102971,-9039.926876,0.000000
5693.407426,296.082377,-8810.098227,-444.123565
5693.407751,370.102971,-8580.269578,-740.205942
5693.408075,296.082377,-9039.926876,-518.144159
5693.408400,148.041188,-8580.269578,-222.061783
5693.408724,148.041188,-8503.660028,-518.144159
5693.409049,222.061783,-8273.831378,-740.205942
5693.409373,518.144159,-8350.440928,-518.144159
5693.409698,296.082377,-8580.269578,-518.144159
5693.410022,148.041188,-8503.660028,-592.164754
5693.410346,296.082377,-8886.707777,-518.144159
5693.410671,518.144159,-8503.660028,-518.144159
5693.410995,592.164754,-8733.488677,-592.164754
5693.411320,592.164754,-8503.660028,-370.102971
5693.411644,666.185348,-8733.488677,-666.185348
5693.411969,296.082377,-8427.050478,-370.102971
5693.412293,222.061783,-8656.879127,-592.164754
5693.412618,148.041188,-8580.269578,-370.102971
5693.412942,222.061783,-8733.488677,-592.164754
5693.413267,740.205942,-8427.050478,-740.205942
5693.413591,740.205942,-8427.050478,-296.082377
5693.413916,74.020594,-8197.221829,-222.061783
5693.414240,1406.391290,-8427.050478,-518.144159
5693.414565,296.082377,-8273.831378,-666.185348
5693.414889,740.205942,-8963.317327,-592.164754
5693.415214,666.185348,-8350.440928,-592.164754
5693.415538,666.185348,-8810.098227,-296.082377
5693.415862,666.185348,-8580.269578,-592.164754
5693.416187,592.164754,-8350.440928,-592.164754
5693.416511,592.164754,-8503.660028,-444.123565
5693.416836,444.123565,-8656.879127,-444.123565
5693.417160,740.205942,-8427.050478,-370.102971
5693.417485,370.102971,-8350.440928,-444.123565
5693.417809,740.205942,-8656.879127,-444.123565
5693.418134,592.164754,-8273.831378,-444.123565
5693.418458,1184.329507,-8810.098227,-592.164754
5693.418783,592.164754,-8427.050478,-518.144159
5693.419107,296.082377,-8503.660028,-370.102971
5693.419432,296.082377,-9116.536426,-592.164754
5693.419756,370.102971,-8580.269578,-296.082377
5693.420081,740.205942,-9039.926876,-370.102971
5693.420405,370.102971,-8580.269578,-592.164754
5693.420730,444.123565,-8580.269578,-370.102971
5693.421054,296.082377,-8963.317327,-666.185348
5693.421378,592.164754,-8963.317327,-444.123565
5693.421703,370.102971,-8810.098227,-740.205942
5693.422027,444.123565,-8733.488677,-666.185348
5693.422352,444.123565,-8427.050478,-74.020594
5693.422676,370.102971,-8350.440928,74.020594
5693.423001,370.102971,-8963.317327,-370.102971
5693.423325,444.123565,-8656.879127,-444.123565
5693.423650,370.102971,-8886.707777,-370.102971
5693.423974,444.123565,-8580.269578,-370.102971
5693.424299,296.082377,-8656.879127,-296.082377
5693.424623,518.144159,-8810.098227,-666.185348
5693.424948,518.144159,-8963.317327,-518.144159
5693.425272,444.123565,-8580.269578,-740.205942
5693.425597,518.144159,-8580.269578,-444.123565
5693.425921,222.061783,-8044.002729,-370.102971
5693.426245,666.185348,-8886.707777,-370.102971
5693.426570,0.000000,-8350.440928,-370.102971
5693.426894,888.247130,-9576.193725,-518.144159
5693.427219,222.061783,-8810.098227,-592.164754
5693.427543,444.123565,-8350.440928,-444.123565
5693.427868,444.123565,-8810.098227,-370.102971
5693.428192,444.123565,-8273.831378,-518.144159
5693.428517,740.205942,-8580.269578,-518.144159
5693.428841,370.102971,-8580.269578,-666.185348
5693.429166,518.144159,-8656.879127,-444.123565
5693.429490,370.102971,-8044.002729,-518.144159
5693.429815,518.144159,-9116.536426,-518.144159
5693.430139,444.123565,-8350.440928,-666.185348
5693.430464,666.185348,-8350.440928,-518.144159
5693.430788,444.123565,-8427.050478,-444.123565
5693.431113,370.102971,-8656.879127,-222.061783
5693.431437,370.102971,-8350.440928,-296.082377
5693.431761,444.123565,-8427.050478,-296.082377
5693.432086,518.144159,-8273.831378,-148.041188
5693.432410,370.102971,-8580.269578,-148.041188
5693.432735,666.185348,-8044.002729,0.000000
5693.433059,370.102971,-8350.440928,0.000000
5693.433384,222.061783,-8886.707777,0.000000
5693.433708,740.205942,-8656.879127,-148.041188
5693.434033,518.144159,-8503.660028,0.000000
5693.434357,296.082377,-8580.269578,74.020594
5693.434682,74.020594,-8427.050478,0.000000
5693.435006,74.020594,-8656.879127,-222.061783
5693.435331,444.123565,-8044.002729,74.020594
5693.435655,148.041188,-8197.221829,0.000000
5693.435980,518.144159,-8503.660028,74.020594
5693.436304,370.102971,-8273.831378,0.000000
5693.436629,296.082377,-8656.879127,74.020594
5693.436953,0.000000,-8503.660028,-222.061783
5693.437277,148.041188,-8656.879127,-148.041188
5693.437602,222.061783,-8503.660028,-296.082377
5693.437926,222.061783,-8886.707777,0.000000
5693.438251,518.144159,-8886.707777,-222.061783
5693.438575,296.082377,-8733.488677,-444.123565
5693.438900,444.123565,-8886.707777,-222.061783
5693.439224,370.102971,-8580.269578,-444.123565
5693.439549,592.164754,-8656.879127,-370.102971
5693.439873,222.061783,-8350.440928,-296.082377
5693.440198,370.102971,-8580.269578,-370.102971
5693.440522,148.041188,-8733.488677,-296.082377
5693.440847,666.185348,-8503.660028,-518.144159
5693.441171,444.123565,-8963.317327,-518.144159
5693.441496,296.082377,-8580.269578,-370.102971
5693.441820,518.144159,-8963.317327,-370.102971
5693.442145,592.164754,-8656.879127,-148.041188
5693.442469,1036.288319,-9193.145976,-370.102971
5693.442793,666.185348,-8656.879127,-518.144159
5693.443118,518.144159,-8733.488677,-296.082377
5693.443442,148.041188,-8427.050478,-518.144159
5693.443767,444.123565,-8580.269578,-148.041188
5693.444091,444.123565,-8427.050478,-148.041188
5693.444416,666.185348,-8427.050478,-222.061783
5693.444740,518.144159,-8197.221829,0.000000
5693.445065,444.123565,-8810.098227,-296.082377
5693.445389,666.185348,-8656.879127,-148.041188
5693.445714,370.102971,-8427.050478,0.000000
5693.446038,814.226536,-8656.879127,-296.082377
5693.446363,814.226536,-8810.098227,-296.082377
5693.446687,740.205942,-9193.145976,0.000000
5693.447012,444.123565,-8810.098227,0.000000
5693.447336,148.041188,-8580.269578,-296.082377
5693.447661,592.164754,-8580.269578,-296.082377
5693.447985,444.123565,-8810.098227,-148.041188
5693.448309,444.123565,-8503.660028,0.000000
5693.448634,296.082377,-8503.660028,0.000000
5693.448958,222.061783,-8350.440928,74.020594
5693.449283,444.123565,-8197.221829,0.000000
5693.449607,740.205942,-8963.317327,74.020594
5693.449932,296.082377,-8427.050478,296.082377
5693.450256,370.102971,-8580.269578,0.000000
5693.450581,222.061783,-8580.269578,0.000000
5693.450905,0.000000,-9039.926876,0.000000
5693.451230,666.185348,-8656.879127,0.000000
5693.451554,444.123565,-8810.098227,-370.102971
5693.451879,518.144159,-8656.879127,74.020594
5693.452203,370.102971,-8273.831378,0.000000
5693.452528,222.061783,-8350.440928,148.041188
5693.452852,148.041188,-8350.440928,-296.082377
5693.453176,222.061783,-8427.050478,0.000000
5693.453501,148.041188,-8350.440928,74.020594
5693.453825,-222.061783,-8273.831378,370.102971
5693.454150,370.102971,-8733.488677,222.061783
5693.454474,74.020594,-8503.660028,74.020594
5693.454799,370.102971,-8810.098227,0.000000
5693.455123,222.061783,-9039.926876,0.000000
5693.455448,370.102971,-8580.269578,0.000000
5693.455772,296.082377,-8427.050478,0.000000
5693.456097,222.061783,-8580.269578,74.020594
5693.456421,74.020594,-8580.269578,-296.082377
5693.456746,222.061783,-8273.831378,0.000000
5693.457070,74.020594,-8427.050478,0.000000
5693.457395,74.020594,-8503.660028,0.000000
5693.457719,296.082377,-8427.050478,-148.041188
5693.458044,296.082377,-8197.221829,-296.082377
5693.458368,592.164754,-8427.050478,0.000000
5693.458692,370.102971,-8580.269578,0.000000
5693.459017,370.102971,-8580.269578,0.000000
5693.459341,592.164754,-8503.660028,-444.123565
5693.459666,518.144159,-8733.488677,-370.102971
5693.459990,444.123565,-8503.660028,-518.144159
5693.460315,666.185348,-8810.098227,-518.144159
5693.460639,444.123565,-8427.050478,-370.102971
5693.460964,518.144159,-8810.098227,-222.061783
5693.461288,518.144159,-8503.660028,-370.102971
5693.461613,888.247130,-8656.879127,-370.102971
5693.461937,370.102971,-8580.269578,-518.144159
5693.462262,740.205942,-8580.269578,444.123565
5693.462586,444.123565,-8427.050478,-518.144159
5693.462911,666.185348,-9193.145976,-296.082377
5693.463235,592.164754,-8580.269578,-444.123565
5693.463560,444.123565,-9116.536426,-444.123565
5693.463884,518.144159,-8580.269578,-296.082377
5693.464208,222.061783,-8733.488677,-222.061783
5693.464533,814.226536,-8810.098227,-370.102971
5693.464857,666.185348,-8656.879127,-518.144159
5693.465182,370.102971,-8350.440928,-592.164754
5693.465506,222.061783,-8656.879127,-740.205942
5693.465831,370.102971,-8733.488677,-518.144159
5693.466155,222.061783,-8580.269578,-518.144159
5693.466480,222.061783,-9039.926876,0.000000
5693.466804,222.061783,-8656.879127,-296.082377
5693.467129,666.185348,-8427.050478,-444.123565
5693.467453,444.123565,-8503.660028,0.000000
5693.467778,296.082377,-8580.269578,0.000000
5693.468102,444.123565,-8580.269578,-296.082377
5693.468427,592.164754,-8580.269578,-296.082377
5693.468751,666.185348,-8656.879127,-444.123565
5693.469076,518.144159,-8503.660028,-518.144159
5693.469400,296.082377,-9039.926876,0.000000
5693.469724,74.020594,-8656.879127,-444.123565
5693.470049,518.144159,-8273.831378,-148.041188
5693.470373,370.102971,-8733.488677,-222.061783
5693.470698,444.123565,-8656.879127,-148.041188
5693.471022,370.102971,-8427.050478,296.082377
5693.471347,296.082377,-8350.440928,0.000000
5693.471671,814.226536,-8273.831378,0.000000
5693.471996,222.061783,-8427.050478,-370.102971
5693.472320,444.123565,-8580.269578,-370.102971
5693.472645,296.082377,-8810.098227,-370.102971
5693.472969,370.102971,-8810.098227,-370.102971
5693.473294,222.061783,-8580.269578,0.000000
5693.473618,814.226536,-8886.707777,-222.061783
5693.473943,222.061783,-8963.317327,-222.061783
5693.474267,518.144159,-8656.879127,-444.123565
5693.474592,592.164754,-8580.269578,0.000000
5693.474916,888.247130,-8580.269578,-296.082377
5693.475240,592.164754,-8044.002729,0.000000
5693.475565,370.102971,-8273.831378,0.000000
5693.475889,444.123565,-8503.660028,-222.061783
5693.476214,370.102971,-8273.831378,0.000000
5693.476538,666.185348,-8733.488677,0.000000
5693.476863,592.164754,-8273.831378,0.000000
5693.477187,370.102971,-8733.488677,0.000000
5693.477512,666.185348,-8656.879127,-296.082377
5693.477836,888.247130,-9346.365076,296.082377
5693.478161,296.082377,-8580.269578,-222.061783
5693.478485,592.164754,-8963.317327,-222.061783
5693.478810,296.082377,-8656.879127,-296.082377
5693.479134,444.123565,-8733.488677,148.041188
5693.479459,148.041188,-8197.221829,0.000000
5693.479783,74.020594,-8580.269578,222.061783
5693.480107,370.102971,-8503.660028,-222.061783
5693.480432,666.185348,-8273.831378,0.000000
5693.480756,518.144159,-8120.612279,-296.082377
5693.481080,740.205942,-8963.317327,-148.041188
5693.481405,518.144159,-8350.440928,-370.102971
5693.481729,296.082377,-8733.488677,-444.123565
5693.482053,296.082377,-9499.584175,-740.205942
5693.482378,740.205942,-8733.488677,-296.082377
5693.482702,518.144159,-8427.050478,-592.164754
5693.483026,666.185348,-8886.707777,-222.061783
5693.483351,444.123565,-8503.660028,-296.082377
5693.483675,518.144159,-8656.879127,-444.123565
5693.483999,370.102971,-8427.050478,-370.102971
5693.484324,666.185348,-8733.488677,-666.185348
5693.484648,444.123565,-8503.660028,-296.082377
5693.484972,296.082377,-8810.098227,0.000000
5693.485297,518.144159,-8810.098227,-296.082377
5693.485621,444.123565,-8427.050478,-296.082377
5693.485945,444.123565,-8963.317327,-444.123565
5693.486270,370.102971,-9499.584175,-444.123565
5693.486594,296.082377,-8733.488677,-296.082377
5693.486918,370.102971,-8656.879127,-296.082377
5693.487243,296.082377,-8427.050478,-518.144159
5693.487567,592.164754,-8503.660028,-518.144159
5693.487891,0.000000,-8810.098227,0.000000
5693.488216,222.061783,-8427.050478,-222.061783
5693.488540,222.061783,-8427.050478,-518.144159
5693.488865,-148.041188,-8656.879127,-148.041188
5693.489189,148.041188,-8044.002729,148.041188
5693.489513,148.041188,-8427.050478,-444.123565
5693.489838,518.144159,-8580.269578,-518.144159
5693.490162,148.041188,-8580.269578,-222.061783
5693.490486,518.144159,-8886.707777,-1110.308913
5693.490811,222.061783,-8580.269578,-592.164754
5693.491135,444.123565,-8656.879127,-740.205942
5693.491459,444.123565,-8733.488677,-518.144159
5693.491784,296.082377,-8427.050478,-370.102971
5693.492108,518.144159,-8350.440928,-296.082377
5693.492432,370.102971,-8350.440928,-740.205942
5693.492757,592.164754,-8350.440928,-370.102971
5693.493081,592.164754,-8733.488677,-814.226536
5693.493405,592.164754,-8656.879127,-814.226536
5693.493730,296.082377,-8273.831378,-370.102971
5693.494054,518.144159,-8656.879127,-518.144159
5693.494378,592.164754,-8427.050478,-518.144159
5693.494703,296.082377,-8656.879127,-370.102971
5693.495027,814.226536,-8656.879127,-962.267725
5693.495351,518.144159,-8273.831378,-666.185348
5693.495676,592.164754,-8810.098227,-592.164754
5693.496000,370.102971,-8580.269578,-666.185348
5693.496324,740.205942,-8810.098227,-740.205942
5693.496649,592.164754,-8580.269578,-814.226536
5693.496973,518.144159,-8350.440928,-518.144159
5693.497297,444.123565,-8580.269578,-370.102971
5693.497622,370.102971,-8580.269578,-518.144159
5693.497946,296.082377,-8503.660028,-592.164754
5693.498270,518.144159,-8810.098227,-666.185348
5693.498595,444.123565,-8273.831378,-740.205942
5693.498919,148.041188,-8580.269578,-592.164754
5693.499243,592.164754,-8656.879127,-592.164754
5693.499568,518.144159,-8503.660028,-888.247130
5693.499892,666.185348,-8810.098227,-814.226536
5693.500216,370.102971,-8350.440928,-1036.288319
5693.500541,370.102971,-9116.536426,0.000000
5693.500865,74.020594,-8810.098227,-888.247130
5693.501189,444.123565,-8963.317327,-740.205942
5693.501514,222.061783,-8350.440928,-888.247130
5693.501838,0.000000,-8963.317327,-370.102971
5693.502162,296.082377,-8120.612279,-592.164754
5693.502487,222.061783,-8656.879127,-370.102971
5693.502811,296.082377,-8656.879127,-518.144159
5693.503135,444.123565,-8580.269578,-518.144159
5693.503460,666.185348,-8580.269578,-814.226536
5693.503784,444.123565,-8580.269578,-444.123565
5693.504108,444.123565,-8733.488677,-370.102971
5693.504433,666.185348,-8886.707777,-148.041188
5693.504757,962.267725,-9116.536426,-740.205942
5693.505081,370.102971,-8733.488677,-518.144159
5693.505406,222.061783,-8656.879127,-518.144159
5693.505730,222.061783,-8656.879127,-296.082377
5693.506054,370.102971,-9269.755526,222.061783
5693.506379,222.061783,-8656.879127,-370.102971
5693.506703,518.144159,-8503.660028,-148.041188
5693.507027,592.164754,-8273.831378,-370.102971
5693.507352,666.185348,-8580.269578,-444.123565
5693.507676,148.041188,-8427.050478,0.000000
5693.508001,666.185348,-8580.269578,-518.144159
5693.508325,666.185348,-8273.831378,-296.082377
5693.508649,370.102971,-8656.879127,-592.164754
5693.508974,814.226536,-8120.612279,74.020594
5693.509298,592.164754,-8197.221829,-666.185348
5693.509622,444.123565,-8963.317327,-296.082377
5693.509947,444.123565,-8197.221829,-370.102971
5693.510271,666.185348,-8503.660028,-370.102971
5693.510595,444.123565,-8273.831378,-296.082377
5693.510920,518.144159,-8580.269578,-148.041188
5693.511244,518.144159,-8580.269578,-444.123565
5693.511568,592.164754,-8197.221829,0.000000
5693.511893,814.226536,-8350.440928,-222.061783
5693.512217,370.102971,-8503.660028,-296.082377
5693.512541,518.144159,-8427.050478,0.000000
5693.512866,296.082377,-8350.440928,-296.082377
5693.513190,1110.308913,-9346.365076,0.000000
5693.513514,222.061783,-8656.879127,-444.123565
5693.513839,888.247130,-8656.879127,-518.144159
5693.514163,74.020594,-8580.269578,-444.123565
5693.514487,222.061783,-8810.098227,-370.102971
5693.514812,222.061783,-8273.831378,-222.061783
5693.515136,370.102971,-8427.050478,-666.185348
5693.515460,0.000000,-8350.440928,-370.102971
5693.515785,296.082377,-8197.221829,-666.185348
5693.516109,666.185348,-8427.050478,-518.144159
5693.516433,296.082377,-8503.660028,-592.164754
5693.516758,74.020594,-8656.879127,-222.061783
5693.517082,296.082377,-8503.660028,-740.205942
5693.517406,518.144159,-8427.050478,-888.247130
5693.517731,444.123565,-8427.050478,-518.144159
5693.518055,444.123565,-8656.879127,-444.123565
5693.518379,148.041188,-8810.098227,-740.205942
5693.518704,222.061783,-8503.660028,-814.226536
5693.519028,888.247130,-8580.269578,-1036.288319
5693.519352,370.102971,-8580.269578,-518.144159
5693.519677,518.144159,-8427.050478,-814.226536
5693.520001,370.102971,-8503.660028,-666.185348
5693.520325,518.144159,-8810.098227,-888.247130
5693.520650,592.164754,-8427.050478,-666.185348
5693.520974,592.164754,-8580.269578,-666.185348
5693.521298,444.123565,-8656.879127,-370.102971
5693.521623,1036.288319,-8963.317327,-518.144159
5693.521947,444.123565,-8886.707777,-592.164754
5693.522271,518.144159,-8733.488677,-592.164754
5693.522596,666.185348,-8810.098227,-814.226536
5693.522920,518.144159,-8656.879127,-518.144159
5693.523244,518.144159,-8733.488677,-518.144159
5693.523569,222.061783,-8733.488677,-148.041188
5693.523893,518.144159,-8427.050478,-518.144159
5693.524217,518.144159,-8503.660028,-370.102971
5693.524542,814.226536,-8044.002729,-296.082377
5693.524866,740.205942,-8503.660028,-370.102971
5693.525190,666.185348,-8350.440928,-518.144159
5693.525515,592.164754,-8810.098227,-148.041188
5693.525839,444.123565,-7814.174080,-296.082377
5693.526163,592.164754,-8733.488677,-222.061783
5693.526488,296.082377,-8427.050478,-592.164754
5693.526812,518.144159,-8503.660028,-370.102971
5693.527137,444.123565,-8427.050478,-444.123565
5693.527461,518.144159,-8580.269578,-444.123565
5693.527785,592.164754,-8656.879127,-444.123565
5693.528110,370.102971,-8580.269578,-518.144159
5693.528434,592.164754,-8427.050478,-296.082377
5693.528758,814.226536,-9193.145976,0.000000
5693.529083,444.123565,-8197.221829,-370.102971
5693.529407,666.185348,-8350.440928,-444.123565
5693.529731,666.185348,-8580.269578,-444.123565
5693.530056,444.123565,-8580.269578,-148.041188
5693.530380,222.061783,-8350.440928,-148.041188
5693.530704,518.144159,-8733.488677,-370.102971
5693.531029,518.144159,-8503.660028,-518.144159
5693.531353,592.164754,-8886.707777,-592.164754
5693.531677,74.020594,-8733.488677,-222.061783
5693.532002,296.082377,-8733.488677,-148.041188
5693.532326,518.144159,-8580.269578,-370.102971
5693.532650,296.082377,-8580.269578,0.000000
5693.532975,370.102971,-8427.050478,-444.123565
5693.533299,296.082377,-8427.050478,0.000000
5693.533623,74.020594,-8427.050478,-222.061783
5693.533948,222.061783,-8580.269578,-296.082377
5693.534272,444.123565,-8886.707777,-370.102971
5693.534596,370.102971,-8886.707777,-444.123565
5693.534921,444.123565,-8656.879127,-74.020594
5693.535245,518.144159,-8427.050478,-370.102971
5693.535569,666.185348,-8733.488677,-444.123565
5693.535894,666.185348,-8886.707777,-444.123565
5693.536218,518.144159,-8503.660028,-444.123565
5693.536542,296.082377,-9039.926876,-444.123565
5693.536867,222.061783,-8427.050478,0.000000
5693.537191,0.000000,-8963.317327,-148.041188
5693.537515,0.000000,-8503.660028,-296.082377
5693.537840,370.102971,-8503.660028,-148.041188
5693.538164,518.144159,-8580.269578,-370.102971
5693.538488,518.144159,-8503.660028,74.020594
5693.538813,222.061783,-8350.440928,-222.061783
5693.539137,296.082377,-8503.660028,0.000000
5693.539461,296.082377,-8273.831378,-296.082377
5693.539786,740.205942,-8733.488677,-370.102971
5693.540110,370.102971,-8886.707777,74.020594
5693.540434,592.164754,-8656.879127,0.000000
5693.540759,370.102971,-8503.660028,-148.041188
5693.541083,444.123565,-8656.879127,-296.082377
5693.541407,740.205942,-8733.488677,0.000000
5693.541732,666.185348,-8350.440928,-296.082377
5693.542056,296.082377,-8120.612279,-222.061783
5693.542380,518.144159,-8273.831378,0.000000
5693.542705,444.123565,-8350.440928,-296.082377
5693.543029,592.164754,-8273.831378,0.000000
5693.543353,444.123565,-8656.879127,-444.123565
5693.543678,444.123565,-8656.879127,-370.102971
5693.544002,370.102971,-8427.050478,-74.020594
5693.544326,296.082377,-8580.269578,-888.247130
5693.544651,592.164754,-8656.879127,-370.102971
5693.544975,518.144159,-8810.098227,-518.144159
5693.545299,370.102971,-8733.488677,-592.164754
5693.545624,370.102971,-8810.098227,-148.041188
5693.545948,222.061783,-8810.098227,-222.061783
5693.546273,444.123565,-8503.660028,-444.123565
5693.546597,148.041188,-8580.269578,-592.164754
5693.546921,296.082377,-8810.098227,-296.082377
5693.547246,518.144159,-8656.879127,0.000000
5693.547570,296.082377,-8580.269578,0.000000
5693.547894,444.123565,-8810.098227,-222.061783
5693.548219,592.164754,-8580.269578,-444.123565
5693.548543,222.061783,-9039.926876,0.000000
5693.548867,296.082377,-8810.098227,-222.061783
5693.549192,222.061783,-8656.879127,-296.082377
5693.549516,296.082377,-9039.926876,-296.082377
5693.549840,370.102971,-9039.926876,-592.164754
5693.550165,148.041188,-8886.707777,-296.082377
5693.550489,370.102971,-8733.488677,-370.102971
5693.550813,444.123565,-8273.831378,-222.061783
5693.551138,148.041188,-8656.879127,-296.082377
5693.551462,444.123565,-8503.660028,0.000000
5693.551786,444.123565,-8350.440928,-222.061783
5693.552111,518.144159,-8733.488677,-370.102971
5693.552435,444.123565,-8656.879127,-370.102971
5693.552759,296.082377,-8810.098227,0.000000
5693.553084,518.144159,-8580.269578,-592.164754
5693.553408,444.123565,-8656.879127,0.000000
5693.553732,444.123565,-8733.488677,-518.144159
5693.554057,444.123565,-8656.879127,-222.061783
5693.554381,296.082377,-8427.050478,-222.061783
5693.554705,444.123565,-8656.879127,0.000000
5693.555030,666.185348,-8503.660028,-222.061783
5693.555354,592.164754,-8503.660028,-148.041188
5693.555678,518.144159,-8197.221829,-296.082377
5693.556003,370.102971,-8580.269578,222.061783
5693.556327,370.102971,-8733.488677,0.000000
5693.556651,518.144159,-8656.879127,74.020594
5693.556976,740.205942,-8350.440928,0.000000
5693.557300,444.123565,-8963.317327,-222.061783
5693.557624,518.144159,-8503.660028,0.000000
5693.557949,222.061783,-8580.269578,0.000000
5693.558273,296.082377,-8656.879127,222.061783
5693.558597,444.123565,-8350.440928,0.000000
5693.558922,444.123565,-8580.269578,148.041188
5693.559246,370.102971,-8427.050478,0.000000
5693.559570,74.020594,-8810.098227,222.061783
5693.559895,666.185348,-8810.098227,0.000000
5693.560219,222.061783,-8503.660028,74.020594
5693.560543,740.205942,-8733.488677,0.000000
5693.560868,370.102971,-8580.269578,-222.061783
5693.561192,740.205942,-8427.050478,148.041188
5693.561516,222.061783,-8350.440928,-296.082377
5693.561841,296.082377,-8810.098227,0.000000
5693.562165,222.061783,-8580.269578,-296.082377
5693.562489,666.185348,-8733.488677,-444.123565
5693.562814,74.020594,-8886.707777,-222.061783
5693.563138,74.020594,-8733.488677,0.000000
5693.563462,370.102971,-8886.707777,-444.123565
5693.563787,148.041188,-8273.831378,-296.082377
5693.564111,222.061783,-8656.879127,-370.102971
5693.564435,370.102971,-8580.269578,-592.164754
5693.564760,518.144159,-8350.440928,-296.082377
5693.565084,444.123565,-8733.488677,-296.082377
5693.565408,370.102971,-7890.783629,-518.144159
5693.565733,518.144159,-8580.269578,-296.082377
5693.566057,518.144159,-8733.488677,-666.185348
5693.566382,370.102971,-8580.269578,-444.123565
5693.566706,370.102971,-8580.269578,-370.102971
5693.567030,518.144159,-8963.317327,-518.144159
5693.567355,74.020594,-8503.660028,-222.061783
5693.567679,370.102971,-9039.926876,-666.185348
5693.568003,740.205942,-8503.660028,-148.041188
5693.568328,666.185348,-9116.536426,0.000000
5693.568652,370.102971,-8656.879127,-444.123565
5693.568976,444.123565,-8427.050478,-148.041188
5693.569301,444.123565,-8273.831378,-518.144159
5693.569625,444.123565,-8580.269578,-222.061783
5693.569949,74.020594,-8580.269578,-296.082377
5693.570274,74.020594,-8886.707777,-148.041188
5693.570598,370.102971,-8733.488677,-518.144159
5693.570922,296.082377,-8427.050478,-592.164754
5693.571247,592.164754,-9039.926876,-666.185348
5693.571571,740.205942,-8427.050478,-148.041188
5693.571895,518.144159,-8503.660028,-518.144159
5693.572220,518.144159,-8656.879127,-296.082377
5693.572544,148.041188,-8427.050478,-296.082377
5693.572868,592.164754,-8503.660028,-592.164754
5693.573193,148.041188,-8350.440928,-740.205942
5693.573517,222.061783,-8427.050478,-222.061783
5693.573841,444.123565,-8580.269578,-296.082377
5693.574166,296.082377,-8350.440928,-222.061783
5693.574490,296.082377,-8503.660028,-370.102971
5693.574814,518.144159,-8580.269578,-296.082377
5693.575139,592.164754,-8503.660028,0.000000
5693.575463,592.164754,-9116.536426,-296.082377
5693.575787,666.185348,-8580.269578,0.000000
5693.576112,444.123565,-8350.440928,-444.123565
5693.576436,814.226536,-8503.660028,-370.102971
5693.576760,444.123565,-9039.926876,-370.102971
5693.577085,592.164754,-8733.488677,-370.102971
5693.577409,370.102971,-8273.831378,0.000000
5693.577733,222.061783,-8503.660028,296.082377
5693.578058,296.082377,-8273.831378,0.000000
5693.578382,518.144159,-8503.660028,0.000000
5693.578706,444.123565,-8503.660028,-148.041188
5693.579031,370.102971,-8733.488677,-74.020594
5693.579355,222.061783,-8656.879127,0.000000
5693.579679,222.061783,-9116.536426,148.041188
5693.580004,444.123565,-8963.317327,-296.082377
5693.580328,222.061783,-8656.879127,0.000000
5693.580653,222.061783,-8733.488677,-296.082377
5693.580977,444.123565,-8656.879127,-148.041188
5693.581301,370.102971,-8503.660028,-518.144159
5693.581626,222.061783,-8886.707777,-592.164754
5693.581950,0.000000,-8503.660028,-296.082377
5693.582275,148.041188,-8656.879127,-444.123565
5693.582599,222.061783,-8810.098227,0.000000
5693.582924,666.185348,-8427.050478,0.000000
5693.583248,666.185348,-8733.488677,-444.123565
5693.583572,666.185348,-8733.488677,-222.061783
5693.583897,296.082377,-8810.098227,0.000000
5693.584221,666.185348,-8810.098227,-222.061783
5693.584546,592.164754,-8503.660028,-592.164754
5693.584870,518.144159,-8810.098227,-444.123565
5693.585195,518.144159,-8580.269578,-518.144159
5693.585519,148.041188,-8580.269578,-222.061783
5693.585844,370.102971,-8656.879127,-148.041188
5693.586168,222.061783,-8580.269578,-370.102971
5693.586492,222.061783,-8503.660028,-296.082377
5693.586817,518.144159,-8656.879127,-518.144159
5693.587141,444.123565,-8580.269578,0.000000
5693.587466,222.061783,-8273.831378,-222.061783
5693.587790,740.205942,-8656.879127,-222.061783
5693.588115,518.144159,-8656.879127,-518.144159
5693.588439,666.185348,-8810.098227,-518.144159
5693.588763,370.102971,-8580.269578,-518.144159
5693.589088,518.144159,-8656.879127,-444.123565
5693.589412,518.144159,-8580.269578,-370.102971
5693.589737,666.185348,-8656.879127,-740.205942
5693.590061,888.247130,-8273.831378,-592.164754
5693.590386,370.102971,-8580.269578,-592.164754
5693.590710,518.144159,-8963.317327,-296.082377
5693.591035,0.000000,-8120.612279,0.000000
5693.591359,740.205942,-8273.831378,0.000000
5693.591683,222.061783,-8197.221829,-296.082377
5693.592008,592.164754,-8810.098227,-222.061783
5693.592332,666.185348,-7660.954980,0.000000
5693.592657,444.123565,-8273.831378,-370.102971
5693.592981,370.102971,-8886.707777,-518.144159
5693.593306,444.123565,-8656.879127,-296.082377
5693.593630,666.185348,-8580.269578,-370.102971
5693.593954,0.000000,-8503.660028,-296.082377
5693.594279,148.041188,-8963.317327,-74.020594
5693.594603,0.000000,-8503.660028,0.000000
5693.594928,296.082377,-8503.660028,0.000000
5693.595252,592.164754,-8273.831378,-444.123565
5693.595577,518.144159,-8580.269578,-148.041188
5693.595901,444.123565,-7890.783629,-370.102971
5693.596226,518.144159,-8350.440928,-370.102971
5693.596550,888.247130,-7967.393179,-296.082377
5693.596874,666.185348,-8197.221829,-444.123565
5693.597199,518.144159,-8656.879127,-740.205942
5693.597523,296.082377,-8503.660028,-296.082377
5693.597848,148.041188,-8656.879127,-444.123565
5693.598172,222.061783,-8580.269578,-666.185348
5693.598497,296.082377,-8350.440928,-444.123565
5693.598821,222.061783,-8656.879127,-518.144159
5693.599145,296.082377,-8503.660028,-592.164754
5693.599470,370.102971,-8197.221829,-518.144159
5693.599794,370.102971,-8350.440928,-518.144159
5693.600119,74.020594,-8427.050478,-370.102971
5693.600443,444.123565,-8197.221829,-296.082377
5693.600768,370.102971,-8886.707777,-370.102971
5693.601092,666.185348,-8733.488677,-444.123565
5693.601416,444.123565,-8427.050478,-370.102971
5693.601741,444.123565,-8810.098227,-592.164754
5693.602065,370.102971,-8886.707777,-518.144159
5693.602390,222.061783,-8810.098227,-370.102971
5693.602714,814.226536,-8503.660028,-370.102971
5693.603039,222.061783,-8580.269578,-518.144159
5693.603363,370.102971,-8963.317327,-222.061783
5693.603688,222.061783,-8044.002729,-740.205942
5693.604012,370.102971,-8733.488677,-370.102971
5693.604336,296.082377,-8580.269578,-592.164754
5693.604661,222.061783,-8350.440928,-370.102971
5693.604985,666.185348,-8886.707777,-296.082377
5693.605310,222.061783,-8427.050478,-370.102971
5693.605634,666.185348,-8580.269578,-222.061783
5693.605959,296.082377,-8656.879127,-444.123565
5693.606283,814.226536,-8580.269578,-222.061783
5693.606607,740.205942,-8963.317327,-666.185348
5693.606932,592.164754,-8656.879127,-370.102971
5693.607256,148.041188,-8580.269578,-370.102971
5693.607581,296.082377,-8963.317327,-592.164754
5693.607905,592.164754,-9039.926876,-148.041188
5693.608230,148.041188,-8503.660028,-592.164754
5693.608554,296.082377,-8656.879127,-444.123565
5693.608879,222.061783,-8120.612279,-592.164754
5693.609203,740.205942,-8580.269578,-444.123565
5693.609527,518.144159,-8503.660028,-518.144159
5693.609852,814.226536,-8197.221829,-444.123565
5693.610176,518.144159,-8656.879127,-592.164754
5693.610501,666.185348,-8810.098227,-444.123565
5693.610825,370.102971,-8580.269578,-518.144159
5693.611150,592.164754,-8886.707777,-666.185348
5693.611474,222.061783,-9039.926876,-592.164754
5693.611798,148.041188,-8733.488677,-296.082377
5693.612123,148.041188,-8350.440928,-370.102971
5693.612447,148.041188,-8580.269578,-296.082377
5693.612772,148.041188,-8503.660028,-518.144159
5693.613096,444.123565,-8427.050478,-592.164754
5693.613421,518.144159,-8273.831378,-370.102971
5693.613745,222.061783,-8580.269578,-370.102971
5693.614070,592.164754,-8580.269578,-370.102971
5693.614394,296.082377,-8427.050478,-592.164754
5693.614718,592.164754,-8580.269578,-592.164754
5693.615043,296.082377,-7890.783629,-222.061783
5693.615367,148.041188,-8656.879127,-518.144159
5693.615692,444.123565,-8810.098227,-518.144159
5693.616016,518.144159,-8503.660028,-740.205942
5693.616341,666.185348,-8963.317327,-666.185348
5693.616665,592.164754,-8427.050478,-518.144159
5693.616989,296.082377,-8580.269578,-518.144159
5693.617314,222.061783,-8580.269578,-518.144159
5693.617638,592.164754,-8197.221829,-666.185348
5693.617963,592.164754,-8656.879127,-296.082377
5693.618287,370.102971,-8427.050478,-296.082377
5693.618612,296.082377,-8886.707777,-74.020594
5693.618936,518.144159,-8580.269578,-222.061783
5693.619261,814.226536,-8503.660028,0.000000
5693.619585,592.164754,-8350.440928,-740.205942
5693.619909,444.123565,-8733.488677,-444.123565
5693.620234,518.144159,-8656.879127,-444.123565
5693.620558,148.041188,-8733.488677,0.000000
5693.620883,444.123565,-8656.879127,-592.164754
5693.621207,518.144159,-8733.488677,-592.164754
5693.621532,518.144159,-8733.488677,-296.082377
5693.621856,370.102971,-8580.269578,-444.123565
5693.622180,296.082377,-8656.879127,74.020594
5693.622505,444.123565,-8197.221829,-296.082377
5693.622829,814.226536,-8350.440928,-370.102971
5693.623154,666.185348,-8733.488677,-666.185348
5693.623478,1110.308913,-8733.488677,-444.123565
5693.623803,740.205942,-8350.440928,-592.164754
5693.624127,592.164754,-8963.317327,-592.164754
5693.624452,444.123565,-8733.488677,-296.082377
5693.624776,592.164754,-8810.098227,-518.144159
5693.625100,148.041188,-8580.269578,-518.144159
5693.625425,444.123565,-8810.098227,-370.102971
5693.625749,666.185348,-8580.269578,-370.102971
5693.626074,444.123565,-8580.269578,-148.041188
5693.626398,296.082377,-8120.612279,-444.123565
5693.626723,370.102971,-8733.488677,0.000000
5693.627047,592.164754,-8120.612279,-444.123565
5693.627371,74.020594,-8273.831378,0.000000
5693.627696,518.144159,-8733.488677,-370.102971
5693.628020,296.082377,-8503.660028,-296.082377
5693.628345,444.123565,-8580.269578,-666.185348
5693.628669,296.082377,-8580.269578,-370.102971
5693.628994,444.123565,-8810.098227,-370.102971
5693.629318,296.082377,-8810.098227,-296.082377
5693.629643,592.164754,-8733.488677,-444.123565
5693.629967,148.041188,-8580.269578,-666.185348
5693.630291,444.123565,-8733.488677,-370.102971
5693.630616,0.000000,-8044.002729,74.020594
5693.630940,370.102971,-8580.269578,-444.123565
5693.631265,518.144159,-8273.831378,-592.164754
5693.631589,666.185348,-8197.221829,-370.102971
5693.631914,518.144159,-8886.707777,-444.123565
5693.632238,222.061783,-8350.440928,0.000000
5693.632562,592.164754,-8503.660028,-222.061783
5693.632887,444.123565,-8580.269578,-370.102971
5693.633211,592.164754,-8810.098227,-444.123565
5693.633536,518.144159,-8733.488677,-370.102971
5693.633860,666.185348,-8963.317327,-296.082377
5693.634185,296.082377,-8580.269578,-370.102971
5693.634509,222.061783,-8656.879127,-444.123565
5693.634834,74.020594,-8580.269578,-370.102971
5693.635158,222.061783,-8503.660028,-444.123565
5693.635482,518.144159,-8656.879127,-444.123565
5693.635807,296.082377,-8503.660028,-222.061783
5693.636131,518.144159,-9346.365076,-148.041188
5693.636456,296.082377,-8350.440928,-296.082377
5693.636780,518.144159,-8503.660028,-296.082377
5693.637105,814.226536,-8273.831378,-666.185348
5693.637429,592.164754,-8427.050478,-666.185348
5693.637753,592.164754,-8733.488677,-444.123565
5693.638078,444.123565,-8733.488677,-814.226536
5693.638402,370.102971,-8810.098227,-444.123565
5693.638727,222.061783,-8427.050478,-740.205942
5693.639051,518.144159,-9116.536426,0.000000
5693.639376,222.061783,-8580.269578,-296.082377
5693.639700,296.082377,-8427.050478,-518.144159
5693.640024,222.061783,-8427.050478,-296.082377
5693.640349,666.185348,-8963.317327,-370.102971
5693.640673,444.123565,-8810.098227,-370.102971
5693.640998,370.102971,-8503.660028,-74.020594
5693.641322,222.061783,-8656.879127,-370.102971
5693.641647,370.102971,-8733.488677,-222.061783
5693.641971,444.123565,-8350.440928,-444.123565
5693.642296,444.123565,-8810.098227,-518.144159
5693.642620,370.102971,-8810.098227,-444.123565
5693.642944,296.082377,-8580.269578,-296.082377
5693.643269,592.164754,-8733.488677,-148.041188
5693.643593,444.123565,-8580.269578,-222.061783
5693.643918,296.082377,-8733.488677,-518.144159
5693.644242,518.144159,-8656.879127,-370.102971
5693.644567,444.123565,-8273.831378,0.000000
5693.644891,518.144159,-8580.269578,-222.061783
5693.645215,370.102971,-8656.879127,0.000000
5693.645540,370.102971,-8503.660028,-148.041188
5693.645864,592.164754,-8963.317327,-222.061783
5693.646189,0.000000,-8503.660028,0.000000
5693.646513,592.164754,-9039.926876,-370.102971
5693.646838,370.102971,-8733.488677,-518.144159
5693.647162,518.144159,-8810.098227,0.000000
5693.647487,222.061783,-8273.831378,0.000000
5693.647811,444.123565,-8963.317327,-148.041188
5693.648135,518.144159,-8350.440928,-222.061783
5693.648460,222.061783,-8886.707777,-148.041188
5693.648784,296.082377,-8427.050478,-518.144159
5693.649109,666.185348,-8120.612279,0.000000
5693.649433,592.164754,-8503.660028,-296.082377
5693.649758,740.205942,-8656.879127,-296.082377
5693.650082,592.164754,-8656.879127,-148.041188
5693.650406,666.185348,-8733.488677,0.000000
5693.650731,814.226536,-8580.269578,-444.123565
5693.651055,592.164754,-8656.879127,-666.185348
5693.651380,666.185348,-8656.879127,-296.082377
5693.651704,666.185348,-7967.393179,-518.144159
5693.652029,148.041188,-8810.098227,-296.082377
5693.652353,222.061783,-8350.440928,-296.082377
5693.652678,296.082377,-8503.660028,-518.144159
5693.653002,222.061783,-8120.612279,-444.123565
5693.653326,222.061783,-8427.050478,-296.082377
5693.653651,444.123565,-8427.050478,-148.041188
5693.653975,370.102971,-8427.050478,-148.041188
5693.654300,444.123565,-8503.660028,-296.082377
5693.654624,814.226536,-8963.317327,-592.164754
5693.654949,444.123565,-8503.660028,0.000000
5693.655273,296.082377,-8580.269578,-370.102971
5693.655597,296.082377,-8733.488677,-296.082377
5693.655922,296.082377,-8810.098227,-222.061783
5693.656246,222.061783,-8810.098227,-74.020594
5693.656571,370.102971,-8656.879127,-222.061783
5693.656895,148.041188,-8503.660028,0.000000
5693.657220,74.020594,-8656.879127,222.061783
5693.657544,0.000000,-8197.221829,-148.041188
5693.657869,592.164754,-8580.269578,0.000000
5693.658193,444.123565,-8273.831378,-444.123565
5693.658517,518.144159,-8503.660028,74.020594
5693.658842,222.061783,-8044.002729,-518.144159
5693.659166,370.102971,-8733.488677,-148.041188
5693.659491,370.102971,-8733.488677,-370.102971
5693.659815,518.144159,-8810.098227,-222.061783
5693.660140,0.000000,-8810.098227,0.000000
5693.660464,296.082377,-8656.879127,-444.123565
5693.660788,444.123565,-8656.879127,-444.123565
5693.661113,296.082377,-8503.660028,0.000000
5693.661437,296.082377,-8733.488677,-592.164754
5693.661762,666.185348,-9039.926876,-592.164754
5693.662086,444.123565,-8427.050478,-296.082377
5693.662411,222.061783,-8503.660028,-296.082377
5693.662735,518.144159,-8197.221829,-370.102971
5693.663060,666.185348,-8733.488677,-222.061783
5693.663384,370.102971,-8580.269578,-444.123565
5693.663708,444.123565,-8503.660028,0.000000
5693.664033,370.102971,-8656.879127,-296.082377
5693.664357,370.102971,-8503.660028,0.000000
5693.664682,518.144159,-8656.879127,-296.082377
5693.665006,592.164754,-8886.707777,-148.041188
5693.665331,370.102971,-8503.660028,-370.102971
5693.665655,592.164754,-8656.879127,-296.082377
5693.665979,74.020594,-8427.050478,0.000000
5693.666304,518.144159,-8503.660028,-222.061783
5693.666628,518.144159,-8197.221829,74.020594
5693.666953,518.144159,-8197.221829,0.000000
5693.667277,518.144159,-8580.269578,148.041188
5693.667602,518.144159,-8810.098227,0.000000
5693.667926,518.144159,-8656.879127,0.000000
5693.668251,666.185348,-8733.488677,-296.082377
5693.668575,296.082377,-8886.707777,-296.082377
5693.668899,518.144159,-8810.098227,0.000000
5693.669224,370.102971,-8503.660028,-222.061783
5693.669548,518.144159,-8733.488677,-370.102971
5693.669873,444.123565,-8733.488677,-370.102971
5693.670197,518.144159,-8273.831378,0.000000
5693.670522,370.102971,-8656.879127,-296.082377
5693.670846,148.041188,-8733.488677,0.000000
5693.671170,296.082377,-8273.831378,0.000000
5693.671495,296.082377,-8580.269578,0.000000
5693.671819,592.164754,-9039.926876,-444.123565
5693.672144,296.082377,-8427.050478,148.041188
5693.672468,296.082377,-8273.831378,74.020594
5693.672793,0.000000,-8733.488677,-370.102971
5693.673117,740.205942,-9039.926876,-222.061783
5693.673442,296.082377,-8810.098227,-296.082377
5693.673766,518.144159,-8656.879127,-222.061783
5693.674090,518.144159,-8810.098227,0.000000
5693.674415,740.205942,-8886.707777,0.000000
5693.674739,222.061783,-8580.269578,0.000000
5693.675064,0.000000,-8350.440928,0.000000
5693.675388,296.082377,-8656.879127,-222.061783
5693.675713,592.164754,-8350.440928,222.061783
5693.676037,296.082377,-8503.660028,-296.082377
5693.676361,296.082377,-8503.660028,-518.144159
5693.676686,666.185348,-8273.831378,-296.082377
5693.677010,444.123565,-8503.660028,-444.123565
5693.677335,370.102971,-8656.879127,-370.102971
5693.677659,370.102971,-8273.831378,0.000000
5693.677984,222.061783,-8810.098227,0.000000
5693.678308,592.164754,-8810.098227,-518.144159
5693.678632,592.164754,-8273.831378,-74.020594
5693.678957,592.164754,-8580.269578,-518.144159
5693.679281,518.144159,-8427.050478,-444.123565
5693.679606,370.102971,-8580.269578,-592.164754
5693.679930,222.061783,-8273.831378,-296.082377
5693.680255,814.226536,-8427.050478,-222.061783
5693.680579,518.144159,-8350.440928,-592.164754
5693.680904,666.185348,-8886.707777,-296.082377
5693.681228,370.102971,-8503.660028,-444.123565
5693.681552,592.164754,-8656.879127,-370.102971
5693.681877,222.061783,-8580.269578,-444.123565
5693.682201,666.185348,-9193.145976,-222.061783
5693.682526,518.144159,-8886.707777,-370.102971
5693.682850,296.082377,-8580.269578,0.000000
5693.683175,370.102971,-8810.098227,-296.082377
5693.683499,222.061783,-8503.660028,0.000000
5693.683823,518.144159,-8273.831378,-370.102971
5693.684148,222.061783,-8656.879127,-444.123565
5693.684472,444.123565,-8503.660028,0.000000
5693.684797,370.102971,-8427.050478,0.000000
5693.685121,666.185348,-8503.660028,-148.041188
5693.685446,222.061783,-8656.879127,-370.102971
5693.685770,518.144159,-9116.536426,-518.144159
5693.686094,222.061783,-8733.488677,-296.082377
5693.686419,296.082377,-8503.660028,-148.041188
5693.686743,148.041188,-8656.879127,-444.123565
5693.687068,296.082377,-8580.269578,-666.185348
5693.687392,444.123565,-8810.098227,-888.247130
5693.687717,0.000000,-8580.269578,-518.144159
5693.688041,296.082377,-8810.098227,-592.164754
5693.688365,296.082377,-8810.098227,-666.185348
5693.688690,222.061783,-8350.440928,-296.082377
5693.689014,444.123565,-8656.879127,-518.144159
5693.689339,296.082377,-8733.488677,-518.144159
5693.689663,592.164754,-8427.050478,-444.123565
5693.689988,592.164754,-9039.926876,-148.041188
5693.690312,518.144159,-8733.488677,-296.082377
5693.690636,592.164754,-8733.488677,-444.123565
5693.690961,740.205942,-8580.269578,-296.082377
5693.691285,518.144159,-8733.488677,-444.123565
5693.691610,296.082377,-8963.317327,0.000000
5693.691934,370.102971,-8656.879127,-222.061783
5693.692259,518.144159,-8503.660028,-296.082377
5693.692583,518.144159,-8733.488677,0.000000
5693.692907,444.123565,-8810.098227,-148.041188
5693.693232,222.061783,-8656.879127,-370.102971
5693.693556,444.123565,-8503.660028,0.000000
5693.693881,518.144159,-8656.879127,0.000000
5693.694205,370.102971,-8197.221829,0.000000
5693.694530,518.144159,-8503.660028,-370.102971
5693.694854,888.247130,-8427.050478,0.000000
5693.695178,666.185348,-8427.050478,-518.144159
5693.695503,592.164754,-8810.098227,-296.082377
5693.695827,592.164754,-8120.612279,-370.102971
5693.696152,370.102971,-8733.488677,-296.082377
5693.696476,592.164754,-8656.879127,-370.102971
5693.696801,296.082377,-8120.612279,0.000000
5693.697125,444.123565,-8580.269578,0.000000
5693.697449,296.082377,-8273.831378,-296.082377
5693.697774,518.144159,-8427.050478,-222.061783
5693.698098,370.102971,-8273.831378,-296.082377
5693.698423,666.185348,-9193.145976,0.000000
5693.698747,0.000000,-8350.440928,-296.082377
5693.699071,370.102971,-8580.269578,0.000000
5693.699396,296.082377,-8503.660028,-666.185348
5693.699720,518.144159,-9193.145976,-74.020594
5693.700045,74.020594,-8656.879127,-444.123565
5693.700369,370.102971,-8963.317327,-296.082377
5693.700694,222.061783,-8656.879127,-296.082377
5693.701018,74.020594,-8733.488677,-518.144159
5693.701342,296.082377,-9116.536426,-222.061783
5693.701667,74.020594,-8580.269578,-296.082377
5693.701991,444.123565,-8503.660028,-518.144159
5693.702316,296.082377,-8427.050478,-222.061783
5693.702640,296.082377,-8273.831378,-444.123565
5693.702965,444.123565,-8733.488677,-370.102971
5693.703289,444.123565,-8656.879127,-518.144159
5693.703613,518.144159,-8427.050478,-296.082377
5693.703938,296.082377,-8656.879127,-592.164754
5693.704262,222.061783,-8963.317327,-148.041188
5693.704587,444.123565,-8580.269578,-666.185348
5693.704911,370.102971,-8963.317327,-666.185348
5693.705236,296.082377,-8656.879127,-518.144159
5693.705560,370.102971,-9116.536426,-222.061783
5693.705884,296.082377,-8503.660028,-518.144159
5693.706209,296.082377,-8273.831378,-518.144159
5693.706533,444.123565,-8427.050478,-444.123565
5693.706858,444.123565,-8427.050478,0.000000
5693.707182,370.102971,-8197.221829,-296.082377
5693.707507,370.102971,-8580.269578,-666.185348
5693.707831,518.144159,-8427.050478,-296.082377
5693.708155,740.205942,-8580.269578,-518.144159
5693.708480,444.123565,-8350.440928,-444.123565
5693.708804,740.205942,-8427.050478,-518.144159
5693.709129,444.123565,-8656.879127,-444.123565
5693.709453,518.144159,-8580.269578,-518.144159
5693.709778,814.226536,-8580.269578,0.000000
5693.710102,666.185348,-8580.269578,-518.144159
5693.710426,666.185348,-8044.002729,0.000000
5693.710751,148.041188,-8656.879127,-222.061783
5693.711075,222.061783,-8503.660028,0.000000
5693.711400,740.205942,-8427.050478,0.000000
5693.711724,592.164754,-8350.440928,-518.144159
5693.712049,592.164754,-8580.269578,-222.061783
5693.712373,222.061783,-8427.050478,-222.061783
5693.712697,1036.288319,-8963.317327,-74.020594
5693.713022,444.123565,-8427.050478,-518.144159
5693.713346,518.144159,-8656.879127,-592.164754
5693.713671,148.041188,-8580.269578,-296.082377
5693.713995,740.205942,-8733.488677,0.000000
5693.714319,222.061783,-8580.269578,-296.082377
5693.714644,296.082377,-8656.879127,-444.123565
5693.714968,444.123565,-8580.269578,-444.123565
5693.715293,222.061783,-8656.879127,-518.144159
5693.715617,666.185348,-8503.660028,-222.061783
5693.715942,518.144159,-8427.050478,-148.041188
5693.716266,518.144159,-8503.660028,0.000000
5693.716590,444.123565,-8273.831378,-148.041188
5693.716915,666.185348,-8886.707777,0.000000
5693.717239,444.123565,-8656.879127,-222.061783
5693.717564,518.144159,-8656.879127,-296.082377
5693.717888,296.082377,-8963.317327,-666.185348
5693.718213,296.082377,-8350.440928,-148.041188
5693.718537,0.000000,-8733.488677,-740.205942
5693.718861,518.144159,-8886.707777,-666.185348
5693.719186,0.000000,-8503.660028,-592.164754
5693.719510,518.144159,-8580.269578,-444.123565
5693.719835,370.102971,-8197.221829,-370.102971
5693.720159,666.185348,-8197.221829,-592.164754
5693.720484,296.082377,-8656.879127,-444.123565
5693.720808,370.102971,-8120.612279,-592.164754
5693.721132,592.164754,-8427.050478,-370.102971
5693.721457,148.041188,-8427.050478,-962.267725
5693.721781,666.185348,-8580.269578,-740.205942
5693.722106,666.185348,-8580.269578,-1110.308913
5693.722430,518.144159,-8733.488677,-592.164754
5693.722755,370.102971,-8580.269578,-592.164754
5693.723079,296.082377,-8963.317327,-518.144159
5693.723403,666.185348,-8427.050478,-740.205942
5693.723728,740.205942,-8503.660028,-740.205942
5693.724052,444.123565,-8580.269578,-592.164754
5693.724377,444.123565,-8044.002729,-666.185348
5693.724701,370.102971,-8197.221829,-370.102971
5693.725026,0.000000,-8503.660028,-444.123565
5693.725350,592.164754,-8120.612279,-444.123565
5693.725674,666.185348,-8427.050478,-444.123565
5693.725999,518.144159,-8656.879127,-296.082377
5693.726323,148.041188,-8580.269578,-370.102971
5693.726648,518.144159,-9729.412825,-296.082377
5693.726972,518.144159,-8427.050478,-148.041188
5693.727297,814.226536,-8810.098227,-518.144159
5693.727621,740.205942,-8810.098227,-148.041188
5693.727945,444.123565,-8197.221829,-518.144159
5693.728270,296.082377,-9116.536426,-222.061783
5693.728594,370.102971,-8427.050478,-592.164754
5693.728919,666.185348,-8503.660028,-148.041188
5693.729243,370.102971,-8427.050478,-296.082377
5693.729567,0.000000,-8810.098227,222.061783
5693.729892,148.041188,-8503.660028,-296.082377
5693.730216,518.144159,-8656.879127,-296.082377
5693.730541,518.144159,-8273.831378,-444.123565
5693.730865,740.205942,-8810.098227,-518.144159
5693.731190,518.144159,-8580.269578,-518.144159
5693.731514,518.144159,-8810.098227,-444.123565
5693.731838,222.061783,-8810.098227,-370.102971
5693.732163,370.102971,-8427.050478,-296.082377
5693.732487,296.082377,-8656.879127,-592.164754
5693.732812,666.185348,-8503.660028,-444.123565
5693.733136,518.144159,-8580.269578,-518.144159
5693.733461,222.061783,-8350.440928,0.000000
5693.733785,444.123565,-8273.831378,-518.144159
5693.734109,518.144159,-8503.660028,-222.061783
5693.734434,592.164754,-8656.879127,-518.144159
5693.734758,518.144159,-8350.440928,-296.082377
5693.735083,222.061783,-8733.488677,-296.082377
5693.735407,296.082377,-8886.707777,-222.061783
5693.735732,592.164754,-8963.317327,-296.082377
5693.736056,222.061783,-8427.050478,-370.102971
5693.736380,148.041188,-8810.098227,-370.102971
5693.736705,74.020594,-9269.755526,222.061783
5693.737029,370.102971,-8733.488677,-518.144159
5693.737354,370.102971,-8580.269578,-444.123565
5693.737678,222.061783,-8580.269578,-148.041188
5693.738003,222.061783,-8350.440928,0.000000
5693.738327,518.144159,-8273.831378,0.000000
5693.738651,0.000000,-8503.660028,-592.164754
5693.738976,296.082377,-8733.488677,0.000000
5693.739300,370.102971,-8580.269578,-666.185348
5693.739625,592.164754,-8810.098227,-296.082377
5693.739949,296.082377,-8733.488677,-666.185348
5693.740274,592.164754,-8580.269578,0.000000
5693.740598,444.123565,-8733.488677,-444.123565
5693.740922,592.164754,-7890.783629,0.000000
5693.741247,444.123565,-8733.488677,-444.123565
5693.741571,518.144159,-8427.050478,-444.123565
5693.741896,296.082377,-8503.660028,-444.123565
5693.742220,0.000000,-8427.050478,-370.102971
5693.742544,740.205942,-8427.050478,-370.102971
5693.742869,222.061783,-8120.612279,-370.102971
5693.743193,666.185348,-8733.488677,0.000000
5693.743518,370.102971,-8503.660028,-296.082377
5693.743842,888.247130,-8886.707777,-222.061783
5693.744167,518.144159,-8503.660028,-444.123565
5693.744491,592.164754,-8580.269578,-370.102971
5693.744815,592.164754,-9039.926876,-370.102971
5693.745140,1036.288319,-8580.269578,0.000000
5693.745464,0.000000,-8733.488677,-222.061783
5693.745789,148.041188,-8427.050478,-148.041188
5693.746113,444.123565,-8580.269578,-296.082377
5693.746438,222.061783,-8427.050478,0.000000
5693.746762,444.123565,-8197.221829,-444.123565
5693.747086,222.061783,-8350.440928,0.000000
5693.747411,518.144159,-8733.488677,-444.123565
5693.747735,370.102971,-8350.440928,-222.061783
5693.748060,740.205942,-8886.707777,-370.102971
5693.748384,518.144159,-8810.098227,-444.123565
5693.748709,444.123565,-8427.050478,-592.164754
5693.749033,222.061783,-8886.707777,-296.082377
5693.749357,518.144159,-8197.221829,0.000000
5693.749682,444.123565,-8273.831378,-592.164754
5693.750006,296.082377,-8656.879127,-518.144159
5693.750331,222.061783,-8503.660028,-518.144159
5693.750655,370.102971,-8733.488677,-592.164754
5693.750980,148.041188,-8273.831378,-148.041188
5693.751304,518.144159,-8427.050478,-444.123565
5693.751628,444.123565,-8503.660028,-296.082377
5693.751953,518.144159,-8197.221829,-444.123565
5693.752277,444.123565,-8197.221829,-148.041188
5693.752602,222.061783,-8350.440928,-518.144159
5693.752926,296.082377,-8656.879127,-444.123565
5693.753251,296.082377,-8273.831378,-740.205942
5693.753575,740.205942,-9039.926876,-592.164754
5693.753899,666.185348,-8503.660028,-444.123565
5693.754224,518.144159,-8810.098227,-666.185348
5693.754548,222.061783,-9039.926876,-370.102971
5693.754873,222.061783,-8427.050478,-370.102971
5693.755197,666.185348,-8580.269578,-444.123565
5693.755522,592.164754,-8427.050478,-518.144159
5693.755846,370.102971,-8733.488677,-296.082377
5693.756170,296.082377,-8503.660028,-296.082377
5693.756495,814.226536,-8810.098227,-444.123565
5693.756819,518.144159,-8350.440928,-296.082377
5693.757144,740.205942,-8886.707777,-296.082377
5693.757468,370.102971,-8350.440928,-296.082377
5693.757792,518.144159,-9269.755526,-296.082377
5693.758117,370.102971,-8580.269578,-518.144159
5693.758441,370.102971,-8810.098227,0.000000
5693.758766,222.061783,-8580.269578,0.000000
5693.759090,592.164754,-8580.269578,0.000000
5693.759415,222.061783,-8503.660028,-296.082377
5693.759739,222.061783,-8427.050478,-296.082377
5693.760063,296.082377,-8350.440928,-222.061783
5693.760388,444.123565,-8350.440928,-370.102971
5693.760712,1036.288319,-8503.660028,-222.061783
5693.761037,222.061783,-8503.660028,-222.061783
5693.761361,740.205942,-8656.879127,0.000000
5693.761686,296.082377,-8580.269578,0.000000
5693.762010,592.164754,-8810.098227,-148.041188
5693.762334,740.205942,-8503.660028,-444.123565
5693.762659,444.123565,-8656.879127,0.000000
5693.762983,0.000000,-8810.098227,0.000000
5693.763308,222.061783,-8733.488677,-592.164754
5693.763632,592.164754,-8810.098227,0.000000
5693.763957,222.061783,-8580.269578,-296.082377
5693.764281,222.061783,-8656.879127,0.000000
5693.764605,370.102971,-8197.221829,-370.102971
5693.764930,592.164754,-9193.145976,0.000000
5693.765254,370.102971,-8273.831378,-296.082377
5693.765579,518.144159,-9039.926876,-370.102971
5693.765903,370.102971,-8733.488677,-296.082377
5693.766228,148.041188,-8886.707777,-148.041188
5693.766552,0.000000,-8810.098227,-296.082377
5693.766876,74.020594,-8733.488677,0.000000
5693.767201,370.102971,-8733.488677,-296.082377
5693.767525,222.061783,-8810.098227,-666.185348
5693.767850,148.041188,-8350.440928,-296.082377
5693.768174,370.102971,-8656.879127,-296.082377
5693.768499,222.061783,-8503.660028,-444.123565
5693.768823,222.061783,-8656.879127,-444.123565
5693.769147,296.082377,-8503.660028,-592.164754
5693.769472,444.123565,-8580.269578,0.000000
5693.769796,222.061783,-8810.098227,-296.082377
5693.770121,444.123565,-8886.707777,-296.082377
5693.770445,518.144159,-8427.050478,-222.061783
5693.770770,296.082377,-8886.707777,-518.144159
5693.771094,444.123565,-8503.660028,-592.164754
5693.771418,444.123565,-8733.488677,-444.123565
5693.771743,222.061783,-8580.269578,-592.164754
5693.772067,814.226536,-8350.440928,-666.185348
5693.772392,296.082377,-8733.488677,-518.144159
5693.772716,444.123565,-8810.098227,-296.082377
5693.773040,222.061783,-8273.831378,-518.144159
5693.773365,592.164754,-8197.221829,-296.082377
5693.773689,370.102971,-8197.221829,-370.102971
5693.774014,592.164754,-8273.831378,-222.061783
5693.774338,814.226536,-8350.440928,-740.205942
5693.774663,444.123565,-8427.050478,-370.102971
5693.774987,666.185348,-8350.440928,-370.102971
5693.775311,592.164754,-8427.050478,-370.102971
5693.775636,666.185348,-8503.660028,-444.123565
5693.775960,592.164754,-8580.269578,-518.144159
5693.776285,814.226536,-9193.145976,-444.123565
5693.776609,222.061783,-8273.831378,-148.041188
5693.776934,370.102971,-8656.879127,-370.102971
5693.777258,518.144159,-8350.440928,-148.041188
5693.777582,740.205942,-8350.440928,-222.061783
5693.777907,518.144159,-8810.098227,-296.082377
5693.778231,444.123565,-7967.393179,0.000000
5693.778556,370.102971,-8656.879127,0.000000
5693.778880,370.102971,-8733.488677,74.020594
5693.779205,0.000000,-8273.831378,0.000000
5693.779529,444.123565,-8810.098227,0.000000
5693.779853,222.061783,-8656.879127,0.000000
5693.780178,148.041188,-8886.707777,74.020594
5693.780502,148.041188,-8810.098227,0.000000
5693.780827,148.041188,-8733.488677,74.020594
5693.781151,222.061783,-8886.707777,-74.020594
5693.781476,148.041188,-8273.831378,-296.082377
5693.781800,370.102971,-8580.269578,0.000000
5693.782124,0.000000,-8350.440928,0.000000
5693.782449,370.102971,-8503.660028,-148.041188
5693.782773,518.144159,-8503.660028,-444.123565
5693.783098,444.123565,-8656.879127,-518.144159
5693.783422,592.164754,-8580.269578,-296.082377
5693.783747,370.102971,-8503.660028,-518.144159
5693.784071,592.164754,-8886.707777,-592.164754
5693.784395,444.123565,-8656.879127,-592.164754
5693.784720,814.226536,-8580.269578,-518.144159
5693.785044,296.082377,-8656.879127,-518.144159
5693.785369,370.102971,-8886.707777,-666.185348
5693.785693,296.082377,-8733.488677,-222.061783
5693.786018,444.123565,-8503.660028,-592.164754
5693.786342,370.102971,-8350.440928,-148.041188
5693.786666,592.164754,-8733.488677,-370.102971
5693.786991,592.164754,-8350.440928,0.000000
5693.787315,518.144159,-8273.831378,-222.061783
5693.787640,296.082377,-8733.488677,-222.061783
5693.787964,518.144159,-8580.269578,-444.123565
5693.788289,592.164754,-8656.879127,-370.102971
5693.788613,370.102971,-8810.098227,-444.123565
5693.788938,370.102971,-8733.488677,0.000000
5693.789262,296.082377,-8656.879127,-296.082377
5693.789586,296.082377,-8580.269578,-296.082377
5693.789911,666.185348,-8503.660028,-814.226536
5693.790235,592.164754,-8503.660028,-592.164754
5693.790560,296.082377,-8503.660028,-518.144159
5693.790884,370.102971,-8503.660028,-814.226536
5693.791209,296.082377,-8350.440928,-296.082377
5693.791533,592.164754,-8350.440928,-518.144159
5693.791858,888.247130,-8810.098227,-222.061783
5693.792182,444.123565,-8810.098227,-444.123565
5693.792506,444.123565,-8656.879127,-444.123565
5693.792831,222.061783,-8656.879127,-592.164754
5693.793155,814.226536,-8810.098227,-740.205942
5693.793480,296.082377,-8810.098227,-592.164754
5693.793804,592.164754,-8656.879127,-222.061783
5693.794129,74.020594,-8656.879127,-370.102971
5693.794453,74.020594,-8580.269578,-518.144159
5693.794778,370.102971,-8810.098227,0.000000
5693.795102,518.144159,-8580.269578,-444.123565
5693.795426,444.123565,-8503.660028,-370.102971
5693.795751,370.102971,-8273.831378,-148.041188
5693.796075,518.144159,-8733.488677,296.082377
5693.796400,518.144159,-8427.050478,-296.082377
5693.796724,518.144159,-8350.440928,-148.041188
5693.797049,518.144159,-8427.050478,-148.041188
5693.797373,518.144159,-8503.660028,0.000000
5693.797698,222.061783,-8580.269578,-370.102971
5693.798022,518.144159,-8656.879127,-148.041188
5693.798346,370.102971,-8427.050478,-296.082377
5693.798671,592.164754,-8810.098227,-370.102971
5693.798995,370.102971,-8656.879127,-370.102971
5693.799320,518.144159,-8580.269578,0.000000
5693.799644,444.123565,-8427.050478,-296.082377
5693.799969,444.123565,-8273.831378,0.000000
5693.800293,592.164754,-8656.879127,-444.123565
5693.800618,814.226536,-8120.612279,-296.082377
5693.800942,666.185348,-8580.269578,0.000000
5693.801266,296.082377,-8580.269578,-518.144159
5693.801591,518.144159,-8580.269578,-148.041188
5693.801915,370.102971,-8580.269578,-296.082377
5693.802240,444.123565,-8503.660028,-518.144159
5693.802564,444.123565,-8733.488677,-444.123565
5693.802889,592.164754,-8810.098227,-148.041188
5693.803213,222.061783,-8197.221829,-518.144159
5693.803538,370.102971,-8427.050478,-592.164754
5693.803862,222.061783,-8733.488677,-370.102971
5693.804186,148.041188,-8273.831378,-370.102971
5693.804511,148.041188,-8427.050478,-296.082377
5693.804835,592.164754,-8427.050478,-148.041188
5693.805160,592.164754,-8427.050478,-148.041188
5693.805484,444.123565,-8427.050478,0.000000
5693.805809,666.185348,-8427.050478,-296.082377
5693.806133,444.123565,-8656.879127,-222.061783
5693.806458,592.164754,-8810.098227,-148.041188
5693.806782,592.164754,-8963.317327,-370.102971
5693.807106,148.041188,-8810.098227,-518.144159
5693.807431,592.164754,-9193.145976,-296.082377
5693.807755,296.082377,-8733.488677,0.000000
5693.808080,0.000000,-8580.269578,-444.123565
5693.808404,444.123565,-8427.050478,-222.061783
5693.808729,148.041188,-8810.098227,0.000000
5693.809053,740.205942,-8580.269578,-370.102971
5693.809378,740.205942,-8580.269578,-592.164754
5693.809702,666.185348,-8580.269578,-370.102971
5693.810026,592.164754,-8580.269578,-666.185348
5693.810351,74.020594,-8963.317327,0.000000
5693.810675,518.144159,-8886.707777,-740.205942
5693.811000,740.205942,-8810.098227,-592.164754
5693.811324,444.123565,-8503.660028,-370.102971
5693.811649,-222.061783,-8733.488677,0.000000
5693.811973,518.144159,-8733.488677,-518.144159
5693.812298,518.144159,-8427.050478,-296.082377
5693.812622,740.205942,-8580.269578,-370.102971
5693.812946,370.102971,-8580.269578,-444.123565
5693.813271,518.144159,-8733.488677,-296.082377
5693.813595,0.000000,-8810.098227,0.000000
5693.813920,518.144159,-8273.831378,0.000000
5693.814244,296.082377,-8810.098227,0.000000
5693.814569,296.082377,-8580.269578,74.020594
5693.814893,296.082377,-8427.050478,0.000000
5693.815218,148.041188,-8963.317327,-370.102971
5693.815542,370.102971,-8350.440928,-444.123565
5693.815866,592.164754,-8733.488677,148.041188
5693.816191,370.102971,-8580.269578,-444.123565
5693.816515,148.041188,-8656.879127,-370.102971
5693.816840,296.082377,-8733.488677,-296.082377
5693.817164,518.144159,-8580.269578,296.082377
5693.817489,518.144159,-8273.831378,-518.144159
5693.817813,444.123565,-8197.221829,-296.082377
5693.818138,666.185348,-8197.221829,-296.082377
5693.818462,592.164754,-8273.831378,-444.123565
5693.818786,222.061783,-8350.440928,-444.123565
5693.819111,518.144159,-8350.440928,-814.226536
5693.819435,592.164754,-8963.317327,-666.185348
5693.819760,296.082377,-8656.879127,-888.247130
5693.820084,592.164754,-8197.221829,-148.041188
5693.820409,444.123565,-8733.488677,-962.267725
5693.820733,370.102971,-8886.707777,-518.144159
5693.821058,666.185348,-8580.269578,-740.205942
5693.821382,370.102971,-8886.707777,-888.247130
5693.821706,370.102971,-8350.440928,-296.082377
5693.822031,74.020594,-8427.050478,-518.144159
5693.822355,444.123565,-8503.660028,-222.061783
5693.822680,444.123565,-8273.831378,-444.123565
5693.823004,740.205942,-8733.488677,-518.144159
5693.823329,444.123565,-8503.660028,-222.061783
5693.823653,444.123565,-8886.707777,-370.102971
5693.823978,444.123565,-8580.269578,-222.061783
5693.824302,1036.288319,-8580.269578,-222.061783
5693.824626,666.185348,-9039.926876,-370.102971
5693.824951,296.082377,-8733.488677,-518.144159
5693.825275,222.061783,-8810.098227,-518.144159
5693.825600,0.000000,-8733.488677,-518.144159
5693.825924,444.123565,-8197.221829,-518.144159
5693.826249,666.185348,-8886.707777,-518.144159
5693.826573,370.102971,-8350.440928,-740.205942
5693.826898,296.082377,-8733.488677,-444.123565
5693.827222,814.226536,-8886.707777,-814.226536
5693.827546,666.185348,-8580.269578,-592.164754
5693.827871,444.123565,-8580.269578,-444.123565
5693.828195,296.082377,-8733.488677,-518.144159
5693.828520,888.247130,-8656.879127,-370.102971
5693.828844,370.102971,-8656.879127,-518.144159
5693.829169,370.102971,-8886.707777,-370.102971
5693.829493,444.123565,-8733.488677,-222.061783
5693.829818,370.102971,-8580.269578,-518.144159
5693.830142,814.226536,-8580.269578,-296.082377
5693.830466,592.164754,-8427.050478,-222.061783
5693.830791,518.144159,-8503.660028,-444.123565
5693.831115,222.061783,-8273.831378,-518.144159
5693.831440,444.123565,-8810.098227,-592.164754
5693.831764,518.144159,-8580.269578,-296.082377
5693.832089,666.185348,-8427.050478,148.041188
5693.832413,370.102971,-8580.269578,-222.061783
5693.832738,518.144159,-8810.098227,-222.061783
5693.833062,518.144159,-8427.050478,-444.123565
5693.833386,888.247130,-8733.488677,-666.185348
5693.833711,370.102971,-8503.660028,-222.061783
5693.834035,370.102971,-8656.879127,-444.123565
5693.834360,296.082377,-8656.879127,-518.144159
5693.834684,222.061783,-8273.831378,-296.082377
5693.835009,222.061783,-9039.926876,-296.082377
5693.835333,444.123565,-8580.269578,-296.082377
5693.835657,0.000000,-9116.536426,148.041188
5693.835982,222.061783,-8350.440928,-518.144159
5693.836306,370.102971,-8656.879127,0.000000
5693.836631,444.123565,-8120.612279,-518.144159
5693.836955,592.164754,-8733.488677,-444.123565
5693.837280,370.102971,-8733.488677,-444.123565
5693.837604,148.041188,-8733.488677,-592.164754
5693.837929,370.102971,-8503.660028,-444.123565
5693.838253,518.144159,-8656.879127,-370.102971
5693.838577,444.123565,-8733.488677,-666.185348
5693.838902,148.041188,-8580.269578,-444.123565
5693.839226,518.144159,-8656.879127,-518.144159
5693.839551,222.061783,-8580.269578,-296.082377
5693.839875,444.123565,-8503.660028,-666.185348
5693.840200,592.164754,-8273.831378,-296.082377
5693.840524,296.082377,-8350.440928,-296.082377
5693.840849,592.164754,-8503.660028,-296.082377
5693.841173,222.061783,-8427.050478,-222.061783
5693.841497,296.082377,-8656.879127,0.000000
5693.841822,444.123565,-8580.269578,-370.102971
5693.842146,666.185348,-8810.098227,-740.205942
5693.842471,592.164754,-8273.831378,-444.123565
5693.842795,518.144159,-8963.317327,0.000000
5693.843120,296.082377,-8733.488677,-518.144159
5693.843444,370.102971,-8503.660028,-444.123565
5693.843769,74.020594,-8733.488677,-518.144159
5693.844093,74.020594,-8963.317327,-148.041188
5693.844417,370.102971,-8197.221829,-518.144159
5693.844742,518.144159,-8503.660028,0.000000
5693.845066,296.082377,-8350.440928,-444.123565
5693.845391,518.144159,-8580.269578,-370.102971
5693.845715,370.102971,-8503.660028,-592.164754
5693.846040,888.247130,-8427.050478,-296.082377
5693.846364,518.144159,-8580.269578,-814.226536
5693.846689,518.144159,-8810.098227,-296.082377
5693.847013,1554.432478,-8273.831378,-740.205942
5693.847337,518.144159,-8733.488677,-518.144159
5693.847662,370.102971,-8810.098227,-370.102971
5693.847986,74.020594,-8580.269578,-592.164754
5693.848311,444.123565,-9039.926876,0.000000
5693.848635,370.102971,-8273.831378,-370.102971
5693.848960,444.123565,-8733.488677,-296.082377
5693.849284,666.185348,-7967.393179,-296.082377
5693.849609,814.226536,-8350.440928,0.000000
5693.849933,592.164754,-8733.488677,0.000000
5693.850257,666.185348,-8580.269578,0.000000
5693.850582,592.164754,-8427.050478,-296.082377
5693.850906,370.102971,-8733.488677,-370.102971
5693.851231,592.164754,-9039.926876,0.000000
5693.851555,296.082377,-8810.098227,-148.041188
5693.851880,0.000000,-8656.879127,0.000000
5693.852204,296.082377,-8656.879127,-370.102971
5693.852529,222.061783,-8656.879127,0.000000
5693.852853,0.000000,-8350.440928,0.000000
5693.853177,222.061783,-8273.831378,-370.102971
5693.853502,296.082377,-8427.050478,0.000000
5693.853826,592.164754,-8733.488677,0.000000
5693.854151,74.020594,-8350.440928,-370.102971
5693.854475,148.041188,-8733.488677,-370.102971
5693.854800,444.123565,-8733.488677,-370.102971
5693.855124,296.082377,-8580.269578,-518.144159
5693.855449,888.247130,-8350.440928,-222.061783
5693.855773,592.164754,-8580.269578,-888.247130
5693.856097,666.185348,-8886.707777,-444.123565
5693.856422,370.102971,-8350.440928,-444.123565
5693.856746,370.102971,-9116.536426,-518.144159
5693.857071,296.082377,-8580.269578,-444.123565
5693.857395,444.123565,-8503.660028,-518.144159
5693.857720,296.082377,-8656.879127,-518.144159
5693.858044,518.144159,-8503.660028,-370.102971
5693.858369,370.102971,-8427.050478,-296.082377
5693.858693,296.082377,-8733.488677,-296.082377
5693.859017,148.041188,-8580.269578,-222.061783
5693.859342,592.164754,-8810.098227,-592.164754
5693.859666,740.205942,-8427.050478,0.000000
5693.859991,444.123565,-8350.440928,-148.041188
5693.860315,444.123565,-9039.926876,-222.061783
5693.860640,444.123565,-8580.269578,-296.082377
5693.860964,148.041188,-8886.707777,-296.082377
5693.861289,222.061783,-8503.660028,-370.102971
5693.861613,296.082377,-8580.269578,-148.041188
5693.861937,0.000000,-8427.050478,-296.082377
5693.862262,296.082377,-8503.660028,-296.082377
5693.862586,814.226536,-8197.221829,0.000000
5693.862911,370.102971,-8580.269578,-148.041188
5693.863235,518.144159,-8273.831378,-370.102971
5693.863560,592.164754,-8273.831378,-370.102971
5693.863884,666.185348,-8733.488677,-370.102971
5693.864209,592.164754,-8886.707777,-518.144159
5693.864533,222.061783,-8733.488677,-740.205942
5693.864857,370.102971,-8427.050478,0.000000
5693.865182,444.123565,-8503.660028,-444.123565
5693.865506,148.041188,-8733.488677,-370.102971
5693.865831,370.102971,-8580.269578,-370.102971
5693.866155,370.102971,-8580.269578,-518.144159
5693.866480,518.144159,-8580.269578,-444.123565
5693.866804,222.061783,-7967.393179,-222.061783
5693.867129,444.123565,-8427.050478,-296.082377
5693.867453,518.144159,-8350.440928,-148.041188
5693.867777,518.144159,-8273.831378,-296.082377
5693.868102,592.164754,-9729.412825,-518.144159
5693.868426,296.082377,-8580.269578,0.000000
5693.868751,222.061783,-8886.707777,-518.144159
5693.869075,592.164754,-8656.879127,-296.082377
5693.869400,518.144159,-8580.269578,-518.144159
5693.869724,74.020594,-8810.098227,-444.123565
5693.870049,296.082377,-8733.488677,-444.123565
5693.870373,444.123565,-8503.660028,0.000000
5693.870697,444.123565,-8350.440928,-296.082377
5693.871022,0.000000,-8120.612279,-222.061783
5693.871346,592.164754,-8273.831378,0.000000
5693.871671,518.144159,-8427.050478,-592.164754
5693.871995,518.144159,-8733.488677,-444.123565
5693.872320,518.144159,-8503.660028,-444.123565
5693.872644,592.164754,-8656.879127,-296.082377
5693.872969,666.185348,-8350.440928,-592.164754
5693.873293,444.123565,-8963.317327,-592.164754
5693.873617,592.164754,-8656.879127,-296.082377
5693.873942,740.205942,-8503.660028,-444.123565
5693.874266,518.144159,-8733.488677,-518.144159
5693.874591,296.082377,-8580.269578,-518.144159
5693.874915,740.205942,-8503.660028,-518.144159
5693.875240,518.144159,-8273.831378,-962.267725
5693.875564,296.082377,-8503.660028,-296.082377
5693.875889,592.164754,-8273.831378,-370.102971
5693.876213,222.061783,-8503.660028,-370.102971
5693.876537,444.123565,-8427.050478,-148.041188
5693.876862,518.144159,-8963.317327,-148.041188
5693.877186,814.226536,-8580.269578,-222.061783
5693.877511,444.123565,-8733.488677,-148.041188
5693.877835,296.082377,-8886.707777,-296.082377
5693.878160,518.144159,-9116.536426,74.020594
5693.878484,444.123565,-8350.440928,-148.041188
5693.878809,444.123565,-8810.098227,-222.061783
5693.879133,296.082377,-8427.050478,0.000000
5693.879457,74.020594,-8733.488677,148.041188
5693.879782,74.020594,-8503.660028,-296.082377
5693.880106,592.164754,-8503.660028,0.000000
5693.880431,370.102971,-8427.050478,-296.082377
5693.880755,592.164754,-8656.879127,-148.041188
5693.881080,148.041188,-8733.488677,-222.061783
5693.881404,518.144159,-8656.879127,-370.102971
5693.881729,740.205942,-8427.050478,-444.123565
5693.882053,444.123565,-8963.317327,-370.102971
5693.882377,296.082377,-8273.831378,0.000000
5693.882702,592.164754,-8733.488677,-296.082377
5693.883026,518.144159,-8886.707777,-370.102971
5693.883351,222.061783,-8427.050478,-518.144159
5693.883675,222.061783,-8733.488677,-518.144159
5693.884000,444.123565,-8350.440928,-444.123565
5693.884324,370.102971,-8427.050478,-370.102971
5693.884649,296.082377,-8580.269578,-148.041188
5693.884973,296.082377,-8580.269578,74.020594
5693.885297,1110.308913,-8580.269578,-148.041188
5693.885622,666.185348,-8656.879127,-222.061783
5693.885946,222.061783,-8427.050478,-148.041188
5693.886271,370.102971,-8580.269578,-222.061783
5693.886595,888.247130,-8963.317327,-148.041188
5693.886920,518.144159,-8810.098227,-370.102971
5693.887244,148.041188,-8656.879127,-370.102971
5693.887569,222.061783,-8350.440928,-296.082377
5693.887893,74.020594,-8580.269578,0.000000
5693.888217,222.061783,-8503.660028,0.000000
5693.888542,148.041188,-8273.831378,0.000000
5693.888866,592.164754,-7890.783629,-592.164754
5693.889191,592.164754,-8273.831378,0.000000
5693.889515,222.061783,-8273.831378,148.041188
5693.889840,740.205942,-8656.879127,-222.061783
5693.890164,592.164754,-8273.831378,-296.082377
5693.890489,518.144159,-8733.488677,-592.164754
5693.890813,592.164754,-9576.193725,-518.144159
5693.891137,370.102971,-8427.050478,-74.020594
5693.891462,444.123565,-8580.269578,-296.082377
5693.891786,296.082377,-8580.269578,-222.061783
5693.892111,444.123565,-8580.269578,-592.164754
5693.892435,444.123565,-8273.831378,-592.164754
5693.892760,444.123565,-8427.050478,-518.144159
5693.893084,296.082377,-8350.440928,-444.123565
5693.893408,518.144159,-8427.050478,-296.082377
5693.893733,0.000000,-8273.831378,0.000000
5693.894057,814.226536,-8656.879127,-74.020594
5693.894382,296.082377,-8733.488677,-74.020594
5693.894706,444.123565,-8580.269578,0.000000
5693.895031,296.082377,-8580.269578,-666.185348
5693.895355,518.144159,-8886.707777,-296.082377
5693.895680,444.123565,-8886.707777,-222.061783
5693.896004,518.144159,-8810.098227,-444.123565
5693.896328,222.061783,-8733.488677,0.000000
5693.896653,444.123565,-8427.050478,-444.123565
5693.896977,296.082377,-8733.488677,0.000000
5693.897302,148.041188,-8350.440928,-222.061783
5693.897626,444.123565,-8656.879127,-296.082377
5693.897951,814.226536,-8886.707777,-666.185348
5693.898275,740.205942,-8503.660028,-222.061783
5693.898600,74.020594,-8503.660028,-370.102971
5693.898924,222.061783,-8886.707777,-518.144159
5693.899248,296.082377,-9346.365076,-444.123565
5693.899573,444.123565,-9039.926876,-518.144159
5693.899897,74.020594,-8733.488677,-814.226536
5693.900222,592.164754,-8963.317327,-518.144159
5693.900546,74.020594,-8810.098227,-518.144159
5693.900871,148.041188,-8656.879127,-296.082377
5693.901195,518.144159,-8886.707777,-666.185348
5693.901520,222.061783,-8197.221829,-518.144159
5693.901844,296.082377,-8733.488677,-444.123565
5693.902168,0.000000,-8197.221829,-740.205942
5693.902493,444.123565,-8197.221829,-370.102971
5693.902817,592.164754,-7967.393179,-592.164754
5693.903142,888.247130,-8810.098227,0.000000
5693.903466,370.102971,-8197.221829,-740.205942
5693.903791,740.205942,-8733.488677,0.000000
5693.904115,222.061783,-7967.393179,-444.123565
5693.904439,518.144159,-8963.317327,-518.144159
5693.904764,518.144159,-8503.660028,-370.102971
5693.905088,592.164754,-8503.660028,-370.102971
5693.905413,370.102971,-8656.879127,-222.061783
5693.905737,222.061783,-8656.879127,0.000000
5693.906062,740.205942,-8580.269578,-222.061783
5693.906386,444.123565,-8580.269578,-666.185348
5693.906711,222.061783,-8197.221829,0.000000
5693.907035,148.041188,-8273.831378,-370.102971
5693.907359,666.185348,-8273.831378,0.000000
5693.907684,518.144159,-8503.660028,-518.144159
5693.908008,592.164754,-8886.707777,-296.082377
5693.908333,444.123565,-8580.269578,-370.102971
5693.908657,666.185348,-8503.660028,-296.082377
5693.908982,296.082377,-8733.488677,-222.061783
5693.909306,444.123565,-8503.660028,-444.123565
5693.909631,444.123565,-8886.707777,-222.061783
5693.909955,0.000000,-8733.488677,-666.185348
5693.910279,370.102971,-8733.488677,-296.082377
5693.910604,-222.061783,-8733.488677,0.000000
5693.910928,518.144159,-8273.831378,-444.123565
5693.911253,222.061783,-8197.221829,-444.123565
5693.911577,444.123565,-8963.317327,-222.061783
5693.911902,592.164754,-8120.612279,-444.123565
5693.912226,518.144159,-8580.269578,-148.041188
5693.912551,370.102971,-8580.269578,-222.061783
5693.912875,518.144159,-8503.660028,-370.102971
5693.913199,222.061783,-8810.098227,-296.082377
5693.913524,740.205942,-9039.926876,-444.123565
5693.913848,74.020594,-8810.098227,-592.164754
5693.914173,222.061783,-9116.536426,-296.082377
5693.914497,296.082377,-8656.879127,-222.061783
5693.914822,592.164754,-8963.317327,148.041188
5693.915146,518.144159,-8503.660028,-444.123565
5693.915471,222.061783,-8197.221829,74.020594
5693.915795,666.185348,-8580.269578,0.000000
5693.916119,444.123565,-8503.660028,-370.102971
5693.916444,444.123565,-8503.660028,0.000000
5693.916768,666.185348,-8580.269578,-370.102971
5693.917093,444.123565,-8580.269578,-148.041188
5693.917417,518.144159,-8503.660028,-592.164754
5693.917742,222.061783,-8503.660028,-74.020594
5693.918066,370.102971,-8427.050478,-296.082377
5693.918390,296.082377,-8656.879127,-370.102971
5693.918715,518.144159,-8580.269578,-148.041188
5693.919039,370.102971,-8197.221829,-296.082377
5693.919364,444.123565,-8273.831378,-370.102971
5693.919688,296.082377,-8503.660028,-370.102971
5693.920013,888.247130,-8273.831378,-444.123565
5693.920337,444.123565,-8580.269578,-222.061783
5693.920662,814.226536,-8197.221829,-222.061783
5693.920986,518.144159,-8427.050478,0.000000
