#time,accel_x,accel_y,accel_z
5675.112365,148.041188,-8656.879127,0.000000
5675.112690,296.082377,-8963.317327,0.000000
5675.113015,148.041188,-8580.269578,148.041188
5675.113339,518.144159,-8427.050478,74.020594
5675.113664,444.123565,-8656.879127,74.020594
5675.113988,518.144159,-8427.050478,-296.082377
5675.114313,962.267725,-8427.050478,148.041188
5675.114637,296.082377,-8350.440928,0.000000
5675.114962,296.082377,-8503.660028,222.061783
5675.115286,444.123565,-8350.440928,0.000000
5675.115611,370.102971,-8503.660028,370.102971
5675.115935,296.082377,-8580.269578,0.000000
5675.116260,444.123565,-8580.269578,0.000000
5675.116584,518.144159,-8503.660028,-222.061783
5675.116909,518.144159,-8580.269578,-222.061783
5675.117233,518.144159,-8580.269578,-296.082377
5675.117558,296.082377,-8656.879127,0.000000
5675.117882,444.123565,-8503.660028,74.020594
5675.118207,444.123565,-8503.660028,-148.041188
5675.118531,962.267725,-8886.707777,-222.061783
5675.118856,370.102971,-8350.440928,-296.082377
5675.119180,370.102971,-8427.050478,-296.082377
5675.119505,444.123565,-8580.269578,-296.082377
5675.119829,592.164754,-8886.707777,222.061783
5675.120154,222.061783,-8656.879127,-74.020594
5675.120478,222.061783,-8503.660028,0.000000
5675.120803,518.144159,-8886.707777,0.000000
5675.121127,444.123565,-8733.488677,0.000000
5675.121452,444.123565,-8503.660028,-296.082377
5675.121776,592.164754,-8656.879127,-296.082377
5675.122101,444.123565,-9039.926876,-148.041188
5675.122425,444.123565,-8733.488677,-444.123565
5675.122750,296.082377,-8580.269578,-148.041188
5675.123074,296.082377,-8580.269578,-296.082377
5675.123399,444.123565,-8810.098227,-222.061783
5675.123723,518.144159,-8656.879127,-444.123565
5675.124048,592.164754,-8733.488677,222.061783
5675.124373,222.061783,-8886.707777,-148.041188
5675.124697,370.102971,-8733.488677,-296.082377
5675.125022,444.123565,-8656.879127,0.000000
5675.125346,518.144159,-8733.488677,-370.102971
5675.125671,148.041188,-8427.050478,-296.082377
5675.125995,222.061783,-8503.660028,0.000000
5675.126320,0.000000,-8886.707777,0.000000
5675.126644,296.082377,-8503.660028,-296.082377
5675.126969,888.247130,-8656.879127,-518.144159
5675.127293,444.123565,-8503.660028,-518.144159
5675.127618,370.102971,-8733.488677,0.000000
5675.127942,518.144159,-8580.269578,-518.144159
5675.128267,444.123565,-8810.098227,-222.061783
5675.128591,148.041188,-8580.269578,-148.041188
5675.128916,444.123565,-8963.317327,-370.102971
5675.129240,518.144159,-8580.269578,-296.082377
5675.129565,370.102971,-8656.879127,-296.082377
5675.129889,0.000000,-8886.707777,-592.164754
5675.130214,148.041188,-8503.660028,-296.082377
5675.130538,296.082377,-8733.488677,-296.082377
5675.130863,370.102971,-8733.488677,-444.123565
5675.131187,296.082377,-8656.879127,0.000000
5675.131512,296.082377,-8810.098227,-74.020594
5675.131836,740.205942,-8656.879127,-222.061783
5675.132161,592.164754,-8427.050478,0.000000
5675.132485,666.185348,-8656.879127,0.000000
5675.132810,666.185348,-8120.612279,148.041188
5675.133134,518.144159,-8427.050478,-222.061783
5675.133459,444.123565,-8810.098227,0.000000
5675.133783,740.205942,-8427.050478,0.000000
5675.134108,740.205942,-8886.707777,-370.102971
5675.134432,592.164754,-8350.440928,-222.061783
5675.134757,518.144159,-8503.660028,148.041188
5675.135081,592.164754,-8350.440928,0.000000
5675.135406,444.123565,-8197.221829,0.000000
5675.135731,444.123565,-8427.050478,74.020594
5675.136055,740.205942,-8733.488677,0.000000
5675.136380,592.164754,-8044.002729,148.041188
5675.136704,666.185348,-8580.269578,0.000000
5675.137029,814.226536,-8427.050478,-370.102971
5675.137353,888.247130,-8350.440928,0.000000
5675.137678,666.185348,-8580.269578,74.020594
5675.138002,444.123565,-8503.660028,296.082377
5675.138327,518.144159,-9116.536426,-296.082377
5675.138651,518.144159,-8656.879127,0.000000
5675.138976,370.102971,-8120.612279,74.020594
5675.139300,444.123565,-8810.098227,0.000000
5675.139625,370.102971,-8810.098227,222.061783
5675.139949,148.041188,-7890.783629,0.000000
5675.140274,296.082377,-8733.488677,0.000000
5675.140598,592.164754,-8273.831378,74.020594
5675.140923,592.164754,-8656.879127,0.000000
5675.141247,592.164754,-8350.440928,0.000000
5675.141572,444.123565,-8427.050478,74.020594
5675.141896,222.061783,-8810.098227,0.000000
5675.142221,0.000000,-8580.269578,74.020594
5675.142545,74.020594,-8656.879127,0.000000
5675.142870,296.082377,-8886.707777,0.000000
5675.143194,296.082377,-8580.269578,370.102971
5675.143519,74.020594,-8810.098227,74.020594
5675.143843,0.000000,-9039.926876,370.102971
5675.144168,592.164754,-8427.050478,0.000000
5675.144492,370.102971,-8886.707777,0.000000
5675.144817,370.102971,-8580.269578,0.000000
5675.145141,222.061783,-8656.879127,222.061783
5675.145466,370.102971,-9039.926876,74.020594
5675.145790,148.041188,-8656.879127,0.000000
5675.146115,222.061783,-8580.269578,148.041188
5675.146440,0.000000,-8580.269578,148.041188
5675.146764,518.144159,-9193.145976,592.164754
5675.147089,222.061783,-8503.660028,148.041188
5675.147413,444.123565,-8656.879127,296.082377
5675.147738,444.123565,-8427.050478,296.082377
5675.148062,444.123565,-8580.269578,0.000000
5675.148387,0.000000,-8580.269578,592.164754
5675.148711,74.020594,-8197.221829,370.102971
5675.149036,222.061783,-8580.269578,370.102971
5675.149360,370.102971,-8197.221829,74.020594
5675.149685,296.082377,-9039.926876,592.164754
5675.150009,370.102971,-8197.221829,222.061783
5675.150334,370.102971,-8120.612279,296.082377
5675.150658,296.082377,-8580.269578,370.102971
5675.150983,296.082377,-8273.831378,666.185348
5675.151307,444.123565,-8120.612279,370.102971
5675.151632,296.082377,-8197.221829,296.082377
5675.151956,444.123565,-8427.050478,370.102971
5675.152281,296.082377,-8427.050478,666.185348
5675.152605,370.102971,-8656.879127,444.123565
5675.152930,518.144159,-8273.831378,296.082377
5675.153254,148.041188,-8656.879127,222.061783
5675.153579,148.041188,-8197.221829,666.185348
5675.153903,444.123565,-8350.440928,296.082377
5675.154228,74.020594,-8273.831378,592.164754
5675.154552,370.102971,-8503.660028,518.144159
5675.154877,296.082377,-8580.269578,370.102971
5675.155201,222.061783,-8427.050478,518.144159
5675.155526,148.041188,-8427.050478,666.185348
5675.155850,296.082377,-8427.050478,370.102971
5675.156175,222.061783,-8427.050478,814.226536
5675.156499,148.041188,-8427.050478,370.102971
5675.156824,740.205942,-8580.269578,592.164754
5675.157148,370.102971,-8273.831378,814.226536
5675.157473,0.000000,-8427.050478,666.185348
5675.157798,296.082377,-8580.269578,370.102971
5675.158122,444.123565,-8810.098227,74.020594
5675.158447,518.144159,-8580.269578,74.020594
5675.158771,222.061783,-8503.660028,222.061783
5675.159096,444.123565,-8503.660028,518.144159
5675.159420,74.020594,-9039.926876,370.102971
5675.159745,296.082377,-8733.488677,222.061783
5675.160069,518.144159,-8580.269578,0.000000
5675.160394,518.144159,-8197.221829,0.000000
5675.160718,518.144159,-8350.440928,0.000000
5675.161043,222.061783,-8963.317327,74.020594
5675.161367,370.102971,-8733.488677,-222.061783
5675.161692,444.123565,-8580.269578,-444.123565
5675.162016,740.205942,-8503.660028,-370.102971
5675.162341,0.000000,-8886.707777,222.061783
5675.162665,666.185348,-8656.879127,-518.144159
5675.162990,666.185348,-8580.269578,-222.061783
5675.163314,666.185348,-8273.831378,-370.102971
5675.163639,592.164754,-8963.317327,-666.185348
5675.163963,666.185348,-8350.440928,-518.144159
5675.164288,370.102971,-8580.269578,-592.164754
5675.164612,296.082377,-8733.488677,-740.205942
5675.164937,444.123565,-8197.221829,-888.247130
5675.165261,962.267725,-9116.536426,-962.267725
5675.165586,296.082377,-8503.660028,-1110.308913
5675.165910,444.123565,-8656.879127,-740.205942
5675.166235,740.205942,-8580.269578,-1184.329507
5675.166559,518.144159,-8886.707777,-518.144159
5675.166884,518.144159,-9116.536426,-1258.350101
5675.167208,592.164754,-8886.707777,-1184.329507
5675.167533,592.164754,-8273.831378,-1406.391290
5675.167857,222.061783,-8886.707777,-1332.370696
5675.168182,592.164754,-8810.098227,-1332.370696
5675.168506,518.144159,-8886.707777,-1480.411884
5675.168831,740.205942,-8810.098227,-1554.432478
5675.169156,444.123565,-8656.879127,-1628.453072
5675.169480,296.082377,-9269.755526,-1110.308913
5675.169805,444.123565,-8810.098227,-1480.411884
5675.170129,518.144159,-8350.440928,-1480.411884
5675.170454,296.082377,-8963.317327,-1702.473667
5675.170778,592.164754,-8886.707777,-1406.391290
5675.171103,370.102971,-8810.098227,-1406.391290
5675.171427,444.123565,-8886.707777,-1924.535449
5675.171752,222.061783,-8810.098227,-1554.432478
5675.172076,74.020594,-8886.707777,-1776.494261
5675.172401,74.020594,-8963.317327,-1406.391290
5675.172725,148.041188,-8656.879127,-1480.411884
5675.173050,0.000000,-8810.098227,-1258.350101
5675.173374,74.020594,-8503.660028,-1554.432478
5675.173699,592.164754,-9193.145976,-1554.432478
5675.174023,370.102971,-8810.098227,-1554.432478
5675.174348,296.082377,-8580.269578,-1036.288319
5675.174672,296.082377,-8580.269578,-1184.329507
5675.174997,370.102971,-8656.879127,-888.247130
5675.175321,592.164754,-8427.050478,-1110.308913
5675.175646,592.164754,-8580.269578,-1110.308913
5675.175970,518.144159,-8580.269578,-1036.288319
5675.176295,444.123565,-8580.269578,-888.247130
5675.176619,592.164754,-8733.488677,-888.247130
5675.176944,592.164754,-8580.269578,-962.267725
5675.177268,518.144159,-8733.488677,-962.267725
5675.177593,518.144159,-8656.879127,-888.247130
5675.177917,1036.288319,-8503.660028,-740.205942
5675.178242,370.102971,-8503.660028,-518.144159
5675.178566,296.082377,-9039.926876,-888.247130
5675.178891,592.164754,-8810.098227,-740.205942
5675.179215,518.144159,-8963.317327,-740.205942
5675.179540,518.144159,-8580.269578,-592.164754
5675.179864,518.144159,-8580.269578,-666.185348
5675.180189,592.164754,-8656.879127,-666.185348
5675.180514,518.144159,-8580.269578,-370.102971
5675.180838,888.247130,-8656.879127,-592.164754
5675.181163,888.247130,-8656.879127,-666.185348
5675.181487,814.226536,-8427.050478,-296.082377
5675.181812,814.226536,-8886.707777,-370.102971
5675.182136,1110.308913,-7967.393179,0.000000
5675.182461,666.185348,-8503.660028,-296.082377
5675.182785,592.164754,-8427.050478,-370.102971
5675.183110,666.185348,-8503.660028,0.000000
5675.183434,666.185348,-8656.879127,-370.102971
5675.183759,592.164754,-8886.707777,-148.041188
5675.184083,666.185348,-8656.879127,-370.102971
5675.184408,666.185348,-9039.926876,-518.144159
5675.184732,740.205942,-8656.879127,-370.102971
5675.185057,592.164754,-8427.050478,-444.123565
5675.185381,444.123565,-8963.317327,-222.061783
5675.185706,296.082377,-8810.098227,-222.061783
5675.186030,592.164754,-8350.440928,-370.102971
5675.186355,296.082377,-9116.536426,74.020594
5675.186679,518.144159,-8733.488677,-222.061783
5675.187004,592.164754,-8503.660028,-296.082377
5675.187328,592.164754,-8580.269578,0.000000
5675.187653,740.205942,-8580.269578,-222.061783
5675.187977,592.164754,-8350.440928,-296.082377
5675.188302,296.082377,-8350.440928,0.000000
5675.188626,444.123565,-8427.050478,-222.061783
5675.188951,222.061783,-8656.879127,-370.102971
5675.189275,740.205942,-8580.269578,-740.205942
5675.189600,444.123565,-8963.317327,-370.102971
5675.189924,222.061783,-8580.269578,0.000000
5675.190249,518.144159,-8963.317327,-222.061783
5675.190573,444.123565,-7890.783629,-148.041188
5675.190898,592.164754,-8656.879127,-222.061783
5675.191222,518.144159,-8963.317327,-74.020594
5675.191547,296.082377,-8580.269578,-148.041188
5675.191872,518.144159,-8273.831378,0.000000
5675.192196,518.144159,-8733.488677,-592.164754
5675.192521,296.082377,-8427.050478,-444.123565
5675.192845,370.102971,-8733.488677,-444.123565
5675.193170,370.102971,-8656.879127,-592.164754
5675.193494,296.082377,-9346.365076,148.041188
5675.193819,74.020594,-8350.440928,-444.123565
5675.194143,444.123565,-8503.660028,-370.102971
5675.194468,444.123565,-8120.612279,-740.205942
5675.194792,444.123565,-8886.707777,-592.164754
5675.195117,666.185348,-8427.050478,-740.205942
5675.195441,222.061783,-8656.879127,-592.164754
5675.195766,222.061783,-8656.879127,-1036.288319
5675.196090,370.102971,-8427.050478,-1184.329507
5675.196415,222.061783,-8197.221829,-1406.391290
5675.196739,148.041188,-8580.269578,-1036.288319
5675.197064,296.082377,-8503.660028,-1036.288319
5675.197388,0.000000,-8656.879127,-888.247130
5675.197713,222.061783,-8350.440928,-1702.473667
5675.198037,296.082377,-8427.050478,-1332.370696
5675.198362,444.123565,-8810.098227,-1036.288319
5675.198686,518.144159,-8503.660028,-1036.288319
5675.199011,148.041188,-8503.660028,-1184.329507
5675.199335,518.144159,-8350.440928,-1184.329507
5675.199660,370.102971,-8427.050478,-1110.308913
5675.199984,592.164754,-8656.879127,-1184.329507
5675.200309,592.164754,-8503.660028,-1184.329507
5675.200633,518.144159,-8273.831378,-1184.329507
5675.200958,222.061783,-8427.050478,-1036.288319
5675.201282,444.123565,-8580.269578,-1258.350101
5675.201607,518.144159,-8580.269578,-1406.391290
5675.201931,592.164754,-9193.145976,-888.247130
5675.202256,592.164754,-8350.440928,-1258.350101
5675.202581,222.061783,-8350.440928,-1184.329507
5675.202905,518.144159,-8350.440928,-962.267725
5675.203230,814.226536,-8427.050478,-1258.350101
5675.203554,666.185348,-8273.831378,-1184.329507
5675.203879,296.082377,-8427.050478,-740.205942
5675.204203,518.144159,-8503.660028,-1110.308913
5675.204527,296.082377,-8580.269578,-962.267725
5675.204851,740.205942,-9116.536426,-1184.329507
5675.205175,222.061783,-8503.660028,-888.247130
5675.205500,814.226536,-8197.221829,-592.164754
5675.205824,444.123565,-7967.393179,-740.205942
5675.206148,740.205942,-9346.365076,-592.164754
5675.206472,222.061783,-8350.440928,-592.164754
5675.206796,518.144159,-8580.269578,-666.185348
5675.207121,592.164754,-8580.269578,-518.144159
5675.207445,518.144159,-8427.050478,-370.102971
5675.207769,296.082377,-8580.269578,-370.102971
5675.208093,518.144159,-8656.879127,-518.144159
5675.208417,592.164754,-8503.660028,-592.164754
5675.208742,444.123565,-8503.660028,-370.102971
5675.209066,0.000000,-8273.831378,74.020594
5675.209390,0.000000,-8273.831378,-74.020594
5675.209714,518.144159,-8503.660028,-148.041188
5675.210039,222.061783,-8273.831378,-148.041188
5675.210363,518.144159,-8733.488677,0.000000
5675.210687,370.102971,-8350.440928,-592.164754
5675.211011,444.123565,-8350.440928,-222.061783
5675.211335,518.144159,-8427.050478,-296.082377
5675.211660,444.123565,-8120.612279,-148.041188
5675.211984,666.185348,-8120.612279,-370.102971
5675.212308,444.123565,-8273.831378,-370.102971
5675.212632,518.144159,-7890.783629,-222.061783
5675.212956,444.123565,-8350.440928,-592.164754
5675.213281,444.123565,-8503.660028,0.000000
5675.213605,444.123565,-8427.050478,-444.123565
5675.213929,370.102971,-8273.831378,-444.123565
5675.214253,222.061783,-8580.269578,-370.102971
5675.214577,370.102971,-8580.269578,-592.164754
5675.214902,222.061783,-8427.050478,-518.144159
5675.215226,518.144159,-8350.440928,-370.102971
5675.215550,814.226536,-8733.488677,-518.144159
5675.215874,592.164754,-8503.660028,-444.123565
5675.216198,148.041188,-8197.221829,-740.205942
5675.216523,370.102971,-8580.269578,-592.164754
5675.216847,370.102971,-8656.879127,-370.102971
5675.217171,592.164754,-8580.269578,-592.164754
5675.217495,740.205942,-8580.269578,-888.247130
5675.217819,666.185348,-8656.879127,-518.144159
5675.218144,444.123565,-8963.317327,-222.061783
5675.218468,444.123565,-8656.879127,-296.082377
5675.218792,370.102971,-8350.440928,-222.061783
5675.219116,592.164754,-8810.098227,-296.082377
5675.219441,740.205942,-8197.221829,-370.102971
5675.219765,592.164754,-8273.831378,-370.102971
5675.220089,444.123565,-8350.440928,-444.123565
5675.220413,444.123565,-8810.098227,74.020594
5675.220737,370.102971,-8656.879127,-592.164754
5675.221062,740.205942,-8810.098227,-444.123565
5675.221386,444.123565,-8656.879127,-444.123565
5675.221710,518.144159,-8886.707777,0.000000
5675.222034,74.020594,-8503.660028,-148.041188
5675.222358,444.123565,-8503.660028,-222.061783
5675.222683,592.164754,-8733.488677,-518.144159
5675.223007,444.123565,-8197.221829,-296.082377
5675.223331,296.082377,-8350.440928,-370.102971
5675.223655,518.144159,-8580.269578,-148.041188
5675.223979,962.267725,-8656.879127,-296.082377
5675.224304,666.185348,-9039.926876,-296.082377
5675.224628,370.102971,-8580.269578,-148.041188
5675.224952,592.164754,-8656.879127,0.000000
5675.225276,1036.288319,-8580.269578,-148.041188
5675.225600,296.082377,-8427.050478,-148.041188
5675.225925,444.123565,-9346.365076,0.000000
5675.226249,666.185348,-8350.440928,0.000000
5675.226573,592.164754,-8350.440928,148.041188
5675.226897,666.185348,-8580.269578,0.000000
5675.227222,222.061783,-8503.660028,370.102971
5675.227546,962.267725,-8733.488677,148.041188
5675.227870,592.164754,-8503.660028,74.020594
5675.228194,666.185348,-8580.269578,148.041188
5675.228518,592.164754,-8733.488677,222.061783
5675.228843,740.205942,-8197.221829,518.144159
5675.229167,518.144159,-8503.660028,74.020594
5675.229491,814.226536,-8733.488677,0.000000
5675.229815,666.185348,-8273.831378,296.082377
5675.230139,370.102971,-8656.879127,148.041188
5675.230464,370.102971,-8580.269578,0.000000
5675.230788,592.164754,-8810.098227,0.000000
5675.231112,444.123565,-8580.269578,0.000000
5675.231436,592.164754,-8503.660028,-148.041188
5675.231760,148.041188,-8427.050478,148.041188
5675.232085,444.123565,-8886.707777,0.000000
5675.232409,666.185348,-8733.488677,74.020594
5675.232733,592.164754,-8810.098227,-148.041188
5675.233057,740.205942,-9269.755526,370.102971
5675.233381,444.123565,-8427.050478,-148.041188
5675.233706,370.102971,-8886.707777,0.000000
5675.234030,518.144159,-8580.269578,0.000000
5675.234354,740.205942,-8733.488677,0.000000
5675.234678,666.185348,-8656.879127,-370.102971
5675.235002,444.123565,-8886.707777,0.000000
5675.235327,370.102971,-8733.488677,-222.061783
5675.235651,444.123565,-8886.707777,74.020594
5675.235975,518.144159,-8273.831378,74.020594
5675.236299,592.164754,-8886.707777,-296.082377
5675.236624,814.226536,-8503.660028,-148.041188
5675.236948,370.102971,-8656.879127,74.020594
5675.237272,666.185348,-8656.879127,-370.102971
5675.237596,518.144159,-8580.269578,-222.061783
5675.237920,444.123565,-8503.660028,-444.123565
5675.238245,222.061783,-8503.660028,-444.123565
5675.238569,74.020594,-8810.098227,-148.041188
5675.238893,296.082377,-8656.879127,-370.102971
5675.239217,370.102971,-8810.098227,-222.061783
5675.239541,666.185348,-8503.660028,-370.102971
5675.239866,518.144159,-8886.707777,-666.185348
5675.240190,1258.350101,-8810.098227,-444.123565
5675.240514,222.061783,-8503.660028,-444.123565
5675.240838,222.061783,-8886.707777,-444.123565
5675.241162,148.041188,-8580.269578,-444.123565
5675.241487,518.144159,-8733.488677,-592.164754
5675.241811,74.020594,-8810.098227,-518.144159
5675.242135,148.041188,-8503.660028,-74.020594
5675.242459,444.123565,-8580.269578,-296.082377
5675.242783,592.164754,-8580.269578,0.000000
5675.243108,592.164754,-9039.926876,-222.061783
5675.243432,444.123565,-8656.879127,0.000000
5675.243756,148.041188,-8656.879127,74.020594
5675.244080,74.020594,-8503.660028,0.000000
5675.244405,222.061783,-9193.145976,370.102971
5675.244729,148.041188,-8580.269578,0.000000
5675.245053,296.082377,-8656.879127,0.000000
5675.245377,296.082377,-8503.660028,0.000000
5675.245701,370.102971,-8810.098227,74.020594
5675.246026,296.082377,-8810.098227,222.061783
5675.246350,222.061783,-8733.488677,0.000000
5675.246674,296.082377,-8810.098227,-296.082377
5675.246998,296.082377,-8810.098227,0.000000
5675.247322,0.000000,-8503.660028,370.102971
5675.247647,0.000000,-8886.707777,-222.061783
5675.247971,148.041188,-8580.269578,-148.041188
5675.248295,518.144159,-8656.879127,0.000000
5675.248619,814.226536,-8120.612279,0.000000
5675.248943,592.164754,-8580.269578,0.000000
5675.249268,444.123565,-8580.269578,0.000000
5675.249592,296.082377,-8580.269578,148.041188
5675.249916,74.020594,-8273.831378,148.041188
5675.250240,0.000000,-8656.879127,0.000000
5675.250564,148.041188,-8273.831378,74.020594
5675.250889,0.000000,-8503.660028,148.041188
5675.251213,0.000000,-8503.660028,148.041188
5675.251537,370.102971,-8427.050478,518.144159
5675.251861,444.123565,-8427.050478,0.000000
5675.252185,444.123565,-8580.269578,0.000000
5675.252510,444.123565,-8580.269578,222.061783
5675.252834,592.164754,-9193.145976,148.041188
5675.253158,74.020594,-8580.269578,74.020594
5675.253482,148.041188,-8350.440928,0.000000
5675.253807,222.061783,-8733.488677,-444.123565
5675.254131,444.123565,-8427.050478,74.020594
5675.254455,222.061783,-8733.488677,0.000000
5675.254779,518.144159,-8963.317327,0.000000
5675.255103,518.144159,-7967.393179,0.000000
5675.255428,296.082377,-8580.269578,74.020594
5675.255752,444.123565,-8427.050478,370.102971
5675.256076,444.123565,-8427.050478,74.020594
5675.256400,518.144159,-8503.660028,222.061783
5675.256724,296.082377,-8503.660028,74.020594
5675.257049,518.144159,-8197.221829,0.000000
5675.257373,370.102971,-8427.050478,0.000000
5675.257697,444.123565,-8580.269578,148.041188
5675.258021,148.041188,-8656.879127,0.000000
5675.258345,296.082377,-8810.098227,0.000000
5675.258670,222.061783,-8503.660028,0.000000
5675.258994,518.144159,-8580.269578,0.000000
5675.259318,0.000000,-8733.488677,74.020594
5675.259642,74.020594,-8656.879127,74.020594
5675.259966,0.000000,-8580.269578,-222.061783
5675.260291,148.041188,-8580.269578,0.000000
5675.260615,370.102971,-8810.098227,-74.020594
5675.260939,518.144159,-8350.440928,-222.061783
5675.261263,444.123565,-8810.098227,0.000000
5675.261588,592.164754,-8886.707777,-148.041188
5675.261912,444.123565,-8656.879127,0.000000
5675.262236,222.061783,-8350.440928,-222.061783
5675.262560,148.041188,-8656.879127,0.000000
5675.262884,0.000000,-8503.660028,0.000000
5675.263209,296.082377,-8580.269578,0.000000
5675.263533,0.000000,-8580.269578,-296.082377
5675.263857,222.061783,-8503.660028,-444.123565
5675.264181,518.144159,-9269.755526,-592.164754
5675.264505,444.123565,-8656.879127,0.000000
5675.264830,148.041188,-8427.050478,-148.041188
5675.265154,518.144159,-8656.879127,0.000000
5675.265478,222.061783,-8503.660028,-444.123565
5675.265802,444.123565,-8427.050478,-296.082377
5675.266126,444.123565,-8580.269578,-222.061783
5675.266451,296.082377,-8350.440928,-148.041188
5675.266775,370.102971,-8503.660028,-222.061783
5675.267099,148.041188,-8503.660028,0.000000
5675.267423,296.082377,-8733.488677,-370.102971
5675.267747,444.123565,-8273.831378,0.000000
5675.268072,1036.288319,-8197.221829,-148.041188
5675.268396,592.164754,-9499.584175,-370.102971
5675.268720,666.185348,-8503.660028,0.000000
5675.269044,666.185348,-8350.440928,-370.102971
5675.269369,592.164754,-8580.269578,-592.164754
5675.269693,666.185348,-8350.440928,-444.123565
5675.270017,592.164754,-8273.831378,0.000000
5675.270341,444.123565,-8656.879127,-296.082377
5675.270665,296.082377,-8197.221829,-518.144159
5675.270990,592.164754,-8886.707777,-666.185348
5675.271314,370.102971,-9193.145976,-148.041188
5675.271638,296.082377,-8273.831378,-370.102971
5675.271962,444.123565,-8810.098227,-518.144159
5675.272286,370.102971,-8656.879127,-666.185348
5675.272611,518.144159,-8810.098227,-592.164754
5675.272935,518.144159,-8580.269578,-518.144159
5675.273259,592.164754,-8273.831378,-592.164754
5675.273583,518.144159,-8503.660028,-518.144159
5675.273907,444.123565,-8273.831378,-518.144159
5675.274232,370.102971,-9039.926876,-370.102971
5675.274556,296.082377,-8656.879127,-592.164754
5675.274880,444.123565,-8273.831378,-518.144159
5675.275204,148.041188,-8427.050478,-666.185348
5675.275528,666.185348,-9193.145976,-296.082377
5675.275853,444.123565,-8656.879127,-518.144159
5675.276177,592.164754,-8580.269578,-666.185348
5675.276501,444.123565,-8810.098227,-444.123565
5675.276825,518.144159,-9499.584175,-370.102971
5675.277149,518.144159,-8427.050478,-518.144159
5675.277474,666.185348,-8427.050478,-666.185348
5675.277798,592.164754,-8580.269578,-444.123565
5675.278122,370.102971,-8810.098227,-296.082377
5675.278446,444.123565,-8656.879127,0.000000
5675.278771,148.041188,-8580.269578,-370.102971
5675.279095,518.144159,-8733.488677,-444.123565
5675.279419,444.123565,-8273.831378,-370.102971
5675.279743,444.123565,-8963.317327,0.000000
5675.280067,592.164754,-8427.050478,-148.041188
5675.280392,740.205942,-8656.879127,-296.082377
5675.280716,592.164754,-8273.831378,0.000000
5675.281040,444.123565,-8350.440928,-444.123565
5675.281364,666.185348,-8733.488677,-592.164754
5675.281688,518.144159,-8503.660028,-370.102971
5675.282013,518.144159,-8580.269578,-444.123565
5675.282337,222.061783,-8963.317327,-518.144159
5675.282661,518.144159,-8810.098227,-222.061783
5675.282985,518.144159,-8350.440928,-666.185348
5675.283309,740.205942,-8503.660028,-222.061783
5675.283634,444.123565,-8350.440928,-296.082377
5675.283958,444.123565,-8273.831378,-370.102971
5675.284282,518.144159,-8580.269578,-222.061783
5675.284606,740.205942,-8503.660028,-740.205942
5675.284930,740.205942,-8810.098227,-148.041188
5675.285255,592.164754,-8273.831378,-444.123565
5675.285579,444.123565,-8810.098227,-370.102971
5675.285903,592.164754,-8580.269578,-666.185348
5675.286227,592.164754,-8503.660028,-370.102971
5675.286552,666.185348,-8350.440928,-444.123565
5675.286876,1258.350101,-8580.269578,-666.185348
5675.287200,370.102971,-8810.098227,-592.164754
5675.287524,666.185348,-8656.879127,-518.144159
5675.287848,370.102971,-8427.050478,-740.205942
5675.288173,740.205942,-8963.317327,-444.123565
5675.288497,444.123565,-8733.488677,-814.226536
5675.288821,592.164754,-8656.879127,-740.205942
5675.289145,666.185348,-8733.488677,-814.226536
5675.289469,666.185348,-8656.879127,-740.205942
5675.289794,740.205942,-8656.879127,-592.164754
5675.290118,444.123565,-8963.317327,-740.205942
5675.290442,592.164754,-8503.660028,-666.185348
5675.290766,592.164754,-8580.269578,-518.144159
5675.291090,666.185348,-8733.488677,-518.144159
5675.291415,592.164754,-8350.440928,-592.164754
5675.291739,444.123565,-8503.660028,-814.226536
5675.292063,518.144159,-8427.050478,-814.226536
5675.292387,296.082377,-9116.536426,-370.102971
5675.292711,444.123565,-8733.488677,-444.123565
5675.293036,518.144159,-8810.098227,-592.164754
5675.293360,296.082377,-8580.269578,-444.123565
5675.293684,222.061783,-8810.098227,-518.144159
5675.294008,296.082377,-9116.536426,-296.082377
5675.294332,296.082377,-8733.488677,-666.185348
5675.294657,592.164754,-8656.879127,-518.144159
5675.294981,444.123565,-8963.317327,-666.185348
5675.295305,296.082377,-8963.317327,0.000000
5675.295629,518.144159,-8810.098227,-592.164754
5675.295954,296.082377,-8656.879127,-592.164754
5675.296278,518.144159,-8886.707777,-444.123565
5675.296602,222.061783,-8656.879127,-666.185348
5675.296926,370.102971,-8503.660028,-592.164754
5675.297250,0.000000,-8580.269578,-666.185348
5675.297575,444.123565,-8580.269578,-666.185348
5675.297899,370.102971,-8503.660028,-444.123565
5675.298223,370.102971,-8273.831378,-222.061783
5675.298547,814.226536,-8656.879127,-814.226536
5675.298871,592.164754,-8656.879127,-296.082377
5675.299196,518.144159,-8273.831378,-296.082377
5675.299520,370.102971,-8503.660028,-444.123565
5675.299844,148.041188,-8656.879127,-444.123565
5675.300168,222.061783,-8350.440928,-296.082377
5675.300492,222.061783,-8886.707777,-296.082377
5675.300817,222.061783,-8656.879127,-222.061783
5675.301141,444.123565,-8503.660028,-518.144159
5675.301465,444.123565,-8503.660028,-222.061783
5675.301789,814.226536,-8580.269578,-592.164754
5675.302113,518.144159,-8580.269578,-518.144159
5675.302438,592.164754,-8273.831378,-148.041188
5675.302762,222.061783,-8197.221829,-592.164754
5675.303086,444.123565,-8810.098227,-518.144159
5675.303410,148.041188,-8580.269578,-444.123565
5675.303735,592.164754,-8503.660028,0.000000
5675.304059,518.144159,-8733.488677,-592.164754
5675.304383,518.144159,-8733.488677,-370.102971
5675.304707,370.102971,-8733.488677,-148.041188
5675.305031,518.144159,-8580.269578,-592.164754
5675.305355,370.102971,-8810.098227,-740.205942
5675.305679,444.123565,-8503.660028,-592.164754
5675.306004,592.164754,-8350.440928,-370.102971
5675.306328,444.123565,-8350.440928,-740.205942
5675.306652,592.164754,-8350.440928,-370.102971
5675.306977,444.123565,-8427.050478,-888.247130
5675.307301,592.164754,-8810.098227,-888.247130
5675.307625,296.082377,-8733.488677,-814.226536
5675.307949,666.185348,-9039.926876,-296.082377
5675.308274,148.041188,-8580.269578,-962.267725
5675.308598,444.123565,-8580.269578,-814.226536
5675.308922,296.082377,-8810.098227,-1036.288319
5675.309246,518.144159,-8656.879127,-1110.308913
5675.309571,444.123565,-8350.440928,-592.164754
5675.309895,592.164754,-8580.269578,-962.267725
5675.310219,592.164754,-9116.536426,-740.205942
5675.310544,592.164754,-8580.269578,-740.205942
5675.310868,814.226536,-8503.660028,-740.205942
5675.311192,148.041188,-8733.488677,-740.205942
5675.311516,370.102971,-8886.707777,-740.205942
5675.311841,222.061783,-8810.098227,-888.247130
5675.312165,296.082377,-8656.879127,-666.185348
5675.312489,370.102971,-8810.098227,-1110.308913
5675.312814,370.102971,-8580.269578,-666.185348
5675.313138,222.061783,-8350.440928,-962.267725
5675.313462,148.041188,-8886.707777,-666.185348
5675.313786,518.144159,-8350.440928,-666.185348
5675.314111,666.185348,-8656.879127,-888.247130
5675.314435,370.102971,-8656.879127,-888.247130
5675.314759,592.164754,-8503.660028,-740.205942
5675.315083,888.247130,-8963.317327,-962.267725
5675.315408,370.102971,-8120.612279,-814.226536
5675.315732,370.102971,-8580.269578,-666.185348
5675.316056,222.061783,-8503.660028,-962.267725
5675.316381,592.164754,-8350.440928,-518.144159
5675.316705,74.020594,-8273.831378,-444.123565
5675.317029,518.144159,-8886.707777,-518.144159
5675.317353,518.144159,-8273.831378,-296.082377
5675.317678,592.164754,-8580.269578,-370.102971
5675.318002,222.061783,-8273.831378,-814.226536
5675.318326,666.185348,-8580.269578,-148.041188
5675.318650,444.123565,-8656.879127,-370.102971
5675.318975,296.082377,-8273.831378,-222.061783
5675.319299,592.164754,-9039.926876,-222.061783
5675.319623,296.082377,-8733.488677,-296.082377
5675.319948,444.123565,-8197.221829,0.000000
5675.320272,222.061783,-8580.269578,0.000000
5675.320596,592.164754,-8733.488677,0.000000
5675.320920,444.123565,-8120.612279,0.000000
5675.321245,740.205942,-8580.269578,-370.102971
5675.321569,222.061783,-8197.221829,-222.061783
5675.321893,888.247130,-8503.660028,0.000000
5675.322217,740.205942,-8273.831378,-740.205942
5675.322542,740.205942,-8656.879127,0.000000
5675.322866,222.061783,-8656.879127,-444.123565
5675.323190,592.164754,-8656.879127,-296.082377
5675.323515,148.041188,-8197.221829,-222.061783
5675.323839,370.102971,-8427.050478,-148.041188
5675.324163,518.144159,-8427.050478,-148.041188
5675.324487,296.082377,-8580.269578,-370.102971
5675.324812,518.144159,-8656.879127,-518.144159
5675.325136,444.123565,-8580.269578,-296.082377
5675.325460,296.082377,-8350.440928,-296.082377
5675.325785,296.082377,-8810.098227,0.000000
5675.326109,592.164754,-8733.488677,-370.102971
5675.326433,518.144159,-9039.926876,-592.164754
5675.326757,444.123565,-8810.098227,0.000000
5675.327082,222.061783,-8733.488677,0.000000
5675.327406,518.144159,-8810.098227,-222.061783
5675.327730,592.164754,-8427.050478,-370.102971
5675.328054,666.185348,-8810.098227,-518.144159
5675.328379,370.102971,-8656.879127,-370.102971
5675.328703,444.123565,-8733.488677,-222.061783
5675.329027,444.123565,-8503.660028,-518.144159
5675.329352,296.082377,-8350.440928,-370.102971
5675.329676,518.144159,-8503.660028,-444.123565
5675.330000,666.185348,-8810.098227,-518.144159
5675.330324,814.226536,-8273.831378,-444.123565
5675.330649,814.226536,-8044.002729,-814.226536
5675.330973,592.164754,-8503.660028,-740.205942
5675.331297,740.205942,-8427.050478,-740.205942
5675.331621,814.226536,-8656.879127,-592.164754
5675.331946,296.082377,-8733.488677,-370.102971
5675.332270,296.082377,-8273.831378,-592.164754
5675.332594,444.123565,-8350.440928,-444.123565
5675.332919,222.061783,-8580.269578,-444.123565
5675.333243,740.205942,-8656.879127,-666.185348
5675.333567,888.247130,-8810.098227,-666.185348
5675.333891,740.205942,-8273.831378,-444.123565
5675.334216,666.185348,-8733.488677,-444.123565
5675.334540,666.185348,-8427.050478,-666.185348
5675.334864,962.267725,-8810.098227,-814.226536
5675.335188,740.205942,-8503.660028,-518.144159
5675.335513,444.123565,-8580.269578,-666.185348
5675.335837,0.000000,-8580.269578,74.020594
5675.336161,518.144159,-8810.098227,-296.082377
5675.336486,592.164754,-8273.831378,-592.164754
5675.336810,444.123565,-8656.879127,-592.164754
5675.337134,444.123565,-8120.612279,-222.061783
5675.337458,518.144159,-8273.831378,-370.102971
5675.337783,148.041188,-9116.536426,0.000000
5675.338107,222.061783,-8580.269578,0.000000
5675.338431,444.123565,-8120.612279,-518.144159
5675.338756,296.082377,-8580.269578,-370.102971
5675.339080,444.123565,-8503.660028,0.000000
5675.339404,296.082377,-8503.660028,-222.061783
5675.339728,148.041188,-8273.831378,-296.082377
5675.340053,74.020594,-8427.050478,-518.144159
5675.340377,222.061783,-8427.050478,-370.102971
5675.340701,740.205942,-8120.612279,0.000000
5675.341025,74.020594,-8427.050478,-222.061783
5675.341350,296.082377,-8350.440928,-222.061783
5675.341674,74.020594,-8350.440928,0.000000
5675.341998,148.041188,-8197.221829,370.102971
5675.342323,518.144159,-8273.831378,-222.061783
5675.342647,296.082377,-8350.440928,0.000000
5675.342971,518.144159,-8350.440928,0.000000
5675.343295,148.041188,-7967.393179,0.000000
5675.343620,518.144159,-8656.879127,-370.102971
5675.343944,370.102971,-8580.269578,148.041188
5675.344268,296.082377,-8427.050478,0.000000
5675.344592,296.082377,-8886.707777,0.000000
5675.344917,370.102971,-8427.050478,222.061783
5675.345241,370.102971,-8810.098227,0.000000
5675.345565,296.082377,-8810.098227,74.020594
5675.345890,370.102971,-8503.660028,74.020594
5675.346214,740.205942,-8733.488677,0.000000
5675.346538,444.123565,-8503.660028,148.041188
5675.346862,148.041188,-8427.050478,0.000000
5675.347187,370.102971,-8810.098227,0.000000
5675.347511,518.144159,-9269.755526,0.000000
5675.347835,296.082377,-8503.660028,0.000000
5675.348159,0.000000,-8656.879127,148.041188
5675.348484,148.041188,-8580.269578,74.020594
5675.348808,296.082377,-8733.488677,0.000000
5675.349132,148.041188,-8963.317327,222.061783
5675.349457,74.020594,-8810.098227,0.000000
5675.349781,518.144159,-8503.660028,0.000000
5675.350105,296.082377,-8886.707777,-222.061783
5675.350429,0.000000,-9039.926876,518.144159
5675.350754,222.061783,-8810.098227,-148.041188
5675.351078,296.082377,-8427.050478,-222.061783
5675.351402,148.041188,-8656.879127,-296.082377
5675.351727,74.020594,-8886.707777,0.000000
5675.352051,518.144159,-8503.660028,-370.102971
5675.352375,444.123565,-8810.098227,-296.082377
5675.352699,444.123565,-8733.488677,-370.102971
5675.353024,296.082377,-8503.660028,0.000000
5675.353348,814.226536,-8580.269578,-222.061783
5675.353672,444.123565,-8503.660028,-148.041188
5675.353996,592.164754,-9039.926876,-370.102971
5675.354321,148.041188,-8580.269578,-148.041188
5675.354645,592.164754,-8503.660028,518.144159
5675.354969,0.000000,-8810.098227,-222.061783
5675.355294,222.061783,-8656.879127,74.020594
5675.355618,222.061783,-8427.050478,-148.041188
5675.355942,444.123565,-8810.098227,-296.082377
5675.356266,518.144159,-8810.098227,74.020594
5675.356591,296.082377,-8503.660028,0.000000
5675.356915,296.082377,-8656.879127,0.000000
5675.357239,296.082377,-8503.660028,-222.061783
5675.357563,370.102971,-9039.926876,0.000000
5675.357888,222.061783,-8580.269578,0.000000
5675.358212,222.061783,-8044.002729,-296.082377
5675.358536,0.000000,-8580.269578,0.000000
5675.358861,222.061783,-8503.660028,0.000000
5675.359185,296.082377,-8656.879127,-222.061783
5675.359509,444.123565,-8120.612279,-296.082377
5675.359833,444.123565,-8273.831378,-222.061783
5675.360158,370.102971,-8350.440928,0.000000
5675.360482,0.000000,-8427.050478,74.020594
5675.360806,222.061783,-8273.831378,-222.061783
5675.361130,370.102971,-8427.050478,-222.061783
5675.361455,74.020594,-8197.221829,0.000000
5675.361779,296.082377,-7737.564530,296.082377
5675.362103,296.082377,-8580.269578,0.000000
5675.362428,296.082377,-8350.440928,0.000000
5675.362752,592.164754,-8503.660028,0.000000
5675.363076,296.082377,-8733.488677,-296.082377
5675.363400,592.164754,-8810.098227,-222.061783
5675.363725,370.102971,-8427.050478,0.000000
5675.364049,370.102971,-8733.488677,0.000000
5675.364373,222.061783,-8733.488677,0.000000
5675.364697,518.144159,-8656.879127,0.000000
5675.365022,444.123565,-7967.393179,148.041188
5675.365346,444.123565,-8427.050478,0.000000
5675.365670,370.102971,-8273.831378,74.020594
5675.365995,1332.370696,-8963.317327,0.000000
5675.366319,444.123565,-8580.269578,0.000000
5675.366643,518.144159,-8656.879127,74.020594
5675.366967,370.102971,-8427.050478,0.000000
5675.367292,592.164754,-8886.707777,222.061783
5675.367616,444.123565,-8580.269578,-370.102971
5675.367940,518.144159,-8810.098227,-148.041188
5675.368265,444.123565,-8733.488677,-370.102971
5675.368589,518.144159,-9039.926876,0.000000
5675.368913,592.164754,-9116.536426,0.000000
5675.369237,666.185348,-8886.707777,0.000000
5675.369562,296.082377,-9039.926876,-74.020594
5675.369886,296.082377,-8810.098227,0.000000
5675.370210,592.164754,-8350.440928,222.061783
5675.370534,222.061783,-8733.488677,0.000000
5675.370859,222.061783,-8733.488677,-222.061783
5675.371183,370.102971,-8733.488677,-148.041188
5675.371507,592.164754,-8886.707777,-296.082377
5675.371832,518.144159,-8580.269578,0.000000
5675.372156,444.123565,-8810.098227,-222.061783
5675.372480,518.144159,-8886.707777,-148.041188
5675.372804,444.123565,-8580.269578,0.000000
5675.373129,666.185348,-8580.269578,-148.041188
5675.373453,444.123565,-8580.269578,-444.123565
5675.373777,222.061783,-8580.269578,0.000000
5675.374101,222.061783,-8580.269578,0.000000
5675.374426,814.226536,-8810.098227,148.041188
5675.374750,518.144159,-8580.269578,-296.082377
5675.375074,666.185348,-8886.707777,0.000000
5675.375399,444.123565,-8273.831378,0.000000
5675.375723,370.102971,-8656.879127,0.000000
5675.376047,666.185348,-8197.221829,-148.041188
5675.376371,888.247130,-8580.269578,-222.061783
5675.376696,592.164754,-8503.660028,-370.102971
5675.377020,518.144159,-8427.050478,0.000000
5675.377344,814.226536,-8427.050478,-740.205942
5675.377668,444.123565,-8350.440928,0.000000
5675.377993,444.123565,-8503.660028,-444.123565
5675.378317,444.123565,-8580.269578,0.000000
5675.378641,814.226536,-7890.783629,0.000000
5675.378966,592.164754,-8427.050478,-148.041188
5675.379290,444.123565,-8503.660028,-370.102971
5675.379614,370.102971,-8733.488677,-148.041188
5675.379938,592.164754,-8273.831378,-296.082377
5675.380263,888.247130,-8350.440928,-592.164754
5675.380587,296.082377,-8427.050478,-296.082377
5675.380911,444.123565,-8810.098227,-296.082377
5675.381236,296.082377,-8656.879127,-370.102971
5675.381560,592.164754,-8963.317327,-148.041188
5675.381884,518.144159,-8656.879127,-370.102971
5675.382208,370.102971,-8273.831378,-222.061783
5675.382533,148.041188,-8350.440928,-444.123565
5675.382857,370.102971,-8656.879127,-518.144159
5675.383181,888.247130,-8350.440928,-592.164754
5675.383505,592.164754,-8427.050478,-518.144159
5675.383830,592.164754,-8197.221829,-740.205942
5675.384154,444.123565,-8503.660028,-592.164754
5675.384478,296.082377,-8427.050478,-666.185348
5675.384803,518.144159,-8427.050478,-814.226536
5675.385127,296.082377,-8273.831378,-592.164754
5675.385451,444.123565,-8503.660028,-814.226536
5675.385775,592.164754,-8273.831378,-962.267725
5675.386100,296.082377,-8580.269578,-888.247130
5675.386424,370.102971,-8580.269578,-592.164754
5675.386748,296.082377,-8427.050478,-518.144159
5675.387072,518.144159,-8733.488677,-888.247130
5675.387397,518.144159,-8580.269578,-666.185348
5675.387721,444.123565,-8503.660028,-444.123565
5675.388045,518.144159,-8886.707777,-444.123565
5675.388370,592.164754,-8503.660028,-518.144159
5675.388694,592.164754,-8886.707777,-888.247130
5675.389018,222.061783,-8503.660028,-592.164754
5675.389342,370.102971,-8350.440928,-592.164754
5675.389667,148.041188,-8963.317327,-814.226536
5675.389991,518.144159,-8273.831378,-444.123565
5675.390315,740.205942,-8273.831378,-666.185348
5675.390639,592.164754,-8733.488677,-518.144159
5675.390964,444.123565,-8427.050478,-370.102971
5675.391288,370.102971,-8503.660028,-222.061783
5675.391612,222.061783,-8503.660028,-370.102971
5675.391937,592.164754,-8427.050478,-518.144159
5675.392261,666.185348,-8580.269578,-518.144159
5675.392585,814.226536,-8503.660028,-592.164754
5675.392909,518.144159,-8503.660028,-518.144159
5675.393234,148.041188,-8733.488677,-222.061783
5675.393558,592.164754,-8580.269578,-222.061783
5675.393882,296.082377,-8503.660028,-444.123565
5675.394207,518.144159,-9499.584175,0.000000
5675.394531,148.041188,-8503.660028,-370.102971
5675.394855,592.164754,-8810.098227,0.000000
5675.395179,370.102971,-8350.440928,-148.041188
5675.395504,592.164754,-8503.660028,-222.061783
5675.395828,370.102971,-8963.317327,0.000000
5675.396152,222.061783,-8503.660028,0.000000
5675.396476,370.102971,-8580.269578,-296.082377
5675.396801,296.082377,-8503.660028,-148.041188
5675.397125,740.205942,-8733.488677,0.000000
5675.397449,518.144159,-8503.660028,-444.123565
5675.397774,296.082377,-8427.050478,-148.041188
5675.398098,222.061783,-8427.050478,-518.144159
5675.398422,370.102971,-8580.269578,-296.082377
5675.398746,222.061783,-8197.221829,-370.102971
5675.399071,518.144159,-8656.879127,-444.123565
5675.399395,666.185348,-8350.440928,-592.164754
5675.399719,296.082377,-8350.440928,-222.061783
5675.400043,518.144159,-8427.050478,-222.061783
5675.400368,444.123565,-8427.050478,-370.102971
5675.400692,296.082377,-8427.050478,-296.082377
5675.401016,296.082377,-8656.879127,-888.247130
5675.401341,444.123565,-9193.145976,-888.247130
5675.401665,518.144159,-8350.440928,-666.185348
5675.401989,518.144159,-8350.440928,-518.144159
5675.402313,148.041188,-8427.050478,-666.185348
5675.402638,444.123565,-8503.660028,-592.164754
5675.402962,444.123565,-8427.050478,-296.082377
5675.403286,518.144159,-8503.660028,-518.144159
5675.403610,222.061783,-8733.488677,-592.164754
5675.403935,592.164754,-8503.660028,-592.164754
5675.404259,148.041188,-8886.707777,-740.205942
5675.404583,296.082377,-8580.269578,-740.205942
5675.404908,518.144159,-8580.269578,-740.205942
5675.405232,444.123565,-8656.879127,-740.205942
5675.405556,592.164754,-8503.660028,-888.247130
5675.405880,222.061783,-8503.660028,-962.267725
5675.406205,666.185348,-8733.488677,-962.267725
5675.406529,444.123565,-8427.050478,-888.247130
5675.406853,518.144159,-8656.879127,-888.247130
5675.407177,0.000000,-8656.879127,-814.226536
5675.407502,518.144159,-8810.098227,-888.247130
5675.407826,222.061783,-8810.098227,-814.226536
5675.408150,592.164754,-8733.488677,-740.205942
5675.408475,666.185348,-7814.174080,-740.205942
5675.408799,666.185348,-8580.269578,-962.267725
5675.409123,518.144159,-8197.221829,-962.267725
5675.409447,592.164754,-8427.050478,-888.247130
5675.409772,666.185348,-8733.488677,-740.205942
5675.410096,74.020594,-8273.831378,-666.185348
5675.410420,0.000000,-8503.660028,-888.247130
5675.410744,222.061783,-8656.879127,-962.267725
5675.411069,666.185348,-8503.660028,-592.164754
5675.411393,74.020594,-8733.488677,-888.247130
5675.411717,444.123565,-8197.221829,-592.164754
5675.412041,592.164754,-8427.050478,-518.144159
5675.412366,740.205942,-8427.050478,-296.082377
5675.412690,518.144159,-7814.174080,-740.205942
5675.413014,518.144159,-8427.050478,-666.185348
5675.413339,518.144159,-8273.831378,-296.082377
5675.413663,148.041188,-8503.660028,-222.061783
5675.413987,222.061783,-8503.660028,-666.185348
5675.414311,518.144159,-8350.440928,-296.082377
5675.414636,666.185348,-8580.269578,-444.123565
5675.414960,592.164754,-8963.317327,-222.061783
5675.415284,518.144159,-8656.879127,0.000000
5675.415608,518.144159,-9116.536426,-148.041188
5675.415933,370.102971,-8580.269578,-222.061783
5675.416257,296.082377,-8350.440928,-370.102971
5675.416581,518.144159,-8886.707777,-296.082377
5675.416905,0.000000,-8733.488677,0.000000
5675.417230,444.123565,-8656.879127,-296.082377
5675.417554,592.164754,-8580.269578,-296.082377
5675.417878,444.123565,-8427.050478,-222.061783
5675.418203,518.144159,-8963.317327,-370.102971
5675.418527,148.041188,-8580.269578,0.000000
5675.418851,370.102971,-8656.879127,74.020594
5675.419175,518.144159,-8886.707777,0.000000
5675.419500,296.082377,-8197.221829,-296.082377
5675.419824,-148.041188,-8580.269578,0.000000
5675.420148,370.102971,-8733.488677,-370.102971
5675.420472,296.082377,-8580.269578,0.000000
5675.420797,370.102971,-8656.879127,-370.102971
5675.421121,370.102971,-8580.269578,0.000000
5675.421445,370.102971,-8580.269578,-296.082377
5675.421769,444.123565,-8810.098227,-518.144159
5675.422094,222.061783,-8580.269578,-444.123565
5675.422418,444.123565,-8733.488677,-444.123565
5675.422742,148.041188,-8427.050478,-222.061783
5675.423067,222.061783,-8503.660028,-518.144159
5675.423391,148.041188,-8656.879127,-592.164754
5675.423715,370.102971,-8656.879127,-444.123565
5675.424039,444.123565,-8197.221829,0.000000
5675.424364,0.000000,-8886.707777,-370.102971
5675.424688,370.102971,-8886.707777,-740.205942
5675.425012,296.082377,-8580.269578,-518.144159
5675.425336,592.164754,-8656.879127,-666.185348
5675.425661,370.102971,-8427.050478,-814.226536
5675.425985,444.123565,-8656.879127,-962.267725
5675.426309,222.061783,-8733.488677,-888.247130
5675.426633,444.123565,-8733.488677,-592.164754
5675.426958,814.226536,-8886.707777,-962.267725
5675.427282,592.164754,-8427.050478,-888.247130
5675.427606,814.226536,-8580.269578,-1110.308913
5675.427931,370.102971,-8886.707777,-740.205942
5675.428255,888.247130,-8733.488677,-740.205942
5675.428579,518.144159,-8503.660028,-740.205942
5675.428903,370.102971,-8733.488677,-518.144159
5675.429228,444.123565,-8656.879127,-814.226536
5675.429552,518.144159,-9269.755526,-666.185348
5675.429876,518.144159,-8350.440928,-518.144159
5675.430200,592.164754,-8427.050478,-592.164754
5675.430525,518.144159,-8733.488677,-740.205942
5675.430849,444.123565,-8656.879127,-296.082377
5675.431173,296.082377,-8733.488677,-666.185348
5675.431497,444.123565,-8810.098227,-518.144159
5675.431822,444.123565,-8350.440928,-740.205942
5675.432146,444.123565,-8503.660028,-444.123565
5675.432470,444.123565,-9116.536426,-666.185348
5675.432795,518.144159,-8580.269578,-444.123565
5675.433119,370.102971,-8580.269578,-444.123565
5675.433443,370.102971,-8427.050478,-518.144159
5675.433767,592.164754,-8503.660028,-666.185348
5675.434092,740.205942,-8503.660028,-370.102971
5675.434416,518.144159,-8273.831378,-592.164754
5675.434740,444.123565,-8580.269578,-296.082377
5675.435064,518.144159,-8580.269578,-444.123565
5675.435389,1110.308913,-8810.098227,-814.226536
5675.435713,444.123565,-8580.269578,-518.144159
5675.436037,296.082377,-8580.269578,-296.082377
5675.436361,222.061783,-8503.660028,-148.041188
5675.436686,592.164754,-8886.707777,-444.123565
5675.437010,518.144159,-8656.879127,-222.061783
5675.437334,740.205942,-8580.269578,-444.123565
5675.437659,518.144159,-8427.050478,-296.082377
5675.437983,444.123565,-8350.440928,0.000000
5675.438307,444.123565,-8733.488677,-296.082377
5675.438631,518.144159,-8503.660028,-444.123565
5675.438956,518.144159,-8733.488677,-296.082377
5675.439280,296.082377,-8350.440928,-222.061783
5675.439604,444.123565,-8427.050478,74.020594
5675.439928,296.082377,-8656.879127,-222.061783
5675.440253,444.123565,-8656.879127,0.000000
5675.440577,518.144159,-8580.269578,-370.102971
5675.440901,444.123565,-8810.098227,-222.061783
5675.441225,370.102971,-8580.269578,-296.082377
5675.441550,222.061783,-8656.879127,0.000000
5675.441874,592.164754,-8733.488677,-296.082377
5675.442198,444.123565,-8427.050478,-370.102971
5675.442523,1110.308913,-8733.488677,-444.123565
5675.442847,296.082377,-8733.488677,-444.123565
5675.443171,148.041188,-8733.488677,0.000000
5675.443495,148.041188,-8580.269578,0.000000
5675.443820,1036.288319,-8810.098227,-296.082377
5675.444144,370.102971,-8886.707777,-148.041188
5675.444468,222.061783,-8886.707777,-148.041188
5675.444792,222.061783,-8503.660028,-222.061783
5675.445117,74.020594,-8733.488677,-296.082377
5675.445441,592.164754,-8580.269578,-370.102971
5675.445765,666.185348,-8810.098227,-370.102971
5675.446089,666.185348,-8733.488677,-592.164754
5675.446414,148.041188,-8963.317327,-296.082377
5675.446738,592.164754,-8733.488677,-370.102971
5675.447062,148.041188,-8733.488677,0.000000
5675.447387,222.061783,-8810.098227,-444.123565
5675.447711,148.041188,-8733.488677,-296.082377
5675.448035,666.185348,-8044.002729,222.061783
5675.448359,74.020594,-8580.269578,0.000000
5675.448684,296.082377,-8810.098227,0.000000
5675.449008,444.123565,-8427.050478,-296.082377
5675.449332,444.123565,-8580.269578,-222.061783
5675.449656,222.061783,-8656.879127,0.000000
5675.449981,74.020594,-8427.050478,0.000000
5675.450305,518.144159,-8580.269578,0.000000
5675.450629,74.020594,-8427.050478,-370.102971
5675.450953,962.267725,-8503.660028,-296.082377
5675.451278,296.082377,-8656.879127,0.000000
5675.451602,444.123565,-8580.269578,0.000000
5675.451926,74.020594,-8580.269578,-222.061783
5675.452251,518.144159,-8503.660028,-148.041188
5675.452575,592.164754,-8273.831378,0.000000
5675.452899,518.144159,-8503.660028,-296.082377
5675.453223,370.102971,-8427.050478,-370.102971
5675.453548,444.123565,-8197.221829,-222.061783
5675.453872,296.082377,-8503.660028,-296.082377
5675.454196,296.082377,-8350.440928,-370.102971
5675.454520,740.205942,-8733.488677,0.000000
5675.454845,592.164754,-8580.269578,-444.123565
5675.455169,740.205942,-8810.098227,0.000000
5675.455493,370.102971,-8656.879127,-444.123565
5675.455817,370.102971,-8503.660028,0.000000
5675.456142,666.185348,-8503.660028,-148.041188
5675.456466,1036.288319,-8733.488677,-148.041188
5675.456790,222.061783,-8733.488677,-148.041188
5675.457115,222.061783,-8963.317327,0.000000
5675.457439,296.082377,-8810.098227,-370.102971
5675.457763,518.144159,-8350.440928,-296.082377
5675.458087,444.123565,-8656.879127,-370.102971
5675.458412,814.226536,-8580.269578,-444.123565
5675.458736,148.041188,-8580.269578,-296.082377
5675.459060,296.082377,-8580.269578,-222.061783
5675.459384,518.144159,-8503.660028,0.000000
5675.459709,370.102971,-8503.660028,-518.144159
5675.460033,370.102971,-8580.269578,-592.164754
5675.460357,296.082377,-8503.660028,-370.102971
5675.460681,74.020594,-7737.564530,-222.061783
5675.461006,518.144159,-8503.660028,-370.102971
5675.461330,444.123565,-8810.098227,-370.102971
5675.461654,592.164754,-8963.317327,-296.082377
5675.461979,518.144159,-8427.050478,-222.061783
5675.462303,0.000000,-8733.488677,0.000000
5675.462627,370.102971,-8580.269578,0.000000
5675.462951,222.061783,-8503.660028,-370.102971
5675.463276,296.082377,-8810.098227,-74.020594
5675.463600,592.164754,-9193.145976,-148.041188
5675.463924,222.061783,-8733.488677,-148.041188
5675.464248,370.102971,-8886.707777,148.041188
5675.464573,518.144159,-8350.440928,0.000000
5675.464897,740.205942,-8810.098227,0.000000
5675.465221,444.123565,-8427.050478,0.000000
5675.465546,370.102971,-8427.050478,148.041188
5675.465870,518.144159,-8656.879127,-148.041188
5675.466194,444.123565,-8503.660028,74.020594
5675.466518,74.020594,-8503.660028,0.000000
5675.466843,518.144159,-8656.879127,0.000000
5675.467167,370.102971,-8503.660028,296.082377
5675.467491,666.185348,-8733.488677,0.000000
5675.467815,444.123565,-8427.050478,0.000000
5675.468140,370.102971,-8197.221829,222.061783
5675.468464,518.144159,-9039.926876,0.000000
5675.468788,370.102971,-8427.050478,0.000000
5675.469112,370.102971,-8120.612279,0.000000
5675.469437,296.082377,-8810.098227,0.000000
5675.469761,370.102971,-8503.660028,0.000000
5675.470085,518.144159,-8580.269578,0.000000
5675.470410,592.164754,-8503.660028,0.000000
5675.470734,518.144159,-8886.707777,74.020594
5675.471058,0.000000,-8580.269578,0.000000
5675.471382,444.123565,-8427.050478,74.020594
5675.471707,296.082377,-8580.269578,-222.061783
5675.472031,666.185348,-9346.365076,-296.082377
5675.472355,296.082377,-8044.002729,0.000000
5675.472679,0.000000,-8656.879127,0.000000
5675.473004,0.000000,-8656.879127,-370.102971
5675.473328,444.123565,-8503.660028,0.000000
5675.473652,296.082377,-8580.269578,-370.102971
5675.473976,518.144159,-8580.269578,-148.041188
5675.474301,370.102971,-8503.660028,-518.144159
5675.474625,296.082377,-8733.488677,-296.082377
5675.474949,0.000000,-8197.221829,370.102971
5675.475274,296.082377,-8810.098227,-370.102971
5675.475598,592.164754,-8810.098227,-740.205942
5675.475922,370.102971,-8350.440928,0.000000
5675.476246,444.123565,-8503.660028,-296.082377
5675.476571,444.123565,-8580.269578,-296.082377
5675.476895,592.164754,-8427.050478,-296.082377
5675.477219,222.061783,-8503.660028,0.000000
5675.477543,518.144159,-8810.098227,0.000000
5675.477868,518.144159,-8580.269578,-370.102971
5675.478192,666.185348,-8656.879127,0.000000
5675.478516,296.082377,-8503.660028,-148.041188
5675.478840,444.123565,-8963.317327,-518.144159
5675.479165,74.020594,-8427.050478,-296.082377
5675.479489,370.102971,-8503.660028,-148.041188
5675.479813,222.061783,-8503.660028,-370.102971
5675.480138,444.123565,-8580.269578,-444.123565
5675.480462,148.041188,-8886.707777,-370.102971
5675.480786,814.226536,-8810.098227,-296.082377
5675.481110,370.102971,-8733.488677,-666.185348
5675.481435,444.123565,-8733.488677,-518.144159
5675.481759,518.144159,-8503.660028,-740.205942
5675.482083,666.185348,-8656.879127,-518.144159
5675.482407,666.185348,-8733.488677,-814.226536
5675.482732,888.247130,-8197.221829,-444.123565
5675.483056,740.205942,-8273.831378,-518.144159
5675.483380,222.061783,-9269.755526,0.000000
5675.483704,666.185348,-8350.440928,-296.082377
5675.484029,370.102971,-8656.879127,-518.144159
5675.484353,518.144159,-8580.269578,-444.123565
5675.484677,222.061783,-8656.879127,-296.082377
5675.485002,518.144159,-8350.440928,-444.123565
5675.485326,370.102971,-8350.440928,-296.082377
5675.485650,518.144159,-8656.879127,-370.102971
5675.485974,518.144159,-8656.879127,0.000000
5675.486299,814.226536,-8350.440928,0.000000
5675.486623,370.102971,-8733.488677,0.000000
5675.486947,518.144159,-8656.879127,-222.061783
5675.487271,592.164754,-8427.050478,-296.082377
5675.487596,666.185348,-8733.488677,-148.041188
5675.487920,518.144159,-8810.098227,0.000000
5675.488244,370.102971,-8503.660028,0.000000
5675.488568,370.102971,-8733.488677,0.000000
5675.488893,518.144159,-8350.440928,-444.123565
5675.489217,370.102971,-8733.488677,-296.082377
5675.489541,666.185348,-8427.050478,-296.082377
5675.489866,296.082377,-8503.660028,0.000000
5675.490190,222.061783,-8656.879127,-518.144159
5675.490514,370.102971,-8810.098227,74.020594
5675.490838,518.144159,-8656.879127,-444.123565
5675.491163,222.061783,-8427.050478,-518.144159
5675.491487,666.185348,-8580.269578,-370.102971
5675.491811,518.144159,-8656.879127,222.061783
5675.492135,592.164754,-8580.269578,-148.041188
5675.492460,444.123565,-8886.707777,-222.061783
5675.492784,444.123565,-8886.707777,-370.102971
5675.493108,370.102971,-8427.050478,-222.061783
5675.493432,222.061783,-8580.269578,-296.082377
5675.493757,444.123565,-8656.879127,-296.082377
5675.494081,592.164754,-8427.050478,-296.082377
5675.494405,592.164754,-8733.488677,-370.102971
5675.494730,888.247130,-9116.536426,-296.082377
5675.495054,740.205942,-8733.488677,-222.061783
5675.495378,444.123565,-8656.879127,-296.082377
5675.495702,444.123565,-8503.660028,0.000000
5675.496027,444.123565,-8733.488677,-148.041188
5675.496351,148.041188,-8427.050478,-148.041188
5675.496675,148.041188,-8427.050478,-222.061783
5675.496999,148.041188,-8580.269578,-296.082377
5675.497324,296.082377,-8656.879127,0.000000
5675.497648,444.123565,-8733.488677,0.000000
5675.497972,592.164754,-8810.098227,-444.123565
5675.498296,518.144159,-8886.707777,-370.102971
5675.498621,296.082377,-8580.269578,-222.061783
5675.498945,888.247130,-8886.707777,-296.082377
5675.499269,444.123565,-8350.440928,-444.123565
5675.499594,518.144159,-8656.879127,-740.205942
5675.499918,518.144159,-8733.488677,-666.185348
5675.500242,296.082377,-8503.660028,-592.164754
5675.500566,370.102971,-8580.269578,-296.082377
5675.500891,444.123565,-8656.879127,-740.205942
5675.501215,296.082377,-8580.269578,-592.164754
5675.501539,444.123565,-8503.660028,-518.144159
5675.501863,740.205942,-8350.440928,-518.144159
5675.502188,296.082377,-8580.269578,-222.061783
5675.502512,370.102971,-8503.660028,-592.164754
5675.502836,592.164754,-8580.269578,-592.164754
5675.503160,444.123565,-8273.831378,-370.102971
5675.503485,370.102971,-8273.831378,-518.144159
5675.503809,518.144159,-8503.660028,-444.123565
5675.504133,222.061783,-8580.269578,-370.102971
5675.504458,518.144159,-8580.269578,-518.144159
5675.504782,296.082377,-8350.440928,-222.061783
5675.505106,666.185348,-8580.269578,-518.144159
5675.505430,0.000000,-8580.269578,-148.041188
5675.505755,518.144159,-8503.660028,-222.061783
5675.506079,518.144159,-8120.612279,-518.144159
5675.506403,592.164754,-8503.660028,-518.144159
5675.506728,370.102971,-8733.488677,-444.123565
5675.507052,592.164754,-8273.831378,-444.123565
5675.507376,1110.308913,-8503.660028,-518.144159
5675.507701,444.123565,-8656.879127,-296.082377
5675.508025,740.205942,-8503.660028,-666.185348
5675.508349,444.123565,-8580.269578,-666.185348
5675.508674,518.144159,-8733.488677,-592.164754
5675.508998,222.061783,-8656.879127,-666.185348
5675.509322,444.123565,-8350.440928,-740.205942
5675.509647,296.082377,-8427.050478,-592.164754
5675.509971,444.123565,-8963.317327,-518.144159
5675.510295,962.267725,-8580.269578,-1036.288319
5675.510620,518.144159,-8273.831378,-370.102971
5675.510944,518.144159,-8810.098227,-370.102971
5675.511268,296.082377,-8656.879127,-222.061783
5675.511593,592.164754,-7890.783629,-370.102971
5675.511917,296.082377,-8656.879127,-666.185348
5675.512242,444.123565,-8810.098227,-518.144159
5675.512566,148.041188,-8427.050478,0.000000
5675.512890,370.102971,-8350.440928,-148.041188
5675.513215,370.102971,-8580.269578,-666.185348
5675.513539,444.123565,-8810.098227,-518.144159
5675.513863,592.164754,-8503.660028,-296.082377
5675.514188,518.144159,-8350.440928,-370.102971
5675.514512,592.164754,-9499.584175,0.000000
5675.514836,370.102971,-8427.050478,-444.123565
5675.515161,444.123565,-8733.488677,-296.082377
5675.515485,296.082377,-8503.660028,-518.144159
5675.515809,222.061783,-8810.098227,-370.102971
5675.516134,444.123565,-8350.440928,-370.102971
5675.516458,444.123565,-8733.488677,-370.102971
5675.516782,222.061783,-8427.050478,-814.226536
5675.517107,518.144159,-8886.707777,-518.144159
5675.517431,740.205942,-8044.002729,-666.185348
5675.517755,370.102971,-8656.879127,-518.144159
5675.518080,296.082377,-8503.660028,-518.144159
5675.518404,592.164754,-8656.879127,-666.185348
5675.518728,518.144159,-9039.926876,-1110.308913
5675.519053,666.185348,-8580.269578,-592.164754
5675.519377,518.144159,-8427.050478,-740.205942
5675.519701,592.164754,-8810.098227,-592.164754
5675.520026,518.144159,-8810.098227,-666.185348
5675.520350,518.144159,-8810.098227,-666.185348
5675.520674,592.164754,-8656.879127,-518.144159
5675.520999,370.102971,-8427.050478,-592.164754
5675.521323,296.082377,-8886.707777,-666.185348
5675.521647,518.144159,-9116.536426,-1036.288319
5675.521972,592.164754,-8810.098227,-518.144159
5675.522296,444.123565,-8656.879127,-592.164754
5675.522620,518.144159,-8656.879127,-370.102971
5675.522945,740.205942,-9269.755526,-444.123565
5675.523269,444.123565,-8580.269578,-444.123565
5675.523593,296.082377,-8656.879127,-740.205942
5675.523918,444.123565,-8810.098227,-666.185348
5675.524242,296.082377,-8273.831378,-666.185348
5675.524566,0.000000,-8427.050478,-296.082377
5675.524891,370.102971,-8273.831378,-666.185348
5675.525215,296.082377,-8503.660028,-666.185348
5675.525540,666.185348,-8656.879127,-666.185348
5675.525864,0.000000,-8350.440928,-592.164754
5675.526188,518.144159,-8427.050478,-370.102971
5675.526513,296.082377,-8427.050478,-444.123565
5675.526837,444.123565,-8273.831378,-444.123565
5675.527161,518.144159,-8273.831378,-666.185348
5675.527486,592.164754,-8503.660028,-962.267725
5675.527810,592.164754,-8273.831378,-518.144159
5675.528134,222.061783,-8656.879127,-518.144159
5675.528459,666.185348,-8580.269578,-592.164754
5675.528783,444.123565,-8810.098227,-370.102971
5675.529107,814.226536,-8733.488677,-666.185348
5675.529432,296.082377,-8503.660028,-222.061783
5675.529756,444.123565,-8580.269578,-296.082377
5675.530080,444.123565,-9039.926876,222.061783
5675.530405,666.185348,-8350.440928,-222.061783
5675.530729,444.123565,-8580.269578,-518.144159
5675.531053,740.205942,-8580.269578,0.000000
5675.531378,444.123565,-8886.707777,-222.061783
5675.531702,370.102971,-8580.269578,0.000000
5675.532026,444.123565,-8503.660028,-148.041188
5675.532351,666.185348,-8427.050478,-222.061783
5675.532675,222.061783,-8503.660028,-222.061783
5675.532999,444.123565,-8427.050478,0.000000
5675.533324,370.102971,-8503.660028,-296.082377
5675.533648,444.123565,-8503.660028,-148.041188
5675.533972,370.102971,-8886.707777,-296.082377
5675.534297,74.020594,-8963.317327,0.000000
5675.534621,444.123565,-8350.440928,-296.082377
5675.534945,222.061783,-8427.050478,-444.123565
5675.535270,444.123565,-8656.879127,-444.123565
5675.535594,444.123565,-8656.879127,-592.164754
5675.535918,666.185348,-8810.098227,-444.123565
5675.536243,444.123565,-8273.831378,-592.164754
5675.536567,518.144159,-8580.269578,-444.123565
5675.536891,370.102971,-8427.050478,-444.123565
5675.537216,814.226536,-8656.879127,-370.102971
5675.537540,444.123565,-8580.269578,-740.205942
5675.537864,370.102971,-8963.317327,-444.123565
5675.538189,518.144159,-8350.440928,-296.082377
5675.538513,666.185348,-9346.365076,222.061783
5675.538837,296.082377,-8810.098227,-222.061783
5675.539162,370.102971,-8580.269578,-148.041188
5675.539486,370.102971,-8810.098227,-222.061783
5675.539811,370.102971,-8580.269578,-370.102971
5675.540135,666.185348,-8810.098227,-296.082377
5675.540459,592.164754,-8503.660028,0.000000
5675.540784,518.144159,-8810.098227,-222.061783
5675.541108,296.082377,-8886.707777,-518.144159
5675.541432,962.267725,-8656.879127,-296.082377
5675.541757,444.123565,-8427.050478,-296.082377
5675.542081,296.082377,-8810.098227,-148.041188
5675.542405,444.123565,-8503.660028,-296.082377
5675.542730,740.205942,-8044.002729,-148.041188
5675.543054,444.123565,-8810.098227,-444.123565
5675.543378,370.102971,-8503.660028,-592.164754
5675.543703,296.082377,-8656.879127,-296.082377
5675.544027,370.102971,-8503.660028,-518.144159
5675.544351,666.185348,-8120.612279,-518.144159
5675.544676,370.102971,-8273.831378,-592.164754
5675.545000,444.123565,-8350.440928,-444.123565
5675.545324,444.123565,-8656.879127,-518.144159
5675.545649,222.061783,-8580.269578,-74.020594
5675.545973,0.000000,-8503.660028,-518.144159
5675.546297,296.082377,-8656.879127,-296.082377
5675.546622,296.082377,-8503.660028,-370.102971
5675.546946,444.123565,-7660.954980,-148.041188
5675.547270,370.102971,-8733.488677,0.000000
5675.547595,666.185348,-8580.269578,0.000000
5675.547919,592.164754,-8580.269578,0.000000
5675.548243,740.205942,-8427.050478,-296.082377
5675.548568,666.185348,-8350.440928,74.020594
5675.548892,148.041188,-8580.269578,-148.041188
5675.549216,518.144159,-8733.488677,-222.061783
5675.549541,296.082377,-8503.660028,-148.041188
5675.549865,962.267725,-9269.755526,-444.123565
5675.550189,444.123565,-8273.831378,-222.061783
5675.550514,518.144159,-8733.488677,-148.041188
5675.550838,592.164754,-8197.221829,-148.041188
5675.551162,518.144159,-8273.831378,-296.082377
5675.551487,370.102971,-8810.098227,-370.102971
5675.551811,740.205942,-8273.831378,-370.102971
5675.552135,666.185348,-8427.050478,-296.082377
5675.552460,370.102971,-8580.269578,-518.144159
5675.552784,518.144159,-8427.050478,-666.185348
5675.553109,518.144159,-8503.660028,-592.164754
5675.553433,814.226536,-8810.098227,-518.144159
5675.553757,444.123565,-8427.050478,-518.144159
5675.554082,666.185348,-9116.536426,-518.144159
5675.554406,444.123565,-8427.050478,-518.144159
5675.554730,296.082377,-8886.707777,-296.082377
5675.555055,222.061783,-8427.050478,-370.102971
5675.555379,444.123565,-8580.269578,-370.102971
5675.555703,222.061783,-8580.269578,-666.185348
5675.556028,370.102971,-8886.707777,0.000000
5675.556352,592.164754,-8350.440928,-518.144159
5675.556676,518.144159,-8656.879127,-518.144159
5675.557001,518.144159,-9039.926876,-296.082377
5675.557325,222.061783,-8886.707777,0.000000
5675.557649,518.144159,-8580.269578,-148.041188
5675.557974,370.102971,-8733.488677,-296.082377
5675.558298,444.123565,-9269.755526,-370.102971
5675.558622,370.102971,-8733.488677,-296.082377
5675.558947,592.164754,-8427.050478,-74.020594
5675.559271,148.041188,-8427.050478,-148.041188
5675.559595,444.123565,-8503.660028,-148.041188
5675.559920,296.082377,-8427.050478,-296.082377
5675.560244,666.185348,-8580.269578,-222.061783
5675.560568,296.082377,-8427.050478,-222.061783
5675.560893,0.000000,-8580.269578,0.000000
5675.561217,592.164754,-8580.269578,-296.082377
5675.561541,222.061783,-8350.440928,-370.102971
5675.561866,370.102971,-8963.317327,-370.102971
5675.562190,296.082377,-8273.831378,-296.082377
5675.562514,370.102971,-8810.098227,-222.061783
5675.562839,296.082377,-8273.831378,-370.102971
5675.563163,444.123565,-8656.879127,-148.041188
5675.563487,444.123565,-8427.050478,-296.082377
5675.563812,222.061783,-8656.879127,-222.061783
5675.564136,370.102971,-9039.926876,0.000000
5675.564460,444.123565,-8580.269578,0.000000
5675.564785,444.123565,-8503.660028,-148.041188
5675.565109,518.144159,-8350.440928,-148.041188
5675.565433,74.020594,-8810.098227,370.102971
5675.565758,222.061783,-8273.831378,74.020594
5675.566082,296.082377,-8733.488677,0.000000
5675.566407,74.020594,-8810.098227,370.102971
5675.566731,296.082377,-9116.536426,148.041188
5675.567055,222.061783,-8810.098227,74.020594
5675.567380,74.020594,-8427.050478,0.000000
5675.567704,370.102971,-8810.098227,296.082377
5675.568028,444.123565,-8656.879127,0.000000
5675.568353,444.123565,-8656.879127,370.102971
5675.568677,666.185348,-8580.269578,0.000000
5675.569001,444.123565,-8503.660028,0.000000
5675.569326,666.185348,-8580.269578,0.000000
5675.569650,296.082377,-8580.269578,518.144159
5675.569974,370.102971,-8886.707777,0.000000
5675.570299,518.144159,-8427.050478,-296.082377
5675.570623,370.102971,-8580.269578,-148.041188
5675.570947,222.061783,-8656.879127,0.000000
5675.571272,444.123565,-8733.488677,0.000000
5675.571596,592.164754,-8656.879127,0.000000
5675.571920,592.164754,-8503.660028,0.000000
5675.572245,518.144159,-8580.269578,0.000000
5675.572569,888.247130,-8503.660028,0.000000
5675.572893,518.144159,-8273.831378,0.000000
5675.573218,518.144159,-8733.488677,-222.061783
5675.573542,296.082377,-8350.440928,-222.061783
5675.573866,444.123565,-8656.879127,0.000000
5675.574191,518.144159,-8580.269578,-370.102971
5675.574515,370.102971,-9116.536426,-444.123565
5675.574839,222.061783,-8580.269578,-370.102971
5675.575164,296.082377,-8656.879127,-370.102971
5675.575488,666.185348,-8427.050478,-370.102971
5675.575812,592.164754,-8427.050478,-666.185348
5675.576137,592.164754,-8427.050478,-296.082377
5675.576461,370.102971,-8886.707777,-370.102971
5675.576785,740.205942,-9039.926876,-740.205942
5675.577110,148.041188,-8580.269578,-740.205942
5675.577434,518.144159,-8886.707777,-592.164754
5675.577758,222.061783,-8810.098227,-592.164754
5675.578083,666.185348,-8350.440928,0.000000
5675.578407,370.102971,-8886.707777,-444.123565
5675.578731,222.061783,-8810.098227,-296.082377
5675.579056,370.102971,-8580.269578,-444.123565
5675.579380,222.061783,-8733.488677,-518.144159
5675.579705,370.102971,-8273.831378,0.000000
5675.580029,296.082377,-8580.269578,-444.123565
5675.580353,148.041188,-8656.879127,-444.123565
5675.580678,370.102971,-8580.269578,-370.102971
5675.581002,444.123565,-8120.612279,0.000000
5675.581326,518.144159,-8810.098227,-518.144159
5675.581651,148.041188,-8733.488677,0.000000
5675.581975,370.102971,-8733.488677,0.000000
5675.582299,444.123565,-8197.221829,0.000000
5675.582624,518.144159,-8656.879127,-222.061783
5675.582948,518.144159,-8427.050478,-222.061783
5675.583272,0.000000,-8273.831378,0.000000
5675.583597,296.082377,-8580.269578,-370.102971
5675.583921,666.185348,-8580.269578,-222.061783
5675.584245,518.144159,-8427.050478,0.000000
5675.584570,814.226536,-8503.660028,-296.082377
5675.584894,370.102971,-8580.269578,0.000000
5675.585218,666.185348,-9499.584175,0.000000
5675.585543,444.123565,-8656.879127,74.020594
5675.585867,222.061783,-8503.660028,-370.102971
5675.586191,518.144159,-8580.269578,-296.082377
5675.586516,518.144159,-8503.660028,0.000000
5675.586840,222.061783,-8350.440928,-148.041188
5675.587164,444.123565,-8580.269578,-296.082377
5675.587489,444.123565,-8273.831378,0.000000
5675.587813,592.164754,-8503.660028,0.000000
5675.588137,74.020594,-8580.269578,-518.144159
5675.588462,296.082377,-8656.879127,-74.020594
5675.588786,296.082377,-8273.831378,0.000000
5675.589110,444.123565,-8350.440928,-296.082377
5675.589435,444.123565,-8427.050478,-1110.308913
5675.589759,444.123565,-8733.488677,-444.123565
5675.590083,444.123565,-8503.660028,-296.082377
5675.590408,222.061783,-8580.269578,-74.020594
5675.590732,444.123565,-9116.536426,-370.102971
5675.591056,814.226536,-8886.707777,-370.102971
5675.591381,444.123565,-8580.269578,-296.082377
5675.591705,444.123565,-8963.317327,-444.123565
5675.592029,296.082377,-8656.879127,-222.061783
5675.592354,888.247130,-9116.536426,-592.164754
5675.592678,296.082377,-8350.440928,-444.123565
5675.593003,296.082377,-9039.926876,-518.144159
5675.593327,444.123565,-8733.488677,-370.102971
5675.593651,444.123565,-9116.536426,0.000000
5675.593976,370.102971,-8733.488677,-296.082377
5675.594300,296.082377,-8580.269578,-296.082377
5675.594624,592.164754,-8656.879127,-296.082377
5675.594949,444.123565,-8733.488677,-518.144159
5675.595273,444.123565,-8886.707777,-666.185348
5675.595597,222.061783,-8886.707777,-592.164754
5675.595922,370.102971,-8503.660028,-444.123565
5675.596246,296.082377,-8656.879127,-518.144159
5675.596570,444.123565,-9422.974625,-222.061783
5675.596895,740.205942,-8580.269578,-370.102971
5675.597219,444.123565,-8197.221829,-592.164754
5675.597543,518.144159,-8733.488677,-814.226536
5675.597868,518.144159,-8886.707777,-444.123565
5675.598192,592.164754,-8656.879127,-518.144159
5675.598516,592.164754,-8580.269578,-444.123565
5675.598841,666.185348,-8503.660028,-222.061783
5675.599165,296.082377,-8427.050478,-370.102971
5675.599489,370.102971,-8503.660028,-444.123565
5675.599814,296.082377,-8503.660028,-370.102971
5675.600138,296.082377,-8656.879127,-370.102971
5675.600462,666.185348,-8197.221829,0.000000
5675.600787,148.041188,-8044.002729,-148.041188
5675.601111,518.144159,-8580.269578,-296.082377
5675.601435,592.164754,-8197.221829,-148.041188
5675.601760,740.205942,-8580.269578,-222.061783
5675.602084,518.144159,-8580.269578,-370.102971
5675.602408,444.123565,-8810.098227,148.041188
5675.602733,296.082377,-8580.269578,-222.061783
5675.603057,518.144159,-8503.660028,0.000000
5675.603381,370.102971,-8580.269578,-222.061783
5675.603706,592.164754,-8963.317327,0.000000
5675.604030,148.041188,-8273.831378,-148.041188
5675.604354,222.061783,-8810.098227,0.000000
5675.604679,444.123565,-8350.440928,-666.185348
5675.605003,592.164754,-7890.783629,74.020594
5675.605327,814.226536,-8580.269578,-444.123565
5675.605652,518.144159,-8503.660028,-222.061783
5675.605976,370.102971,-8503.660028,-518.144159
5675.606301,296.082377,-8580.269578,-296.082377
5675.606625,296.082377,-8427.050478,-296.082377
5675.606949,296.082377,-8886.707777,-370.102971
5675.607274,74.020594,-8273.831378,-370.102971
5675.607598,222.061783,-8656.879127,-296.082377
5675.607922,296.082377,-8656.879127,-740.205942
5675.608247,74.020594,-8656.879127,-222.061783
5675.608571,222.061783,-8503.660028,-592.164754
5675.608895,148.041188,-8733.488677,-518.144159
5675.609220,962.267725,-8963.317327,-296.082377
5675.609544,296.082377,-8810.098227,-518.144159
5675.609868,518.144159,-8580.269578,-592.164754
5675.610193,222.061783,-8810.098227,-444.123565
5675.610517,296.082377,-8886.707777,-814.226536
5675.610841,296.082377,-8503.660028,-444.123565
5675.611166,370.102971,-8580.269578,-592.164754
5675.611490,444.123565,-8656.879127,-518.144159
5675.611814,666.185348,-8427.050478,-740.205942
5675.612138,1036.288319,-8503.660028,-518.144159
5675.612463,666.185348,-8580.269578,-518.144159
5675.612787,370.102971,-8656.879127,-518.144159
5675.613111,222.061783,-8503.660028,-444.123565
5675.613436,444.123565,-8197.221829,0.000000
5675.613760,296.082377,-8810.098227,-592.164754
5675.614084,518.144159,-8886.707777,-518.144159
5675.614409,370.102971,-8427.050478,-148.041188
5675.614733,444.123565,-8733.488677,-370.102971
5675.615057,592.164754,-8580.269578,-444.123565
5675.615382,814.226536,-8350.440928,-370.102971
5675.615706,518.144159,-8810.098227,-296.082377
5675.616030,370.102971,-8656.879127,-518.144159
5675.616355,666.185348,-9116.536426,-222.061783
5675.616679,148.041188,-8733.488677,-222.061783
5675.617003,296.082377,-8580.269578,-592.164754
5675.617328,518.144159,-8580.269578,-592.164754
5675.617652,962.267725,-8580.269578,-444.123565
5675.617976,666.185348,-8350.440928,-296.082377
5675.618301,740.205942,-8733.488677,-518.144159
5675.618625,444.123565,-8656.879127,-740.205942
5675.618949,296.082377,-8273.831378,-666.185348
5675.619274,518.144159,-8580.269578,-592.164754
5675.619598,222.061783,-8120.612279,-444.123565
5675.619922,518.144159,-8503.660028,-296.082377
5675.620247,222.061783,-7890.783629,-370.102971
5675.620571,222.061783,-8656.879127,-148.041188
5675.620895,444.123565,-8656.879127,-148.041188
5675.621220,666.185348,-8120.612279,-296.082377
5675.621544,296.082377,-8580.269578,-370.102971
5675.621868,444.123565,-8656.879127,-148.041188
5675.622193,444.123565,-8427.050478,-296.082377
5675.622517,592.164754,-8350.440928,-370.102971
5675.622841,74.020594,-8427.050478,-444.123565
5675.623166,148.041188,-8350.440928,-222.061783
5675.623490,0.000000,-8197.221829,0.000000
5675.623814,296.082377,-8733.488677,-444.123565
5675.624139,592.164754,-8656.879127,-518.144159
5675.624463,592.164754,-8733.488677,-444.123565
5675.624787,370.102971,-8197.221829,-962.267725
5675.625112,222.061783,-8580.269578,-444.123565
5675.625436,296.082377,-8656.879127,-592.164754
5675.625760,814.226536,-8350.440928,-814.226536
5675.626085,814.226536,-8733.488677,-814.226536
5675.626409,518.144159,-8733.488677,-666.185348
5675.626733,666.185348,-8733.488677,-444.123565
5675.627058,370.102971,-8580.269578,-370.102971
5675.627382,666.185348,-8656.879127,-370.102971
5675.627706,296.082377,-8810.098227,-444.123565
5675.628031,666.185348,-8886.707777,-444.123565
5675.628355,148.041188,-8503.660028,-370.102971
5675.628679,296.082377,-9039.926876,-370.102971
5675.629004,370.102971,-8733.488677,-370.102971
5675.629328,444.123565,-8580.269578,-370.102971
5675.629652,370.102971,-8733.488677,-518.144159
5675.629977,518.144159,-8810.098227,-444.123565
5675.630301,666.185348,-8580.269578,-296.082377
5675.630625,222.061783,-8427.050478,-592.164754
5675.630950,518.144159,-8733.488677,-592.164754
5675.631274,222.061783,-8427.050478,-592.164754
5675.631598,518.144159,-8656.879127,-296.082377
5675.631923,296.082377,-8273.831378,-888.247130
5675.632247,518.144159,-8656.879127,-740.205942
5675.632571,518.144159,-8580.269578,-740.205942
5675.632896,444.123565,-8427.050478,-592.164754
5675.633220,370.102971,-9039.926876,-814.226536
5675.633544,518.144159,-8656.879127,-444.123565
5675.633869,740.205942,-8350.440928,-666.185348
5675.634193,444.123565,-8503.660028,-444.123565
5675.634517,740.205942,-8656.879127,-592.164754
5675.634842,370.102971,-9269.755526,-296.082377
5675.635166,444.123565,-8273.831378,-666.185348
5675.635490,148.041188,-8427.050478,-370.102971
5675.635815,296.082377,-8350.440928,-444.123565
5675.636139,222.061783,-8656.879127,148.041188
5675.636463,814.226536,-8503.660028,-592.164754
5675.636788,518.144159,-8580.269578,-370.102971
5675.637112,444.123565,-8656.879127,-444.123565
5675.637436,222.061783,-8733.488677,0.000000
5675.637761,518.144159,-8427.050478,-296.082377
5675.638085,666.185348,-8733.488677,-222.061783
5675.638409,518.144159,-8350.440928,-444.123565
5675.638734,518.144159,-8503.660028,0.000000
5675.639058,74.020594,-8810.098227,-148.041188
5675.639382,518.144159,-8580.269578,-222.061783
5675.639707,370.102971,-8427.050478,-518.144159
5675.640031,518.144159,-8503.660028,-370.102971
5675.640355,74.020594,-8503.660028,370.102971
5675.640680,222.061783,-8580.269578,0.000000
5675.641004,370.102971,-8503.660028,-296.082377
5675.641328,370.102971,-8427.050478,-74.020594
5675.641653,222.061783,-8503.660028,-370.102971
5675.641977,444.123565,-8197.221829,-74.020594
5675.642301,444.123565,-8197.221829,-444.123565
5675.642626,148.041188,-8580.269578,0.000000
5675.642950,148.041188,-8273.831378,0.000000
5675.643274,148.041188,-8044.002729,-444.123565
5675.643599,296.082377,-8580.269578,-148.041188
5675.643923,148.041188,-8197.221829,0.000000
5675.644247,222.061783,-8427.050478,-222.061783
5675.644572,222.061783,-8580.269578,74.020594
5675.644896,592.164754,-8656.879127,-592.164754
5675.645220,370.102971,-8273.831378,-444.123565
5675.645545,814.226536,-8427.050478,-296.082377
5675.645869,370.102971,-8350.440928,-518.144159
5675.646193,740.205942,-8503.660028,-370.102971
5675.646518,370.102971,-8656.879127,-444.123565
5675.646842,666.185348,-8656.879127,-518.144159
5675.647166,592.164754,-8656.879127,-444.123565
5675.647491,1110.308913,-9039.926876,-592.164754
5675.647815,666.185348,-8886.707777,-666.185348
5675.648139,518.144159,-8350.440928,-296.082377
5675.648464,740.205942,-8963.317327,-666.185348
5675.648788,814.226536,-8810.098227,-370.102971
5675.649112,296.082377,-8656.879127,-370.102971
5675.649437,444.123565,-8580.269578,-370.102971
5675.649761,592.164754,-8810.098227,-296.082377
5675.650085,518.144159,-8656.879127,-592.164754
5675.650410,814.226536,-8810.098227,-518.144159
5675.650734,296.082377,-8503.660028,-444.123565
5675.651058,592.164754,-8810.098227,-370.102971
5675.651383,592.164754,-8810.098227,-518.144159
5675.651707,740.205942,-8580.269578,-222.061783
5675.652031,444.123565,-8733.488677,-444.123565
5675.652356,222.061783,-8656.879127,-444.123565
5675.652680,296.082377,-8580.269578,-296.082377
5675.653004,592.164754,-8733.488677,-148.041188
5675.653329,444.123565,-8503.660028,-222.061783
5675.653653,296.082377,-8427.050478,-370.102971
5675.653977,592.164754,-8886.707777,-518.144159
5675.654302,370.102971,-8580.269578,-296.082377
5675.654626,592.164754,-8427.050478,-518.144159
5675.654950,296.082377,-8273.831378,-518.144159
5675.655275,666.185348,-8427.050478,-444.123565
5675.655599,444.123565,-8503.660028,-666.185348
5675.655923,222.061783,-8886.707777,-592.164754
5675.656248,74.020594,-8273.831378,-370.102971
5675.656572,296.082377,-8580.269578,-518.144159
5675.656896,370.102971,-8427.050478,-370.102971
5675.657221,370.102971,-8810.098227,-296.082377
5675.657545,444.123565,-8427.050478,-370.102971
5675.657869,296.082377,-8273.831378,-296.082377
5675.658194,444.123565,-8503.660028,0.000000
5675.658518,222.061783,-8503.660028,0.000000
5675.658842,592.164754,-8733.488677,0.000000
5675.659167,222.061783,-8580.269578,-296.082377
5675.659491,296.082377,-8273.831378,74.020594
5675.659815,0.000000,-8273.831378,-296.082377
5675.660140,592.164754,-8963.317327,0.000000
5675.660464,222.061783,-8503.660028,0.000000
5675.660788,518.144159,-8503.660028,-148.041188
5675.661113,296.082377,-8350.440928,-296.082377
5675.661437,518.144159,-8427.050478,0.000000
5675.661761,592.164754,-8503.660028,-148.041188
5675.662086,444.123565,-8273.831378,-148.041188
5675.662410,296.082377,-8810.098227,-370.102971
5675.662734,370.102971,-8427.050478,0.000000
5675.663059,962.267725,-8503.660028,-444.123565
5675.663383,296.082377,-8810.098227,-222.061783
5675.663707,518.144159,-8427.050478,-148.041188
5675.664032,518.144159,-8886.707777,-296.082377
5675.664356,1036.288319,-9422.974625,-518.144159
5675.664680,592.164754,-8733.488677,0.000000
5675.665005,518.144159,-8810.098227,0.000000
5675.665329,370.102971,-8503.660028,0.000000
5675.665653,148.041188,-8656.879127,-296.082377
5675.665978,148.041188,-8963.317327,-148.041188
5675.666302,222.061783,-8350.440928,-222.061783
5675.666626,444.123565,-8503.660028,-222.061783
5675.666951,444.123565,-8580.269578,-296.082377
5675.667275,740.205942,-8810.098227,74.020594
5675.667599,592.164754,-8656.879127,-370.102971
5675.667924,370.102971,-8427.050478,-518.144159
5675.668248,222.061783,-8733.488677,-74.020594
5675.668572,518.144159,-8503.660028,-370.102971
5675.668897,444.123565,-8580.269578,-592.164754
5675.669221,444.123565,-8733.488677,-518.144159
5675.669545,296.082377,-8810.098227,-518.144159
5675.669870,444.123565,-8733.488677,-666.185348
5675.670194,444.123565,-8503.660028,-592.164754
5675.670518,370.102971,-8886.707777,-370.102971
5675.670843,888.247130,-8656.879127,-444.123565
5675.671167,444.123565,-8886.707777,-518.144159
5675.671491,666.185348,-8580.269578,-370.102971
5675.671816,222.061783,-8733.488677,-296.082377
5675.672140,518.144159,-8656.879127,-296.082377
5675.672464,370.102971,-8580.269578,-740.205942
5675.672789,592.164754,-9039.926876,-518.144159
5675.673113,444.123565,-8656.879127,-148.041188
5675.673437,74.020594,-8810.098227,-444.123565
5675.673762,74.020594,-8810.098227,-370.102971
5675.674086,518.144159,-8733.488677,-148.041188
5675.674410,296.082377,-9193.145976,0.000000
5675.674735,222.061783,-8427.050478,-444.123565
5675.675059,518.144159,-8733.488677,-148.041188
5675.675383,592.164754,-8503.660028,-296.082377
5675.675708,222.061783,-7507.735880,-518.144159
5675.676032,518.144159,-8350.440928,-222.061783
5675.676356,444.123565,-8580.269578,-296.082377
5675.676681,592.164754,-8503.660028,-296.082377
5675.677005,296.082377,-8273.831378,-296.082377
5675.677329,444.123565,-8503.660028,-222.061783
5675.677654,370.102971,-8427.050478,-148.041188
5675.677978,370.102971,-8810.098227,-518.144159
5675.678302,444.123565,-8427.050478,-296.082377
5675.678627,592.164754,-8656.879127,0.000000
5675.678951,370.102971,-8350.440928,0.000000
5675.679275,444.123565,-8350.440928,-148.041188
5675.679600,666.185348,-8273.831378,-444.123565
5675.679924,1184.329507,-8350.440928,-444.123565
5675.680248,444.123565,-8427.050478,-370.102971
5675.680573,444.123565,-8350.440928,-222.061783
5675.680897,370.102971,-8273.831378,-296.082377
5675.681221,296.082377,-8580.269578,-518.144159
5675.681546,74.020594,-8580.269578,-444.123565
5675.681870,370.102971,-8503.660028,-222.061783
5675.682194,370.102971,-8503.660028,-222.061783
5675.682519,296.082377,-8197.221829,-222.061783
5675.682843,592.164754,-8580.269578,-370.102971
5675.683167,518.144159,-8503.660028,0.000000
5675.683492,592.164754,-8427.050478,0.000000
5675.683816,370.102971,-8427.050478,0.000000
5675.684140,666.185348,-8963.317327,0.000000
5675.684465,370.102971,-8656.879127,-148.041188
5675.684789,370.102971,-8580.269578,-296.082377
5675.685113,148.041188,-8963.317327,-222.061783
5675.685438,592.164754,-8733.488677,0.000000
5675.685762,444.123565,-8580.269578,0.000000
5675.686086,370.102971,-8580.269578,-222.061783
5675.686411,444.123565,-8580.269578,-148.041188
5675.686735,370.102971,-8733.488677,0.000000
5675.687059,592.164754,-8120.612279,0.000000
5675.687384,222.061783,-8656.879127,0.000000
5675.687708,296.082377,-8886.707777,-592.164754
5675.688032,518.144159,-8580.269578,-666.185348
5675.688357,370.102971,-8656.879127,-666.185348
5675.688681,592.164754,-8503.660028,-370.102971
5675.689005,444.123565,-8886.707777,-370.102971
5675.689330,814.226536,-8886.707777,-444.123565
5675.689654,222.061783,-8886.707777,0.000000
5675.689978,296.082377,-8656.879127,-592.164754
5675.690303,444.123565,-8733.488677,-518.144159
5675.690627,518.144159,-8503.660028,-296.082377
5675.690951,296.082377,-8886.707777,-444.123565
5675.691276,296.082377,-9116.536426,-444.123565
5675.691600,296.082377,-8503.660028,-148.041188
5675.691924,592.164754,-8656.879127,-222.061783
5675.692249,370.102971,-8580.269578,-222.061783
5675.692573,592.164754,-8886.707777,-296.082377
5675.692897,444.123565,-8273.831378,-222.061783
5675.693222,222.061783,-8427.050478,-296.082377
5675.693546,296.082377,-8580.269578,-296.082377
5675.693870,370.102971,-8503.660028,-296.082377
5675.694195,518.144159,-8656.879127,0.000000
5675.694519,148.041188,-8427.050478,0.000000
5675.694843,444.123565,-8503.660028,-296.082377
5675.695168,592.164754,-8656.879127,-222.061783
5675.695492,740.205942,-8503.660028,-222.061783
5675.695816,222.061783,-8580.269578,-222.061783
5675.696141,444.123565,-8580.269578,-444.123565
5675.696465,592.164754,-8427.050478,-592.164754
5675.696789,444.123565,-8427.050478,-444.123565
5675.697114,444.123565,-8810.098227,-666.185348
5675.697438,370.102971,-8350.440928,-148.041188
5675.697762,222.061783,-8580.269578,-296.082377
5675.698087,148.041188,-8733.488677,-296.082377
5675.698411,814.226536,-9116.536426,-296.082377
5675.698735,592.164754,-8733.488677,-148.041188
5675.699060,222.061783,-8733.488677,-444.123565
5675.699384,222.061783,-8810.098227,-148.041188
5675.699708,518.144159,-8963.317327,-518.144159
5675.700033,444.123565,-8427.050478,-222.061783
5675.700357,518.144159,-8350.440928,-592.164754
5675.700681,518.144159,-8733.488677,-222.061783
5675.701006,296.082377,-8503.660028,0.000000
5675.701330,0.000000,-8503.660028,-296.082377
5675.701654,444.123565,-8733.488677,-592.164754
5675.701979,370.102971,-8427.050478,-148.041188
5675.702303,518.144159,-8656.879127,-518.144159
5675.702627,222.061783,-8580.269578,0.000000
5675.702952,222.061783,-8580.269578,-370.102971
5675.703276,296.082377,-8733.488677,-444.123565
5675.703600,148.041188,-8273.831378,-370.102971
5675.703925,592.164754,-8656.879127,-518.144159
5675.704249,592.164754,-8656.879127,-444.123565
5675.704573,518.144159,-8197.221829,-444.123565
5675.704898,444.123565,-8810.098227,-592.164754
5675.705222,222.061783,-8427.050478,-444.123565
5675.705546,444.123565,-8656.879127,-222.061783
5675.705871,518.144159,-8503.660028,-740.205942
5675.706195,222.061783,-8656.879127,-740.205942
5675.706519,444.123565,-8656.879127,-444.123565
5675.706844,148.041188,-8044.002729,-296.082377
5675.707168,592.164754,-8580.269578,-740.205942
5675.707492,592.164754,-8886.707777,-888.247130
5675.707817,444.123565,-8273.831378,-148.041188
5675.708141,592.164754,-8733.488677,-592.164754
5675.708465,666.185348,-8963.317327,-740.205942
5675.708790,740.205942,-8197.221829,-592.164754
5675.709114,666.185348,-8656.879127,-666.185348
5675.709438,444.123565,-8656.879127,-740.205942
5675.709763,740.205942,-8656.879127,-592.164754
5675.710087,666.185348,-8580.269578,-296.082377
5675.710412,444.123565,-8273.831378,-518.144159
5675.710736,666.185348,-8656.879127,-518.144159
5675.711060,888.247130,-8197.221829,0.000000
5675.711385,444.123565,-8350.440928,0.000000
5675.711709,370.102971,-8273.831378,-444.123565
5675.712034,444.123565,-8656.879127,0.000000
5675.712358,814.226536,-8656.879127,0.000000
5675.712683,222.061783,-8810.098227,-370.102971
5675.713007,518.144159,-8656.879127,-296.082377
5675.713331,296.082377,-8810.098227,74.020594
5675.713656,444.123565,-8656.879127,0.000000
5675.713980,148.041188,-8427.050478,-148.041188
5675.714305,518.144159,-8427.050478,-370.102971
5675.714629,518.144159,-8503.660028,0.000000
5675.714954,296.082377,-8580.269578,-148.041188
5675.715278,740.205942,-8733.488677,-296.082377
5675.715602,518.144159,-8733.488677,-222.061783
5675.715927,370.102971,-8656.879127,-370.102971
5675.716251,592.164754,-8886.707777,-518.144159
5675.716576,370.102971,-8350.440928,-74.020594
5675.716900,296.082377,-8656.879127,0.000000
5675.717225,148.041188,-8580.269578,-148.041188
5675.717549,74.020594,-8350.440928,-222.061783
5675.717874,148.041188,-8427.050478,-296.082377
5675.718198,222.061783,-8197.221829,-222.061783
5675.718522,222.061783,-8580.269578,-222.061783
5675.718847,222.061783,-8810.098227,-296.082377
5675.719171,592.164754,-8350.440928,-296.082377
5675.719496,74.020594,-8580.269578,148.041188
5675.719820,444.123565,-8273.831378,0.000000
5675.720145,296.082377,-8810.098227,-222.061783
5675.720469,444.123565,-8733.488677,0.000000
5675.720793,222.061783,-8427.050478,-148.041188
5675.721118,666.185348,-8273.831378,-148.041188
5675.721442,592.164754,-8810.098227,-592.164754
5675.721767,296.082377,-8503.660028,-444.123565
5675.722091,222.061783,-8656.879127,-370.102971
5675.722416,888.247130,-8886.707777,-592.164754
5675.722740,666.185348,-8580.269578,-518.144159
5675.723064,592.164754,-8580.269578,-814.226536
5675.723389,592.164754,-8427.050478,-444.123565
5675.723713,518.144159,-8810.098227,-592.164754
5675.724038,888.247130,-8810.098227,-518.144159
5675.724362,518.144159,-8503.660028,-666.185348
5675.724687,666.185348,-8733.488677,-592.164754
5675.725011,444.123565,-8427.050478,-592.164754
5675.725336,518.144159,-8810.098227,-518.144159
5675.725660,222.061783,-8656.879127,-518.144159
5675.725984,518.144159,-8580.269578,-444.123565
5675.726309,592.164754,-8810.098227,-592.164754
5675.726633,592.164754,-8350.440928,-370.102971
5675.726958,444.123565,-8427.050478,-666.185348
5675.727282,444.123565,-8733.488677,-444.123565
5675.727607,444.123565,-8733.488677,-518.144159
5675.727931,518.144159,-8580.269578,-444.123565
5675.728255,296.082377,-8656.879127,-814.226536
5675.728580,666.185348,-8427.050478,-370.102971
5675.728904,370.102971,-8503.660028,-592.164754
5675.729229,518.144159,-8503.660028,-518.144159
5675.729553,592.164754,-8427.050478,-740.205942
5675.729878,592.164754,-8427.050478,-592.164754
5675.730202,296.082377,-8503.660028,-296.082377
5675.730526,444.123565,-8580.269578,-592.164754
5675.730851,518.144159,-8963.317327,-962.267725
5675.731175,222.061783,-8503.660028,-444.123565
5675.731500,296.082377,-9039.926876,-592.164754
5675.731824,370.102971,-8656.879127,-296.082377
5675.732149,592.164754,-8427.050478,-222.061783
5675.732473,518.144159,-8580.269578,-444.123565
5675.732798,370.102971,-8580.269578,-370.102971
5675.733122,444.123565,-8273.831378,-444.123565
5675.733446,444.123565,-8656.879127,-518.144159
5675.733771,296.082377,-8503.660028,-518.144159
5675.734095,148.041188,-8656.879127,-444.123565
5675.734420,296.082377,-8350.440928,-444.123565
5675.734744,370.102971,-8503.660028,-222.061783
5675.735069,148.041188,-8963.317327,0.000000
5675.735393,518.144159,-8427.050478,-296.082377
5675.735717,296.082377,-8197.221829,-148.041188
5675.736042,296.082377,-8580.269578,0.000000
5675.736366,444.123565,-8503.660028,-296.082377
5675.736691,740.205942,-8733.488677,-296.082377
5675.737015,444.123565,-8656.879127,-370.102971
5675.737340,444.123565,-8733.488677,-370.102971
5675.737664,444.123565,-8503.660028,-222.061783
5675.737988,1036.288319,-8427.050478,0.000000
5675.738313,592.164754,-8503.660028,-296.082377
5675.738637,296.082377,-8733.488677,-296.082377
5675.738962,518.144159,-8427.050478,0.000000
5675.739286,148.041188,-8580.269578,222.061783
5675.739611,0.000000,-8810.098227,-370.102971
5675.739935,222.061783,-8656.879127,-444.123565
5675.740260,666.185348,-8503.660028,-444.123565
5675.740584,222.061783,-8580.269578,-592.164754
5675.740908,518.144159,-8427.050478,-296.082377
5675.741233,518.144159,-8733.488677,-296.082377
5675.741557,518.144159,-8503.660028,-370.102971
5675.741882,666.185348,-8580.269578,-592.164754
5675.742206,370.102971,-8273.831378,-148.041188
5675.742531,518.144159,-8273.831378,-592.164754
5675.742855,0.000000,-8580.269578,-592.164754
5675.743179,222.061783,-8886.707777,-592.164754
5675.743504,370.102971,-8656.879127,-740.205942
5675.743828,666.185348,-8810.098227,-740.205942
5675.744153,444.123565,-8810.098227,-666.185348
5675.744477,518.144159,-8656.879127,-222.061783
5675.744802,518.144159,-8810.098227,-296.082377
5675.745126,814.226536,-8580.269578,-518.144159
5675.745450,518.144159,-8810.098227,-592.164754
5675.745775,444.123565,-8733.488677,-518.144159
5675.746099,592.164754,-8503.660028,-592.164754
5675.746424,666.185348,-8273.831378,-444.123565
5675.746748,518.144159,-8733.488677,-518.144159
5675.747073,518.144159,-8580.269578,-592.164754
5675.747397,518.144159,-8656.879127,-444.123565
5675.747722,370.102971,-8656.879127,-592.164754
5675.748046,666.185348,-8656.879127,0.000000
5675.748370,148.041188,-8503.660028,-444.123565
5675.748695,444.123565,-8503.660028,-296.082377
5675.749019,222.061783,-8656.879127,-666.185348
5675.749344,666.185348,-8656.879127,-444.123565
5675.749668,148.041188,-8350.440928,-592.164754
5675.749993,296.082377,-8810.098227,-296.082377
5675.750317,370.102971,-8733.488677,-296.082377
5675.750641,444.123565,-8886.707777,-444.123565
5675.750966,518.144159,-8733.488677,0.000000
5675.751290,148.041188,-8273.831378,-222.061783
5675.751615,222.061783,-8886.707777,0.000000
5675.751939,74.020594,-8503.660028,-444.123565
5675.752264,444.123565,-8350.440928,-296.082377
5675.752588,296.082377,-8503.660028,-518.144159
5675.752912,518.144159,-8350.440928,-74.020594
5675.753237,74.020594,-8273.831378,-370.102971
5675.753561,518.144159,-9039.926876,0.000000
5675.753886,444.123565,-8120.612279,-444.123565
5675.754210,592.164754,-8503.660028,-148.041188
5675.754535,222.061783,-8427.050478,-222.061783
5675.754859,74.020594,-8120.612279,0.000000
5675.755184,370.102971,-8580.269578,-296.082377
5675.755508,222.061783,-8427.050478,-444.123565
5675.755832,814.226536,-8656.879127,-518.144159
5675.756157,222.061783,-8580.269578,-222.061783
5675.756481,444.123565,-7967.393179,-370.102971
5675.756806,296.082377,-8273.831378,-148.041188
5675.757130,814.226536,-8580.269578,-296.082377
5675.757455,666.185348,-8503.660028,-222.061783
5675.757779,592.164754,-9039.926876,-666.185348
5675.758103,296.082377,-8810.098227,-148.041188
5675.758428,370.102971,-8503.660028,-296.082377
5675.758752,74.020594,-8427.050478,-74.020594
5675.759077,370.102971,-8580.269578,0.000000
5675.759401,518.144159,-9039.926876,-296.082377
5675.759726,592.164754,-8427.050478,-296.082377
5675.760050,518.144159,-8427.050478,-444.123565
5675.760374,370.102971,-8580.269578,-296.082377
5675.760699,666.185348,-8656.879127,-370.102971
5675.761023,666.185348,-8656.879127,-444.123565
5675.761348,518.144159,-8886.707777,-444.123565
5675.761672,296.082377,-8580.269578,-444.123565
5675.761997,444.123565,-9422.974625,148.041188
5675.762321,296.082377,-8580.269578,-370.102971
5675.762646,740.205942,-8733.488677,-444.123565
5675.762970,592.164754,-8810.098227,-592.164754
5675.763294,666.185348,-8963.317327,0.000000
5675.763619,370.102971,-8580.269578,-296.082377
5675.763943,222.061783,-8733.488677,-222.061783
5675.764268,444.123565,-8197.221829,-444.123565
5675.764592,518.144159,-8580.269578,-296.082377
5675.764917,222.061783,-8350.440928,-370.102971
5675.765241,444.123565,-8886.707777,-370.102971
5675.765565,666.185348,-8503.660028,-74.020594
5675.765890,518.144159,-8350.440928,-222.061783
5675.766214,370.102971,-8503.660028,-518.144159
5675.766539,370.102971,-8350.440928,-444.123565
5675.766863,148.041188,-8503.660028,-148.041188
5675.767188,296.082377,-8503.660028,-444.123565
5675.767512,148.041188,-8580.269578,0.000000
5675.767836,518.144159,-8656.879127,-370.102971
5675.768161,444.123565,-8810.098227,-222.061783
5675.768485,148.041188,-8580.269578,0.000000
5675.768810,148.041188,-8503.660028,0.000000
5675.769134,592.164754,-8733.488677,-222.061783
5675.769459,740.205942,-8580.269578,-296.082377
5675.769783,444.123565,-8580.269578,-518.144159
5675.770108,592.164754,-8350.440928,-148.041188
5675.770432,296.082377,-8503.660028,74.020594
5675.770756,148.041188,-8503.660028,-222.061783
5675.771081,222.061783,-8120.612279,-518.144159
5675.771405,296.082377,-8656.879127,-148.041188
5675.771730,370.102971,-8350.440928,-370.102971
5675.772054,518.144159,-8503.660028,-148.041188
5675.772379,370.102971,-8503.660028,0.000000
5675.772703,370.102971,-8580.269578,0.000000
5675.773027,148.041188,-8273.831378,-444.123565
5675.773352,222.061783,-9039.926876,-222.061783
5675.773676,518.144159,-8273.831378,-148.041188
5675.774001,222.061783,-8733.488677,-592.164754
5675.774325,222.061783,-8733.488677,-370.102971
5675.774650,370.102971,-8656.879127,-222.061783
5675.774974,444.123565,-8810.098227,-444.123565
5675.775298,296.082377,-8503.660028,-222.061783
5675.775623,370.102971,-8427.050478,-148.041188
5675.775947,518.144159,-8733.488677,0.000000
5675.776272,592.164754,-8580.269578,-74.020594
5675.776596,666.185348,-8580.269578,-222.061783
5675.776921,518.144159,-8733.488677,-444.123565
5675.777245,518.144159,-8273.831378,0.000000
5675.777570,444.123565,-8427.050478,-148.041188
5675.777894,518.144159,-8350.440928,-444.123565
5675.778218,592.164754,-8427.050478,-444.123565
5675.778543,666.185348,-8120.612279,-814.226536
5675.778867,592.164754,-8733.488677,0.000000
5675.779192,296.082377,-8503.660028,-444.123565
5675.779516,444.123565,-8810.098227,-370.102971
5675.779841,0.000000,-8656.879127,-666.185348
5675.780165,518.144159,-8886.707777,-592.164754
5675.780489,370.102971,-8580.269578,-740.205942
5675.780814,370.102971,-8656.879127,-518.144159
5675.781138,370.102971,-9039.926876,-666.185348
5675.781463,222.061783,-8580.269578,-518.144159
5675.781787,814.226536,-9269.755526,-518.144159
5675.782112,370.102971,-8963.317327,-370.102971
5675.782436,370.102971,-8810.098227,-222.061783
5675.782761,296.082377,-8733.488677,-444.123565
5675.783085,518.144159,-8810.098227,-444.123565
5675.783409,518.144159,-8886.707777,-444.123565
5675.783734,518.144159,-9116.536426,-296.082377
5675.784058,296.082377,-8350.440928,-148.041188
5675.784383,444.123565,-8503.660028,0.000000
5675.784707,518.144159,-8733.488677,-222.061783
5675.785032,444.123565,-8580.269578,-370.102971
5675.785356,222.061783,-8810.098227,0.000000
5675.785680,296.082377,-8580.269578,-296.082377
5675.786005,222.061783,-8580.269578,0.000000
5675.786329,444.123565,-8580.269578,-222.061783
5675.786654,296.082377,-8503.660028,0.000000
5675.786978,370.102971,-8580.269578,-222.061783
5675.787303,518.144159,-8733.488677,-222.061783
5675.787627,148.041188,-7967.393179,0.000000
5675.787951,222.061783,-8656.879127,74.020594
5675.788276,74.020594,-8273.831378,0.000000
5675.788600,444.123565,-8197.221829,0.000000
5675.788925,444.123565,-8963.317327,-444.123565
5675.789249,370.102971,-8580.269578,0.000000
5675.789574,148.041188,-8503.660028,0.000000
5675.789898,444.123565,-8503.660028,0.000000
5675.790223,888.247130,-8963.317327,0.000000
5675.790547,296.082377,-8733.488677,-370.102971
5675.790871,666.185348,-8350.440928,-222.061783
5675.791196,222.061783,-8427.050478,0.000000
5675.791520,222.061783,-8810.098227,-148.041188
5675.791845,222.061783,-8503.660028,0.000000
5675.792169,444.123565,-8580.269578,0.000000
5675.792494,222.061783,-8656.879127,-296.082377
5675.792818,296.082377,-8580.269578,0.000000
5675.793142,296.082377,-8656.879127,0.000000
5675.793467,592.164754,-8656.879127,0.000000
5675.793791,518.144159,-8503.660028,0.000000
5675.794116,592.164754,-8733.488677,-296.082377
5675.794440,592.164754,-9039.926876,-296.082377
5675.794765,296.082377,-8503.660028,0.000000
5675.795089,74.020594,-8733.488677,-296.082377
5675.795413,148.041188,-8503.660028,-148.041188
5675.795738,370.102971,-9039.926876,-296.082377
5675.796062,148.041188,-8580.269578,0.000000
5675.796387,518.144159,-8810.098227,-148.041188
5675.796711,148.041188,-8427.050478,-370.102971
5675.797036,814.226536,-8733.488677,-222.061783
5675.797360,444.123565,-8810.098227,0.000000
5675.797685,518.144159,-8810.098227,-296.082377
5675.798009,222.061783,-8197.221829,-444.123565
5675.798333,296.082377,-8886.707777,-370.102971
5675.798658,370.102971,-8810.098227,-592.164754
5675.798982,518.144159,-8503.660028,-518.144159
5675.799307,296.082377,-8656.879127,-666.185348
5675.799631,370.102971,-8656.879127,-370.102971
5675.799956,444.123565,-8580.269578,-518.144159
5675.800280,370.102971,-8503.660028,-518.144159
5675.800604,444.123565,-8273.831378,-592.164754
5675.800929,296.082377,-8580.269578,-296.082377
5675.801253,666.185348,-8656.879127,-518.144159
5675.801578,592.164754,-8810.098227,-296.082377
5675.801902,518.144159,-8580.269578,-370.102971
5675.802227,444.123565,-8886.707777,-814.226536
5675.802551,814.226536,-8810.098227,-666.185348
5675.802875,518.144159,-9116.536426,-518.144159
5675.803200,370.102971,-8580.269578,-296.082377
5675.803524,444.123565,-8580.269578,-296.082377
5675.803849,370.102971,-8656.879127,-148.041188
5675.804173,296.082377,-8350.440928,-518.144159
5675.804498,666.185348,-8886.707777,-518.144159
5675.804822,518.144159,-8273.831378,-296.082377
5675.805147,296.082377,-8273.831378,-370.102971
5675.805471,518.144159,-8810.098227,-296.082377
5675.805795,1184.329507,-8580.269578,-666.185348
5675.806120,740.205942,-9039.926876,-296.082377
5675.806444,592.164754,-8580.269578,0.000000
5675.806769,370.102971,-8580.269578,-148.041188
5675.807093,222.061783,-8580.269578,0.000000
5675.807418,518.144159,-8427.050478,-296.082377
5675.807742,444.123565,-8580.269578,-370.102971
5675.808066,592.164754,-8503.660028,-370.102971
5675.808391,666.185348,-8273.831378,-148.041188
5675.808715,444.123565,-8810.098227,-148.041188
5675.809040,592.164754,-8503.660028,-592.164754
5675.809364,518.144159,-8427.050478,-370.102971
5675.809689,592.164754,-8733.488677,-444.123565
5675.810013,666.185348,-8350.440928,0.000000
5675.810337,296.082377,-8273.831378,-296.082377
5675.810662,296.082377,-8427.050478,-148.041188
5675.810986,74.020594,-8503.660028,-370.102971
5675.811311,666.185348,-8810.098227,-296.082377
5675.811635,74.020594,-8350.440928,-148.041188
5675.811959,444.123565,-8503.660028,0.000000
5675.812284,148.041188,-8503.660028,-148.041188
5675.812608,444.123565,-8733.488677,-148.041188
5675.812932,592.164754,-8197.221829,74.020594
5675.813257,296.082377,-8733.488677,-370.102971
5675.813581,296.082377,-8580.269578,-296.082377
5675.813905,444.123565,-8503.660028,-296.082377
5675.814230,740.205942,-8503.660028,-370.102971
5675.814554,518.144159,-8427.050478,-370.102971
5675.814878,370.102971,-8656.879127,-592.164754
5675.815203,518.144159,-8273.831378,-444.123565
5675.815527,666.185348,-8656.879127,-444.123565
5675.815851,296.082377,-8580.269578,-666.185348
5675.816176,444.123565,-8503.660028,-370.102971
5675.816500,148.041188,-8427.050478,-666.185348
5675.816824,222.061783,-8580.269578,-444.123565
5675.817149,518.144159,-9499.584175,0.000000
5675.817473,444.123565,-8963.317327,-296.082377
5675.817798,444.123565,-8656.879127,-370.102971
5675.818122,666.185348,-8810.098227,-370.102971
5675.818446,444.123565,-8810.098227,-370.102971
5675.818771,444.123565,-8656.879127,0.000000
5675.819095,222.061783,-8656.879127,-296.082377
5675.819419,370.102971,-8580.269578,-74.020594
5675.819744,518.144159,-8580.269578,-296.082377
5675.820068,222.061783,-8656.879127,-296.082377
5675.820392,74.020594,-8427.050478,0.000000
5675.820717,518.144159,-8503.660028,-148.041188
5675.821041,222.061783,-8733.488677,-74.020594
5675.821365,444.123565,-8580.269578,-592.164754
5675.821690,444.123565,-8810.098227,-370.102971
5675.822014,592.164754,-8503.660028,-222.061783
5675.822338,296.082377,-8273.831378,-370.102971
5675.822663,296.082377,-8427.050478,-444.123565
5675.822987,370.102971,-8427.050478,-222.061783
5675.823311,592.164754,-8580.269578,-666.185348
5675.823636,666.185348,-8580.269578,-1036.288319
5675.823960,518.144159,-8503.660028,-592.164754
5675.824285,444.123565,-9039.926876,-592.164754
5675.824609,296.082377,-8427.050478,-296.082377
5675.824933,592.164754,-8427.050478,-518.144159
5675.825258,518.144159,-8580.269578,-518.144159
5675.825582,0.000000,-8886.707777,-370.102971
5675.825906,222.061783,-8580.269578,-296.082377
5675.826231,370.102971,-8503.660028,-444.123565
5675.826555,296.082377,-8350.440928,-222.061783
5675.826879,592.164754,-8733.488677,-962.267725
5675.827204,592.164754,-8656.879127,-592.164754
5675.827528,518.144159,-8580.269578,-444.123565
5675.827852,296.082377,-8656.879127,-444.123565
5675.828177,370.102971,-8580.269578,-296.082377
5675.828501,962.267725,-8580.269578,-444.123565
5675.828825,370.102971,-8503.660028,-592.164754
5675.829150,222.061783,-8197.221829,-222.061783
5675.829474,370.102971,-8427.050478,-296.082377
5675.829798,148.041188,-9116.536426,296.082377
5675.830123,370.102971,-8580.269578,-222.061783
5675.830447,740.205942,-8503.660028,-518.144159
5675.830772,666.185348,-8580.269578,-222.061783
5675.831096,296.082377,-8427.050478,-296.082377
5675.831420,222.061783,-8810.098227,0.000000
5675.831745,370.102971,-8733.488677,-518.144159
5675.832069,444.123565,-8810.098227,-444.123565
5675.832393,444.123565,-8427.050478,-518.144159
5675.832718,296.082377,-7584.345430,0.000000
5675.833042,222.061783,-8656.879127,-370.102971
5675.833366,296.082377,-8427.050478,-222.061783
5675.833691,222.061783,-8350.440928,-296.082377
5675.834015,518.144159,-8580.269578,-296.082377
5675.834339,518.144159,-8656.879127,-592.164754
5675.834664,444.123565,-8427.050478,-444.123565
5675.834988,592.164754,-8580.269578,-444.123565
5675.835312,444.123565,-8273.831378,-444.123565
5675.835637,888.247130,-8886.707777,-444.123565
5675.835961,592.164754,-8350.440928,-222.061783
5675.836286,518.144159,-8503.660028,-518.144159
5675.836610,296.082377,-8580.269578,-296.082377
5675.836934,518.144159,-8197.221829,74.020594
5675.837259,666.185348,-8580.269578,-370.102971
5675.837583,444.123565,-8656.879127,-444.123565
5675.837907,518.144159,-8733.488677,-222.061783
5675.838232,518.144159,-8427.050478,148.041188
5675.838556,370.102971,-8810.098227,-370.102971
5675.838880,814.226536,-8733.488677,-296.082377
5675.839205,740.205942,-8580.269578,-370.102971
5675.839529,518.144159,-8580.269578,0.000000
5675.839853,370.102971,-7967.393179,-296.082377
5675.840178,518.144159,-8580.269578,-592.164754
5675.840502,518.144159,-8273.831378,-296.082377
5675.840826,222.061783,-8503.660028,-518.144159
5675.841151,740.205942,-8580.269578,-370.102971
5675.841475,148.041188,-8580.269578,-518.144159
5675.841799,370.102971,-8656.879127,-222.061783
5675.842124,222.061783,-8350.440928,-444.123565
5675.842448,592.164754,-8886.707777,-592.164754
5675.842773,814.226536,-8656.879127,-518.144159
5675.843097,740.205942,-8427.050478,-518.144159
5675.843421,444.123565,-8886.707777,-592.164754
5675.843746,222.061783,-8580.269578,-370.102971
5675.844070,814.226536,-8580.269578,-814.226536
5675.844394,296.082377,-8503.660028,-666.185348
5675.844719,0.000000,-8656.879127,-296.082377
5675.845043,222.061783,-8503.660028,-370.102971
5675.845367,592.164754,-8656.879127,-296.082377
5675.845692,370.102971,-8503.660028,-370.102971
5675.846016,370.102971,-8733.488677,-148.041188
5675.846340,370.102971,-8503.660028,-148.041188
5675.846665,222.061783,-8580.269578,-148.041188
5675.846989,0.000000,-8350.440928,-370.102971
5675.847313,370.102971,-8580.269578,-444.123565
5675.847638,666.185348,-8656.879127,-370.102971
5675.847962,296.082377,-8503.660028,-592.164754
5675.848286,592.164754,-8886.707777,-370.102971
5675.848611,518.144159,-8427.050478,-444.123565
5675.848935,370.102971,-8580.269578,-296.082377
5675.849260,444.123565,-8120.612279,-296.082377
5675.849584,444.123565,-8810.098227,-148.041188
5675.849908,444.123565,-8044.002729,-444.123565
5675.850233,370.102971,-8427.050478,-444.123565
5675.850557,148.041188,-8580.269578,-518.144159
5675.850881,296.082377,-8427.050478,-74.020594
5675.851206,148.041188,-8503.660028,-592.164754
5675.851530,518.144159,-8580.269578,-370.102971
5675.851854,444.123565,-9039.926876,0.000000
5675.852179,296.082377,-8580.269578,-296.082377
5675.852503,518.144159,-8120.612279,-666.185348
5675.852827,666.185348,-8733.488677,-296.082377
5675.853152,592.164754,-8656.879127,-370.102971
5675.853476,0.000000,-8197.221829,-444.123565
5675.853800,148.041188,-8733.488677,0.000000
5675.854125,296.082377,-8350.440928,-370.102971
5675.854449,592.164754,-8427.050478,-370.102971
5675.854773,370.102971,-8580.269578,-444.123565
5675.855098,518.144159,-8580.269578,-222.061783
5675.855422,888.247130,-8656.879127,-518.144159
5675.855747,666.185348,-8886.707777,-370.102971
5675.856071,370.102971,-8580.269578,-222.061783
5675.856395,666.185348,-8810.098227,-740.205942
5675.856720,666.185348,-9193.145976,-444.123565
5675.857044,74.020594,-8427.050478,-296.082377
5675.857368,518.144159,-8580.269578,-444.123565
5675.857693,74.020594,-8273.831378,-444.123565
5675.858017,518.144159,-9039.926876,-518.144159
5675.858341,296.082377,-8580.269578,-444.123565
5675.858666,518.144159,-8656.879127,-148.041188
5675.858990,296.082377,-8733.488677,-666.185348
5675.859314,444.123565,-8656.879127,-370.102971
5675.859639,592.164754,-8886.707777,-666.185348
5675.859963,666.185348,-8503.660028,-740.205942
5675.860287,592.164754,-8503.660028,-444.123565
5675.860612,518.144159,-8656.879127,-666.185348
5675.860936,666.185348,-9116.536426,-666.185348
5675.861260,222.061783,-8580.269578,-518.144159
5675.861585,814.226536,-8886.707777,-444.123565
5675.861909,370.102971,-8197.221829,-592.164754
5675.862234,444.123565,-8886.707777,-592.164754
5675.862558,74.020594,-8886.707777,-740.205942
5675.862882,444.123565,-8503.660028,-518.144159
5675.863207,0.000000,-8810.098227,-444.123565
5675.863531,666.185348,-8656.879127,-370.102971
5675.863855,518.144159,-8580.269578,0.000000
5675.864180,592.164754,-8810.098227,0.000000
5675.864504,444.123565,-8656.879127,-518.144159
5675.864828,444.123565,-8580.269578,-370.102971
5675.865153,518.144159,-9346.365076,-222.061783
5675.865477,148.041188,-8580.269578,0.000000
5675.865801,148.041188,-8656.879127,0.000000
5675.866126,0.000000,-8580.269578,-296.082377
5675.866450,370.102971,-8503.660028,-148.041188
5675.866774,74.020594,-8503.660028,0.000000
5675.867099,814.226536,-8503.660028,-148.041188
5675.867423,296.082377,-8580.269578,0.000000
5675.867747,666.185348,-8656.879127,-74.020594
5675.868072,296.082377,-7890.783629,0.000000
5675.868396,814.226536,-8580.269578,-148.041188
5675.868721,444.123565,-8733.488677,-296.082377
5675.869045,0.000000,-8427.050478,-222.061783
5675.869369,222.061783,-8733.488677,-148.041188
5675.869694,370.102971,-8350.440928,-444.123565
5675.870018,518.144159,-8656.879127,-296.082377
5675.870342,296.082377,-8427.050478,-592.164754
5675.870667,814.226536,-8120.612279,0.000000
5675.870991,222.061783,-7967.393179,0.000000
5675.871315,444.123565,-8427.050478,0.000000
5675.871640,444.123565,-8197.221829,-296.082377
5675.871964,666.185348,-8427.050478,-518.144159
5675.872288,518.144159,-8350.440928,-296.082377
5675.872613,444.123565,-8427.050478,-370.102971
5675.872937,740.205942,-8580.269578,-296.082377
5675.873261,370.102971,-8580.269578,-370.102971
5675.873586,592.164754,-8810.098227,0.000000
5675.873910,296.082377,-8273.831378,-148.041188
5675.874235,518.144159,-8810.098227,-296.082377
5675.874559,0.000000,-8580.269578,-370.102971
5675.874883,444.123565,-8886.707777,-370.102971
5675.875208,444.123565,-8810.098227,-370.102971
5675.875532,592.164754,-8733.488677,-444.123565
5675.875856,444.123565,-8886.707777,-296.082377
5675.876181,592.164754,-8810.098227,-518.144159
5675.876505,814.226536,-8963.317327,0.000000
5675.876829,296.082377,-8580.269578,-592.164754
5675.877154,592.164754,-9116.536426,-444.123565
5675.877478,444.123565,-8810.098227,-222.061783
5675.877802,296.082377,-8810.098227,-370.102971
5675.878127,222.061783,-9039.926876,-444.123565
5675.878451,296.082377,-8886.707777,-222.061783
5675.878775,518.144159,-8273.831378,-592.164754
5675.879100,518.144159,-8656.879127,-370.102971
5675.879424,592.164754,-8656.879127,0.000000
5675.879748,222.061783,-8503.660028,-74.020594
5675.880073,296.082377,-8580.269578,-296.082377
5675.880397,518.144159,-8580.269578,-370.102971
5675.880722,444.123565,-8427.050478,0.000000
5675.881046,592.164754,-8427.050478,-222.061783
5675.881370,370.102971,-8810.098227,-296.082377
5675.881695,148.041188,-8580.269578,-444.123565
5675.882019,444.123565,-8350.440928,-518.144159
5675.882343,666.185348,-8580.269578,-370.102971
5675.882668,370.102971,-8580.269578,-296.082377
5675.882992,148.041188,-8580.269578,-370.102971
5675.883316,444.123565,-8656.879127,-148.041188
5675.883641,444.123565,-8963.317327,-296.082377
5675.883965,740.205942,-8503.660028,-296.082377
5675.884289,444.123565,-8810.098227,-296.082377
5675.884614,740.205942,-8197.221829,-296.082377
5675.884938,444.123565,-8656.879127,-296.082377
5675.885262,814.226536,-8350.440928,-296.082377
5675.885587,444.123565,-8197.221829,-370.102971
5675.885911,518.144159,-8427.050478,0.000000
5675.886235,370.102971,-8580.269578,0.000000
5675.886560,74.020594,-8503.660028,0.000000
5675.886884,592.164754,-8427.050478,0.000000
5675.887209,296.082377,-8350.440928,0.000000
5675.887533,370.102971,-8503.660028,-222.061783
5675.887857,592.164754,-8886.707777,-148.041188
5675.888182,592.164754,-8580.269578,0.000000
5675.888506,370.102971,-8656.879127,-370.102971
5675.888830,814.226536,-8503.660028,-370.102971
5675.889155,518.144159,-8733.488677,-296.082377
5675.889479,370.102971,-8810.098227,-222.061783
5675.889803,370.102971,-8197.221829,-222.061783
5675.890128,518.144159,-8580.269578,-444.123565
5675.890452,0.000000,-8656.879127,-222.061783
5675.890776,444.123565,-8656.879127,-518.144159
5675.891101,148.041188,-9039.926876,-518.144159
5675.891425,518.144159,-8273.831378,-370.102971
5675.891749,444.123565,-8656.879127,-370.102971
5675.892074,370.102971,-9193.145976,-444.123565
5675.892398,592.164754,-8197.221829,-296.082377
5675.892722,592.164754,-8503.660028,-370.102971
5675.893047,592.164754,-8580.269578,-370.102971
5675.893371,148.041188,-8886.707777,-444.123565
5675.893696,518.144159,-9193.145976,-592.164754
5675.894020,0.000000,-8656.879127,-518.144159
5675.894344,518.144159,-8810.098227,-222.061783
5675.894669,222.061783,-8503.660028,-296.082377
5675.894993,296.082377,-9116.536426,0.000000
5675.895317,222.061783,-8580.269578,-444.123565
5675.895642,444.123565,-8810.098227,-296.082377
5675.895966,592.164754,-8886.707777,-222.061783
5675.896290,814.226536,-9039.926876,0.000000
5675.896615,592.164754,-8733.488677,-296.082377
5675.896939,148.041188,-8503.660028,-370.102971
5675.897263,370.102971,-8503.660028,-148.041188
5675.897588,370.102971,-8733.488677,-370.102971
5675.897912,370.102971,-8503.660028,-296.082377
5675.898236,444.123565,-8580.269578,-740.205942
5675.898561,444.123565,-8273.831378,-148.041188
5675.898885,370.102971,-8733.488677,-370.102971
5675.899209,74.020594,-8503.660028,0.000000
5675.899534,444.123565,-8427.050478,-444.123565
5675.899858,444.123565,-8656.879127,-592.164754
5675.900183,444.123565,-8580.269578,-518.144159
5675.900507,814.226536,-8580.269578,-370.102971
5675.900831,814.226536,-8273.831378,-518.144159
5675.901156,592.164754,-8656.879127,-666.185348
5675.901480,592.164754,-8733.488677,-888.247130
5675.901804,370.102971,-7967.393179,0.000000
5675.902129,444.123565,-8580.269578,-296.082377
5675.902453,444.123565,-8580.269578,-444.123565
5675.902777,370.102971,-8044.002729,-296.082377
5675.903102,370.102971,-8427.050478,-296.082377
5675.903426,370.102971,-7967.393179,0.000000
5675.903750,296.082377,-8427.050478,-222.061783
5675.904075,592.164754,-8810.098227,-148.041188
5675.904399,592.164754,-8503.660028,-222.061783
5675.904723,370.102971,-8733.488677,0.000000
5675.905048,666.185348,-8733.488677,-370.102971
5675.905372,444.123565,-8427.050478,0.000000
5675.905697,74.020594,-8656.879127,-148.041188
5675.906021,148.041188,-8580.269578,-222.061783
5675.906345,888.247130,-8273.831378,-370.102971
5675.906670,444.123565,-8580.269578,-518.144159
5675.906994,444.123565,-8427.050478,-222.061783
5675.907318,370.102971,-8580.269578,-518.144159
5675.907643,1110.308913,-8656.879127,-370.102971
5675.907967,222.061783,-8273.831378,-518.144159
5675.908291,444.123565,-8580.269578,-444.123565
5675.908616,296.082377,-8197.221829,-518.144159
5675.908940,444.123565,-8427.050478,-444.123565
5675.909264,296.082377,-8886.707777,-370.102971
5675.909589,370.102971,-8503.660028,-740.205942
5675.909913,222.061783,-8580.269578,-222.061783
5675.910237,370.102971,-8580.269578,-592.164754
5675.910562,592.164754,-8503.660028,0.000000
5675.910886,296.082377,-8810.098227,-296.082377
5675.911210,370.102971,-8886.707777,0.000000
5675.911535,222.061783,-8656.879127,-592.164754
5675.911859,296.082377,-8273.831378,74.020594
5675.912184,296.082377,-8503.660028,0.000000
5675.912508,518.144159,-8503.660028,-296.082377
5675.912832,518.144159,-8810.098227,-370.102971
5675.913157,518.144159,-8810.098227,-148.041188
5675.913481,888.247130,-8580.269578,-370.102971
5675.913805,444.123565,-8503.660028,-296.082377
5675.914130,518.144159,-8656.879127,-370.102971
5675.914454,444.123565,-8427.050478,0.000000
5675.914779,592.164754,-8580.269578,74.020594
5675.915103,370.102971,-8656.879127,-518.144159
5675.915427,370.102971,-8886.707777,-296.082377
5675.915752,0.000000,-8273.831378,0.000000
5675.916076,370.102971,-8810.098227,74.020594
5675.916400,444.123565,-8733.488677,0.000000
5675.916725,666.185348,-8350.440928,-296.082377
5675.917049,592.164754,-8503.660028,-444.123565
5675.917373,444.123565,-8427.050478,-296.082377
5675.917698,370.102971,-8197.221829,-148.041188
5675.918022,296.082377,-8733.488677,0.000000
5675.918347,444.123565,-8273.831378,-444.123565
5675.918671,370.102971,-8810.098227,-222.061783
5675.918995,814.226536,-8503.660028,-444.123565
5675.919320,444.123565,-8350.440928,0.000000
5675.919644,518.144159,-8580.269578,-370.102971
5675.919968,518.144159,-8656.879127,-148.041188
5675.920293,370.102971,-8197.221829,-222.061783
5675.920617,444.123565,-8580.269578,-148.041188
5675.920942,518.144159,-8503.660028,-148.041188
5675.921266,0.000000,-8656.879127,74.020594
5675.921590,592.164754,-8120.612279,-296.082377
5675.921915,518.144159,-8197.221829,-370.102971
5675.922239,518.144159,-8810.098227,-222.061783
5675.922563,518.144159,-8580.269578,0.000000
5675.922888,0.000000,-8580.269578,-296.082377
5675.923212,740.205942,-9499.584175,-444.123565
5675.923536,222.061783,-8427.050478,-370.102971
5675.923861,518.144159,-8733.488677,-296.082377
5675.924185,0.000000,-8350.440928,-444.123565
5675.924510,296.082377,-9116.536426,0.000000
5675.924834,296.082377,-8503.660028,-518.144159
5675.925158,518.144159,-8580.269578,-296.082377
5675.925483,518.144159,-8427.050478,-444.123565
5675.925807,666.185348,-8886.707777,-370.102971
5675.926131,740.205942,-8580.269578,-592.164754
5675.926456,148.041188,-8733.488677,-444.123565
5675.926780,0.000000,-8733.488677,-518.144159
5675.927104,0.000000,-8733.488677,-518.144159
5675.927429,444.123565,-9346.365076,-740.205942
5675.927753,148.041188,-8656.879127,-518.144159
5675.928078,370.102971,-8580.269578,-666.185348
5675.928402,296.082377,-8503.660028,-370.102971
5675.928726,666.185348,-8580.269578,-370.102971
5675.929051,666.185348,-8580.269578,-592.164754
5675.929375,666.185348,-8580.269578,-444.123565
5675.929699,370.102971,-8197.221829,-370.102971
5675.930024,740.205942,-8733.488677,-592.164754
5675.930348,296.082377,-8503.660028,-222.061783
5675.930673,370.102971,-8503.660028,-740.205942
5675.930997,296.082377,-8503.660028,-592.164754
5675.931321,518.144159,-8427.050478,-518.144159
5675.931646,592.164754,-8810.098227,-296.082377
5675.931970,592.164754,-8427.050478,-444.123565
5675.932294,740.205942,-8427.050478,-444.123565
5675.932619,444.123565,-8427.050478,-518.144159
5675.932943,592.164754,-8503.660028,-592.164754
5675.933267,222.061783,-8273.831378,-518.144159
5675.933592,296.082377,-8810.098227,-444.123565
