#time,accel_x,accel_y,accel_z
4613.607058,148.041188,-8503.660028,-222.061783
4613.607382,666.185348,-8350.440928,0.000000
4613.607706,592.164754,-8580.269578,-222.061783
4613.608030,592.164754,-8886.707777,-222.061783
4613.608354,370.102971,-8580.269578,-148.041188
4613.608679,222.061783,-8580.269578,-148.041188
4613.609003,592.164754,-8580.269578,-518.144159
4613.609327,444.123565,-8810.098227,-222.061783
4613.609651,518.144159,-8503.660028,-370.102971
4613.609975,370.102971,-8810.098227,-370.102971
4613.610300,814.226536,-9039.926876,0.000000
4613.610624,518.144159,-8503.660028,-370.102971
4613.610948,370.102971,-8580.269578,-222.061783
4613.611272,518.144159,-8580.269578,0.000000
4613.611596,592.164754,-8810.098227,-296.082377
4613.611921,444.123565,-8733.488677,-148.041188
4613.612245,518.144159,-8580.269578,-222.061783
4613.612569,222.061783,-8963.317327,-444.123565
4613.612893,222.061783,-8427.050478,-370.102971
4613.613217,666.185348,-8273.831378,-222.061783
4613.613542,592.164754,-8810.098227,-444.123565
4613.613866,518.144159,-8580.269578,-518.144159
4613.614190,296.082377,-8503.660028,-222.061783
4613.614514,444.123565,-9193.145976,74.020594
4613.614838,370.102971,-8656.879127,-370.102971
4613.615163,222.061783,-8733.488677,-148.041188
4613.615487,444.123565,-8197.221829,-296.082377
4613.615811,296.082377,-8886.707777,-518.144159
4613.616135,148.041188,-8733.488677,-222.061783
4613.616460,444.123565,-8503.660028,-222.061783
4613.616784,592.164754,-8656.879127,-518.144159
4613.617108,296.082377,-8503.660028,-370.102971
4613.617432,666.185348,-8273.831378,-888.247130
4613.617756,370.102971,-8503.660028,-296.082377
4613.618081,370.102971,-8427.050478,-296.082377
4613.618405,592.164754,-8656.879127,-518.144159
4613.618729,444.123565,-8427.050478,-444.123565
4613.619053,444.123565,-8350.440928,-74.020594
4613.619377,148.041188,-8503.660028,-592.164754
4613.619702,296.082377,-8733.488677,-222.061783
4613.620026,814.226536,-8503.660028,-370.102971
4613.620350,592.164754,-8886.707777,-370.102971
4613.620674,444.123565,-8350.440928,-296.082377
4613.620998,444.123565,-8810.098227,0.000000
4613.621323,222.061783,-8273.831378,-296.082377
4613.621647,370.102971,-8350.440928,-370.102971
4613.621971,592.164754,-8656.879127,-444.123565
4613.622295,444.123565,-8656.879127,-370.102971
4613.622619,296.082377,-8427.050478,-222.061783
4613.622944,0.000000,-8197.221829,-296.082377
4613.623268,592.164754,-8503.660028,-592.164754
4613.623592,444.123565,-8886.707777,-74.020594
4613.623916,592.164754,-8273.831378,-222.061783
4613.624240,740.205942,-8580.269578,-74.020594
4613.624565,444.123565,-8427.050478,-444.123565
4613.624889,370.102971,-8733.488677,-296.082377
4613.625213,296.082377,-8503.660028,-444.123565
4613.625537,444.123565,-8886.707777,-444.123565
4613.625861,518.144159,-8733.488677,-444.123565
4613.626186,222.061783,-8503.660028,0.000000
4613.626510,148.041188,-8810.098227,-148.041188
4613.626834,518.144159,-8427.050478,-296.082377
4613.627158,740.205942,-9269.755526,-370.102971
4613.627483,814.226536,-8963.317327,-370.102971
4613.627807,444.123565,-8580.269578,-370.102971
4613.628131,370.102971,-8656.879127,-296.082377
4613.628455,148.041188,-8503.660028,-296.082377
4613.628779,222.061783,-8810.098227,-296.082377
4613.629104,444.123565,-8963.317327,-444.123565
4613.629428,592.164754,-8427.050478,-370.102971
4613.629752,296.082377,-8503.660028,-592.164754
4613.630076,518.144159,-9422.974625,74.020594
4613.630400,444.123565,-8503.660028,-296.082377
4613.630725,592.164754,-8580.269578,0.000000
4613.631049,296.082377,-8197.221829,-370.102971
4613.631373,518.144159,-8580.269578,-370.102971
4613.631697,370.102971,-8580.269578,-370.102971
4613.632021,370.102971,-8656.879127,-296.082377
4613.632346,518.144159,-8733.488677,-592.164754
4613.632670,518.144159,-8350.440928,-518.144159
4613.632994,370.102971,-8810.098227,-296.082377
4613.633318,518.144159,-8656.879127,-296.082377
4613.633642,296.082377,-8656.879127,-444.123565
4613.633967,592.164754,-8503.660028,-370.102971
4613.634291,740.205942,-9422.974625,222.061783
4613.634615,370.102971,-8503.660028,-148.041188
4613.634939,592.164754,-8503.660028,-592.164754
4613.635263,370.102971,-8503.660028,-148.041188
4613.635588,370.102971,-8427.050478,-444.123565
4613.635912,296.082377,-8656.879127,-444.123565
4613.636236,296.082377,-8427.050478,-296.082377
4613.636560,370.102971,-8580.269578,-296.082377
4613.636885,222.061783,-8656.879127,-370.102971
4613.637209,444.123565,-8733.488677,0.000000
4613.637533,444.123565,-8580.269578,-444.123565
4613.637857,444.123565,-8503.660028,-148.041188
4613.638181,518.144159,-8350.440928,-222.061783
4613.638506,0.000000,-8810.098227,0.000000
4613.638830,370.102971,-8503.660028,-370.102971
4613.639154,370.102971,-8963.317327,-296.082377
4613.639478,444.123565,-8580.269578,-444.123565
4613.639802,518.144159,-8580.269578,-296.082377
4613.640127,444.123565,-8580.269578,-888.247130
4613.640451,444.123565,-8503.660028,-296.082377
4613.640775,444.123565,-8273.831378,-592.164754
4613.641099,740.205942,-8733.488677,-518.144159
4613.641423,1036.288319,-8656.879127,-666.185348
4613.641748,444.123565,-8656.879127,-592.164754
4613.642072,444.123565,-8427.050478,-814.226536
4613.642396,592.164754,-8427.050478,-666.185348
4613.642720,518.144159,-9193.145976,-888.247130
4613.643044,518.144159,-8733.488677,-370.102971
4613.643369,296.082377,-8427.050478,-518.144159
4613.643693,222.061783,-8886.707777,-370.102971
4613.644017,444.123565,-8503.660028,-740.205942
4613.644341,740.205942,-8503.660028,-814.226536
4613.644665,444.123565,-8350.440928,-740.205942
4613.644990,148.041188,-8197.221829,-592.164754
4613.645314,370.102971,-8733.488677,-962.267725
4613.645638,962.267725,-8656.879127,-740.205942
4613.645962,444.123565,-8810.098227,-888.247130
4613.646286,222.061783,-8427.050478,-740.205942
4613.646611,666.185348,-8580.269578,-814.226536
4613.646935,444.123565,-8810.098227,-666.185348
4613.647259,370.102971,-9039.926876,-814.226536
4613.647583,444.123565,-8427.050478,-888.247130
4613.647908,518.144159,-8810.098227,-962.267725
4613.648232,592.164754,-8350.440928,-1184.329507
4613.648556,592.164754,-8350.440928,-814.226536
4613.648880,444.123565,-8580.269578,-740.205942
4613.649204,296.082377,-8580.269578,-962.267725
4613.649529,518.144159,-8580.269578,-666.185348
4613.649853,370.102971,-8044.002729,-666.185348
4613.650177,518.144159,-8656.879127,-592.164754
4613.650501,444.123565,-8427.050478,-962.267725
4613.650825,814.226536,-8656.879127,-666.185348
4613.651150,740.205942,-8656.879127,-814.226536
4613.651474,518.144159,-8503.660028,-592.164754
4613.651798,222.061783,-8427.050478,-518.144159
4613.652122,518.144159,-8656.879127,-518.144159
4613.652446,370.102971,-8503.660028,-888.247130
4613.652771,666.185348,-8580.269578,-444.123565
4613.653095,518.144159,-8580.269578,-666.185348
4613.653419,592.164754,-8733.488677,-518.144159
4613.653743,592.164754,-8733.488677,-296.082377
4613.654067,592.164754,-8810.098227,-222.061783
4613.654392,296.082377,-8733.488677,-222.061783
4613.654716,666.185348,-8503.660028,-296.082377
4613.655040,740.205942,-8580.269578,-148.041188
4613.655364,222.061783,-8580.269578,-222.061783
4613.655688,592.164754,-8427.050478,-370.102971
4613.656013,444.123565,-8503.660028,0.000000
4613.656337,370.102971,-8427.050478,0.000000
4613.656661,444.123565,-8810.098227,-222.061783
4613.656985,296.082377,-8427.050478,-370.102971
4613.657310,296.082377,-8503.660028,0.000000
4613.657634,296.082377,-8963.317327,-74.020594
4613.657958,370.102971,-8580.269578,-222.061783
4613.658282,444.123565,-8656.879127,74.020594
4613.658606,370.102971,-8810.098227,0.000000
4613.658931,0.000000,-8503.660028,222.061783
4613.659255,296.082377,-8810.098227,148.041188
4613.659579,370.102971,-8580.269578,0.000000
4613.659903,370.102971,-8427.050478,0.000000
4613.660227,296.082377,-8886.707777,74.020594
4613.660552,370.102971,-8503.660028,296.082377
4613.660876,148.041188,-8503.660028,296.082377
4613.661200,0.000000,-9193.145976,518.144159
4613.661524,296.082377,-8656.879127,0.000000
4613.661848,666.185348,-8886.707777,148.041188
4613.662173,444.123565,-8656.879127,370.102971
4613.662497,444.123565,-8963.317327,444.123565
4613.662821,592.164754,-8427.050478,370.102971
4613.663145,296.082377,-8580.269578,148.041188
4613.663469,444.123565,-8503.660028,0.000000
4613.663794,444.123565,-8350.440928,0.000000
4613.664118,0.000000,-8503.660028,296.082377
4613.664442,74.020594,-8503.660028,74.020594
4613.664766,222.061783,-8503.660028,74.020594
4613.665090,444.123565,-8197.221829,0.000000
4613.665415,592.164754,-8656.879127,-296.082377
4613.665739,814.226536,-8580.269578,222.061783
4613.666063,666.185348,-8963.317327,296.082377
4613.666387,888.247130,-8273.831378,74.020594
4613.666712,962.267725,-8810.098227,222.061783
4613.667036,666.185348,-8580.269578,-222.061783
4613.667360,814.226536,-8656.879127,0.000000
4613.667684,444.123565,-8197.221829,0.000000
4613.668008,296.082377,-8656.879127,0.000000
4613.668333,296.082377,-8733.488677,0.000000
4613.668657,592.164754,-8810.098227,0.000000
4613.668981,296.082377,-8503.660028,-74.020594
4613.669305,444.123565,-8733.488677,0.000000
4613.669629,74.020594,-8886.707777,370.102971
4613.669954,518.144159,-8656.879127,0.000000
4613.670278,666.185348,-8503.660028,0.000000
4613.670602,740.205942,-8733.488677,0.000000
4613.670926,444.123565,-8197.221829,0.000000
4613.671250,0.000000,-8656.879127,0.000000
4613.671575,148.041188,-8810.098227,-148.041188
4613.671899,518.144159,-8580.269578,-296.082377
4613.672223,518.144159,-8810.098227,-518.144159
4613.672547,222.061783,-8273.831378,148.041188
4613.672871,518.144159,-8350.440928,-222.061783
4613.673196,518.144159,-8886.707777,-370.102971
4613.673520,222.061783,-8350.440928,-740.205942
4613.673844,0.000000,-8810.098227,-370.102971
4613.674168,222.061783,-8197.221829,-888.247130
4613.674492,296.082377,-8580.269578,-592.164754
4613.674817,518.144159,-8580.269578,-888.247130
4613.675141,222.061783,-8810.098227,-740.205942
4613.675465,444.123565,-8733.488677,-1036.288319
4613.675790,148.041188,-8656.879127,-592.164754
4613.676114,444.123565,-8733.488677,-740.205942
4613.676438,222.061783,-8580.269578,-592.164754
4613.676762,0.000000,-8427.050478,-370.102971
4613.677087,148.041188,-8656.879127,-666.185348
4613.677411,370.102971,-8733.488677,-814.226536
4613.677735,370.102971,-8963.317327,-592.164754
4613.678059,444.123565,-8503.660028,0.000000
4613.678384,740.205942,-8733.488677,-962.267725
4613.678708,592.164754,-8886.707777,-518.144159
4613.679032,962.267725,-8580.269578,-888.247130
4613.679356,814.226536,-8963.317327,-740.205942
4613.679681,1036.288319,-8580.269578,-592.164754
4613.680005,592.164754,-8733.488677,-740.205942
4613.680329,296.082377,-8733.488677,-814.226536
4613.680653,222.061783,-8503.660028,-1036.288319
4613.680978,740.205942,-8963.317327,-1184.329507
4613.681302,148.041188,-8350.440928,-666.185348
4613.681626,222.061783,-8656.879127,-814.226536
4613.681950,518.144159,-8733.488677,-1036.288319
4613.682275,666.185348,-8886.707777,-592.164754
4613.682599,888.247130,-8963.317327,-518.144159
4613.682923,1110.308913,-8810.098227,-592.164754
4613.683248,592.164754,-8503.660028,-814.226536
4613.683572,222.061783,-8656.879127,-518.144159
4613.683896,444.123565,-8120.612279,-666.185348
4613.684220,444.123565,-8427.050478,-666.185348
4613.684545,0.000000,-8427.050478,-740.205942
4613.684869,444.123565,-8273.831378,-740.205942
4613.685193,74.020594,-8350.440928,-370.102971
4613.685517,444.123565,-8580.269578,-148.041188
4613.685842,814.226536,-8810.098227,-148.041188
4613.686166,888.247130,-8733.488677,0.000000
4613.686490,666.185348,-8656.879127,0.000000
4613.686814,814.226536,-8120.612279,0.000000
4613.687139,888.247130,-8427.050478,0.000000
4613.687463,518.144159,-8427.050478,-518.144159
4613.687787,444.123565,-9039.926876,-444.123565
4613.688111,814.226536,-8733.488677,-444.123565
4613.688436,222.061783,-8656.879127,-296.082377
4613.688760,0.000000,-8656.879127,0.000000
4613.689084,148.041188,-8503.660028,222.061783
4613.689408,518.144159,-8886.707777,74.020594
4613.689733,444.123565,-8733.488677,222.061783
4613.690057,444.123565,-8427.050478,74.020594
4613.690381,592.164754,-8580.269578,370.102971
4613.690706,592.164754,-8503.660028,0.000000
4613.691030,740.205942,-8427.050478,0.000000
4613.691354,592.164754,-8580.269578,0.000000
4613.691678,518.144159,-8350.440928,74.020594
4613.692003,0.000000,-8350.440928,296.082377
4613.692327,-296.082377,-9116.536426,740.205942
4613.692651,-222.061783,-8580.269578,370.102971
4613.692975,-222.061783,-8656.879127,296.082377
4613.693300,148.041188,-8810.098227,296.082377
4613.693624,814.226536,-8810.098227,666.185348
4613.693948,740.205942,-8733.488677,444.123565
4613.694272,962.267725,-8810.098227,592.164754
4613.694597,740.205942,-8580.269578,518.144159
4613.694921,962.267725,-8810.098227,592.164754
4613.695245,814.226536,-8197.221829,444.123565
4613.695569,518.144159,-8120.612279,222.061783
4613.695894,222.061783,-8197.221829,148.041188
4613.696218,296.082377,-8350.440928,74.020594
4613.696542,222.061783,-8273.831378,0.000000
4613.696866,370.102971,-8810.098227,74.020594
4613.697191,444.123565,-8350.440928,518.144159
4613.697515,592.164754,-8733.488677,518.144159
4613.697839,444.123565,-7967.393179,592.164754
4613.698164,740.205942,-8503.660028,444.123565
4613.698488,370.102971,-8197.221829,592.164754
4613.698812,444.123565,-8427.050478,296.082377
4613.699136,296.082377,-8656.879127,0.000000
4613.699461,222.061783,-8503.660028,222.061783
4613.699785,296.082377,-8580.269578,0.000000
4613.700109,0.000000,-8733.488677,-296.082377
4613.700433,148.041188,-8733.488677,222.061783
4613.700758,0.000000,-7890.783629,0.000000
4613.701082,0.000000,-8503.660028,444.123565
4613.701406,518.144159,-8503.660028,444.123565
4613.701730,740.205942,-8656.879127,148.041188
4613.702055,1110.308913,-8733.488677,518.144159
4613.702379,1036.288319,-8120.612279,0.000000
4613.702703,518.144159,-9039.926876,0.000000
4613.703027,592.164754,-8427.050478,0.000000
4613.703352,148.041188,-8503.660028,0.000000
4613.703676,222.061783,-8733.488677,-296.082377
4613.704000,-222.061783,-8273.831378,222.061783
4613.704325,0.000000,-8656.879127,74.020594
4613.704649,74.020594,-8886.707777,0.000000
4613.704973,444.123565,-9116.536426,-444.123565
4613.705297,814.226536,-9193.145976,74.020594
4613.705622,296.082377,-8427.050478,74.020594
4613.705946,222.061783,-8656.879127,74.020594
4613.706270,0.000000,-8044.002729,0.000000
4613.706594,0.000000,-8656.879127,-444.123565
4613.706919,148.041188,-8503.660028,-518.144159
4613.707243,0.000000,-8503.660028,-296.082377
4613.707567,148.041188,-8503.660028,-592.164754
4613.707891,296.082377,-9039.926876,-296.082377
4613.708216,370.102971,-8503.660028,-666.185348
4613.708540,666.185348,-8580.269578,-666.185348
4613.708864,444.123565,-8427.050478,-814.226536
4613.709188,148.041188,-8580.269578,0.000000
4613.709513,370.102971,-8427.050478,-518.144159
4613.709837,814.226536,-8427.050478,-592.164754
4613.710161,518.144159,-8350.440928,-666.185348
4613.710485,592.164754,-8656.879127,-888.247130
4613.710810,444.123565,-8503.660028,-740.205942
4613.711134,518.144159,-8427.050478,-814.226536
4613.711458,296.082377,-8427.050478,-592.164754
4613.711783,444.123565,-8350.440928,-666.185348
4613.712107,962.267725,-8273.831378,-888.247130
4613.712431,592.164754,-8350.440928,-518.144159
4613.712755,518.144159,-8427.050478,-666.185348
4613.713080,444.123565,-8886.707777,-74.020594
4613.713404,962.267725,-8044.002729,-444.123565
4613.713728,888.247130,-8810.098227,-370.102971
4613.714052,666.185348,-8580.269578,-888.247130
4613.714377,444.123565,-8427.050478,-518.144159
4613.714701,370.102971,-8427.050478,-666.185348
4613.715025,666.185348,-8503.660028,-518.144159
4613.715349,74.020594,-8580.269578,-888.247130
4613.715674,370.102971,-8656.879127,-666.185348
4613.715998,592.164754,-8273.831378,-740.205942
4613.716322,888.247130,-8273.831378,-370.102971
4613.716646,666.185348,-8427.050478,-888.247130
4613.716971,592.164754,-8580.269578,-518.144159
4613.717295,222.061783,-8886.707777,-740.205942
4613.717619,0.000000,-9039.926876,-444.123565
4613.717943,0.000000,-8886.707777,-518.144159
4613.718268,0.000000,-8580.269578,-814.226536
4613.718592,296.082377,-8733.488677,-814.226536
4613.718916,222.061783,-8733.488677,-962.267725
4613.719241,518.144159,-8810.098227,-444.123565
4613.719565,444.123565,-8427.050478,-666.185348
4613.719889,74.020594,-9116.536426,-740.205942
4613.720213,370.102971,-8503.660028,-814.226536
4613.720538,222.061783,-8580.269578,-296.082377
4613.720862,148.041188,-8427.050478,-592.164754
4613.721186,296.082377,-8656.879127,-666.185348
4613.721510,296.082377,-8580.269578,-888.247130
4613.721835,518.144159,-8580.269578,-592.164754
4613.722159,296.082377,-8273.831378,-1110.308913
4613.722483,444.123565,-8810.098227,-888.247130
4613.722807,592.164754,-8197.221829,-1036.288319
4613.723132,74.020594,-8503.660028,-592.164754
4613.723456,370.102971,-8580.269578,-1110.308913
4613.723780,74.020594,-8503.660028,-888.247130
4613.724104,296.082377,-8503.660028,-888.247130
4613.724429,444.123565,-9116.536426,-814.226536
4613.724753,740.205942,-9116.536426,-444.123565
4613.725077,592.164754,-8963.317327,-518.144159
4613.725401,444.123565,-8810.098227,-518.144159
4613.725726,296.082377,-8733.488677,-740.205942
4613.726050,296.082377,-8427.050478,-666.185348
4613.726374,222.061783,-8503.660028,-370.102971
4613.726699,370.102971,-8503.660028,-814.226536
4613.727023,370.102971,-8656.879127,-666.185348
4613.727347,444.123565,-8427.050478,-666.185348
4613.727671,1110.308913,-9269.755526,-740.205942
4613.727996,592.164754,-8656.879127,-518.144159
4613.728320,370.102971,-8810.098227,0.000000
4613.728644,444.123565,-8503.660028,-148.041188
4613.728968,222.061783,-8273.831378,-370.102971
4613.729293,518.144159,-8580.269578,-666.185348
4613.729617,592.164754,-8580.269578,-518.144159
4613.729941,666.185348,-8350.440928,-370.102971
4613.730265,814.226536,-8810.098227,-518.144159
4613.730590,518.144159,-8120.612279,-222.061783
4613.730914,962.267725,-8044.002729,-518.144159
4613.731238,370.102971,-8273.831378,-518.144159
4613.731562,444.123565,-8120.612279,-222.061783
4613.731887,296.082377,-7967.393179,74.020594
4613.732211,518.144159,-8810.098227,-592.164754
4613.732535,740.205942,-8503.660028,-666.185348
4613.732860,740.205942,-8733.488677,-370.102971
4613.733184,1332.370696,-8503.660028,-666.185348
4613.733508,592.164754,-8350.440928,-296.082377
4613.733832,74.020594,-8656.879127,-296.082377
4613.734157,370.102971,-8120.612279,-444.123565
4613.734481,370.102971,-8503.660028,-518.144159
4613.734805,444.123565,-8656.879127,-370.102971
4613.735129,444.123565,-8810.098227,0.000000
4613.735454,296.082377,-8656.879127,-444.123565
4613.735778,592.164754,-8886.707777,-444.123565
4613.736102,740.205942,-9039.926876,-444.123565
4613.736426,148.041188,-9039.926876,0.000000
4613.736751,148.041188,-8427.050478,0.000000
4613.737075,74.020594,-8810.098227,-296.082377
4613.737399,296.082377,-8580.269578,-518.144159
4613.737723,370.102971,-8810.098227,-370.102971
4613.738048,814.226536,-8733.488677,-740.205942
4613.738372,740.205942,-8427.050478,-444.123565
4613.738696,740.205942,-8733.488677,-222.061783
4613.739020,814.226536,-8810.098227,-296.082377
4613.739345,740.205942,-8886.707777,-222.061783
4613.739669,592.164754,-8580.269578,-222.061783
4613.739993,222.061783,-8580.269578,-296.082377
4613.740318,814.226536,-8197.221829,222.061783
4613.740642,296.082377,-8427.050478,-592.164754
4613.740966,518.144159,-8656.879127,-222.061783
4613.741290,592.164754,-8580.269578,-370.102971
4613.741615,666.185348,-8886.707777,-518.144159
4613.741939,962.267725,-8656.879127,-444.123565
4613.742263,370.102971,-8503.660028,-444.123565
4613.742587,444.123565,-8580.269578,-740.205942
4613.742912,518.144159,-8503.660028,-740.205942
4613.743236,148.041188,-8963.317327,0.000000
4613.743560,666.185348,-9039.926876,-518.144159
4613.743884,518.144159,-8963.317327,-888.247130
4613.744209,222.061783,-8733.488677,-592.164754
4613.744533,814.226536,-9039.926876,-444.123565
4613.744857,592.164754,-8733.488677,-666.185348
4613.745181,444.123565,-8580.269578,-666.185348
4613.745506,222.061783,-8273.831378,-444.123565
4613.745830,370.102971,-8427.050478,-888.247130
4613.746154,666.185348,-8733.488677,-814.226536
4613.746478,814.226536,-8810.098227,-888.247130
4613.746803,592.164754,-8656.879127,-814.226536
4613.747127,592.164754,-8886.707777,-592.164754
4613.747451,0.000000,-8580.269578,-444.123565
4613.747776,0.000000,-8810.098227,-666.185348
4613.748100,0.000000,-8656.879127,-814.226536
4613.748424,148.041188,-8503.660028,-814.226536
4613.748748,444.123565,-8810.098227,-666.185348
4613.749073,444.123565,-8427.050478,-814.226536
4613.749397,814.226536,-8503.660028,-962.267725
4613.749721,740.205942,-8656.879127,-888.247130
4613.750045,518.144159,-8503.660028,-962.267725
4613.750370,0.000000,-8580.269578,-666.185348
4613.750694,0.000000,-8350.440928,-962.267725
4613.751018,148.041188,-8810.098227,-666.185348
4613.751342,0.000000,-8656.879127,-962.267725
4613.751667,222.061783,-8580.269578,-1184.329507
4613.751991,518.144159,-8886.707777,-888.247130
4613.752315,444.123565,-8580.269578,-740.205942
4613.752639,370.102971,-8580.269578,-740.205942
4613.752964,296.082377,-8656.879127,-666.185348
4613.753288,518.144159,-8273.831378,-740.205942
4613.753612,370.102971,-8580.269578,-814.226536
4613.753936,222.061783,-8350.440928,-962.267725
4613.754261,296.082377,-8503.660028,-740.205942
4613.754585,592.164754,-8503.660028,-1184.329507
4613.754909,666.185348,-8810.098227,-962.267725
4613.755234,592.164754,-8810.098227,-888.247130
4613.755558,444.123565,-8580.269578,-740.205942
4613.755882,222.061783,-8886.707777,-444.123565
4613.756206,148.041188,-8044.002729,-666.185348
4613.756531,148.041188,-8427.050478,-592.164754
4613.756855,296.082377,-8197.221829,-592.164754
4613.757179,518.144159,-8580.269578,-962.267725
4613.757503,814.226536,-8656.879127,-740.205942
4613.757828,518.144159,-8273.831378,-592.164754
4613.758152,444.123565,-8810.098227,-518.144159
4613.758476,518.144159,-8044.002729,-592.164754
4613.758800,518.144159,-8427.050478,-296.082377
4613.759125,222.061783,-8503.660028,0.000000
4613.759449,0.000000,-8197.221829,-518.144159
4613.759773,444.123565,-8886.707777,-370.102971
4613.760097,444.123565,-8656.879127,-444.123565
4613.760422,740.205942,-8656.879127,-444.123565
4613.760746,888.247130,-8656.879127,-518.144159
4613.761070,518.144159,-7967.393179,-296.082377
4613.761394,814.226536,-8810.098227,-296.082377
4613.761719,518.144159,-8503.660028,-740.205942
4613.762043,666.185348,-8503.660028,-296.082377
4613.762367,444.123565,-8120.612279,-370.102971
4613.762692,444.123565,-8733.488677,-222.061783
4613.763016,296.082377,-9116.536426,0.000000
4613.763340,740.205942,-8963.317327,-370.102971
4613.763664,592.164754,-8427.050478,-222.061783
4613.763989,370.102971,-8733.488677,-444.123565
4613.764313,666.185348,-9039.926876,148.041188
4613.764637,814.226536,-8580.269578,0.000000
4613.764961,296.082377,-8503.660028,-370.102971
4613.765286,518.144159,-8886.707777,0.000000
4613.765610,666.185348,-8580.269578,-148.041188
4613.765934,814.226536,-9116.536426,0.000000
4613.766258,666.185348,-8656.879127,0.000000
4613.766583,518.144159,-8580.269578,74.020594
4613.766907,666.185348,-8580.269578,148.041188
4613.767231,666.185348,-8580.269578,-296.082377
4613.767555,222.061783,-8963.317327,0.000000
4613.767880,444.123565,-8350.440928,148.041188
4613.768204,296.082377,-8810.098227,0.000000
4613.768528,296.082377,-9039.926876,0.000000
4613.768853,518.144159,-8580.269578,0.000000
4613.769177,518.144159,-9039.926876,-222.061783
4613.769501,222.061783,-8427.050478,0.000000
4613.769825,0.000000,-9039.926876,518.144159
4613.770150,0.000000,-8427.050478,74.020594
4613.770474,0.000000,-8273.831378,0.000000
4613.770798,222.061783,-8810.098227,0.000000
4613.771122,296.082377,-8503.660028,-222.061783
4613.771447,1110.308913,-8656.879127,0.000000
4613.771771,444.123565,-8503.660028,-148.041188
4613.772095,148.041188,-8580.269578,74.020594
4613.772419,518.144159,-8580.269578,0.000000
4613.772744,0.000000,-8580.269578,370.102971
4613.773068,296.082377,-8656.879127,370.102971
4613.773392,296.082377,-8350.440928,-148.041188
4613.773716,296.082377,-8656.879127,222.061783
4613.774041,592.164754,-8427.050478,-296.082377
4613.774365,444.123565,-8656.879127,0.000000
4613.774689,962.267725,-8580.269578,0.000000
4613.775013,592.164754,-8580.269578,0.000000
4613.775338,222.061783,-8580.269578,0.000000
4613.775662,444.123565,-7507.735880,148.041188
4613.775986,666.185348,-8197.221829,-370.102971
4613.776310,592.164754,-8656.879127,0.000000
4613.776635,740.205942,-8120.612279,-370.102971
4613.776959,666.185348,-8810.098227,0.000000
4613.777283,888.247130,-8273.831378,-370.102971
4613.777608,518.144159,-8273.831378,-518.144159
4613.777932,444.123565,-8886.707777,-296.082377
4613.778256,518.144159,-8120.612279,-222.061783
4613.778580,814.226536,-8656.879127,-444.123565
4613.778905,0.000000,-8580.269578,-444.123565
4613.779229,296.082377,-8580.269578,-444.123565
4613.779553,740.205942,-8580.269578,-518.144159
4613.779877,962.267725,-8656.879127,-592.164754
4613.780202,814.226536,-8733.488677,-444.123565
4613.780526,296.082377,-8656.879127,-296.082377
4613.780850,222.061783,-8580.269578,0.000000
4613.781174,592.164754,-8273.831378,-518.144159
4613.781499,814.226536,-8503.660028,-444.123565
4613.781823,888.247130,-8580.269578,-296.082377
4613.782147,592.164754,-8350.440928,-444.123565
4613.782471,814.226536,-8963.317327,-518.144159
4613.782796,962.267725,-8044.002729,-222.061783
4613.783120,370.102971,-8350.440928,-296.082377
4613.783444,74.020594,-8580.269578,-370.102971
4613.783768,0.000000,-8580.269578,-296.082377
4613.784093,444.123565,-8580.269578,-370.102971
4613.784417,0.000000,-8427.050478,-296.082377
4613.784741,74.020594,-8733.488677,-370.102971
4613.785065,666.185348,-8810.098227,-370.102971
4613.785390,666.185348,-8273.831378,-296.082377
4613.785714,370.102971,-8733.488677,-370.102971
4613.786038,222.061783,-8580.269578,-444.123565
4613.786362,296.082377,-8273.831378,-148.041188
4613.786687,148.041188,-8886.707777,-444.123565
4613.787011,444.123565,-9269.755526,-444.123565
4613.787335,444.123565,-8886.707777,-222.061783
4613.787660,444.123565,-8503.660028,-592.164754
4613.787984,592.164754,-8273.831378,0.000000
4613.788308,814.226536,-9269.755526,-444.123565
4613.788632,592.164754,-8503.660028,0.000000
4613.788957,518.144159,-8656.879127,0.000000
4613.789281,518.144159,-8580.269578,-296.082377
4613.789605,444.123565,-8656.879127,-222.061783
4613.789929,222.061783,-8580.269578,-296.082377
4613.790254,444.123565,-8656.879127,-222.061783
4613.790578,370.102971,-8656.879127,0.000000
4613.790902,370.102971,-8656.879127,-296.082377
4613.791226,222.061783,-8197.221829,74.020594
4613.791551,0.000000,-8427.050478,0.000000
4613.791875,222.061783,-8580.269578,0.000000
4613.792199,444.123565,-8580.269578,296.082377
4613.792523,296.082377,-8273.831378,0.000000
4613.792848,518.144159,-8656.879127,222.061783
4613.793172,666.185348,-8273.831378,0.000000
4613.793496,666.185348,-8733.488677,74.020594
4613.793820,740.205942,-8580.269578,0.000000
4613.794145,666.185348,-8580.269578,0.000000
4613.794469,518.144159,-8656.879127,0.000000
4613.794793,-222.061783,-8197.221829,0.000000
4613.795117,222.061783,-8886.707777,74.020594
4613.795442,592.164754,-8733.488677,-444.123565
4613.795766,296.082377,-8503.660028,0.000000
4613.796090,740.205942,-8733.488677,0.000000
4613.796414,1110.308913,-8427.050478,0.000000
4613.796739,814.226536,-8886.707777,-222.061783
4613.797063,370.102971,-8580.269578,0.000000
4613.797387,222.061783,-8963.317327,296.082377
4613.797712,-148.041188,-8810.098227,0.000000
4613.798036,0.000000,-8733.488677,0.000000
4613.798360,148.041188,-9039.926876,222.061783
4613.798684,740.205942,-8656.879127,-296.082377
4613.799009,888.247130,-8503.660028,0.000000
4613.799333,518.144159,-8503.660028,-222.061783
4613.799657,592.164754,-9269.755526,-222.061783
4613.799981,444.123565,-8197.221829,0.000000
4613.800306,444.123565,-8580.269578,74.020594
4613.800630,222.061783,-8580.269578,0.000000
4613.800954,0.000000,-8503.660028,0.000000
4613.801278,148.041188,-8656.879127,-370.102971
4613.801603,296.082377,-8580.269578,-296.082377
4613.801927,518.144159,-8810.098227,-370.102971
4613.802251,592.164754,-8810.098227,-444.123565
4613.802575,518.144159,-7967.393179,370.102971
4613.802900,0.000000,-8503.660028,0.000000
4613.803224,148.041188,-8427.050478,0.000000
4613.803548,296.082377,-8120.612279,-518.144159
4613.803872,518.144159,-8733.488677,0.000000
4613.804197,592.164754,-8503.660028,0.000000
4613.804521,296.082377,-8963.317327,0.000000
4613.804845,444.123565,-8810.098227,-222.061783
4613.805169,370.102971,-8120.612279,0.000000
4613.805494,296.082377,-8503.660028,0.000000
4613.805818,444.123565,-8273.831378,-444.123565
4613.806142,444.123565,-8120.612279,0.000000
4613.806466,296.082377,-8044.002729,-222.061783
4613.806791,740.205942,-8580.269578,-148.041188
4613.807115,740.205942,-8733.488677,-444.123565
4613.807439,222.061783,-8427.050478,-444.123565
4613.807764,592.164754,-8580.269578,0.000000
4613.808088,666.185348,-9039.926876,-296.082377
4613.808412,0.000000,-8503.660028,0.000000
4613.808736,222.061783,-8273.831378,0.000000
4613.809061,148.041188,-8733.488677,-296.082377
4613.809385,518.144159,-8273.831378,-148.041188
4613.809709,814.226536,-8197.221829,-444.123565
4613.810033,370.102971,-8886.707777,-518.144159
4613.810358,814.226536,-8656.879127,-444.123565
4613.810682,518.144159,-8273.831378,-444.123565
4613.811006,888.247130,-8656.879127,148.041188
4613.811330,148.041188,-8273.831378,-370.102971
4613.811655,148.041188,-8656.879127,-296.082377
4613.811979,296.082377,-8044.002729,-222.061783
4613.812303,148.041188,-8886.707777,-296.082377
4613.812627,666.185348,-9039.926876,-370.102971
4613.812952,370.102971,-8120.612279,-518.144159
4613.813276,444.123565,-8733.488677,-148.041188
4613.813600,222.061783,-8503.660028,-444.123565
4613.813924,-148.041188,-8580.269578,0.000000
4613.814249,0.000000,-8580.269578,-296.082377
4613.814573,74.020594,-8733.488677,-444.123565
4613.814897,222.061783,-8810.098227,-370.102971
4613.815221,518.144159,-8810.098227,74.020594
4613.815546,444.123565,-8886.707777,-148.041188
4613.815870,740.205942,-8886.707777,-370.102971
4613.816194,666.185348,-8886.707777,-148.041188
4613.816519,296.082377,-8427.050478,0.000000
4613.816843,296.082377,-8656.879127,0.000000
4613.817167,222.061783,-8733.488677,-666.185348
4613.817491,592.164754,-8810.098227,-370.102971
4613.817816,666.185348,-8350.440928,-740.205942
4613.818140,518.144159,-8656.879127,0.000000
4613.818464,592.164754,-8350.440928,-666.185348
4613.818788,592.164754,-8963.317327,-444.123565
4613.819113,74.020594,-8350.440928,-370.102971
4613.819437,518.144159,-9039.926876,-666.185348
4613.819761,0.000000,-8733.488677,-444.123565
4613.820085,148.041188,-8427.050478,-592.164754
4613.820410,74.020594,-8886.707777,-518.144159
4613.820734,148.041188,-8427.050478,-666.185348
4613.821058,444.123565,-8580.269578,-518.144159
4613.821382,296.082377,-9039.926876,-370.102971
4613.821707,222.061783,-8580.269578,-518.144159
4613.822031,222.061783,-8733.488677,-444.123565
4613.822355,666.185348,-8427.050478,-444.123565
4613.822679,444.123565,-8656.879127,-444.123565
4613.823004,740.205942,-8427.050478,-518.144159
4613.823328,592.164754,-8580.269578,-370.102971
4613.823652,592.164754,-7737.564530,-296.082377
4613.823976,592.164754,-8503.660028,-370.102971
4613.824301,814.226536,-8350.440928,-296.082377
4613.824625,592.164754,-8350.440928,-592.164754
4613.824949,0.000000,-8503.660028,-148.041188
4613.825273,0.000000,-8197.221829,-296.082377
4613.825598,0.000000,-8427.050478,-518.144159
4613.825922,370.102971,-8427.050478,-370.102971
4613.826246,296.082377,-8580.269578,-518.144159
4613.826571,814.226536,-8427.050478,-370.102971
4613.826895,814.226536,-8427.050478,-296.082377
4613.827219,370.102971,-8503.660028,-444.123565
4613.827543,148.041188,-8350.440928,-222.061783
4613.827868,148.041188,-8503.660028,-296.082377
4613.828192,148.041188,-8503.660028,-148.041188
4613.828516,0.000000,-8350.440928,-222.061783
4613.828840,296.082377,-8656.879127,-444.123565
4613.829165,740.205942,-8503.660028,-592.164754
4613.829489,1184.329507,-8427.050478,-666.185348
4613.829813,1184.329507,-8580.269578,-296.082377
4613.830137,888.247130,-8427.050478,0.000000
4613.830462,518.144159,-8427.050478,-296.082377
4613.830786,592.164754,-8580.269578,-370.102971
4613.831110,222.061783,-8350.440928,-222.061783
4613.831434,370.102971,-8580.269578,-518.144159
4613.831759,296.082377,-8044.002729,-444.123565
4613.832083,444.123565,-9039.926876,-370.102971
4613.832407,444.123565,-8733.488677,-888.247130
4613.832731,296.082377,-8427.050478,-740.205942
4613.833056,444.123565,-8810.098227,-518.144159
4613.833380,222.061783,-8350.440928,-444.123565
4613.833704,740.205942,-8656.879127,-666.185348
4613.834028,296.082377,-8273.831378,-888.247130
4613.834353,148.041188,-8580.269578,-148.041188
4613.834677,518.144159,-8810.098227,-666.185348
4613.835001,444.123565,-9116.536426,-740.205942
4613.835325,518.144159,-8656.879127,-592.164754
4613.835650,518.144159,-8656.879127,-888.247130
4613.835974,296.082377,-8886.707777,-444.123565
4613.836298,518.144159,-8197.221829,-666.185348
4613.836623,444.123565,-8503.660028,-962.267725
4613.836947,592.164754,-8580.269578,-666.185348
4613.837271,592.164754,-8427.050478,-740.205942
4613.837595,592.164754,-9116.536426,-444.123565
4613.837920,370.102971,-8810.098227,-444.123565
4613.838244,592.164754,-8503.660028,-518.144159
4613.838568,370.102971,-9116.536426,-148.041188
4613.838892,0.000000,-8503.660028,-444.123565
4613.839217,148.041188,-9806.022374,0.000000
4613.839541,296.082377,-8810.098227,0.000000
4613.839865,222.061783,-8886.707777,-296.082377
4613.840189,370.102971,-8503.660028,-296.082377
4613.840514,814.226536,-8273.831378,-222.061783
4613.840838,962.267725,-8427.050478,0.000000
4613.841162,592.164754,-8810.098227,-222.061783
4613.841486,666.185348,-8580.269578,-222.061783
4613.841811,666.185348,-8427.050478,0.000000
4613.842135,666.185348,-8503.660028,-592.164754
4613.842459,518.144159,-8580.269578,0.000000
4613.842783,592.164754,-8427.050478,0.000000
4613.843108,740.205942,-8656.879127,0.000000
4613.843432,518.144159,-8427.050478,-370.102971
4613.843756,518.144159,-8963.317327,-370.102971
4613.844080,370.102971,-8044.002729,-370.102971
4613.844405,296.082377,-8427.050478,0.000000
4613.844729,222.061783,-8503.660028,-370.102971
4613.845053,296.082377,-8427.050478,-74.020594
4613.845377,296.082377,-8810.098227,-444.123565
4613.845702,444.123565,-8580.269578,-148.041188
4613.846026,592.164754,-8503.660028,0.000000
4613.846350,740.205942,-9039.926876,-370.102971
4613.846675,592.164754,-8503.660028,-444.123565
4613.846999,222.061783,-8580.269578,-148.041188
4613.847323,370.102971,-8427.050478,-518.144159
4613.847647,296.082377,-7967.393179,0.000000
4613.847972,296.082377,-8733.488677,0.000000
4613.848296,592.164754,-8197.221829,-592.164754
4613.848620,666.185348,-8427.050478,-666.185348
4613.848944,666.185348,-8580.269578,-518.144159
4613.849269,666.185348,-8886.707777,0.000000
4613.849593,296.082377,-8427.050478,-370.102971
4613.849917,296.082377,-8656.879127,-592.164754
4613.850241,222.061783,-8273.831378,-592.164754
4613.850566,0.000000,-9039.926876,-592.164754
4613.850890,296.082377,-8503.660028,-1036.288319
4613.851214,444.123565,-8427.050478,-666.185348
4613.851538,296.082377,-8810.098227,-666.185348
4613.851863,222.061783,-8810.098227,-814.226536
4613.852187,296.082377,-8503.660028,-444.123565
4613.852511,0.000000,-8503.660028,-518.144159
4613.852835,0.000000,-8503.660028,-370.102971
4613.853160,0.000000,-8427.050478,-814.226536
4613.853484,444.123565,-8886.707777,-518.144159
4613.853808,370.102971,-8427.050478,-814.226536
4613.854132,518.144159,-9039.926876,-888.247130
4613.854457,518.144159,-8273.831378,-962.267725
4613.854781,444.123565,-8810.098227,-814.226536
4613.855105,74.020594,-8733.488677,-740.205942
4613.855430,0.000000,-8580.269578,-1110.308913
4613.855754,148.041188,-8810.098227,-666.185348
4613.856078,444.123565,-8273.831378,-740.205942
4613.856402,74.020594,-8503.660028,-666.185348
4613.856727,888.247130,-8810.098227,-962.267725
4613.857051,518.144159,-8503.660028,-666.185348
4613.857375,666.185348,-8427.050478,-592.164754
4613.857699,666.185348,-8656.879127,-370.102971
4613.858024,0.000000,-8044.002729,-370.102971
4613.858348,0.000000,-8733.488677,-370.102971
4613.858672,0.000000,-8580.269578,-666.185348
4613.858996,296.082377,-9116.536426,-518.144159
4613.859321,666.185348,-8503.660028,-444.123565
4613.859645,592.164754,-8733.488677,0.000000
4613.859969,888.247130,-8810.098227,-148.041188
4613.860293,740.205942,-8656.879127,-296.082377
4613.860618,592.164754,-8733.488677,0.000000
4613.860942,148.041188,-8273.831378,-518.144159
4613.861266,370.102971,-8580.269578,0.000000
4613.861590,296.082377,-8120.612279,-444.123565
4613.861915,148.041188,-9116.536426,-370.102971
4613.862239,518.144159,-8580.269578,-592.164754
4613.862563,888.247130,-8886.707777,-592.164754
4613.862887,592.164754,-8810.098227,-370.102971
4613.863212,814.226536,-8503.660028,-296.082377
4613.863536,370.102971,-8503.660028,-296.082377
4613.863860,370.102971,-8656.879127,0.000000
4613.864184,296.082377,-8350.440928,-518.144159
4613.864509,296.082377,-8656.879127,-296.082377
4613.864833,222.061783,-8044.002729,0.000000
4613.865157,370.102971,-9039.926876,74.020594
4613.865482,296.082377,-8580.269578,-444.123565
4613.865806,444.123565,-8733.488677,-148.041188
4613.866130,296.082377,-8503.660028,148.041188
4613.866454,74.020594,-8273.831378,0.000000
4613.866779,74.020594,-8197.221829,-74.020594
4613.867103,222.061783,-8656.879127,0.000000
4613.867427,740.205942,-8350.440928,-296.082377
4613.867751,592.164754,-8503.660028,-296.082377
4613.868076,740.205942,-8427.050478,-518.144159
4613.868400,814.226536,-8580.269578,-148.041188
4613.868724,666.185348,-8580.269578,-592.164754
4613.869048,0.000000,-8273.831378,74.020594
4613.869373,444.123565,-8273.831378,-370.102971
4613.869697,74.020594,-9039.926876,-518.144159
4613.870021,296.082377,-8503.660028,-518.144159
4613.870345,444.123565,-8427.050478,-444.123565
4613.870670,592.164754,-8656.879127,-444.123565
4613.870994,592.164754,-8580.269578,-592.164754
4613.871318,370.102971,-8656.879127,-666.185348
4613.871642,444.123565,-8580.269578,-222.061783
4613.871967,518.144159,-7890.783629,-518.144159
4613.872291,0.000000,-8503.660028,-518.144159
4613.872615,0.000000,-8503.660028,-370.102971
4613.872940,74.020594,-8733.488677,-444.123565
4613.873264,666.185348,-8886.707777,-518.144159
4613.873588,444.123565,-8656.879127,-148.041188
4613.873913,296.082377,-8963.317327,-370.102971
4613.874237,592.164754,-8427.050478,-296.082377
4613.874561,370.102971,-7354.516781,-444.123565
4613.874886,518.144159,-8580.269578,0.000000
4613.875210,518.144159,-8580.269578,0.000000
4613.875534,518.144159,-8427.050478,0.000000
4613.875859,518.144159,-8656.879127,-296.082377
4613.876183,666.185348,-8656.879127,-296.082377
4613.876507,888.247130,-8733.488677,-518.144159
4613.876832,666.185348,-8503.660028,-296.082377
4613.877156,740.205942,-8273.831378,-296.082377
4613.877480,444.123565,-8044.002729,-74.020594
4613.877805,222.061783,-8197.221829,-518.144159
4613.878129,666.185348,-8197.221829,-444.123565
4613.878453,592.164754,-8580.269578,-444.123565
4613.878778,814.226536,-8427.050478,-370.102971
4613.879102,592.164754,-8350.440928,-814.226536
4613.879426,666.185348,-8810.098227,-296.082377
4613.879751,444.123565,-8197.221829,-666.185348
4613.880075,148.041188,-8580.269578,-296.082377
4613.880399,296.082377,-7890.783629,-666.185348
4613.880724,222.061783,-8503.660028,0.000000
4613.881048,666.185348,-8427.050478,-592.164754
4613.881372,666.185348,-8580.269578,-444.123565
4613.881697,962.267725,-8427.050478,-296.082377
4613.882021,888.247130,-8733.488677,-296.082377
4613.882345,1110.308913,-8580.269578,-592.164754
4613.882670,444.123565,-8580.269578,-74.020594
4613.882994,296.082377,-8656.879127,-370.102971
4613.883318,518.144159,-8810.098227,-518.144159
4613.883643,370.102971,-8733.488677,-296.082377
4613.883967,222.061783,-8810.098227,0.000000
4613.884291,148.041188,-8810.098227,-148.041188
4613.884616,814.226536,-8963.317327,74.020594
4613.884940,444.123565,-8580.269578,0.000000
4613.885264,518.144159,-8810.098227,-148.041188
4613.885589,444.123565,-8656.879127,0.000000
4613.885913,444.123565,-9039.926876,222.061783
4613.886237,74.020594,-8963.317327,0.000000
4613.886562,222.061783,-8656.879127,-296.082377
4613.886886,370.102971,-8886.707777,-296.082377
4613.887210,296.082377,-8733.488677,-296.082377
4613.887535,222.061783,-8656.879127,-148.041188
4613.887859,444.123565,-8350.440928,-518.144159
4613.888183,370.102971,-8656.879127,-148.041188
4613.888508,222.061783,-8427.050478,-592.164754
4613.888832,148.041188,-9116.536426,-296.082377
4613.889156,666.185348,-8120.612279,-518.144159
4613.889481,518.144159,-8656.879127,-222.061783
4613.889805,444.123565,-8733.488677,-1036.288319
4613.890129,370.102971,-8963.317327,-518.144159
4613.890454,296.082377,-8733.488677,-444.123565
4613.890778,444.123565,-8886.707777,-370.102971
4613.891102,148.041188,-8580.269578,-148.041188
4613.891427,148.041188,-8427.050478,74.020594
4613.891751,222.061783,-8656.879127,-222.061783
4613.892075,370.102971,-8963.317327,-296.082377
4613.892400,518.144159,-8273.831378,-222.061783
4613.892724,518.144159,-8580.269578,222.061783
4613.893049,888.247130,-8656.879127,-296.082377
4613.893373,370.102971,-8427.050478,-148.041188
4613.893697,666.185348,-8580.269578,296.082377
4613.894022,222.061783,-8580.269578,74.020594
4613.894346,296.082377,-8886.707777,148.041188
4613.894670,518.144159,-8197.221829,296.082377
4613.894995,518.144159,-8503.660028,0.000000
4613.895319,592.164754,-8044.002729,-370.102971
4613.895643,370.102971,-8273.831378,-518.144159
4613.895968,592.164754,-8580.269578,0.000000
4613.896292,296.082377,-8044.002729,-222.061783
4613.896616,0.000000,-8810.098227,-148.041188
4613.896941,222.061783,-8197.221829,-296.082377
4613.897265,222.061783,-8350.440928,-518.144159
4613.897589,518.144159,-8656.879127,-444.123565
4613.897914,518.144159,-8197.221829,-222.061783
4613.898238,518.144159,-8503.660028,-518.144159
4613.898562,592.164754,-8273.831378,-444.123565
4613.898887,222.061783,-8350.440928,-592.164754
4613.899211,518.144159,-8733.488677,-370.102971
4613.899535,296.082377,-8197.221829,-518.144159
4613.899860,0.000000,-8810.098227,0.000000
4613.900184,0.000000,-8273.831378,-888.247130
4613.900508,148.041188,-8580.269578,-444.123565
4613.900833,740.205942,-8810.098227,-370.102971
4613.901157,444.123565,-8580.269578,0.000000
4613.901481,592.164754,-8963.317327,-444.123565
4613.901806,592.164754,-8656.879127,-370.102971
4613.902130,518.144159,-8810.098227,-148.041188
4613.902454,74.020594,-8733.488677,-370.102971
4613.902779,370.102971,-8810.098227,-444.123565
4613.903103,222.061783,-8503.660028,0.000000
4613.903427,296.082377,-9039.926876,-444.123565
4613.903752,444.123565,-8810.098227,-518.144159
4613.904076,518.144159,-8427.050478,-222.061783
4613.904400,1036.288319,-8810.098227,-370.102971
4613.904725,518.144159,-8197.221829,-222.061783
4613.905049,222.061783,-8503.660028,-148.041188
4613.905373,148.041188,-8810.098227,0.000000
4613.905698,444.123565,-8656.879127,-888.247130
4613.906022,444.123565,-9039.926876,-444.123565
4613.906346,518.144159,-8197.221829,-444.123565
4613.906671,444.123565,-8273.831378,-444.123565
4613.906995,222.061783,-9039.926876,0.000000
4613.907319,370.102971,-8580.269578,-296.082377
4613.907644,444.123565,-8656.879127,0.000000
4613.907968,222.061783,-8427.050478,-592.164754
4613.908292,740.205942,-8503.660028,0.000000
4613.908617,740.205942,-9422.974625,222.061783
4613.908941,518.144159,-8810.098227,0.000000
4613.909265,814.226536,-8733.488677,-370.102971
4613.909590,592.164754,-8503.660028,0.000000
4613.909914,444.123565,-8733.488677,296.082377
4613.910238,518.144159,-8656.879127,0.000000
4613.910563,370.102971,-8810.098227,296.082377
4613.910887,370.102971,-8350.440928,-296.082377
4613.911211,222.061783,-8273.831378,-370.102971
4613.911536,962.267725,-8733.488677,74.020594
4613.911860,148.041188,-8503.660028,-370.102971
4613.912184,444.123565,-8733.488677,0.000000
4613.912509,518.144159,-8503.660028,0.000000
4613.912833,0.000000,-8427.050478,0.000000
4613.913157,74.020594,-8503.660028,-370.102971
4613.913482,0.000000,-8120.612279,0.000000
4613.913806,0.000000,-8427.050478,74.020594
4613.914130,74.020594,-8273.831378,-296.082377
4613.914455,0.000000,-8810.098227,-296.082377
4613.914779,592.164754,-8350.440928,-370.102971
4613.915103,518.144159,-8580.269578,-148.041188
4613.915428,370.102971,-8580.269578,-296.082377
4613.915752,370.102971,-8580.269578,148.041188
4613.916076,148.041188,-8273.831378,0.000000
4613.916401,222.061783,-8197.221829,74.020594
4613.916725,444.123565,-8350.440928,0.000000
4613.917049,740.205942,-9039.926876,0.000000
4613.917374,666.185348,-8656.879127,-222.061783
4613.917698,518.144159,-9039.926876,0.000000
4613.918022,962.267725,-8580.269578,0.000000
4613.918347,444.123565,-8810.098227,74.020594
4613.918671,74.020594,-8580.269578,0.000000
4613.918995,0.000000,-8656.879127,0.000000
4613.919320,222.061783,-8427.050478,0.000000
4613.919644,148.041188,-8503.660028,-222.061783
4613.919968,814.226536,-8810.098227,-518.144159
4613.920293,444.123565,-8656.879127,-148.041188
4613.920617,222.061783,-8733.488677,0.000000
4613.920942,148.041188,-8886.707777,-296.082377
4613.921266,222.061783,-8963.317327,74.020594
4613.921590,0.000000,-8503.660028,-444.123565
4613.921915,370.102971,-8580.269578,-444.123565
4613.922239,370.102971,-8580.269578,-444.123565
4613.922563,518.144159,-8427.050478,-666.185348
4613.922888,592.164754,-8503.660028,-592.164754
4613.923212,666.185348,-8580.269578,-592.164754
4613.923536,888.247130,-9039.926876,-814.226536
4613.923861,740.205942,-8273.831378,-296.082377
4613.924185,518.144159,-8350.440928,0.000000
4613.924509,222.061783,-8656.879127,-814.226536
4613.924834,222.061783,-8656.879127,-518.144159
4613.925158,296.082377,-8273.831378,-740.205942
4613.925482,444.123565,-8886.707777,-518.144159
4613.925807,666.185348,-8810.098227,-666.185348
4613.926131,666.185348,-8580.269578,-518.144159
4613.926455,296.082377,-8503.660028,-370.102971
4613.926780,444.123565,-8886.707777,-518.144159
4613.927104,148.041188,-8656.879127,0.000000
4613.927428,296.082377,-8810.098227,0.000000
4613.927753,666.185348,-8580.269578,-296.082377
4613.928077,370.102971,-9193.145976,-148.041188
4613.928401,1036.288319,-8350.440928,-296.082377
4613.928726,740.205942,-8963.317327,-370.102971
4613.929050,666.185348,-8656.879127,-222.061783
4613.929374,370.102971,-8733.488677,0.000000
4613.929699,222.061783,-8580.269578,-370.102971
4613.930023,222.061783,-8350.440928,-148.041188
4613.930347,222.061783,-8580.269578,-148.041188
4613.930672,666.185348,-8427.050478,-296.082377
4613.930996,666.185348,-8350.440928,-296.082377
4613.931320,592.164754,-8656.879127,-74.020594
4613.931645,740.205942,-8350.440928,-370.102971
4613.931969,518.144159,-8810.098227,-296.082377
4613.932293,222.061783,-8656.879127,-296.082377
4613.932618,222.061783,-8044.002729,222.061783
4613.932942,0.000000,-8503.660028,-222.061783
4613.933266,74.020594,-8350.440928,0.000000
4613.933591,592.164754,-8273.831378,-296.082377
4613.933915,592.164754,-8503.660028,-222.061783
4613.934239,962.267725,-8197.221829,-370.102971
4613.934564,814.226536,-8273.831378,-148.041188
4613.934888,444.123565,-8503.660028,0.000000
4613.935212,518.144159,-8120.612279,0.000000
4613.935537,296.082377,-8503.660028,-370.102971
4613.935861,0.000000,-8503.660028,-148.041188
4613.936185,222.061783,-8733.488677,0.000000
4613.936510,74.020594,-8503.660028,-296.082377
4613.936834,962.267725,-9039.926876,-444.123565
4613.937158,592.164754,-8503.660028,-370.102971
4613.937483,740.205942,-8656.879127,-296.082377
4613.937807,814.226536,-7967.393179,-444.123565
4613.938131,74.020594,-8580.269578,-74.020594
4613.938456,444.123565,-8656.879127,-444.123565
4613.938780,518.144159,-8427.050478,-296.082377
4613.939104,518.144159,-8503.660028,-740.205942
4613.939429,444.123565,-8733.488677,0.000000
4613.939753,370.102971,-8120.612279,0.000000
4613.940077,518.144159,-8733.488677,-148.041188
4613.940402,592.164754,-8120.612279,-444.123565
4613.940726,592.164754,-8886.707777,-148.041188
4613.941050,370.102971,-7660.954980,-666.185348
4613.941375,370.102971,-8427.050478,-296.082377
4613.941699,444.123565,-8656.879127,-444.123565
4613.942023,592.164754,-8733.488677,-592.164754
4613.942348,740.205942,-8580.269578,-444.123565
4613.942672,222.061783,-9116.536426,-444.123565
4613.942996,148.041188,-8733.488677,-592.164754
4613.943321,148.041188,-8810.098227,-888.247130
4613.943645,0.000000,-8963.317327,-222.061783
4613.943969,296.082377,-8197.221829,-370.102971
4613.944294,444.123565,-8656.879127,-740.205942
4613.944618,444.123565,-8580.269578,-666.185348
4613.944942,888.247130,-8810.098227,-666.185348
4613.945267,666.185348,-8580.269578,-888.247130
4613.945591,592.164754,-8580.269578,-888.247130
4613.945915,666.185348,-8580.269578,-666.185348
4613.946240,444.123565,-8580.269578,-666.185348
4613.946564,222.061783,-8733.488677,-740.205942
4613.946888,518.144159,-8427.050478,-740.205942
4613.947213,444.123565,-8656.879127,-666.185348
4613.947537,962.267725,-8733.488677,-1036.288319
4613.947861,888.247130,-8350.440928,-962.267725
4613.948186,962.267725,-8427.050478,-370.102971
4613.948510,814.226536,-8580.269578,-518.144159
4613.948835,740.205942,-8427.050478,-518.144159
4613.949159,814.226536,-8580.269578,-518.144159
4613.949483,222.061783,-8656.879127,-666.185348
4613.949808,444.123565,-8580.269578,-444.123565
4613.950132,444.123565,-8656.879127,-592.164754
4613.950456,592.164754,-8656.879127,-296.082377
4613.950781,518.144159,-8503.660028,-592.164754
4613.951105,666.185348,-9193.145976,-148.041188
4613.951429,740.205942,-8427.050478,-296.082377
4613.951754,814.226536,-8886.707777,0.000000
4613.952078,296.082377,-8580.269578,-370.102971
4613.952402,0.000000,-8350.440928,0.000000
4613.952727,444.123565,-8197.221829,-592.164754
4613.953051,296.082377,-8427.050478,-444.123565
4613.953375,444.123565,-8886.707777,-370.102971
4613.953700,444.123565,-8580.269578,-296.082377
4613.954024,370.102971,-8886.707777,-370.102971
4613.954348,222.061783,-8350.440928,-296.082377
4613.954673,148.041188,-8733.488677,-518.144159
4613.954997,0.000000,-8580.269578,-148.041188
4613.955321,518.144159,-8273.831378,-666.185348
4613.955646,74.020594,-8886.707777,-444.123565
4613.955970,518.144159,-8427.050478,-962.267725
4613.956294,592.164754,-8733.488677,-518.144159
4613.956619,518.144159,-8733.488677,-592.164754
4613.956943,222.061783,-8656.879127,-444.123565
4613.957267,296.082377,-8733.488677,-444.123565
4613.957592,296.082377,-8197.221829,-370.102971
4613.957916,148.041188,-8427.050478,-666.185348
4613.958240,518.144159,-8656.879127,-370.102971
4613.958565,592.164754,-7814.174080,-370.102971
4613.958889,740.205942,-8886.707777,-518.144159
4613.959213,666.185348,-8350.440928,-814.226536
4613.959538,444.123565,-7967.393179,0.000000
4613.959862,666.185348,-8656.879127,-518.144159
4613.960186,148.041188,-8580.269578,-666.185348
4613.960511,222.061783,-8580.269578,-370.102971
4613.960835,148.041188,-9039.926876,-518.144159
4613.961159,222.061783,-8656.879127,-518.144159
4613.961484,518.144159,-8886.707777,-962.267725
4613.961808,518.144159,-8580.269578,-592.164754
4613.962132,888.247130,-8503.660028,-222.061783
4613.962457,814.226536,-8580.269578,-1110.308913
4613.962781,370.102971,-9116.536426,-370.102971
4613.963105,444.123565,-8350.440928,-666.185348
4613.963430,74.020594,-8886.707777,-370.102971
4613.963754,962.267725,-8733.488677,-148.041188
4613.964078,518.144159,-8427.050478,-592.164754
4613.964403,814.226536,-8886.707777,-370.102971
4613.964727,740.205942,-8427.050478,-592.164754
4613.965051,888.247130,-9039.926876,-148.041188
4613.965376,666.185348,-8273.831378,-444.123565
4613.965700,518.144159,-8580.269578,-444.123565
4613.966024,222.061783,-9116.536426,-592.164754
4613.966349,0.000000,-8350.440928,-592.164754
4613.966673,740.205942,-8963.317327,-296.082377
4613.966997,370.102971,-8580.269578,-444.123565
4613.967322,296.082377,-9039.926876,-296.082377
4613.967646,666.185348,-8656.879127,-296.082377
4613.967970,666.185348,-8427.050478,0.000000
4613.968295,444.123565,-8733.488677,-148.041188
4613.968619,370.102971,-8580.269578,-148.041188
4613.968943,222.061783,-8427.050478,-222.061783
4613.969268,518.144159,-8350.440928,-370.102971
4613.969592,74.020594,-8733.488677,-370.102971
4613.969916,518.144159,-8427.050478,-370.102971
4613.970241,296.082377,-8503.660028,-370.102971
4613.970565,296.082377,-8427.050478,-518.144159
4613.970889,296.082377,-8427.050478,-666.185348
4613.971214,222.061783,-8197.221829,-370.102971
4613.971538,148.041188,-8273.831378,-296.082377
4613.971862,592.164754,-8120.612279,-666.185348
4613.972187,814.226536,-8197.221829,0.000000
4613.972511,518.144159,-8197.221829,-814.226536
4613.972835,592.164754,-9039.926876,-666.185348
4613.973160,592.164754,-8580.269578,-444.123565
4613.973484,518.144159,-8733.488677,-444.123565
4613.973808,370.102971,-8810.098227,-518.144159
4613.974133,222.061783,-8427.050478,0.000000
4613.974457,0.000000,-8503.660028,-444.123565
4613.974781,370.102971,-8350.440928,0.000000
4613.975106,296.082377,-7890.783629,-814.226536
4613.975430,518.144159,-8963.317327,-444.123565
4613.975754,518.144159,-8197.221829,-296.082377
4613.976078,592.164754,-8733.488677,74.020594
4613.976403,222.061783,-8427.050478,-148.041188
4613.976727,74.020594,-8197.221829,0.000000
4613.977051,222.061783,-8886.707777,0.000000
4613.977376,0.000000,-8580.269578,0.000000
4613.977700,370.102971,-8963.317327,0.000000
4613.978024,222.061783,-8120.612279,-666.185348
4613.978349,518.144159,-8580.269578,-370.102971
4613.978673,814.226536,-8580.269578,-518.144159
4613.978997,518.144159,-8503.660028,-444.123565
4613.979321,1036.288319,-9193.145976,0.000000
4613.979646,222.061783,-8427.050478,-370.102971
4613.979970,0.000000,-8656.879127,-148.041188
4613.980294,444.123565,-8580.269578,-370.102971
4613.980619,814.226536,-8656.879127,-666.185348
4613.980943,592.164754,-8656.879127,0.000000
4613.981267,888.247130,-8350.440928,-592.164754
4613.981591,444.123565,-9039.926876,-370.102971
4613.981916,370.102971,-8503.660028,-518.144159
4613.982240,222.061783,-8656.879127,-370.102971
4613.982564,592.164754,-8350.440928,-370.102971
4613.982889,296.082377,-8044.002729,-518.144159
4613.983213,444.123565,-8733.488677,-444.123565
4613.983537,296.082377,-8350.440928,-814.226536
4613.983862,814.226536,-8886.707777,-740.205942
4613.984186,592.164754,-8886.707777,-222.061783
4613.984510,296.082377,-8580.269578,-148.041188
4613.984834,370.102971,-9499.584175,-222.061783
4613.985159,0.000000,-8427.050478,-296.082377
4613.985483,0.000000,-8810.098227,-370.102971
4613.985807,444.123565,-8580.269578,-592.164754
4613.986132,740.205942,-8810.098227,-740.205942
4613.986456,666.185348,-8350.440928,-370.102971
4613.986780,592.164754,-8656.879127,-592.164754
4613.987105,296.082377,-8656.879127,-222.061783
4613.987429,666.185348,-8273.831378,-518.144159
4613.987753,222.061783,-8886.707777,-592.164754
4613.988077,222.061783,-8503.660028,-296.082377
4613.988402,370.102971,-8503.660028,-592.164754
4613.988726,592.164754,-8733.488677,-518.144159
4613.989050,518.144159,-8427.050478,-962.267725
4613.989375,518.144159,-8733.488677,-740.205942
4613.989699,444.123565,-8427.050478,-666.185348
4613.990023,148.041188,-8810.098227,-444.123565
4613.990347,74.020594,-8503.660028,0.000000
4613.990672,296.082377,-7890.783629,0.000000
4613.990996,222.061783,-8886.707777,-222.061783
4613.991320,74.020594,-8197.221829,-370.102971
4613.991645,444.123565,-8963.317327,-222.061783
4613.991969,592.164754,-8656.879127,0.000000
4613.992293,666.185348,-8503.660028,-518.144159
4613.992618,592.164754,-8810.098227,74.020594
4613.992942,444.123565,-8427.050478,-370.102971
4613.993266,222.061783,-8810.098227,74.020594
4613.993590,-148.041188,-8120.612279,74.020594
4613.993915,370.102971,-8350.440928,0.000000
4613.994239,518.144159,-8656.879127,-222.061783
4613.994563,370.102971,-8427.050478,-370.102971
4613.994888,740.205942,-7890.783629,0.000000
4613.995212,592.164754,-8656.879127,0.000000
4613.995536,370.102971,-8580.269578,-518.144159
4613.995861,0.000000,-8503.660028,0.000000
4613.996185,222.061783,-8963.317327,0.000000
4613.996509,222.061783,-8350.440928,0.000000
4613.996833,0.000000,-8580.269578,-444.123565
4613.997158,370.102971,-8810.098227,-370.102971
4613.997482,592.164754,-8503.660028,-370.102971
4613.997806,1110.308913,-8733.488677,-444.123565
4613.998131,740.205942,-8580.269578,-296.082377
4613.998455,444.123565,-8656.879127,0.000000
4613.998779,444.123565,-8733.488677,-370.102971
4613.999104,0.000000,-7890.783629,148.041188
4613.999428,74.020594,-8427.050478,0.000000
4613.999752,444.123565,-8503.660028,0.000000
4614.000076,888.247130,-8273.831378,-592.164754
4614.000401,592.164754,-8733.488677,74.020594
4614.000725,666.185348,-8656.879127,0.000000
4614.001049,444.123565,-8427.050478,-370.102971
4614.001374,444.123565,-8656.879127,-148.041188
4614.001698,296.082377,-8580.269578,0.000000
4614.002022,148.041188,-8580.269578,0.000000
4614.002346,148.041188,-8120.612279,-444.123565
4614.002671,296.082377,-8656.879127,-296.082377
4614.002995,666.185348,-9039.926876,-518.144159
4614.003319,1480.411884,-9039.926876,-444.123565
4614.003644,814.226536,-8580.269578,-444.123565
4614.003968,370.102971,-8810.098227,0.000000
4614.004292,222.061783,-8427.050478,-296.082377
4614.004617,296.082377,-8733.488677,0.000000
4614.004941,740.205942,-8503.660028,-518.144159
4614.005265,444.123565,-8733.488677,-296.082377
4614.005589,518.144159,-8350.440928,-518.144159
4614.005914,592.164754,-8427.050478,-444.123565
4614.006238,1036.288319,-8810.098227,-296.082377
4614.006562,296.082377,-8733.488677,0.000000
4614.006887,296.082377,-8580.269578,-296.082377
4614.007211,74.020594,-8503.660028,0.000000
4614.007535,222.061783,-8044.002729,-222.061783
4614.007860,518.144159,-8427.050478,0.000000
4614.008184,592.164754,-8503.660028,-592.164754
4614.008508,1036.288319,-8810.098227,0.000000
4614.008832,592.164754,-8427.050478,-296.082377
4614.009157,518.144159,-8886.707777,-296.082377
4614.009481,222.061783,-8656.879127,-148.041188
4614.009805,222.061783,-8503.660028,-370.102971
4614.010130,0.000000,-8656.879127,-222.061783
4614.010454,296.082377,-8197.221829,-444.123565
4614.010778,222.061783,-8580.269578,-222.061783
4614.011103,444.123565,-8656.879127,-148.041188
4614.011427,518.144159,-8810.098227,-370.102971
4614.011751,592.164754,-9116.536426,0.000000
4614.012075,370.102971,-8580.269578,-222.061783
4614.012400,370.102971,-8656.879127,-296.082377
4614.012724,0.000000,-8427.050478,-296.082377
4614.013048,222.061783,-8503.660028,0.000000
4614.013373,296.082377,-8580.269578,-296.082377
4614.013697,296.082377,-8886.707777,-592.164754
4614.014021,370.102971,-8350.440928,0.000000
4614.014345,592.164754,-8503.660028,-444.123565
4614.014670,740.205942,-9422.974625,296.082377
4614.014994,222.061783,-8656.879127,-148.041188
4614.015318,444.123565,-8580.269578,-370.102971
4614.015643,148.041188,-8503.660028,0.000000
4614.015967,370.102971,-8656.879127,0.000000
4614.016291,444.123565,-8733.488677,-148.041188
4614.016616,370.102971,-8656.879127,-148.041188
4614.016940,666.185348,-8963.317327,-148.041188
4614.017264,740.205942,-8656.879127,-222.061783
4614.017588,0.000000,-8427.050478,-222.061783
4614.017913,222.061783,-8580.269578,-222.061783
4614.018237,222.061783,-8427.050478,74.020594
4614.018561,222.061783,-8580.269578,0.000000
4614.018886,592.164754,-8350.440928,-370.102971
4614.019210,444.123565,-8733.488677,0.000000
4614.019534,740.205942,-8580.269578,-148.041188
4614.019859,518.144159,-8810.098227,-370.102971
4614.020183,444.123565,-8810.098227,-74.020594
4614.020507,222.061783,-8350.440928,-296.082377
4614.020831,296.082377,-8503.660028,0.000000
4614.021156,148.041188,-8580.269578,-222.061783
4614.021480,74.020594,-8810.098227,-444.123565
4614.021804,592.164754,-8963.317327,-740.205942
4614.022129,222.061783,-8733.488677,-518.144159
4614.022453,666.185348,-8580.269578,-296.082377
4614.022777,518.144159,-8963.317327,-296.082377
4614.023101,740.205942,-8810.098227,-148.041188
4614.023426,444.123565,-8656.879127,148.041188
4614.023750,148.041188,-8503.660028,-370.102971
4614.024074,370.102971,-8810.098227,-444.123565
4614.024399,444.123565,-8350.440928,-296.082377
4614.024723,370.102971,-8810.098227,-370.102971
4614.025047,518.144159,-8733.488677,-666.185348
4614.025372,592.164754,-8810.098227,-666.185348
4614.025696,370.102971,-8963.317327,-296.082377
4614.026020,222.061783,-8503.660028,296.082377
4614.026344,148.041188,-8580.269578,-296.082377
4614.026669,296.082377,-8580.269578,-148.041188
4614.026993,222.061783,-8197.221829,-444.123565
4614.027317,592.164754,-9499.584175,-222.061783
4614.027642,666.185348,-8580.269578,-740.205942
4614.027966,666.185348,-8656.879127,-296.082377
4614.028290,666.185348,-8656.879127,-592.164754
4614.028615,222.061783,-8503.660028,-444.123565
4614.028939,74.020594,-8733.488677,-222.061783
4614.029263,0.000000,-8580.269578,-370.102971
4614.029587,592.164754,-8580.269578,-296.082377
4614.029912,296.082377,-8273.831378,-518.144159
4614.030236,1036.288319,-7967.393179,0.000000
4614.030560,740.205942,-8350.440928,-444.123565
4614.030885,888.247130,-8810.098227,-814.226536
4614.031209,888.247130,-8120.612279,-222.061783
4614.031533,518.144159,-8810.098227,-222.061783
4614.031858,222.061783,-8427.050478,-518.144159
4614.032182,0.000000,-8044.002729,-592.164754
4614.032506,370.102971,-8427.050478,-296.082377
4614.032830,518.144159,-8427.050478,-444.123565
4614.033155,518.144159,-8197.221829,-222.061783
4614.033479,888.247130,-8580.269578,-592.164754
4614.033803,592.164754,-8350.440928,0.000000
4614.034128,444.123565,-8580.269578,0.000000
4614.034452,222.061783,-8733.488677,0.000000
4614.034776,296.082377,-8350.440928,370.102971
4614.035100,148.041188,-8733.488677,0.000000
4614.035425,74.020594,-8733.488677,-370.102971
4614.035749,222.061783,-8197.221829,-296.082377
4614.036073,740.205942,-8886.707777,-222.061783
4614.036398,444.123565,-8503.660028,-370.102971
4614.036722,148.041188,-8810.098227,0.000000
4614.037046,444.123565,-8427.050478,0.000000
4614.037371,444.123565,-8503.660028,-296.082377
4614.037695,222.061783,-8656.879127,-296.082377
4614.038019,0.000000,-8656.879127,-222.061783
4614.038343,74.020594,-8810.098227,0.000000
4614.038668,222.061783,-9039.926876,-518.144159
4614.038992,592.164754,-8886.707777,-666.185348
4614.039316,370.102971,-8810.098227,-518.144159
4614.039641,518.144159,-8810.098227,-592.164754
4614.039965,0.000000,-8963.317327,0.000000
4614.040289,0.000000,-7967.393179,0.000000
4614.040614,74.020594,-8503.660028,0.000000
4614.040938,74.020594,-7890.783629,-592.164754
4614.041262,592.164754,-9039.926876,-444.123565
4614.041586,1184.329507,-8273.831378,-518.144159
4614.041911,740.205942,-8733.488677,-370.102971
4614.042235,666.185348,-8810.098227,-518.144159
4614.042559,444.123565,-8580.269578,0.000000
4614.042884,370.102971,-7814.174080,-444.123565
4614.043208,74.020594,-8427.050478,-222.061783
4614.043532,222.061783,-8580.269578,-444.123565
4614.043857,370.102971,-8810.098227,-222.061783
4614.044181,666.185348,-8503.660028,-740.205942
4614.044505,740.205942,-8656.879127,-370.102971
4614.044829,666.185348,-8503.660028,-666.185348
4614.045154,518.144159,-8656.879127,-148.041188
4614.045478,592.164754,-8580.269578,-592.164754
4614.045802,370.102971,-9116.536426,-296.082377
4614.046127,296.082377,-8503.660028,-814.226536
4614.046451,518.144159,-8503.660028,-592.164754
4614.046775,592.164754,-8580.269578,-592.164754
4614.047099,1036.288319,-9039.926876,-592.164754
4614.047424,1036.288319,-8886.707777,-518.144159
4614.047748,888.247130,-8503.660028,-592.164754
4614.048072,518.144159,-8503.660028,-888.247130
4614.048397,962.267725,-8810.098227,-222.061783
4614.048721,592.164754,-8273.831378,-148.041188
4614.049045,222.061783,-8503.660028,-296.082377
4614.049370,592.164754,-8503.660028,-444.123565
4614.049694,444.123565,-8197.221829,-444.123565
4614.050018,962.267725,-8886.707777,0.000000
4614.050342,592.164754,-8580.269578,-518.144159
4614.050667,518.144159,-8580.269578,-148.041188
4614.050991,518.144159,-8656.879127,-296.082377
4614.051315,74.020594,-7584.345430,-222.061783
4614.051640,444.123565,-8810.098227,-370.102971
4614.051964,370.102971,-7967.393179,-370.102971
4614.052288,518.144159,-8503.660028,-592.164754
4614.052613,740.205942,-8886.707777,-518.144159
4614.052937,740.205942,-8580.269578,-444.123565
4614.053261,444.123565,-8427.050478,-370.102971
4614.053585,74.020594,-8656.879127,-592.164754
4614.053910,0.000000,-8580.269578,-666.185348
4614.054234,0.000000,-9193.145976,-296.082377
4614.054558,-296.082377,-8656.879127,-740.205942
4614.054883,148.041188,-8656.879127,-592.164754
4614.055207,148.041188,-8427.050478,-888.247130
4614.055531,592.164754,-8656.879127,-518.144159
4614.055855,518.144159,-8350.440928,-444.123565
4614.056180,296.082377,-8810.098227,-740.205942
4614.056504,148.041188,-8733.488677,-518.144159
4614.056828,148.041188,-8656.879127,-444.123565
4614.057153,0.000000,-8350.440928,-222.061783
4614.057477,0.000000,-8350.440928,-518.144159
4614.057801,148.041188,-8733.488677,-592.164754
4614.058126,148.041188,-8503.660028,-444.123565
4614.058450,518.144159,-8580.269578,-1110.308913
4614.058774,592.164754,-8580.269578,-592.164754
4614.059098,740.205942,-7967.393179,0.000000
4614.059423,370.102971,-8656.879127,-296.082377
4614.059747,370.102971,-8503.660028,-370.102971
4614.060071,296.082377,-8350.440928,-296.082377
4614.060396,444.123565,-8963.317327,-370.102971
4614.060720,370.102971,-8197.221829,0.000000
4614.061044,370.102971,-8733.488677,-222.061783
4614.061369,444.123565,-8733.488677,-444.123565
4614.061693,222.061783,-8656.879127,-296.082377
4614.062017,370.102971,-8810.098227,0.000000
4614.062341,518.144159,-8273.831378,-444.123565
4614.062666,592.164754,-8886.707777,74.020594
4614.062990,370.102971,-8503.660028,-444.123565
4614.063314,444.123565,-8503.660028,-518.144159
4614.063639,740.205942,-8810.098227,-666.185348
4614.063963,592.164754,-8580.269578,-222.061783
4614.064287,666.185348,-8886.707777,0.000000
4614.064612,740.205942,-8350.440928,-444.123565
4614.064936,296.082377,-8580.269578,0.000000
4614.065260,296.082377,-8427.050478,-518.144159
4614.065584,370.102971,-8427.050478,0.000000
4614.065909,518.144159,-8197.221829,-518.144159
4614.066233,518.144159,-8810.098227,-148.041188
4614.066557,370.102971,-8580.269578,-814.226536
4614.066882,666.185348,-8503.660028,-148.041188
4614.067206,518.144159,-8503.660028,-222.061783
4614.067530,444.123565,-9193.145976,-148.041188
4614.067854,296.082377,-8503.660028,-296.082377
4614.068179,296.082377,-8733.488677,-370.102971
4614.068503,518.144159,-8503.660028,-444.123565
4614.068827,370.102971,-8733.488677,-370.102971
4614.069152,888.247130,-8810.098227,-370.102971
4614.069476,518.144159,-8580.269578,-444.123565
4614.069800,518.144159,-9193.145976,-592.164754
4614.070125,296.082377,-8656.879127,-296.082377
4614.070449,222.061783,-8733.488677,-666.185348
4614.070773,296.082377,-8810.098227,-370.102971
4614.071097,444.123565,-8810.098227,-592.164754
4614.071422,592.164754,-8580.269578,-148.041188
4614.071746,814.226536,-8503.660028,-518.144159
4614.072070,666.185348,-8733.488677,-518.144159
4614.072395,888.247130,-8427.050478,-444.123565
4614.072719,444.123565,-8733.488677,0.000000
4614.073043,222.061783,-8503.660028,-518.144159
4614.073368,0.000000,-8503.660028,-592.164754
4614.073692,74.020594,-8580.269578,-666.185348
4614.074016,296.082377,-8427.050478,-370.102971
4614.074340,444.123565,-8580.269578,-888.247130
4614.074665,592.164754,-8963.317327,-592.164754
4614.074989,666.185348,-8580.269578,-666.185348
4614.075313,444.123565,-9116.536426,-370.102971
4614.075638,222.061783,-8044.002729,-592.164754
4614.075962,0.000000,-8963.317327,-148.041188
4614.076286,222.061783,-8273.831378,-370.102971
4614.076611,222.061783,-8350.440928,-370.102971
4614.076935,666.185348,-8427.050478,-740.205942
4614.077259,518.144159,-8427.050478,-148.041188
4614.077583,518.144159,-8810.098227,-370.102971
4614.077908,814.226536,-8503.660028,-296.082377
4614.078232,740.205942,-8427.050478,0.000000
4614.078556,148.041188,-8580.269578,0.000000
4614.078881,148.041188,-8120.612279,-370.102971
4614.079205,148.041188,-8427.050478,0.000000
4614.079529,222.061783,-8350.440928,-666.185348
4614.079854,518.144159,-8120.612279,-370.102971
4614.080178,222.061783,-8350.440928,-296.082377
4614.080502,592.164754,-8427.050478,-888.247130
4614.080826,666.185348,-8733.488677,-666.185348
4614.081151,518.144159,-9193.145976,-296.082377
4614.081475,0.000000,-8427.050478,-370.102971
4614.081799,148.041188,-8350.440928,-370.102971
4614.082124,0.000000,-8503.660028,-444.123565
4614.082448,370.102971,-8656.879127,-222.061783
4614.082772,666.185348,-8656.879127,-592.164754
4614.083097,814.226536,-8580.269578,-518.144159
4614.083421,1110.308913,-8273.831378,-222.061783
4614.083745,740.205942,-8503.660028,-814.226536
4614.084069,444.123565,-8580.269578,0.000000
4614.084394,444.123565,-8120.612279,-148.041188
4614.084718,148.041188,-8886.707777,0.000000
4614.085042,444.123565,-8656.879127,-592.164754
4614.085367,666.185348,-9346.365076,-592.164754
4614.085691,296.082377,-9039.926876,-222.061783
4614.086015,148.041188,-8886.707777,-444.123565
4614.086340,666.185348,-8963.317327,-296.082377
4614.086664,740.205942,-8273.831378,-444.123565
4614.086988,370.102971,-8810.098227,-222.061783
4614.087312,0.000000,-8656.879127,-370.102971
4614.087637,222.061783,-8350.440928,-370.102971
4614.087961,444.123565,-8963.317327,0.000000
4614.088285,592.164754,-8810.098227,-518.144159
4614.088610,444.123565,-9193.145976,0.000000
4614.088934,666.185348,-8580.269578,-592.164754
4614.089258,962.267725,-8503.660028,-296.082377
4614.089583,888.247130,-8044.002729,-370.102971
4614.089907,666.185348,-8350.440928,-148.041188
4614.090231,592.164754,-8197.221829,0.000000
4614.090555,222.061783,-8427.050478,-296.082377
4614.090880,518.144159,-8656.879127,-518.144159
4614.091204,814.226536,-8427.050478,-222.061783
4614.091528,592.164754,-8733.488677,-666.185348
4614.091853,592.164754,-8886.707777,-370.102971
4614.092177,0.000000,-8886.707777,-222.061783
4614.092501,74.020594,-8656.879127,-370.102971
4614.092826,296.082377,-8503.660028,-444.123565
4614.093150,296.082377,-8810.098227,-592.164754
4614.093474,518.144159,-8427.050478,-222.061783
4614.093798,666.185348,-8273.831378,0.000000
4614.094123,666.185348,-8886.707777,-444.123565
4614.094447,740.205942,-8656.879127,-148.041188
4614.094771,592.164754,-8503.660028,-370.102971
4614.095096,222.061783,-9039.926876,0.000000
4614.095420,0.000000,-8580.269578,0.000000
4614.095744,74.020594,-8733.488677,0.000000
4614.096069,0.000000,-8120.612279,-518.144159
4614.096393,222.061783,-8427.050478,-296.082377
4614.096717,1036.288319,-8427.050478,-148.041188
4614.097041,518.144159,-8503.660028,0.000000
4614.097366,592.164754,-8350.440928,-518.144159
4614.097690,370.102971,-8656.879127,-74.020594
4614.098014,666.185348,-8733.488677,-370.102971
4614.098339,0.000000,-8656.879127,-222.061783
4614.098663,0.000000,-8580.269578,-370.102971
4614.098987,148.041188,-8427.050478,-370.102971
4614.099312,0.000000,-8350.440928,-444.123565
4614.099636,592.164754,-8427.050478,0.000000
4614.099960,814.226536,-8503.660028,-666.185348
4614.100284,814.226536,-8656.879127,-148.041188
4614.100609,592.164754,-8044.002729,-592.164754
4614.100933,592.164754,-8886.707777,370.102971
4614.101257,148.041188,-8044.002729,-148.041188
4614.101582,370.102971,-8503.660028,0.000000
4614.101906,740.205942,-8197.221829,-518.144159
4614.102230,370.102971,-8656.879127,0.000000
4614.102555,666.185348,-8656.879127,-296.082377
4614.102879,444.123565,-8427.050478,-296.082377
4614.103203,740.205942,-8580.269578,-222.061783
4614.103527,148.041188,-8273.831378,-518.144159
4614.103852,296.082377,-8427.050478,-222.061783
4614.104176,518.144159,-8197.221829,-370.102971
4614.104500,296.082377,-8656.879127,-518.144159
4614.104825,444.123565,-8656.879127,-222.061783
4614.105149,444.123565,-8120.612279,-666.185348
4614.105473,666.185348,-8733.488677,-296.082377
4614.105798,518.144159,-8350.440928,-148.041188
4614.106122,296.082377,-8810.098227,74.020594
4614.106446,296.082377,-8580.269578,-148.041188
4614.106770,592.164754,-8656.879127,-222.061783
4614.107095,444.123565,-8733.488677,-444.123565
4614.107419,740.205942,-8580.269578,0.000000
4614.107743,740.205942,-8580.269578,-296.082377
4614.108068,74.020594,-9116.536426,-296.082377
4614.108392,444.123565,-8503.660028,0.000000
4614.108716,296.082377,-8580.269578,0.000000
4614.109041,74.020594,-8810.098227,-222.061783
4614.109365,370.102971,-8656.879127,74.020594
4614.109689,148.041188,-8580.269578,-222.061783
4614.110013,592.164754,-8810.098227,-518.144159
4614.110338,444.123565,-8503.660028,-222.061783
4614.110662,592.164754,-8963.317327,-370.102971
4614.110986,814.226536,-8427.050478,-296.082377
4614.111311,518.144159,-8810.098227,-148.041188
4614.111635,0.000000,-8886.707777,-74.020594
4614.111959,0.000000,-8503.660028,0.000000
4614.112284,0.000000,-8580.269578,-370.102971
4614.112608,296.082377,-8733.488677,-74.020594
4614.112932,148.041188,-8427.050478,-222.061783
4614.113256,962.267725,-9116.536426,0.000000
4614.113581,814.226536,-8810.098227,-592.164754
4614.113905,962.267725,-8886.707777,0.000000
4614.114229,814.226536,-8350.440928,-296.082377
4614.114554,444.123565,-8273.831378,-148.041188
4614.114878,148.041188,-8656.879127,74.020594
4614.115202,296.082377,-8580.269578,-148.041188
4614.115527,148.041188,-8886.707777,0.000000
4614.115851,518.144159,-8503.660028,-370.102971
4614.116175,518.144159,-8810.098227,222.061783
4614.116499,814.226536,-8810.098227,296.082377
4614.116824,814.226536,-8350.440928,-222.061783
4614.117148,666.185348,-8427.050478,0.000000
4614.117472,370.102971,-8273.831378,-296.082377
4614.117797,148.041188,-8656.879127,148.041188
4614.118121,222.061783,-8197.221829,-296.082377
4614.118445,148.041188,-8810.098227,-148.041188
4614.118769,148.041188,-8427.050478,-592.164754
4614.119094,222.061783,-8503.660028,-518.144159
4614.119418,444.123565,-8656.879127,-444.123565
4614.119742,222.061783,-8273.831378,74.020594
4614.120067,370.102971,-8656.879127,-148.041188
4614.120391,74.020594,-8273.831378,-296.082377
4614.120715,518.144159,-8810.098227,-444.123565
4614.121040,296.082377,-8427.050478,-518.144159
4614.121364,518.144159,-8273.831378,-296.082377
4614.121688,370.102971,-8503.660028,-740.205942
4614.122012,74.020594,-8886.707777,-370.102971
4614.122337,444.123565,-8503.660028,-814.226536
4614.122661,222.061783,-8963.317327,-592.164754
4614.122985,296.082377,-8427.050478,-296.082377
4614.123310,370.102971,-8427.050478,0.000000
4614.123634,518.144159,-8273.831378,-370.102971
4614.123958,666.185348,-8273.831378,-222.061783
4614.124283,740.205942,-8810.098227,-370.102971
4614.124607,592.164754,-8580.269578,-666.185348
4614.124931,740.205942,-8503.660028,-370.102971
4614.125255,296.082377,-8886.707777,-370.102971
4614.125580,296.082377,-8580.269578,-592.164754
4614.125904,222.061783,-8656.879127,-518.144159
4614.126228,148.041188,-8503.660028,-518.144159
4614.126553,296.082377,-8580.269578,0.000000
4614.126877,370.102971,-8503.660028,-666.185348
4614.127201,592.164754,-8886.707777,-296.082377
4614.127526,592.164754,-8503.660028,-740.205942
4614.127850,592.164754,-8963.317327,-592.164754
4614.128174,444.123565,-8810.098227,-444.123565
4614.128498,148.041188,-8886.707777,-296.082377
4614.128823,0.000000,-8810.098227,-592.164754
4614.129147,370.102971,-8580.269578,-296.082377
4614.129471,444.123565,-8656.879127,-592.164754
4614.129796,592.164754,-8580.269578,-370.102971
4614.130120,740.205942,-8810.098227,-666.185348
4614.130444,962.267725,-8503.660028,-444.123565
4614.130769,888.247130,-8350.440928,-296.082377
4614.131093,296.082377,-8963.317327,-222.061783
4614.131417,444.123565,-8580.269578,-370.102971
4614.131741,592.164754,-8120.612279,74.020594
4614.132066,370.102971,-8503.660028,-518.144159
4614.132390,370.102971,-8810.098227,-370.102971
4614.132714,740.205942,-8656.879127,0.000000
4614.133039,666.185348,-8427.050478,-148.041188
4614.133363,740.205942,-8350.440928,0.000000
4614.133687,444.123565,-8733.488677,-148.041188
4614.134012,222.061783,-8503.660028,0.000000
4614.134336,148.041188,-8580.269578,-222.061783
4614.134660,0.000000,-8350.440928,-296.082377
4614.134984,296.082377,-8503.660028,0.000000
4614.135309,444.123565,-8427.050478,222.061783
4614.135633,148.041188,-8810.098227,-296.082377
4614.135957,518.144159,-8656.879127,0.000000
4614.136282,814.226536,-9193.145976,-74.020594
4614.136606,222.061783,-8810.098227,-222.061783
4614.136930,0.000000,-8350.440928,-370.102971
4614.137255,0.000000,-7890.783629,0.000000
4614.137579,222.061783,-8810.098227,0.000000
4614.137903,370.102971,-8427.050478,-444.123565
4614.138227,666.185348,-8656.879127,-518.144159
4614.138552,888.247130,-8427.050478,-148.041188
4614.138876,518.144159,-8580.269578,0.000000
4614.139200,444.123565,-8886.707777,-518.144159
4614.139525,0.000000,-8350.440928,-148.041188
4614.139849,0.000000,-8656.879127,74.020594
4614.140173,0.000000,-8580.269578,-148.041188
4614.140498,148.041188,-8963.317327,-370.102971
4614.140822,740.205942,-8350.440928,0.000000
4614.141146,222.061783,-8273.831378,0.000000
4614.141470,296.082377,-8503.660028,-444.123565
4614.141795,666.185348,-8427.050478,0.000000
4614.142119,444.123565,-8273.831378,222.061783
4614.142443,222.061783,-8656.879127,-148.041188
4614.142768,0.000000,-8656.879127,-370.102971
4614.143092,592.164754,-8350.440928,0.000000
4614.143416,148.041188,-8503.660028,-370.102971
4614.143741,370.102971,-8963.317327,-518.144159
4614.144065,0.000000,-7967.393179,-296.082377
4614.144389,370.102971,-8656.879127,0.000000
4614.144713,296.082377,-8963.317327,-370.102971
4614.145038,296.082377,-8733.488677,-666.185348
4614.145362,518.144159,-8273.831378,-222.061783
4614.145686,444.123565,-8273.831378,-296.082377
4614.146011,444.123565,-8733.488677,-740.205942
4614.146335,518.144159,-8350.440928,-444.123565
4614.146659,888.247130,-8503.660028,-518.144159
4614.146984,592.164754,-8886.707777,-740.205942
4614.147308,666.185348,-8656.879127,-296.082377
4614.147632,74.020594,-8427.050478,-444.123565
4614.147956,666.185348,-8580.269578,-666.185348
4614.148281,444.123565,-8503.660028,-592.164754
4614.148605,592.164754,-8580.269578,-666.185348
4614.148929,962.267725,-8810.098227,-740.205942
4614.149254,592.164754,-8503.660028,-888.247130
4614.149578,666.185348,-8963.317327,-444.123565
4614.149902,814.226536,-8503.660028,-592.164754
4614.150227,296.082377,-9193.145976,-518.144159
4614.150551,0.000000,-8733.488677,-592.164754
4614.150875,0.000000,-8733.488677,0.000000
4614.151199,0.000000,-8427.050478,-740.205942
4614.151524,444.123565,-9116.536426,-444.123565
4614.151848,296.082377,-8886.707777,-296.082377
4614.152172,888.247130,-8963.317327,-370.102971
4614.152497,814.226536,-8350.440928,-666.185348
4614.152821,666.185348,-8733.488677,-370.102971
4614.153145,444.123565,-8810.098227,-222.061783
4614.153470,222.061783,-8733.488677,-222.061783
4614.153794,296.082377,-8580.269578,-518.144159
4614.154118,444.123565,-8886.707777,-518.144159
4614.154442,370.102971,-8503.660028,-592.164754
4614.154767,444.123565,-9193.145976,-518.144159
4614.155091,666.185348,-8503.660028,-518.144159
4614.155415,444.123565,-8963.317327,-518.144159
4614.155740,444.123565,-8656.879127,-740.205942
4614.156064,518.144159,-8350.440928,0.000000
4614.156388,148.041188,-8656.879127,-370.102971
4614.156713,222.061783,-8580.269578,-148.041188
4614.157037,518.144159,-8503.660028,-518.144159
4614.157361,666.185348,-8580.269578,-444.123565
4614.157685,518.144159,-8503.660028,-222.061783
4614.158010,444.123565,-8810.098227,0.000000
4614.158334,222.061783,-8580.269578,-222.061783
4614.158658,0.000000,-8733.488677,0.000000
4614.158983,296.082377,-8503.660028,-444.123565
4614.159307,518.144159,-8503.660028,0.000000
4614.159631,592.164754,-8044.002729,0.000000
4614.159956,592.164754,-8427.050478,-444.123565
4614.160280,962.267725,-8656.879127,-296.082377
4614.160604,740.205942,-8427.050478,-222.061783
4614.160928,592.164754,-8580.269578,0.000000
4614.161253,222.061783,-8656.879127,-296.082377
4614.161577,0.000000,-8503.660028,-222.061783
4614.161901,74.020594,-8580.269578,0.000000
4614.162226,148.041188,-8044.002729,-592.164754
4614.162550,296.082377,-8810.098227,-592.164754
4614.162874,814.226536,-8427.050478,-444.123565
4614.163199,888.247130,-8656.879127,-592.164754
4614.163523,740.205942,-8656.879127,-666.185348
4614.163847,518.144159,-8427.050478,-370.102971
4614.164171,370.102971,-8656.879127,-518.144159
4614.164496,740.205942,-8120.612279,0.000000
4614.164820,148.041188,-8733.488677,-518.144159
4614.165144,444.123565,-8810.098227,-370.102971
4614.165469,370.102971,-8427.050478,-444.123565
4614.165793,370.102971,-9039.926876,-222.061783
4614.166117,518.144159,-8273.831378,-296.082377
4614.166442,814.226536,-8580.269578,0.000000
4614.166766,148.041188,-8886.707777,-296.082377
4614.167090,0.000000,-8427.050478,-444.123565
4614.167414,0.000000,-8427.050478,-814.226536
4614.167739,148.041188,-8733.488677,-296.082377
4614.168063,222.061783,-8810.098227,-518.144159
4614.168387,296.082377,-8810.098227,-444.123565
4614.168712,444.123565,-8120.612279,-370.102971
4614.169036,518.144159,-8733.488677,-518.144159
4614.169360,518.144159,-8580.269578,-666.185348
4614.169685,296.082377,-8503.660028,-518.144159
4614.170009,444.123565,-8197.221829,-370.102971
4614.170333,370.102971,-8580.269578,-740.205942
4614.170657,518.144159,-8580.269578,-814.226536
4614.170982,592.164754,-8503.660028,-962.267725
4614.171306,592.164754,-8580.269578,-888.247130
4614.171630,1332.370696,-9039.926876,-666.185348
4614.171955,888.247130,-8427.050478,-740.205942
4614.172279,888.247130,-8656.879127,-222.061783
4614.172603,666.185348,-8197.221829,-814.226536
4614.172928,444.123565,-8963.317327,-222.061783
4614.173252,296.082377,-8273.831378,-296.082377
4614.173576,222.061783,-8733.488677,-444.123565
4614.173900,296.082377,-8810.098227,-518.144159
4614.174225,296.082377,-8810.098227,-296.082377
4614.174549,888.247130,-8886.707777,-592.164754
4614.174874,370.102971,-8733.488677,-444.123565
4614.175198,0.000000,-8580.269578,-148.041188
4614.175522,222.061783,-8427.050478,0.000000
4614.175847,296.082377,-8580.269578,-518.144159
4614.176171,444.123565,-8503.660028,-222.061783
4614.176496,444.123565,-8197.221829,-370.102971
4614.176820,666.185348,-8273.831378,-148.041188
4614.177144,296.082377,-8273.831378,-296.082377
4614.177469,666.185348,-8656.879127,0.000000
4614.177793,518.144159,-8503.660028,-666.185348
4614.178117,370.102971,-8580.269578,-296.082377
4614.178442,370.102971,-8503.660028,-222.061783
4614.178766,296.082377,-8350.440928,-148.041188
4614.179091,592.164754,-8886.707777,-666.185348
4614.179415,592.164754,-8350.440928,-222.061783
4614.179739,666.185348,-8580.269578,-370.102971
4614.180064,962.267725,-9346.365076,0.000000
4614.180388,518.144159,-8273.831378,-222.061783
4614.180712,370.102971,-8886.707777,-296.082377
4614.181037,148.041188,-8656.879127,0.000000
4614.181361,370.102971,-8503.660028,-370.102971
4614.181686,370.102971,-8886.707777,0.000000
4614.182010,444.123565,-8503.660028,-444.123565
4614.182334,148.041188,-8656.879127,-74.020594
4614.182659,666.185348,-8810.098227,-296.082377
4614.182983,148.041188,-8044.002729,-592.164754
4614.183308,518.144159,-8656.879127,-666.185348
4614.183632,222.061783,-8427.050478,-444.123565
4614.183956,370.102971,-8427.050478,-370.102971
4614.184281,0.000000,-8503.660028,-1036.288319
4614.184605,518.144159,-8963.317327,-518.144159
4614.184929,370.102971,-9039.926876,-666.185348
4614.185254,296.082377,-8886.707777,-592.164754
4614.185578,370.102971,-8733.488677,-296.082377
4614.185903,222.061783,-8427.050478,-370.102971
4614.186227,370.102971,-8886.707777,-370.102971
4614.186551,444.123565,-8580.269578,-444.123565
4614.186876,444.123565,-8810.098227,-370.102971
4614.187200,1036.288319,-8273.831378,-814.226536
4614.187524,740.205942,-8733.488677,-518.144159
4614.187849,592.164754,-8580.269578,-296.082377
4614.188173,592.164754,-8580.269578,-296.082377
4614.188498,666.185348,-8810.098227,-814.226536
4614.188822,444.123565,-8886.707777,-444.123565
4614.189146,148.041188,-8733.488677,-444.123565
4614.189471,222.061783,-8656.879127,-296.082377
4614.189795,222.061783,-8733.488677,-592.164754
4614.190120,666.185348,-8963.317327,-814.226536
4614.190444,666.185348,-8810.098227,-814.226536
4614.190768,592.164754,-8810.098227,-444.123565
4614.191093,370.102971,-8350.440928,-444.123565
4614.191417,518.144159,-8963.317327,0.000000
4614.191741,222.061783,-8580.269578,-888.247130
4614.192066,370.102971,-8886.707777,-148.041188
4614.192390,148.041188,-8503.660028,-370.102971
4614.192715,592.164754,-8810.098227,0.000000
4614.193039,592.164754,-8427.050478,-592.164754
4614.193363,666.185348,-8427.050478,-370.102971
4614.193688,666.185348,-8580.269578,-518.144159
4614.194012,888.247130,-8503.660028,0.000000
4614.194336,814.226536,-7967.393179,-296.082377
4614.194661,444.123565,-8733.488677,0.000000
4614.194985,444.123565,-8273.831378,-148.041188
4614.195310,444.123565,-8580.269578,0.000000
4614.195634,1036.288319,-8503.660028,-592.164754
4614.195958,666.185348,-8886.707777,0.000000
4614.196283,740.205942,-8580.269578,-370.102971
4614.196607,740.205942,-8350.440928,-296.082377
4614.196932,222.061783,-8503.660028,-518.144159
4614.197256,444.123565,-8810.098227,148.041188
4614.197580,148.041188,-7967.393179,0.000000
4614.197905,222.061783,-8427.050478,0.000000
4614.198229,0.000000,-8427.050478,-370.102971
4614.198553,444.123565,-8427.050478,0.000000
4614.198878,740.205942,-8503.660028,-444.123565
4614.199202,592.164754,-8580.269578,0.000000
4614.199527,518.144159,-8350.440928,-74.020594
4614.199851,444.123565,-8044.002729,74.020594
4614.200175,222.061783,-8197.221829,0.000000
4614.200500,74.020594,-8427.050478,74.020594
4614.200824,296.082377,-8503.660028,-296.082377
4614.201148,518.144159,-8427.050478,-296.082377
4614.201473,444.123565,-8656.879127,-370.102971
4614.201797,222.061783,-8656.879127,-296.082377
4614.202122,592.164754,-8350.440928,-666.185348
4614.202446,296.082377,-8810.098227,0.000000
4614.202770,518.144159,-8810.098227,-296.082377
4614.203095,370.102971,-8886.707777,-148.041188
4614.203419,74.020594,-8656.879127,-592.164754
4614.203744,0.000000,-8580.269578,-296.082377
4614.204068,666.185348,-9039.926876,-740.205942
4614.204392,518.144159,-9039.926876,-370.102971
4614.204717,296.082377,-8503.660028,-222.061783
4614.205041,518.144159,-8886.707777,-148.041188
4614.205365,0.000000,-8580.269578,-370.102971
4614.205690,296.082377,-8733.488677,-444.123565
4614.206014,592.164754,-8350.440928,-222.061783
4614.206339,148.041188,-8503.660028,-148.041188
4614.206663,592.164754,-8503.660028,-666.185348
4614.206987,222.061783,-8120.612279,-518.144159
4614.207312,518.144159,-8503.660028,-888.247130
4614.207636,296.082377,-8963.317327,-444.123565
4614.207960,222.061783,-8197.221829,-370.102971
4614.208285,222.061783,-8273.831378,-370.102971
4614.208609,0.000000,-8503.660028,-296.082377
4614.208934,148.041188,-8427.050478,-370.102971
4614.209258,222.061783,-8580.269578,-518.144159
4614.209582,444.123565,-8503.660028,-814.226536
4614.209907,740.205942,-8810.098227,-518.144159
4614.210231,888.247130,-8656.879127,-592.164754
4614.210556,814.226536,-8427.050478,-444.123565
4614.210880,666.185348,-8503.660028,-444.123565
4614.211204,518.144159,-9039.926876,-296.082377
4614.211529,740.205942,-8273.831378,-370.102971
4614.211853,222.061783,-8273.831378,-222.061783
4614.212177,518.144159,-8580.269578,0.000000
4614.212502,814.226536,-8503.660028,-296.082377
4614.212826,1036.288319,-8886.707777,-370.102971
4614.213151,962.267725,-8350.440928,-222.061783
4614.213475,518.144159,-8810.098227,0.000000
4614.213799,518.144159,-8656.879127,0.000000
4614.214124,370.102971,-8503.660028,-296.082377
4614.214448,370.102971,-8733.488677,-370.102971
4614.214772,370.102971,-8427.050478,-148.041188
4614.215097,518.144159,-8427.050478,-296.082377
4614.215421,370.102971,-9193.145976,-148.041188
4614.215746,518.144159,-8273.831378,-222.061783
4614.216070,592.164754,-8656.879127,-296.082377
4614.216394,518.144159,-8733.488677,0.000000
4614.216719,74.020594,-8580.269578,-148.041188
4614.217043,74.020594,-8580.269578,0.000000
4614.217368,296.082377,-8120.612279,-296.082377
4614.217692,518.144159,-8350.440928,-222.061783
4614.218016,518.144159,-8580.269578,-444.123565
4614.218341,888.247130,-8733.488677,0.000000
4614.218665,222.061783,-8580.269578,-370.102971
4614.218989,296.082377,-8963.317327,-370.102971
4614.219314,370.102971,-8350.440928,-222.061783
4614.219638,-148.041188,-8580.269578,0.000000
4614.219963,148.041188,-8656.879127,-148.041188
4614.220287,148.041188,-8580.269578,-148.041188
4614.220611,296.082377,-8656.879127,0.000000
4614.220936,148.041188,-8656.879127,-222.061783
4614.221260,222.061783,-8810.098227,-444.123565
4614.221584,518.144159,-8733.488677,0.000000
4614.221909,444.123565,-8580.269578,-222.061783
4614.222233,0.000000,-8810.098227,-222.061783
4614.222558,740.205942,-8350.440928,-444.123565
4614.222882,74.020594,-8580.269578,-222.061783
4614.223206,296.082377,-8580.269578,-740.205942
4614.223531,592.164754,-8656.879127,-148.041188
4614.223855,888.247130,-8810.098227,-296.082377
4614.224180,666.185348,-8733.488677,-592.164754
4614.224504,666.185348,-8350.440928,-296.082377
4614.224828,518.144159,-8580.269578,-518.144159
4614.225153,370.102971,-8503.660028,-592.164754
4614.225477,666.185348,-8656.879127,-222.061783
4614.225801,518.144159,-8580.269578,-370.102971
4614.226126,296.082377,-8886.707777,-592.164754
4614.226450,518.144159,-8503.660028,-592.164754
4614.226775,592.164754,-7814.174080,0.000000
4614.227099,370.102971,-8580.269578,0.000000
4614.227423,370.102971,-8427.050478,0.000000
4614.227748,222.061783,-8350.440928,-222.061783
4614.228072,296.082377,-8350.440928,148.041188
4614.228396,296.082377,-8733.488677,-444.123565
4614.228721,444.123565,-8580.269578,-148.041188
4614.229045,370.102971,-8733.488677,0.000000
4614.229370,518.144159,-8733.488677,0.000000
4614.229694,222.061783,-8350.440928,0.000000
4614.230018,592.164754,-8580.269578,0.000000
4614.230343,222.061783,-8810.098227,-296.082377
4614.230667,296.082377,-8810.098227,-296.082377
4614.230992,518.144159,-8427.050478,-296.082377
4614.231316,296.082377,-8503.660028,-222.061783
4614.231640,518.144159,-8197.221829,-370.102971
4614.231965,814.226536,-8886.707777,-814.226536
4614.232289,814.226536,-8503.660028,-296.082377
4614.232613,518.144159,-8197.221829,0.000000
4614.232938,296.082377,-8580.269578,-444.123565
4614.233262,148.041188,-8656.879127,-222.061783
4614.233587,148.041188,-8503.660028,-518.144159
4614.233911,74.020594,-8120.612279,-222.061783
4614.234235,148.041188,-8503.660028,-666.185348
4614.234560,370.102971,-8656.879127,0.000000
4614.234884,740.205942,-8427.050478,-666.185348
4614.235208,444.123565,-8120.612279,74.020594
4614.235533,740.205942,-8503.660028,-148.041188
4614.235857,74.020594,-8427.050478,74.020594
4614.236182,444.123565,-8580.269578,-222.061783
4614.236506,148.041188,-8427.050478,-222.061783
4614.236830,592.164754,-8963.317327,74.020594
4614.237155,592.164754,-8503.660028,-518.144159
4614.237479,444.123565,-8810.098227,0.000000
4614.237804,518.144159,-8733.488677,-518.144159
4614.238128,592.164754,-8580.269578,222.061783
4614.238452,296.082377,-8427.050478,-370.102971
4614.238777,74.020594,-8886.707777,-296.082377
4614.239101,518.144159,-8350.440928,-148.041188
4614.239425,740.205942,-8656.879127,-148.041188
4614.239750,222.061783,-8733.488677,-222.061783
4614.240074,740.205942,-8810.098227,-592.164754
4614.240399,888.247130,-8886.707777,-592.164754
4614.240723,740.205942,-8810.098227,-518.144159
4614.241047,666.185348,-8733.488677,-666.185348
4614.241372,74.020594,-8580.269578,-296.082377
4614.241696,370.102971,-8273.831378,-222.061783
4614.242020,222.061783,-8427.050478,-370.102971
4614.242345,0.000000,-8886.707777,74.020594
4614.242669,888.247130,-8273.831378,-518.144159
4614.242994,444.123565,-8656.879127,-740.205942
4614.243318,296.082377,-8503.660028,-370.102971
4614.243642,888.247130,-9116.536426,-222.061783
4614.243967,296.082377,-8886.707777,-296.082377
4614.244291,148.041188,-8810.098227,-444.123565
4614.244616,74.020594,-8503.660028,-148.041188
4614.244940,222.061783,-8886.707777,-296.082377
4614.245264,148.041188,-8427.050478,0.000000
4614.245589,592.164754,-9116.536426,-444.123565
4614.245913,962.267725,-8733.488677,-222.061783
4614.246237,444.123565,-8427.050478,-222.061783
4614.246562,222.061783,-8427.050478,-518.144159
4614.246886,296.082377,-8350.440928,-296.082377
4614.247211,444.123565,-8350.440928,-518.144159
4614.247535,592.164754,-8503.660028,-222.061783
4614.247859,666.185348,-8580.269578,-444.123565
4614.248184,518.144159,-8733.488677,-148.041188
4614.248508,518.144159,-8503.660028,-518.144159
4614.248832,740.205942,-8350.440928,-370.102971
4614.249157,444.123565,-8810.098227,-666.185348
4614.249481,592.164754,-8810.098227,-370.102971
4614.249806,222.061783,-8120.612279,-370.102971
4614.250130,0.000000,-8656.879127,-74.020594
4614.250454,148.041188,-8427.050478,-518.144159
4614.250779,296.082377,-9193.145976,74.020594
4614.251103,740.205942,-8963.317327,-444.123565
4614.251428,592.164754,-8580.269578,-444.123565
4614.251752,592.164754,-9116.536426,-296.082377
4614.252076,148.041188,-8120.612279,-222.061783
4614.252401,222.061783,-8427.050478,-518.144159
4614.252725,0.000000,-8886.707777,-296.082377
4614.253049,444.123565,-8044.002729,0.000000
4614.253374,296.082377,-8580.269578,-370.102971
4614.253698,296.082377,-8197.221829,-222.061783
4614.254023,518.144159,-8580.269578,-74.020594
4614.254347,518.144159,-8503.660028,-148.041188
4614.254671,592.164754,-8580.269578,-518.144159
4614.254996,0.000000,-8886.707777,222.061783
4614.255320,0.000000,-8427.050478,-370.102971
4614.255644,74.020594,-8580.269578,-296.082377
4614.255969,222.061783,-8273.831378,-740.205942
4614.256293,444.123565,-9039.926876,-666.185348
4614.256618,1036.288319,-8503.660028,-592.164754
4614.256942,444.123565,-8580.269578,-888.247130
4614.257266,592.164754,-8427.050478,-740.205942
4614.257591,740.205942,-8350.440928,-518.144159
4614.257915,888.247130,-8886.707777,-666.185348
4614.258240,74.020594,-8580.269578,-296.082377
4614.258564,74.020594,-8350.440928,-444.123565
4614.258888,74.020594,-8886.707777,-592.164754
4614.259213,222.061783,-8733.488677,-740.205942
4614.259537,740.205942,-9039.926876,-296.082377
4614.259861,518.144159,-8733.488677,-592.164754
4614.260186,666.185348,-7967.393179,-370.102971
4614.260510,518.144159,-8503.660028,-148.041188
4614.260835,148.041188,-8580.269578,0.000000
4614.261159,222.061783,-8810.098227,-74.020594
4614.261483,222.061783,-8197.221829,-370.102971
4614.261808,296.082377,-9116.536426,0.000000
4614.262132,370.102971,-7967.393179,0.000000
4614.262456,518.144159,-8886.707777,-222.061783
4614.262781,518.144159,-8733.488677,-296.082377
4614.263105,518.144159,-8656.879127,-148.041188
4614.263430,666.185348,-8503.660028,0.000000
4614.263754,592.164754,-8273.831378,0.000000
4614.264078,444.123565,-8503.660028,-296.082377
4614.264403,666.185348,-8656.879127,0.000000
4614.264727,592.164754,-8503.660028,-370.102971
4614.265052,888.247130,-8963.317327,-518.144159
4614.265376,740.205942,-8503.660028,-518.144159
4614.265700,592.164754,-9039.926876,-296.082377
4614.266025,296.082377,-8656.879127,-444.123565
4614.266349,518.144159,-7814.174080,-370.102971
4614.266673,370.102971,-8503.660028,-296.082377
4614.266998,0.000000,-8120.612279,-296.082377
4614.267322,74.020594,-8427.050478,-592.164754
4614.267647,74.020594,-8503.660028,-370.102971
4614.267971,740.205942,-8427.050478,-444.123565
4614.268295,666.185348,-8656.879127,-444.123565
4614.268620,222.061783,-8120.612279,-222.061783
4614.268944,518.144159,-8733.488677,74.020594
4614.269268,222.061783,-8810.098227,-222.061783
4614.269593,222.061783,-8350.440928,-592.164754
4614.269917,518.144159,-8733.488677,-370.102971
4614.270242,814.226536,-8503.660028,-370.102971
4614.270566,1036.288319,-8427.050478,-370.102971
4614.270890,518.144159,-8733.488677,-444.123565
4614.271215,740.205942,-8503.660028,0.000000
4614.271539,518.144159,-8503.660028,-518.144159
4614.271864,370.102971,-8427.050478,-444.123565
4614.272188,74.020594,-8656.879127,0.000000
4614.272512,222.061783,-8656.879127,-296.082377
4614.272837,370.102971,-8733.488677,-666.185348
4614.273161,444.123565,-8580.269578,-296.082377
4614.273485,518.144159,-8810.098227,-740.205942
4614.273810,592.164754,-8503.660028,-296.082377
4614.274134,0.000000,-8273.831378,-518.144159
4614.274459,148.041188,-9039.926876,-296.082377
4614.274783,296.082377,-8580.269578,-888.247130
4614.275107,74.020594,-8580.269578,-444.123565
4614.275432,74.020594,-8656.879127,-592.164754
4614.275756,296.082377,-8580.269578,-370.102971
4614.276080,518.144159,-8810.098227,-592.164754
4614.276405,592.164754,-8580.269578,-814.226536
4614.276729,962.267725,-8656.879127,-592.164754
4614.277054,592.164754,-8733.488677,-592.164754
4614.277378,444.123565,-8273.831378,-518.144159
4614.277702,518.144159,-8427.050478,-296.082377
4614.278028,444.123565,-8427.050478,-814.226536
4614.278353,592.164754,-8656.879127,-444.123565
4614.278677,888.247130,-8656.879127,-666.185348
4614.279002,1036.288319,-8044.002729,-444.123565
4614.279326,888.247130,-8810.098227,-296.082377
4614.279651,740.205942,-8427.050478,-518.144159
4614.279975,296.082377,-8733.488677,-222.061783
4614.280300,370.102971,-8197.221829,-444.123565
4614.280624,444.123565,-8273.831378,0.000000
4614.280949,666.185348,-8580.269578,-666.185348
4614.281273,222.061783,-8886.707777,-666.185348
4614.281598,666.185348,-8886.707777,-296.082377
4614.281922,518.144159,-8197.221829,-962.267725
4614.282247,518.144159,-8656.879127,-666.185348
4614.282571,444.123565,-8580.269578,74.020594
4614.282896,370.102971,-8350.440928,-222.061783
4614.283220,148.041188,-8656.879127,-74.020594
4614.283545,370.102971,-8197.221829,-740.205942
4614.283869,518.144159,-8733.488677,-444.123565
4614.284194,518.144159,-8427.050478,-740.205942
4614.284518,296.082377,-8580.269578,-592.164754
4614.284843,444.123565,-8810.098227,-222.061783
4614.285167,222.061783,-8656.879127,-296.082377
4614.285492,222.061783,-8733.488677,-370.102971
4614.285816,148.041188,-8503.660028,0.000000
4614.286140,296.082377,-8733.488677,296.082377
4614.286465,296.082377,-8503.660028,74.020594
4614.286789,592.164754,-8350.440928,0.000000
4614.287114,666.185348,-8580.269578,-370.102971
4614.287438,888.247130,-8656.879127,-222.061783
4614.287763,814.226536,-8656.879127,0.000000
4614.288087,296.082377,-8656.879127,0.000000
4614.288412,74.020594,-8733.488677,0.000000
4614.288736,74.020594,-8503.660028,-148.041188
4614.289061,-222.061783,-8427.050478,-296.082377
4614.289385,222.061783,-8886.707777,0.000000
4614.289710,518.144159,-8427.050478,-74.020594
4614.290034,296.082377,-8656.879127,0.000000
4614.290359,592.164754,-8733.488677,-222.061783
4614.290683,296.082377,-8656.879127,-296.082377
4614.291008,518.144159,-8810.098227,-148.041188
4614.291332,296.082377,-8273.831378,-444.123565
4614.291657,444.123565,-9039.926876,-222.061783
4614.291981,74.020594,-8503.660028,-296.082377
4614.292306,444.123565,-8503.660028,-592.164754
4614.292630,444.123565,-9116.536426,-518.144159
4614.292955,296.082377,-8733.488677,-296.082377
4614.293279,814.226536,-8963.317327,0.000000
4614.293604,444.123565,-8350.440928,-296.082377
4614.293928,370.102971,-8427.050478,-370.102971
4614.294253,444.123565,-8427.050478,-148.041188
4614.294577,888.247130,-8580.269578,-666.185348
4614.294902,740.205942,-8810.098227,-518.144159
4614.295226,666.185348,-8656.879127,-370.102971
4614.295551,740.205942,-8733.488677,-444.123565
4614.295875,814.226536,-8580.269578,-592.164754
4614.296199,444.123565,-8427.050478,-444.123565
4614.296524,222.061783,-8886.707777,-148.041188
4614.296848,74.020594,-8427.050478,-222.061783
4614.297173,74.020594,-8656.879127,-370.102971
4614.297497,296.082377,-8197.221829,-370.102971
4614.297822,666.185348,-8886.707777,-592.164754
4614.298146,814.226536,-8580.269578,-444.123565
4614.298471,518.144159,-8427.050478,-370.102971
4614.298795,666.185348,-8656.879127,-370.102971
4614.299120,148.041188,-8427.050478,-592.164754
4614.299444,74.020594,-9116.536426,-296.082377
4614.299769,0.000000,-8197.221829,-370.102971
4614.300093,0.000000,-8580.269578,-148.041188
4614.300418,0.000000,-8503.660028,-666.185348
4614.300742,444.123565,-8580.269578,-592.164754
4614.301067,814.226536,-8503.660028,-666.185348
4614.301391,962.267725,-8580.269578,-370.102971
4614.301716,740.205942,-8273.831378,-148.041188
4614.302040,666.185348,-8810.098227,-370.102971
4614.302365,0.000000,-8273.831378,-370.102971
4614.302689,296.082377,-8350.440928,-222.061783
4614.303014,296.082377,-8350.440928,-592.164754
4614.303338,444.123565,-8656.879127,-296.082377
4614.303663,592.164754,-8733.488677,-370.102971
4614.303987,518.144159,-8503.660028,-444.123565
4614.304312,740.205942,-8503.660028,-296.082377
4614.304636,1036.288319,-8733.488677,-592.164754
4614.304961,518.144159,-8656.879127,-222.061783
4614.305285,370.102971,-7967.393179,-222.061783
4614.305610,148.041188,-8580.269578,-222.061783
4614.305934,666.185348,-8810.098227,0.000000
4614.306258,296.082377,-8810.098227,0.000000
4614.306583,296.082377,-9116.536426,0.000000
4614.306907,666.185348,-8810.098227,0.000000
4614.307232,444.123565,-8580.269578,-370.102971
4614.307556,74.020594,-8656.879127,74.020594
4614.307881,74.020594,-8273.831378,-222.061783
4614.308205,296.082377,-8656.879127,-148.041188
4614.308530,74.020594,-8197.221829,0.000000
4614.308854,888.247130,-8120.612279,-296.082377
4614.309179,518.144159,-8503.660028,-444.123565
4614.309503,1036.288319,-8656.879127,-444.123565
4614.309828,592.164754,-8733.488677,-296.082377
4614.310152,444.123565,-9116.536426,370.102971
4614.310477,148.041188,-8580.269578,-222.061783
4614.310801,370.102971,-8656.879127,-148.041188
4614.311126,148.041188,-8580.269578,-370.102971
4614.311450,370.102971,-8810.098227,-148.041188
4614.311775,814.226536,-8503.660028,-592.164754
4614.312099,666.185348,-8580.269578,0.000000
4614.312424,444.123565,-8503.660028,-444.123565
4614.312748,666.185348,-8963.317327,-222.061783
4614.313073,444.123565,-8120.612279,0.000000
4614.313397,444.123565,-8810.098227,0.000000
4614.313722,296.082377,-8580.269578,0.000000
4614.314046,0.000000,-8810.098227,0.000000
4614.314371,518.144159,-8580.269578,-296.082377
4614.314695,222.061783,-8656.879127,-444.123565
4614.315020,592.164754,-8810.098227,-518.144159
4614.315344,444.123565,-8656.879127,-296.082377
4614.315669,370.102971,-8580.269578,-296.082377
4614.315993,666.185348,-8503.660028,-740.205942
4614.316317,444.123565,-8580.269578,-370.102971
4614.316642,0.000000,-8350.440928,-518.144159
4614.316966,370.102971,-9039.926876,-296.082377
4614.317291,888.247130,-8733.488677,-518.144159
4614.317615,592.164754,-8886.707777,-370.102971
4614.317940,444.123565,-8503.660028,-518.144159
4614.318264,444.123565,-8656.879127,-370.102971
4614.318589,592.164754,-8886.707777,222.061783
4614.318913,666.185348,-8350.440928,-296.082377
4614.319238,74.020594,-8503.660028,-444.123565
4614.319562,296.082377,-8580.269578,-370.102971
4614.319887,518.144159,-8580.269578,-370.102971
4614.320211,740.205942,-8580.269578,0.000000
4614.320536,814.226536,-8810.098227,-222.061783
4614.320860,222.061783,-8810.098227,-74.020594
4614.321185,592.164754,-8810.098227,0.000000
4614.321509,296.082377,-8733.488677,0.000000
4614.321834,74.020594,-9116.536426,0.000000
4614.322158,148.041188,-8427.050478,-444.123565
4614.322483,370.102971,-8580.269578,0.000000
4614.322807,222.061783,-8733.488677,-444.123565
4614.323132,296.082377,-8810.098227,0.000000
4614.323456,518.144159,-8350.440928,-296.082377
4614.323781,370.102971,-8503.660028,-370.102971
4614.324105,296.082377,-8580.269578,-296.082377
4614.324430,74.020594,-8810.098227,222.061783
4614.324754,592.164754,-8273.831378,-370.102971
4614.325079,222.061783,-8350.440928,-222.061783
4614.325403,592.164754,-8580.269578,-518.144159
4614.325728,888.247130,-7584.345430,-148.041188
4614.326052,666.185348,-8273.831378,-296.082377
4614.326376,592.164754,-8580.269578,-222.061783
4614.326701,370.102971,-8350.440928,-370.102971
4614.327025,592.164754,-8503.660028,-444.123565
4614.327350,296.082377,-8273.831378,-370.102971
4614.327674,222.061783,-8656.879127,0.000000
4614.327999,666.185348,-8810.098227,-296.082377
4614.328323,814.226536,-8656.879127,-370.102971
4614.328648,888.247130,-8733.488677,0.000000
4614.328972,592.164754,-8886.707777,-222.061783
4614.329297,518.144159,-8656.879127,0.000000
4614.329621,222.061783,-8580.269578,0.000000
4614.329946,518.144159,-8350.440928,-296.082377
4614.330270,296.082377,-8656.879127,-148.041188
4614.330595,74.020594,-8503.660028,-444.123565
4614.330919,444.123565,-8733.488677,-296.082377
4614.331244,370.102971,-8656.879127,-370.102971
4614.331568,148.041188,-8350.440928,-222.061783
4614.331893,444.123565,-8503.660028,-370.102971
4614.332217,222.061783,-8733.488677,-444.123565
4614.332542,370.102971,-8733.488677,-444.123565
4614.332866,370.102971,-8044.002729,-592.164754
4614.333191,222.061783,-8656.879127,-444.123565
4614.333515,370.102971,-8580.269578,-370.102971
4614.333840,444.123565,-8580.269578,-148.041188
4614.334164,666.185348,-8120.612279,-370.102971
4614.334489,518.144159,-8733.488677,-222.061783
4614.334813,296.082377,-8656.879127,0.000000
4614.335138,296.082377,-8886.707777,-370.102971
4614.335462,148.041188,-8503.660028,0.000000
4614.335787,0.000000,-8427.050478,-370.102971
4614.336111,518.144159,-8886.707777,-222.061783
4614.336435,592.164754,-8503.660028,-370.102971
4614.336760,518.144159,-9039.926876,-296.082377
4614.337084,1110.308913,-9346.365076,-370.102971
4614.337409,518.144159,-8733.488677,-518.144159
4614.337733,518.144159,-8656.879127,-444.123565
4614.338058,74.020594,-8656.879127,-222.061783
4614.338382,222.061783,-8350.440928,-370.102971
4614.338707,148.041188,-8427.050478,-666.185348
4614.339031,444.123565,-8656.879127,-740.205942
4614.339356,592.164754,-8886.707777,-296.082377
4614.339680,740.205942,-8350.440928,-444.123565
4614.340005,814.226536,-8886.707777,-296.082377
4614.340329,370.102971,-8656.879127,-518.144159
4614.340654,592.164754,-8503.660028,-222.061783
4614.340978,370.102971,-8580.269578,-444.123565
4614.341303,518.144159,-8503.660028,74.020594
4614.341627,222.061783,-8427.050478,-518.144159
4614.341952,296.082377,-8503.660028,0.000000
4614.342276,370.102971,-8656.879127,-222.061783
4614.342601,370.102971,-8656.879127,-518.144159
4614.342925,444.123565,-8810.098227,-518.144159
4614.343250,444.123565,-8273.831378,0.000000
4614.343574,296.082377,-8580.269578,0.000000
4614.343899,148.041188,-8273.831378,-296.082377
4614.344223,814.226536,-8733.488677,74.020594
4614.344548,444.123565,-8427.050478,-296.082377
4614.344872,444.123565,-8273.831378,-148.041188
4614.345197,296.082377,-8503.660028,-444.123565
4614.345521,814.226536,-9422.974625,-814.226536
4614.345846,518.144159,-8273.831378,-592.164754
4614.346170,148.041188,-8427.050478,-370.102971
4614.346495,444.123565,-8427.050478,-444.123565
4614.346819,370.102971,-8350.440928,-296.082377
4614.347143,814.226536,-8656.879127,-592.164754
4614.347468,518.144159,-8503.660028,-666.185348
4614.347792,814.226536,-8580.269578,-518.144159
4614.348117,592.164754,-8503.660028,-518.144159
4614.348441,370.102971,-8810.098227,296.082377
4614.348766,0.000000,-8350.440928,-740.205942
4614.349090,296.082377,-8733.488677,-222.061783
4614.349415,0.000000,-8503.660028,-666.185348
4614.349739,0.000000,-8733.488677,-592.164754
4614.350064,666.185348,-8273.831378,-296.082377
4614.350388,444.123565,-8656.879127,-222.061783
4614.350713,740.205942,-9116.536426,-666.185348
4614.351037,518.144159,-8427.050478,-370.102971
4614.351362,666.185348,-8810.098227,0.000000
4614.351686,518.144159,-8886.707777,-296.082377
4614.352011,148.041188,-8656.879127,-222.061783
4614.352335,0.000000,-8963.317327,0.000000
4614.352660,370.102971,-8886.707777,74.020594
4614.352984,222.061783,-8733.488677,-296.082377
4614.353309,740.205942,-8810.098227,-222.061783
4614.353633,962.267725,-8810.098227,74.020594
4614.353958,888.247130,-9193.145976,0.000000
4614.354282,444.123565,-8963.317327,-222.061783
4614.354607,518.144159,-8886.707777,0.000000
4614.354931,0.000000,-8810.098227,-296.082377
4614.355256,222.061783,-8886.707777,-592.164754
4614.355580,148.041188,-8733.488677,0.000000
4614.355905,370.102971,-8886.707777,-592.164754
4614.356229,296.082377,-8656.879127,-518.144159
4614.356554,222.061783,-8503.660028,-592.164754
4614.356878,148.041188,-8733.488677,370.102971
4614.357202,148.041188,-8197.221829,-518.144159
4614.357527,222.061783,-8733.488677,-222.061783
4614.357851,74.020594,-8273.831378,-740.205942
4614.358176,444.123565,-8427.050478,-740.205942
4614.358500,592.164754,-8427.050478,-740.205942
4614.358825,518.144159,-8810.098227,-592.164754
4614.359149,592.164754,-8656.879127,-592.164754
4614.359474,518.144159,-8580.269578,-518.144159
4614.359798,370.102971,-8503.660028,-222.061783
4614.360123,296.082377,-8886.707777,-296.082377
4614.360447,148.041188,-8427.050478,-296.082377
4614.360772,370.102971,-8580.269578,0.000000
4614.361096,814.226536,-8963.317327,-666.185348
4614.361421,592.164754,-8810.098227,-592.164754
4614.361745,888.247130,-8656.879127,-444.123565
4614.362070,518.144159,-8503.660028,-370.102971
4614.362394,518.144159,-8580.269578,-222.061783
4614.362719,0.000000,-9116.536426,0.000000
4614.363043,0.000000,-8503.660028,0.000000
4614.363368,74.020594,-8503.660028,-296.082377
4614.363692,296.082377,-8656.879127,-370.102971
4614.364017,518.144159,-8810.098227,0.000000
4614.364341,370.102971,-8580.269578,-592.164754
4614.364666,444.123565,-8580.269578,-740.205942
4614.364990,740.205942,-8197.221829,-518.144159
4614.365315,666.185348,-8886.707777,-370.102971
4614.365639,0.000000,-8273.831378,-222.061783
4614.365964,0.000000,-8580.269578,0.000000
4614.366288,222.061783,-8580.269578,-370.102971
4614.366613,444.123565,-8580.269578,-518.144159
4614.366937,222.061783,-8503.660028,-296.082377
4614.367261,666.185348,-8810.098227,-518.144159
4614.367586,444.123565,-8350.440928,-148.041188
4614.367910,0.000000,-8656.879127,-518.144159
4614.368235,222.061783,-8350.440928,0.000000
4614.368559,0.000000,-8120.612279,-74.020594
4614.368884,74.020594,-8580.269578,-148.041188
4614.369208,592.164754,-8503.660028,148.041188
4614.369533,592.164754,-8580.269578,370.102971
4614.369857,740.205942,-9039.926876,-370.102971
4614.370182,740.205942,-8120.612279,-370.102971
4614.370506,814.226536,-9039.926876,0.000000
4614.370831,518.144159,-8350.440928,-296.082377
4614.371155,148.041188,-8580.269578,-222.061783
4614.371480,222.061783,-8656.879127,-370.102971
4614.371804,444.123565,-8427.050478,-666.185348
4614.372129,296.082377,-8733.488677,-592.164754
4614.372453,888.247130,-8886.707777,-666.185348
4614.372778,740.205942,-8580.269578,-370.102971
4614.373102,740.205942,-8810.098227,-518.144159
4614.373427,370.102971,-8350.440928,-518.144159
4614.373751,444.123565,-8580.269578,-370.102971
4614.374076,444.123565,-8810.098227,-666.185348
4614.374400,370.102971,-8580.269578,-222.061783
4614.374725,592.164754,-8503.660028,-518.144159
4614.375049,370.102971,-8810.098227,-518.144159
4614.375374,740.205942,-8656.879127,-296.082377
4614.375698,814.226536,-8656.879127,-370.102971
4614.376023,740.205942,-8350.440928,-222.061783
4614.376347,814.226536,-8733.488677,-148.041188
4614.376672,592.164754,-8120.612279,0.000000
4614.376996,148.041188,-8503.660028,-222.061783
4614.377320,148.041188,-8810.098227,-444.123565
4614.377645,814.226536,-9039.926876,-666.185348
4614.377969,592.164754,-8503.660028,-296.082377
4614.378294,740.205942,-8886.707777,-592.164754
4614.378618,518.144159,-8810.098227,-592.164754
4614.378943,370.102971,-8656.879127,-222.061783
4614.379267,296.082377,-8733.488677,-296.082377
4614.379592,370.102971,-8197.221829,222.061783
4614.379917,296.082377,-8503.660028,-296.082377
4614.380241,74.020594,-8733.488677,-370.102971
4614.380566,370.102971,-8350.440928,-222.061783
4614.380890,814.226536,-8273.831378,-370.102971
4614.381215,666.185348,-9039.926876,0.000000
4614.381539,518.144159,-8503.660028,0.000000
4614.381864,370.102971,-8733.488677,-444.123565
4614.382188,0.000000,-8503.660028,0.000000
4614.382513,370.102971,-8350.440928,-592.164754
4614.382837,74.020594,-8350.440928,0.000000
4614.383162,222.061783,-8503.660028,-370.102971
4614.383486,0.000000,-8580.269578,-296.082377
4614.383811,666.185348,-9116.536426,0.000000
4614.384135,444.123565,-8197.221829,-666.185348
4614.384460,444.123565,-8810.098227,-518.144159
4614.384784,666.185348,-8350.440928,-370.102971
4614.385109,370.102971,-8120.612279,-444.123565
4614.385433,222.061783,-8120.612279,-592.164754
4614.385758,518.144159,-8350.440928,-518.144159
4614.386082,814.226536,-8503.660028,-666.185348
4614.386407,444.123565,-8656.879127,-222.061783
4614.386731,296.082377,-8427.050478,0.000000
4614.387056,444.123565,-8886.707777,-370.102971
4614.387380,370.102971,-8656.879127,-444.123565
4614.387705,148.041188,-8656.879127,-296.082377
4614.388030,148.041188,-8197.221829,-148.041188
4614.388354,296.082377,-8273.831378,-296.082377
4614.388679,0.000000,-8733.488677,-222.061783
4614.389003,222.061783,-8733.488677,-222.061783
4614.389328,222.061783,-8886.707777,0.000000
4614.389652,592.164754,-8503.660028,-296.082377
4614.389977,74.020594,-8427.050478,-370.102971
4614.390301,222.061783,-8656.879127,0.000000
4614.390626,148.041188,-8580.269578,-444.123565
4614.390950,518.144159,-8886.707777,-296.082377
4614.391275,370.102971,-8197.221829,-666.185348
4614.391599,592.164754,-8886.707777,-370.102971
4614.391924,814.226536,-8427.050478,-592.164754
4614.392248,814.226536,-9422.974625,-148.041188
4614.392573,888.247130,-8580.269578,-666.185348
4614.392897,666.185348,-8503.660028,-444.123565
4614.393222,814.226536,-8733.488677,-592.164754
4614.393546,296.082377,-8656.879127,-592.164754
4614.393871,370.102971,-8427.050478,-148.041188
4614.394195,518.144159,-8656.879127,-296.082377
4614.394520,666.185348,-8656.879127,-518.144159
4614.394844,518.144159,-8580.269578,-222.061783
4614.395169,666.185348,-8197.221829,0.000000
4614.395493,370.102971,-8580.269578,148.041188
4614.395818,222.061783,-8886.707777,-370.102971
4614.396142,222.061783,-8503.660028,-74.020594
4614.396467,222.061783,-9116.536426,-888.247130
4614.396792,222.061783,-9039.926876,-370.102971
4614.397116,148.041188,-8503.660028,-222.061783
4614.397441,592.164754,-8656.879127,-296.082377
4614.397765,444.123565,-8580.269578,-370.102971
4614.398090,888.247130,-8656.879127,-518.144159
4614.398414,814.226536,-8963.317327,-444.123565
4614.398739,0.000000,-8656.879127,-296.082377
4614.399063,444.123565,-8427.050478,-296.082377
4614.399388,222.061783,-7890.783629,-814.226536
4614.399712,592.164754,-8503.660028,-370.102971
4614.400037,444.123565,-8580.269578,-740.205942
4614.400361,666.185348,-8886.707777,-518.144159
4614.400686,666.185348,-8427.050478,-518.144159
4614.401010,518.144159,-8656.879127,-518.144159
4614.401335,444.123565,-8733.488677,-370.102971
4614.401659,444.123565,-8886.707777,-370.102971
4614.401984,518.144159,-8656.879127,-222.061783
4614.402308,444.123565,-8503.660028,-444.123565
4614.402633,444.123565,-9039.926876,-296.082377
4614.402957,296.082377,-8733.488677,-370.102971
4614.403282,740.205942,-8656.879127,-370.102971
4614.403606,962.267725,-9269.755526,0.000000
4614.403931,740.205942,-8733.488677,-222.061783
4614.404255,370.102971,-8656.879127,-296.082377
4614.404580,444.123565,-8656.879127,-222.061783
4614.404905,0.000000,-8810.098227,-592.164754
4614.405229,444.123565,-8503.660028,-518.144159
4614.405554,518.144159,-8197.221829,-518.144159
4614.405878,518.144159,-8580.269578,-444.123565
4614.406203,222.061783,-8350.440928,-518.144159
4614.406527,666.185348,-8580.269578,-740.205942
4614.406852,148.041188,-8580.269578,-592.164754
4614.407176,296.082377,-8273.831378,-592.164754
4614.407501,148.041188,-8273.831378,-518.144159
4614.407825,518.144159,-8503.660028,-518.144159
4614.408150,370.102971,-8810.098227,-814.226536
4614.408474,444.123565,-8503.660028,-444.123565
4614.408799,814.226536,-8886.707777,-370.102971
4614.409123,814.226536,-8503.660028,-222.061783
4614.409448,666.185348,-8733.488677,-148.041188
4614.409772,74.020594,-8580.269578,-370.102971
4614.410097,296.082377,-8350.440928,0.000000
4614.410421,370.102971,-8427.050478,-296.082377
4614.410746,888.247130,-8733.488677,-296.082377
4614.411070,518.144159,-8503.660028,-148.041188
4614.411395,518.144159,-8810.098227,-444.123565
4614.411719,518.144159,-8580.269578,-296.082377
4614.412044,444.123565,-9039.926876,222.061783
4614.412368,592.164754,-8580.269578,-148.041188
4614.412693,222.061783,-8120.612279,-296.082377
4614.413017,74.020594,-8580.269578,-370.102971
4614.413342,148.041188,-8503.660028,-370.102971
4614.413667,0.000000,-8963.317327,0.000000
4614.413991,518.144159,-9039.926876,-666.185348
4614.414316,518.144159,-8503.660028,-444.123565
4614.414640,592.164754,-8733.488677,-296.082377
4614.414965,592.164754,-7967.393179,0.000000
4614.415289,518.144159,-8733.488677,-222.061783
4614.415614,592.164754,-8580.269578,-296.082377
4614.415938,444.123565,-8350.440928,-222.061783
4614.416263,1184.329507,-8656.879127,-444.123565
4614.416587,296.082377,-8810.098227,-666.185348
4614.416912,592.164754,-8733.488677,-370.102971
4614.417236,592.164754,-8503.660028,-444.123565
4614.417561,740.205942,-8656.879127,-370.102971
4614.417885,518.144159,-8350.440928,0.000000
4614.418210,518.144159,-8580.269578,-296.082377
4614.418534,370.102971,-8350.440928,-148.041188
4614.418859,518.144159,-8427.050478,-444.123565
4614.419183,740.205942,-8886.707777,-222.061783
4614.419508,666.185348,-8427.050478,-370.102971
4614.419832,518.144159,-8427.050478,-370.102971
4614.420157,148.041188,-8886.707777,0.000000
4614.420481,518.144159,-8656.879127,-370.102971
4614.420806,296.082377,-8886.707777,-296.082377
4614.421130,296.082377,-8810.098227,74.020594
4614.421455,0.000000,-8656.879127,-222.061783
4614.421780,296.082377,-8656.879127,0.000000
4614.422104,296.082377,-8197.221829,0.000000
4614.422429,370.102971,-8580.269578,-222.061783
4614.422753,592.164754,-8427.050478,0.000000
4614.423078,518.144159,-8427.050478,-296.082377
4614.423402,148.041188,-8427.050478,296.082377
4614.423727,0.000000,-8273.831378,-444.123565
4614.424051,296.082377,-8427.050478,-444.123565
4614.424376,74.020594,-8503.660028,-518.144159
4614.424700,222.061783,-8886.707777,-518.144159
4614.425025,518.144159,-8656.879127,-518.144159
4614.425349,296.082377,-8580.269578,-370.102971
4614.425674,592.164754,-8427.050478,-370.102971
4614.425998,296.082377,-8656.879127,-592.164754
4614.426323,148.041188,-8197.221829,-296.082377
4614.426647,222.061783,-8197.221829,-148.041188
4614.426972,222.061783,-8886.707777,-370.102971
4614.427296,296.082377,-8503.660028,-222.061783
4614.427621,962.267725,-9039.926876,-296.082377
4614.427945,666.185348,-8886.707777,-296.082377
4614.428270,444.123565,-8656.879127,-222.061783
4614.428594,222.061783,-8886.707777,-222.061783
4614.428919,74.020594,-8656.879127,-296.082377
4614.429243,74.020594,-8656.879127,-444.123565
4614.429568,222.061783,-8273.831378,-740.205942
