#time,accel_x,accel_y,accel_z
3970.031634,0.000000,-9039.926876,-814.226536
3970.031958,0.000000,-8886.707777,-518.144159
3970.032283,296.082377,-9422.974625,-962.267725
3970.032608,518.144159,-8886.707777,-962.267725
3970.032932,888.247130,-9116.536426,-1184.329507
3970.033257,1036.288319,-8733.488677,-962.267725
3970.033581,296.082377,-8963.317327,-666.185348
3970.033906,518.144159,-9499.584175,-1110.308913
3970.034231,444.123565,-9422.974625,-1184.329507
3970.034555,-370.102971,-9882.631924,-1480.411884
3970.034880,-962.267725,-9652.803275,-1184.329507
3970.035204,-2220.617826,-9729.412825,-1184.329507
3970.035529,-2738.761985,-9806.022374,-814.226536
3970.035853,-3478.967927,-9346.365076,-1258.350101
3970.036178,-3330.926739,-9269.755526,-1036.288319
3970.036503,-3552.988522,-9039.926876,-962.267725
3970.036827,-3701.029710,-8503.660028,-814.226536
3970.037152,-3182.885551,-8580.269578,-1332.370696
3970.037476,-3404.947333,-9116.536426,-888.247130
3970.037801,-3330.926739,-8580.269578,-1406.391290
3970.038125,-3404.947333,-8733.488677,-666.185348
3970.038450,-4219.173869,-9346.365076,-592.164754
3970.038774,-4145.153275,-8886.707777,-740.205942
3970.039098,-3627.009116,-9269.755526,0.000000
3970.039423,-4737.318029,-8886.707777,-370.102971
3970.039747,-3849.070898,-8810.098227,0.000000
3970.040071,-3627.009116,-8427.050478,-518.144159
3970.040396,-2738.761985,-8503.660028,518.144159
3970.040720,-1998.556043,-8350.440928,0.000000
3970.041045,-1850.514855,-8503.660028,296.082377
3970.041369,-370.102971,-7967.393179,370.102971
3970.041693,-148.041188,-8120.612279,444.123565
3970.042018,0.000000,-9116.536426,1258.350101
3970.042342,0.000000,-7967.393179,1110.308913
3970.042666,148.041188,-8427.050478,962.267725
3970.042991,222.061783,-8580.269578,1036.288319
3970.043315,222.061783,-8580.269578,888.247130
3970.043639,370.102971,-8350.440928,1332.370696
3970.043964,740.205942,-7507.735880,962.267725
3970.044288,1110.308913,-8120.612279,1110.308913
3970.044613,814.226536,-7584.345430,666.185348
3970.044937,1628.453072,-7507.735880,1184.329507
3970.045261,1628.453072,-7507.735880,592.164754
3970.045586,1702.473667,-7737.564530,444.123565
3970.045910,1702.473667,-7660.954980,296.082377
3970.046234,2072.576638,-7431.126331,148.041188
3970.046559,1036.288319,-8120.612279,148.041188
3970.046883,1036.288319,-8120.612279,0.000000
3970.047207,1406.391290,-8197.221829,0.000000
3970.047532,888.247130,-7967.393179,-518.144159
3970.047856,1406.391290,-8350.440928,-592.164754
3970.048181,1924.535449,-7737.564530,-666.185348
3970.048505,2368.659014,-8120.612279,-740.205942
3970.048829,2590.720797,-8197.221829,-1110.308913
3970.049154,2960.823768,-7890.783629,-1406.391290
3970.049478,3034.844362,-8503.660028,-1036.288319
3970.049802,3256.906145,-8656.879127,-1110.308913
3970.050127,3404.947333,-9039.926876,-1184.329507
3970.050451,3478.967927,-8503.660028,-888.247130
3970.050775,3404.947333,-9039.926876,-962.267725
3970.051100,3182.885551,-9422.974625,-1184.329507
3970.051424,3256.906145,-9576.193725,-1184.329507
3970.051749,3404.947333,-9346.365076,-962.267725
3970.052073,3552.988522,-9729.412825,-1776.494261
3970.052397,3256.906145,-9193.145976,-1554.432478
3970.052722,2442.679609,-9269.755526,-1554.432478
3970.053046,2368.659014,-9269.755526,-1406.391290
3970.053370,2072.576638,-9346.365076,-1924.535449
3970.053695,1258.350101,-9652.803275,-1702.473667
3970.054019,888.247130,-9576.193725,-2072.576638
3970.054343,222.061783,-9499.584175,-1702.473667
3970.054668,-74.020594,-9346.365076,-2072.576638
3970.054992,-814.226536,-9806.022374,-1702.473667
3970.055317,-1258.350101,-9499.584175,-1776.494261
3970.055641,-1702.473667,-9806.022374,-1406.391290
3970.055965,-1776.494261,-9116.536426,-1628.453072
3970.056290,-1924.535449,-9193.145976,-1480.411884
3970.056614,-1924.535449,-8963.317327,-1258.350101
3970.056938,-2368.659014,-8810.098227,-962.267725
3970.057263,-2146.597232,-9039.926876,-962.267725
3970.057587,-1702.473667,-9806.022374,-888.247130
3970.057911,-1924.535449,-8963.317327,-592.164754
3970.058236,-1776.494261,-9039.926876,-666.185348
3970.058560,-2220.617826,-9193.145976,0.000000
3970.058885,-2072.576638,-8963.317327,0.000000
3970.059209,-2220.617826,-8963.317327,222.061783
3970.059533,-2368.659014,-8656.879127,296.082377
3970.059858,-2442.679609,-8580.269578,592.164754
3970.060182,-1776.494261,-8503.660028,814.226536
3970.060506,-1850.514855,-8656.879127,1406.391290
3970.060831,-888.247130,-8197.221829,1110.308913
3970.061155,-370.102971,-7584.345430,1480.411884
3970.061479,0.000000,-7814.174080,1480.411884
3970.061804,370.102971,-7660.954980,962.267725
3970.062128,74.020594,-7814.174080,1702.473667
3970.062453,0.000000,-7814.174080,1554.432478
3970.062777,-296.082377,-8044.002729,1776.494261
3970.063101,-592.164754,-8044.002729,1406.391290
3970.063426,-666.185348,-7737.564530,1332.370696
3970.063750,-740.205942,-7354.516781,1036.288319
3970.064074,-148.041188,-7507.735880,888.247130
3970.064399,0.000000,-7277.907231,1036.288319
3970.064723,74.020594,-7277.907231,962.267725
3970.065047,592.164754,-7277.907231,444.123565
3970.065372,962.267725,-7354.516781,518.144159
3970.065696,1110.308913,-7354.516781,222.061783
3970.066021,962.267725,-8273.831378,0.000000
3970.066345,666.185348,-7967.393179,296.082377
3970.066669,962.267725,-7967.393179,0.000000
3970.066994,1332.370696,-8273.831378,0.000000
3970.067318,1036.288319,-7967.393179,-148.041188
3970.067642,1776.494261,-8273.831378,-148.041188
3970.067967,2294.638420,-8273.831378,-518.144159
3970.068291,2886.803174,-8197.221829,-370.102971
3970.068615,3034.844362,-8273.831378,-962.267725
3970.068940,3330.926739,-8580.269578,-296.082377
3970.069264,3627.009116,-8963.317327,-1110.308913
3970.069589,3701.029710,-9116.536426,-1332.370696
3970.069913,3330.926739,-9193.145976,-1110.308913
3970.070237,3256.906145,-9729.412825,-814.226536
3970.070562,2738.761985,-9576.193725,-1406.391290
3970.070886,2368.659014,-9499.584175,-1554.432478
3970.071210,2368.659014,-9806.022374,-1998.556043
3970.071535,2294.638420,-9499.584175,-1776.494261
3970.071859,1924.535449,-9422.974625,-2072.576638
3970.072183,1850.514855,-9652.803275,-1924.535449
3970.072508,1998.556043,-9193.145976,-2368.659014
3970.072832,1924.535449,-9422.974625,-2368.659014
3970.073157,1554.432478,-9499.584175,-2664.741391
3970.073481,1258.350101,-9806.022374,-2220.617826
3970.073805,814.226536,-9806.022374,-2590.720797
3970.074130,444.123565,-9652.803275,-2442.679609
3970.074454,-222.061783,-9729.412825,-2220.617826
3970.074778,-518.144159,-9959.241474,-2072.576638
3970.075103,-888.247130,-9116.536426,-1702.473667
3970.075427,-962.267725,-9422.974625,-1776.494261
3970.075751,-740.205942,-9039.926876,-1850.514855
3970.076076,0.000000,-9039.926876,-1480.411884
3970.076400,-222.061783,-9039.926876,-1480.411884
3970.076725,0.000000,-8963.317327,-1110.308913
3970.077049,-370.102971,-8733.488677,-888.247130
3970.077373,-148.041188,-9422.974625,74.020594
3970.077698,-370.102971,-8886.707777,-518.144159
3970.078022,-370.102971,-8810.098227,0.000000
3970.078346,-666.185348,-8963.317327,296.082377
3970.078671,-592.164754,-9422.974625,666.185348
3970.078995,-740.205942,-9039.926876,444.123565
3970.079319,-1184.329507,-8580.269578,1036.288319
3970.079644,-1184.329507,-7890.783629,1110.308913
3970.079968,-814.226536,-8273.831378,1332.370696
3970.080293,-962.267725,-8044.002729,1628.453072
3970.080617,-666.185348,-8197.221829,1628.453072
3970.080941,-888.247130,-7660.954980,1406.391290
3970.081266,-962.267725,-7967.393179,1924.535449
3970.081590,-1628.453072,-7737.564530,1480.411884
3970.081914,-666.185348,-8044.002729,1776.494261
3970.082239,-1554.432478,-7814.174080,1702.473667
3970.082563,-1480.411884,-8044.002729,2072.576638
3970.082887,-1776.494261,-7277.907231,1406.391290
3970.083212,-962.267725,-7890.783629,1924.535449
3970.083536,-1184.329507,-7354.516781,1184.329507
3970.083861,-444.123565,-7967.393179,1850.514855
3970.084185,-296.082377,-7584.345430,1258.350101
3970.084509,-222.061783,-7048.078582,1776.494261
3970.084834,296.082377,-7584.345430,1036.288319
3970.085158,-296.082377,-7660.954980,1110.308913
3970.085482,444.123565,-7737.564530,1036.288319
3970.085807,0.000000,-7584.345430,1036.288319
3970.086131,740.205942,-8427.050478,592.164754
3970.086455,74.020594,-7584.345430,296.082377
3970.086780,814.226536,-8810.098227,296.082377
3970.087104,666.185348,-8120.612279,0.000000
3970.087429,1332.370696,-8656.879127,370.102971
3970.087753,1480.411884,-8350.440928,-370.102971
3970.088077,1998.556043,-8656.879127,-222.061783
3970.088402,1998.556043,-8733.488677,-592.164754
3970.088726,2220.617826,-8810.098227,-222.061783
3970.089050,2220.617826,-8733.488677,-1332.370696
3970.089375,1776.494261,-9269.755526,-1110.308913
3970.089699,1702.473667,-8810.098227,-1332.370696
3970.090023,1554.432478,-9193.145976,-1184.329507
3970.090348,1702.473667,-9499.584175,-1776.494261
3970.090672,1628.453072,-9346.365076,-1850.514855
3970.090997,1554.432478,-9422.974625,-1924.535449
3970.091321,1628.453072,-9269.755526,-1998.556043
3970.091645,1480.411884,-9269.755526,-2442.679609
3970.091970,1480.411884,-9576.193725,-2294.638420
3970.092294,1480.411884,-9346.365076,-2368.659014
3970.092618,1406.391290,-9269.755526,-2294.638420
3970.092943,1110.308913,-9346.365076,-2368.659014
3970.093267,740.205942,-9499.584175,-2442.679609
3970.093591,592.164754,-9806.022374,-2590.720797
3970.093916,444.123565,-9576.193725,-2294.638420
3970.094240,518.144159,-9576.193725,-2220.617826
3970.094565,444.123565,-9576.193725,-1924.535449
3970.094889,740.205942,-9576.193725,-1554.432478
3970.095213,518.144159,-9039.926876,-1776.494261
3970.095538,1184.329507,-9499.584175,-1480.411884
3970.095862,1480.411884,-9269.755526,-1480.411884
3970.096186,1554.432478,-9422.974625,-1036.288319
3970.096511,962.267725,-9039.926876,-1258.350101
3970.096835,1332.370696,-9039.926876,-666.185348
3970.097159,1258.350101,-9193.145976,-666.185348
3970.097484,666.185348,-8656.879127,-296.082377
3970.097808,592.164754,-8580.269578,-296.082377
3970.098133,148.041188,-8580.269578,74.020594
3970.098457,148.041188,-8503.660028,74.020594
3970.098781,0.000000,-8427.050478,370.102971
3970.099106,0.000000,-8273.831378,0.000000
3970.099430,-296.082377,-8044.002729,518.144159
3970.099754,0.000000,-8197.221829,666.185348
3970.100079,0.000000,-7814.174080,592.164754
3970.100403,0.000000,-7737.564530,888.247130
3970.100727,-148.041188,-7967.393179,1036.288319
3970.101052,-148.041188,-7737.564530,1480.411884
3970.101376,0.000000,-7584.345430,1258.350101
3970.101701,-444.123565,-7814.174080,1702.473667
3970.102025,-518.144159,-7507.735880,1406.391290
3970.102349,-740.205942,-7890.783629,1406.391290
3970.102674,-592.164754,-7584.345430,1480.411884
3970.102998,-370.102971,-7584.345430,1776.494261
3970.103322,-370.102971,-7890.783629,1702.473667
3970.103647,0.000000,-7507.735880,1406.391290
3970.103971,222.061783,-7737.564530,1702.473667
3970.104295,962.267725,-8120.612279,1036.288319
3970.104620,962.267725,-7967.393179,1332.370696
3970.104944,666.185348,-7737.564530,1184.329507
3970.105269,666.185348,-7967.393179,1332.370696
3970.105593,518.144159,-8427.050478,518.144159
3970.105917,296.082377,-8503.660028,592.164754
3970.106242,222.061783,-8120.612279,518.144159
3970.106566,0.000000,-8350.440928,370.102971
3970.106890,0.000000,-8350.440928,0.000000
3970.107215,148.041188,-8350.440928,370.102971
3970.107539,370.102971,-8273.831378,-592.164754
3970.107863,962.267725,-8886.707777,-666.185348
3970.108188,962.267725,-8350.440928,-740.205942
3970.108512,1332.370696,-8350.440928,-814.226536
3970.108837,814.226536,-8886.707777,-1406.391290
3970.109161,1036.288319,-9193.145976,-1036.288319
3970.109485,814.226536,-9039.926876,-1702.473667
3970.109810,814.226536,-9269.755526,-1406.391290
3970.110134,74.020594,-9422.974625,-1628.453072
3970.110458,222.061783,-9806.022374,-1776.494261
3970.110783,0.000000,-9346.365076,-2072.576638
3970.111107,222.061783,-9193.145976,-1850.514855
3970.111431,370.102971,-9422.974625,-1850.514855
3970.111756,74.020594,-9499.584175,-1850.514855
3970.112080,444.123565,-9422.974625,-1998.556043
3970.112405,592.164754,-9346.365076,-1776.494261
3970.112729,222.061783,-9499.584175,-2146.597232
3970.113053,814.226536,-9422.974625,-1924.535449
3970.113378,888.247130,-9499.584175,-1702.473667
3970.113702,666.185348,-9499.584175,-1628.453072
3970.114026,1110.308913,-9576.193725,-1776.494261
3970.114351,1110.308913,-9652.803275,-1702.473667
3970.114675,814.226536,-9346.365076,-1628.453072
3970.114999,740.205942,-9039.926876,-1406.391290
3970.115324,740.205942,-9039.926876,-1480.411884
3970.115648,888.247130,-8810.098227,-1480.411884
3970.115973,666.185348,-8886.707777,-1480.411884
3970.116297,518.144159,-8656.879127,-1258.350101
3970.116621,814.226536,-8580.269578,-888.247130
3970.116946,592.164754,-8733.488677,-666.185348
3970.117270,814.226536,-8810.098227,-592.164754
3970.117594,444.123565,-8503.660028,-370.102971
3970.117919,814.226536,-8503.660028,-296.082377
3970.118243,740.205942,-8197.221829,-444.123565
3970.118567,666.185348,-8350.440928,0.000000
3970.118892,74.020594,-7967.393179,0.000000
3970.119216,0.000000,-8273.831378,592.164754
3970.119541,0.000000,-7890.783629,148.041188
3970.119865,0.000000,-8733.488677,814.226536
3970.120189,-296.082377,-7660.954980,296.082377
3970.120514,0.000000,-7967.393179,962.267725
3970.120838,-222.061783,-7814.174080,666.185348
3970.121162,444.123565,-8197.221829,1406.391290
3970.121487,740.205942,-7507.735880,814.226536
3970.121811,666.185348,-7890.783629,1184.329507
3970.122135,740.205942,-7967.393179,1036.288319
3970.122460,814.226536,-8273.831378,1258.350101
3970.122784,666.185348,-8273.831378,1110.308913
3970.123109,518.144159,-8044.002729,1036.288319
3970.123433,74.020594,-8120.612279,1332.370696
3970.123757,296.082377,-7967.393179,1110.308913
3970.124082,518.144159,-8350.440928,962.267725
3970.124406,0.000000,-7660.954980,666.185348
3970.124730,222.061783,-7967.393179,444.123565
3970.125055,148.041188,-8044.002729,370.102971
3970.125379,222.061783,-8427.050478,592.164754
3970.125703,222.061783,-8044.002729,148.041188
3970.126028,444.123565,-8427.050478,296.082377
3970.126352,444.123565,-8350.440928,-222.061783
3970.126677,666.185348,-8580.269578,-296.082377
3970.127001,740.205942,-8580.269578,-296.082377
3970.127325,370.102971,-8963.317327,-518.144159
3970.127650,74.020594,-8733.488677,-666.185348
3970.127974,0.000000,-9193.145976,-666.185348
3970.128298,0.000000,-8427.050478,-518.144159
3970.128623,-296.082377,-9039.926876,-1110.308913
3970.128947,-296.082377,-8580.269578,-1184.329507
3970.129271,0.000000,-8963.317327,-1036.288319
3970.129596,148.041188,-8886.707777,-962.267725
3970.129920,518.144159,-9269.755526,-1332.370696
3970.130245,666.185348,-9039.926876,-1702.473667
3970.130569,888.247130,-9422.974625,-1184.329507
3970.130893,888.247130,-9116.536426,-1406.391290
3970.131218,1036.288319,-9576.193725,-1332.370696
3970.131542,444.123565,-9422.974625,-1702.473667
3970.131866,666.185348,-9499.584175,-1406.391290
3970.132191,518.144159,-9346.365076,-1702.473667
3970.132515,962.267725,-9806.022374,-1406.391290
3970.132839,666.185348,-9116.536426,-1554.432478
3970.133164,444.123565,-8810.098227,-1332.370696
3970.133488,888.247130,-8810.098227,-1702.473667
3970.133813,740.205942,-9116.536426,-1258.350101
3970.134137,1628.453072,-8963.317327,-1110.308913
3970.134461,888.247130,-8886.707777,-1332.370696
3970.134786,666.185348,-9039.926876,-888.247130
3970.135110,518.144159,-8580.269578,-1110.308913
3970.135434,888.247130,-9269.755526,-1184.329507
3970.135759,0.000000,-8963.317327,-370.102971
3970.136083,0.000000,-8810.098227,-222.061783
3970.136407,-296.082377,-8503.660028,-814.226536
3970.136732,222.061783,-8044.002729,0.000000
3970.137056,0.000000,-8197.221829,-370.102971
3970.137381,296.082377,-8427.050478,-444.123565
3970.137705,518.144159,-7890.783629,-148.041188
3970.138029,370.102971,-8197.221829,444.123565
3970.138354,888.247130,-7890.783629,-296.082377
3970.138678,222.061783,-8120.612279,370.102971
3970.139003,222.061783,-8044.002729,296.082377
3970.139327,-444.123565,-7660.954980,518.144159
3970.139652,-148.041188,-8273.831378,740.205942
3970.139976,-518.144159,-7814.174080,888.247130
3970.140301,74.020594,-8197.221829,888.247130
3970.140625,-370.102971,-7737.564530,444.123565
3970.140950,1110.308913,-7660.954980,666.185348
3970.141275,370.102971,-7277.907231,962.267725
3970.141599,962.267725,-8427.050478,814.226536
3970.141924,444.123565,-7507.735880,148.041188
3970.142248,518.144159,-7967.393179,1110.308913
3970.142573,666.185348,-8120.612279,222.061783
3970.142897,148.041188,-8580.269578,740.205942
3970.143222,-222.061783,-8427.050478,518.144159
3970.143546,-222.061783,-8503.660028,592.164754
3970.143871,-148.041188,-8656.879127,0.000000
3970.144195,-666.185348,-8886.707777,666.185348
3970.144520,0.000000,-7737.564530,148.041188
3970.144845,-370.102971,-8197.221829,74.020594
3970.145169,74.020594,-8350.440928,0.000000
3970.145494,222.061783,-8197.221829,148.041188
3970.145818,296.082377,-8427.050478,-444.123565
3970.146143,370.102971,-8733.488677,-592.164754
3970.146467,148.041188,-8580.269578,-370.102971
3970.146792,-370.102971,-8886.707777,-370.102971
3970.147116,-518.144159,-8963.317327,-518.144159
3970.147441,-444.123565,-8963.317327,-666.185348
3970.147765,-518.144159,-9269.755526,-962.267725
3970.148090,-222.061783,-8503.660028,-962.267725
3970.148415,148.041188,-8886.707777,-962.267725
3970.148739,370.102971,-8733.488677,-814.226536
3970.149064,1110.308913,-9039.926876,-962.267725
3970.149388,1184.329507,-8733.488677,-1110.308913
3970.149713,1776.494261,-9193.145976,-814.226536
3970.150037,1332.370696,-9193.145976,-1036.288319
3970.150362,1554.432478,-9576.193725,-740.205942
3970.150686,1036.288319,-9193.145976,-1110.308913
3970.151011,814.226536,-9193.145976,-1110.308913
3970.151336,814.226536,-9039.926876,-1480.411884
3970.151660,666.185348,-9269.755526,-962.267725
3970.151985,592.164754,-9039.926876,-1332.370696
3970.152309,592.164754,-8963.317327,-1554.432478
3970.152634,1036.288319,-8810.098227,-1110.308913
3970.152958,1332.370696,-8886.707777,-1184.329507
3970.153283,1628.453072,-8656.879127,-814.226536
3970.153607,1554.432478,-8580.269578,-1110.308913
3970.153932,1924.535449,-8886.707777,-962.267725
3970.154256,1480.411884,-8810.098227,-1036.288319
3970.154581,1258.350101,-9193.145976,-666.185348
3970.154906,962.267725,-8810.098227,-1110.308913
3970.155230,518.144159,-9499.584175,-296.082377
3970.155555,0.000000,-8580.269578,-962.267725
3970.155879,222.061783,-8656.879127,-518.144159
3970.156204,222.061783,-8044.002729,-1036.288319
3970.156528,888.247130,-9346.365076,-518.144159
3970.156853,1036.288319,-8044.002729,-444.123565
3970.157177,1184.329507,-8273.831378,-370.102971
3970.157502,1554.432478,-8197.221829,-222.061783
3970.157826,1258.350101,-8273.831378,0.000000
3970.158151,1258.350101,-8580.269578,0.000000
3970.158476,962.267725,-8273.831378,0.000000
3970.158800,740.205942,-8503.660028,296.082377
3970.159125,148.041188,-8733.488677,148.041188
3970.159449,222.061783,-8580.269578,592.164754
3970.159774,74.020594,-8733.488677,148.041188
3970.160098,0.000000,-8197.221829,370.102971
3970.160423,296.082377,-8044.002729,296.082377
3970.160747,148.041188,-8580.269578,518.144159
3970.161072,148.041188,-8120.612279,296.082377
3970.161396,518.144159,-8273.831378,74.020594
3970.161721,740.205942,-8427.050478,74.020594
3970.162046,370.102971,-8120.612279,222.061783
3970.162370,0.000000,-8580.269578,296.082377
3970.162695,-592.164754,-8580.269578,74.020594
3970.163019,-666.185348,-8656.879127,0.000000
3970.163344,-888.247130,-8886.707777,74.020594
3970.163668,-1702.473667,-8656.879127,592.164754
3970.163993,-1332.370696,-8656.879127,296.082377
3970.164317,-888.247130,-8273.831378,148.041188
3970.164642,-592.164754,-8197.221829,148.041188
3970.164967,-296.082377,-8273.831378,0.000000
3970.165291,222.061783,-8427.050478,0.000000
3970.165616,74.020594,-8044.002729,0.000000
3970.165940,-444.123565,-8503.660028,-222.061783
3970.166265,-222.061783,-8580.269578,-444.123565
3970.166589,-592.164754,-8886.707777,148.041188
3970.166914,-740.205942,-8656.879127,-222.061783
3970.167238,-740.205942,-8810.098227,-148.041188
3970.167563,-370.102971,-8810.098227,-296.082377
3970.167887,-370.102971,-8886.707777,222.061783
3970.168212,296.082377,-8503.660028,-666.185348
3970.168537,740.205942,-8580.269578,-814.226536
3970.168861,1110.308913,-8503.660028,-592.164754
3970.169186,1110.308913,-8427.050478,-518.144159
3970.169510,740.205942,-8963.317327,-518.144159
3970.169835,592.164754,-9193.145976,-666.185348
3970.170159,592.164754,-8656.879127,-666.185348
3970.170484,518.144159,-9039.926876,-888.247130
3970.170808,222.061783,-8733.488677,-222.061783
3970.171133,518.144159,-8963.317327,-444.123565
3970.171457,518.144159,-8810.098227,-518.144159
3970.171782,1332.370696,-8733.488677,-740.205942
3970.172107,888.247130,-8656.879127,-518.144159
3970.172431,1924.535449,-8427.050478,-962.267725
3970.172756,1406.391290,-8427.050478,-666.185348
3970.173080,1554.432478,-8580.269578,-888.247130
3970.173405,1110.308913,-8427.050478,-592.164754
3970.173729,1258.350101,-8733.488677,-814.226536
3970.174054,962.267725,-8580.269578,-666.185348
3970.174378,1036.288319,-8963.317327,-518.144159
3970.174703,1036.288319,-8733.488677,-518.144159
3970.175027,1924.535449,-8656.879127,-370.102971
3970.175352,1480.411884,-8580.269578,-1036.288319
3970.175677,1850.514855,-8580.269578,-370.102971
3970.176001,1850.514855,-8350.440928,-444.123565
3970.176326,1850.514855,-8733.488677,-296.082377
3970.176650,1850.514855,-8503.660028,-518.144159
3970.176975,1554.432478,-8580.269578,-444.123565
3970.177299,1258.350101,-8273.831378,-666.185348
3970.177624,1184.329507,-8580.269578,0.000000
3970.177948,1036.288319,-8197.221829,-444.123565
3970.178273,740.205942,-8656.879127,0.000000
3970.178598,592.164754,-8120.612279,-370.102971
3970.178922,740.205942,-8886.707777,-370.102971
3970.179247,1406.391290,-9193.145976,-592.164754
3970.179571,1110.308913,-8427.050478,0.000000
3970.179896,1258.350101,-8503.660028,-222.061783
3970.180220,740.205942,-8580.269578,-222.061783
3970.180545,814.226536,-8656.879127,-666.185348
3970.180869,444.123565,-8656.879127,-148.041188
3970.181194,222.061783,-8503.660028,0.000000
3970.181518,74.020594,-8427.050478,0.000000
3970.181843,0.000000,-8810.098227,-222.061783
3970.182168,-222.061783,-9039.926876,0.000000
3970.182492,0.000000,-8810.098227,0.000000
3970.182817,-222.061783,-8427.050478,0.000000
3970.183141,-370.102971,-8656.879127,-222.061783
3970.183466,296.082377,-8810.098227,-296.082377
3970.183790,0.000000,-8503.660028,-148.041188
3970.184115,0.000000,-8503.660028,-222.061783
3970.184439,-148.041188,-8656.879127,0.000000
3970.184764,-222.061783,-8886.707777,74.020594
3970.185088,0.000000,-8656.879127,148.041188
3970.185413,-296.082377,-8503.660028,-222.061783
3970.185738,-148.041188,-8656.879127,148.041188
3970.186062,-518.144159,-8810.098227,0.000000
3970.186387,-518.144159,-8350.440928,0.000000
3970.186711,-370.102971,-8580.269578,0.000000
3970.187036,0.000000,-8656.879127,0.000000
3970.187360,0.000000,-8580.269578,-222.061783
3970.187685,370.102971,-8427.050478,0.000000
3970.188009,148.041188,-8580.269578,-296.082377
3970.188334,148.041188,-8580.269578,0.000000
3970.188658,0.000000,-8503.660028,-222.061783
3970.188983,0.000000,-8350.440928,-296.082377
3970.189308,0.000000,-8733.488677,-370.102971
3970.189632,0.000000,-8656.879127,-74.020594
3970.189957,0.000000,-8273.831378,-592.164754
3970.190281,-148.041188,-8656.879127,-296.082377
3970.190606,-296.082377,-8503.660028,-444.123565
3970.190930,0.000000,-8580.269578,-444.123565
3970.191255,296.082377,-8503.660028,-518.144159
3970.191579,592.164754,-8810.098227,0.000000
3970.191904,444.123565,-7967.393179,-518.144159
3970.192229,592.164754,-8580.269578,74.020594
3970.192553,592.164754,-8273.831378,-888.247130
3970.192878,666.185348,-8886.707777,-222.061783
3970.193202,370.102971,-7967.393179,-888.247130
3970.193527,518.144159,-8963.317327,0.000000
3970.193851,222.061783,-8427.050478,-888.247130
3970.194176,518.144159,-9116.536426,-148.041188
3970.194500,740.205942,-8120.612279,-666.185348
3970.194825,888.247130,-8656.879127,-370.102971
3970.195149,1258.350101,-8503.660028,-444.123565
3970.195474,1184.329507,-8963.317327,0.000000
3970.195799,1406.391290,-8733.488677,-370.102971
3970.196123,1184.329507,-8120.612279,-740.205942
3970.196448,1258.350101,-9193.145976,-814.226536
3970.196772,962.267725,-8427.050478,-666.185348
3970.197097,592.164754,-8733.488677,-518.144159
3970.197421,444.123565,-8810.098227,-666.185348
3970.197746,222.061783,-8733.488677,-296.082377
3970.198070,296.082377,-8580.269578,-666.185348
3970.198395,666.185348,-8733.488677,-740.205942
3970.198719,666.185348,-8427.050478,-444.123565
3970.199044,518.144159,-9269.755526,0.000000
3970.199369,666.185348,-8503.660028,-814.226536
3970.199693,740.205942,-8580.269578,-592.164754
3970.200018,814.226536,-8733.488677,-888.247130
3970.200342,370.102971,-8733.488677,-592.164754
3970.200667,0.000000,-8427.050478,-740.205942
3970.200991,-148.041188,-8963.317327,-518.144159
3970.201316,74.020594,-8580.269578,-518.144159
3970.201640,74.020594,-8733.488677,-666.185348
3970.201965,296.082377,-8120.612279,-740.205942
3970.202289,518.144159,-8580.269578,-296.082377
3970.202614,666.185348,-8427.050478,-518.144159
3970.202939,814.226536,-8580.269578,0.000000
3970.203263,740.205942,-8273.831378,-592.164754
3970.203588,814.226536,-8886.707777,-296.082377
3970.203912,740.205942,-8733.488677,-370.102971
3970.204237,444.123565,-8963.317327,0.000000
3970.204561,518.144159,-8580.269578,-592.164754
3970.204886,592.164754,-8886.707777,0.000000
3970.205210,222.061783,-8580.269578,-222.061783
3970.205535,74.020594,-8580.269578,0.000000
3970.205860,74.020594,-8580.269578,0.000000
3970.206184,296.082377,-8656.879127,0.000000
3970.206509,518.144159,-8656.879127,-148.041188
3970.206833,444.123565,-8886.707777,-148.041188
3970.207158,592.164754,-8733.488677,0.000000
3970.207482,222.061783,-8656.879127,-444.123565
3970.207807,370.102971,-8810.098227,0.000000
3970.208131,370.102971,-8656.879127,-148.041188
3970.208456,296.082377,-8503.660028,222.061783
3970.208780,222.061783,-8197.221829,-370.102971
3970.209105,-296.082377,-8810.098227,222.061783
3970.209430,0.000000,-8427.050478,0.000000
3970.209754,74.020594,-8656.879127,0.000000
3970.210079,148.041188,-8350.440928,-222.061783
3970.210403,-148.041188,-8197.221829,222.061783
3970.210728,592.164754,-8503.660028,0.000000
3970.211052,370.102971,-8120.612279,-296.082377
3970.211377,888.247130,-8810.098227,-222.061783
3970.211701,518.144159,-8273.831378,-296.082377
3970.212026,740.205942,-9039.926876,0.000000
3970.212350,370.102971,-8273.831378,-296.082377
3970.212675,518.144159,-9039.926876,0.000000
3970.213000,148.041188,-8350.440928,-370.102971
3970.213324,74.020594,-8810.098227,-444.123565
3970.213649,296.082377,-8503.660028,-518.144159
3970.213973,148.041188,-8580.269578,-592.164754
3970.214298,592.164754,-8273.831378,-222.061783
3970.214622,962.267725,-8503.660028,0.000000
3970.214947,666.185348,-8580.269578,-444.123565
3970.215271,592.164754,-8503.660028,-592.164754
3970.215596,740.205942,-8810.098227,-592.164754
3970.215920,444.123565,-9269.755526,-740.205942
3970.216245,666.185348,-9116.536426,-518.144159
3970.216570,296.082377,-8656.879127,-518.144159
3970.216894,0.000000,-8656.879127,-444.123565
3970.217219,0.000000,-8810.098227,-666.185348
3970.217543,666.185348,-8963.317327,-888.247130
3970.217868,148.041188,-8656.879127,-740.205942
3970.218192,74.020594,-8886.707777,-370.102971
3970.218517,296.082377,-8503.660028,-962.267725
3970.218841,592.164754,-8580.269578,-888.247130
3970.219166,222.061783,-8810.098227,-888.247130
3970.219491,-148.041188,-8733.488677,-296.082377
3970.219815,-222.061783,-8733.488677,-592.164754
3970.220140,-370.102971,-8886.707777,-296.082377
3970.220464,-148.041188,-8810.098227,-666.185348
3970.220789,74.020594,-8963.317327,-518.144159
3970.221113,666.185348,-8580.269578,-370.102971
3970.221438,666.185348,-8656.879127,-444.123565
3970.221762,370.102971,-8044.002729,-444.123565
3970.222087,814.226536,-8503.660028,-740.205942
3970.222411,592.164754,-8580.269578,-444.123565
3970.222736,444.123565,-8810.098227,-370.102971
3970.223061,444.123565,-8733.488677,-518.144159
3970.223385,74.020594,-8886.707777,-296.082377
3970.223710,0.000000,-8427.050478,-518.144159
3970.224034,0.000000,-8503.660028,-370.102971
3970.224359,74.020594,-8427.050478,-222.061783
3970.224683,666.185348,-8273.831378,-222.061783
3970.225008,740.205942,-8427.050478,-296.082377
3970.225332,888.247130,-8350.440928,-444.123565
3970.225657,888.247130,-8503.660028,-222.061783
3970.225981,1036.288319,-8656.879127,-222.061783
3970.226306,518.144159,-8427.050478,-370.102971
3970.226631,148.041188,-8580.269578,74.020594
3970.226955,74.020594,-8733.488677,-296.082377
3970.227280,222.061783,-8733.488677,-296.082377
3970.227604,0.000000,-8273.831378,-296.082377
3970.227929,296.082377,-8503.660028,0.000000
3970.228253,296.082377,-8120.612279,0.000000
3970.228578,592.164754,-8350.440928,-222.061783
3970.228902,962.267725,-8197.221829,-370.102971
3970.229227,1258.350101,-8427.050478,-222.061783
3970.229551,1406.391290,-8120.612279,-370.102971
3970.229876,1406.391290,-8044.002729,-296.082377
3970.230201,1554.432478,-8273.831378,0.000000
3970.230525,814.226536,-8580.269578,-148.041188
3970.230850,370.102971,-8427.050478,-148.041188
3970.231174,0.000000,-8580.269578,-296.082377
3970.231499,444.123565,-7737.564530,0.000000
3970.231823,296.082377,-8120.612279,0.000000
3970.232148,296.082377,-8427.050478,-370.102971
3970.232472,814.226536,-8427.050478,-592.164754
3970.232797,962.267725,-8580.269578,-444.123565
3970.233121,1702.473667,-8733.488677,-296.082377
3970.233446,1406.391290,-8580.269578,-222.061783
3970.233771,1258.350101,-9116.536426,-296.082377
3970.234095,1036.288319,-8886.707777,-296.082377
3970.234420,740.205942,-9806.022374,-296.082377
3970.234744,74.020594,-9346.365076,-296.082377
3970.235069,222.061783,-8580.269578,-444.123565
3970.235393,-148.041188,-9116.536426,-592.164754
3970.235718,-148.041188,-9039.926876,-666.185348
3970.236042,0.000000,-8656.879127,-518.144159
3970.236367,296.082377,-8580.269578,-888.247130
3970.236692,666.185348,-8580.269578,-666.185348
3970.237016,666.185348,-8197.221829,-370.102971
3970.237341,1184.329507,-9039.926876,-592.164754
3970.237665,962.267725,-9116.536426,-740.205942
3970.237990,1110.308913,-9039.926876,-592.164754
3970.238314,592.164754,-8810.098227,-444.123565
3970.238639,518.144159,-9193.145976,-444.123565
3970.238963,-370.102971,-8810.098227,-148.041188
3970.239288,-222.061783,-9116.536426,-222.061783
3970.239612,-296.082377,-8810.098227,-370.102971
3970.239937,-370.102971,-8580.269578,-370.102971
3970.240261,0.000000,-8810.098227,-222.061783
3970.240586,592.164754,-8120.612279,-222.061783
3970.240910,1036.288319,-8350.440928,-370.102971
3970.241235,962.267725,-8503.660028,-444.123565
3970.241559,888.247130,-8503.660028,-222.061783
3970.241884,444.123565,-8886.707777,0.000000
3970.242208,74.020594,-8427.050478,-518.144159
3970.242533,-296.082377,-9269.755526,0.000000
3970.242857,-666.185348,-8350.440928,0.000000
3970.243182,-666.185348,-8733.488677,-444.123565
3970.243506,-296.082377,-8503.660028,-148.041188
3970.243831,-592.164754,-8580.269578,0.000000
3970.244155,0.000000,-7967.393179,-592.164754
3970.244479,296.082377,-8197.221829,-370.102971
3970.244804,740.205942,-7967.393179,0.000000
3970.245128,592.164754,-8580.269578,-444.123565
3970.245453,814.226536,-7967.393179,0.000000
3970.245777,0.000000,-8503.660028,0.000000
3970.246102,0.000000,-8656.879127,-222.061783
3970.246426,-148.041188,-9039.926876,-518.144159
3970.246751,0.000000,-8810.098227,0.000000
3970.247075,-296.082377,-8656.879127,-444.123565
3970.247400,-370.102971,-8656.879127,0.000000
3970.247724,0.000000,-8503.660028,-370.102971
3970.248049,296.082377,-8044.002729,-148.041188
3970.248373,888.247130,-8197.221829,-518.144159
3970.248698,296.082377,-8503.660028,-222.061783
3970.249022,1036.288319,-8120.612279,-148.041188
3970.249347,888.247130,-8350.440928,-148.041188
3970.249671,740.205942,-8503.660028,-370.102971
3970.249996,666.185348,-8886.707777,-296.082377
3970.250320,222.061783,-8733.488677,-296.082377
3970.250645,0.000000,-8580.269578,-296.082377
3970.250969,0.000000,-8733.488677,-222.061783
3970.251293,222.061783,-8503.660028,-370.102971
3970.251618,296.082377,-8503.660028,-296.082377
3970.251942,518.144159,-8350.440928,-666.185348
3970.252267,1184.329507,-8350.440928,-518.144159
3970.252591,1036.288319,-7890.783629,-518.144159
3970.252916,1258.350101,-8886.707777,0.000000
3970.253240,740.205942,-8427.050478,-740.205942
3970.253565,592.164754,-8810.098227,-518.144159
3970.253889,296.082377,-8886.707777,-740.205942
3970.254214,0.000000,-8886.707777,0.000000
3970.254538,-296.082377,-8580.269578,-444.123565
3970.254863,0.000000,-8733.488677,-296.082377
3970.255187,296.082377,-8656.879127,-814.226536
3970.255512,518.144159,-8350.440928,-518.144159
3970.255836,1628.453072,-8886.707777,-444.123565
3970.256161,1480.411884,-7967.393179,-740.205942
3970.256485,1702.473667,-8656.879127,-666.185348
3970.256810,1554.432478,-8044.002729,-296.082377
3970.257134,2072.576638,-9116.536426,-518.144159
3970.257459,814.226536,-8733.488677,-444.123565
3970.257783,962.267725,-8886.707777,-296.082377
3970.258107,370.102971,-8733.488677,-518.144159
3970.258432,814.226536,-9193.145976,-296.082377
3970.258756,74.020594,-8350.440928,-740.205942
3970.259081,666.185348,-9193.145976,-222.061783
3970.259405,740.205942,-8197.221829,-592.164754
3970.259730,740.205942,-8963.317327,-296.082377
3970.260054,1332.370696,-8503.660028,-592.164754
3970.260379,1184.329507,-8273.831378,-296.082377
3970.260703,1258.350101,-8503.660028,-592.164754
3970.261028,1110.308913,-8810.098227,0.000000
3970.261352,1184.329507,-8350.440928,0.000000
3970.261677,296.082377,-8810.098227,-74.020594
3970.262001,148.041188,-9116.536426,0.000000
3970.262326,-370.102971,-8810.098227,-296.082377
3970.262650,0.000000,-9269.755526,296.082377
3970.262975,-148.041188,-8580.269578,0.000000
3970.263299,0.000000,-8886.707777,0.000000
3970.263624,222.061783,-8427.050478,-370.102971
3970.263948,666.185348,-8350.440928,-296.082377
3970.264273,814.226536,-8350.440928,0.000000
3970.264597,1184.329507,-8580.269578,0.000000
3970.264921,888.247130,-8580.269578,0.000000
3970.265246,740.205942,-8886.707777,0.000000
3970.265570,666.185348,-8580.269578,-222.061783
3970.265895,222.061783,-9269.755526,0.000000
3970.266219,0.000000,-8733.488677,0.000000
3970.266544,-148.041188,-8733.488677,222.061783
3970.266868,-222.061783,-8350.440928,-296.082377
3970.267193,148.041188,-8503.660028,-222.061783
3970.267517,0.000000,-7814.174080,-222.061783
3970.267842,814.226536,-8580.269578,74.020594
3970.268166,518.144159,-7814.174080,-296.082377
3970.268491,1036.288319,-8810.098227,222.061783
3970.268815,592.164754,-8350.440928,-370.102971
3970.269140,444.123565,-8810.098227,0.000000
3970.269464,0.000000,-8963.317327,-370.102971
3970.269789,-222.061783,-9499.584175,444.123565
3970.270113,-370.102971,-8733.488677,-370.102971
3970.270438,-814.226536,-9039.926876,-74.020594
3970.270762,-814.226536,-8733.488677,-370.102971
3970.271087,-592.164754,-8503.660028,0.000000
3970.271411,-222.061783,-8273.831378,-444.123565
3970.271735,222.061783,-8197.221829,-222.061783
3970.272060,592.164754,-8044.002729,-296.082377
3970.272384,740.205942,-8580.269578,-592.164754
3970.272709,222.061783,-8733.488677,-444.123565
3970.273033,222.061783,-8656.879127,-592.164754
3970.273358,0.000000,-8733.488677,-444.123565
3970.273682,-592.164754,-8886.707777,-370.102971
3970.274007,-740.205942,-8580.269578,148.041188
3970.274331,-222.061783,-8580.269578,-518.144159
3970.274656,74.020594,-9039.926876,-740.205942
3970.274980,518.144159,-8273.831378,-518.144159
3970.275305,962.267725,-8580.269578,-444.123565
3970.275629,962.267725,-8427.050478,-666.185348
3970.275954,1036.288319,-8733.488677,-222.061783
3970.276278,962.267725,-8580.269578,-740.205942
3970.276603,666.185348,-8733.488677,-592.164754
3970.276927,666.185348,-8427.050478,-296.082377
3970.277252,222.061783,-9269.755526,-592.164754
3970.277576,0.000000,-8656.879127,-814.226536
3970.277901,148.041188,-8963.317327,-518.144159
3970.278225,740.205942,-8120.612279,-444.123565
3970.278549,740.205942,-8427.050478,-518.144159
3970.278874,888.247130,-8580.269578,-740.205942
3970.279198,1184.329507,-8427.050478,-370.102971
3970.279523,1110.308913,-8503.660028,-592.164754
3970.279847,814.226536,-8350.440928,-518.144159
3970.280172,1110.308913,-8427.050478,-518.144159
3970.280496,592.164754,-8503.660028,-296.082377
3970.280821,518.144159,-8810.098227,-518.144159
3970.281145,370.102971,-8197.221829,-518.144159
3970.281470,814.226536,-8656.879127,-222.061783
3970.281794,518.144159,-8733.488677,-518.144159
3970.282119,888.247130,-8656.879127,-296.082377
3970.282443,888.247130,-8120.612279,-222.061783
3970.282768,1110.308913,-8656.879127,-296.082377
3970.283092,1184.329507,-8580.269578,-444.123565
3970.283417,1036.288319,-8733.488677,0.000000
3970.283741,962.267725,-8503.660028,-370.102971
3970.284066,888.247130,-8580.269578,-222.061783
3970.284390,370.102971,-8656.879127,-222.061783
3970.284715,592.164754,-8427.050478,-148.041188
3970.285039,666.185348,-8810.098227,0.000000
3970.285364,592.164754,-9499.584175,148.041188
3970.285688,518.144159,-8963.317327,-148.041188
3970.286012,740.205942,-8580.269578,0.000000
3970.286337,888.247130,-8810.098227,74.020594
3970.286661,814.226536,-8810.098227,-518.144159
3970.286986,740.205942,-8963.317327,0.000000
3970.287310,888.247130,-8197.221829,-222.061783
3970.287635,518.144159,-8810.098227,0.000000
3970.287959,74.020594,-8580.269578,74.020594
3970.288284,370.102971,-8427.050478,0.000000
3970.288608,-148.041188,-8656.879127,-222.061783
3970.288933,0.000000,-8580.269578,74.020594
3970.289257,0.000000,-8810.098227,0.000000
3970.289582,0.000000,-8580.269578,0.000000
3970.289906,148.041188,-8656.879127,0.000000
3970.290231,148.041188,-8656.879127,-148.041188
3970.290555,444.123565,-8810.098227,0.000000
3970.290880,370.102971,-8503.660028,74.020594
3970.291204,222.061783,-8503.660028,-148.041188
3970.291529,296.082377,-8427.050478,0.000000
3970.291853,592.164754,-8273.831378,-518.144159
3970.292178,222.061783,-8580.269578,-592.164754
3970.292502,148.041188,-8733.488677,74.020594
3970.292826,-148.041188,-8427.050478,-222.061783
3970.293151,-222.061783,-8427.050478,-148.041188
3970.293475,0.000000,-8273.831378,-370.102971
3970.293800,518.144159,-8963.317327,-444.123565
3970.294124,666.185348,-8580.269578,-444.123565
3970.294449,222.061783,-8656.879127,-444.123565
3970.294773,444.123565,-8656.879127,0.000000
3970.295098,222.061783,-8120.612279,-814.226536
3970.295422,592.164754,-8810.098227,-296.082377
3970.295747,-148.041188,-8350.440928,-370.102971
3970.296071,148.041188,-8886.707777,-222.061783
3970.296396,-370.102971,-8197.221829,-888.247130
3970.296720,0.000000,-8963.317327,592.164754
3970.297045,-148.041188,-8044.002729,-962.267725
3970.297369,296.082377,-8886.707777,-370.102971
3970.297694,148.041188,-8120.612279,-666.185348
3970.298018,444.123565,-8810.098227,222.061783
3970.298343,74.020594,-8350.440928,-1036.288319
3970.298667,592.164754,-8273.831378,0.000000
3970.298992,74.020594,-8273.831378,-814.226536
3970.299316,296.082377,-8580.269578,-370.102971
3970.299640,0.000000,-8733.488677,-666.185348
3970.299965,0.000000,-8733.488677,0.000000
3970.300289,-222.061783,-8656.879127,-592.164754
3970.300614,-148.041188,-8656.879127,-666.185348
3970.300938,518.144159,-8197.221829,-148.041188
3970.301263,222.061783,-8197.221829,-222.061783
3970.301587,592.164754,-8580.269578,-518.144159
3970.301912,666.185348,-8503.660028,-444.123565
3970.302236,888.247130,-9269.755526,-444.123565
3970.302561,740.205942,-8503.660028,-666.185348
3970.302885,962.267725,-8963.317327,-444.123565
3970.303210,296.082377,-8580.269578,-222.061783
3970.303534,296.082377,-8733.488677,-296.082377
3970.303859,-148.041188,-8503.660028,-592.164754
3970.304183,148.041188,-8733.488677,-222.061783
3970.304508,444.123565,-8350.440928,-666.185348
3970.304832,518.144159,-8503.660028,-444.123565
3970.305157,962.267725,-8503.660028,-592.164754
3970.305481,740.205942,-8656.879127,-222.061783
3970.305806,1110.308913,-8120.612279,-740.205942
3970.306130,1110.308913,-8733.488677,-296.082377
3970.306454,888.247130,-8733.488677,-370.102971
3970.306779,296.082377,-8656.879127,-370.102971
3970.307103,222.061783,-8733.488677,-296.082377
3970.307428,0.000000,-8580.269578,-518.144159
3970.307752,0.000000,-8580.269578,-370.102971
3970.308077,370.102971,-8350.440928,-148.041188
3970.308401,222.061783,-8503.660028,74.020594
3970.308726,666.185348,-8580.269578,-296.082377
3970.309050,1036.288319,-8503.660028,0.000000
3970.309375,888.247130,-7967.393179,74.020594
3970.309699,1184.329507,-8656.879127,-370.102971
3970.310024,1480.411884,-8733.488677,-148.041188
3970.310348,1036.288319,-8656.879127,0.000000
3970.310673,888.247130,-8810.098227,-296.082377
3970.310997,814.226536,-8656.879127,-148.041188
3970.311322,814.226536,-9193.145976,0.000000
3970.311646,444.123565,-8503.660028,-148.041188
3970.311971,444.123565,-8886.707777,-222.061783
3970.312295,148.041188,-8580.269578,-370.102971
3970.312620,518.144159,-8197.221829,0.000000
3970.312944,814.226536,-8197.221829,-370.102971
3970.313268,1036.288319,-8656.879127,0.000000
3970.313593,888.247130,-7890.783629,148.041188
3970.313917,1110.308913,-8733.488677,-148.041188
3970.314242,888.247130,-8810.098227,0.000000
3970.314566,592.164754,-8810.098227,74.020594
3970.314891,740.205942,-8963.317327,-444.123565
3970.315215,592.164754,-8810.098227,-148.041188
3970.315540,222.061783,-8656.879127,-296.082377
3970.315864,-296.082377,-8656.879127,-148.041188
3970.316189,0.000000,-8350.440928,-296.082377
3970.316513,370.102971,-8733.488677,0.000000
3970.316838,222.061783,-8503.660028,-222.061783
3970.317162,666.185348,-8503.660028,-296.082377
3970.317487,888.247130,-8427.050478,-222.061783
3970.317811,1036.288319,-8503.660028,-296.082377
3970.318136,962.267725,-8963.317327,-518.144159
3970.318460,888.247130,-8656.879127,-370.102971
3970.318785,740.205942,-8733.488677,0.000000
3970.319109,592.164754,-8656.879127,-518.144159
3970.319434,74.020594,-8656.879127,-222.061783
3970.319758,0.000000,-8656.879127,-518.144159
3970.320082,-222.061783,-8656.879127,-148.041188
3970.320407,0.000000,-8580.269578,-444.123565
3970.320731,0.000000,-7967.393179,-296.082377
3970.321056,518.144159,-8273.831378,-296.082377
3970.321380,74.020594,-8350.440928,-296.082377
3970.321705,592.164754,-8733.488677,-222.061783
3970.322029,666.185348,-7814.174080,-666.185348
3970.322354,518.144159,-8503.660028,-518.144159
3970.322678,222.061783,-8733.488677,-666.185348
3970.323003,74.020594,-8886.707777,-370.102971
3970.323327,-222.061783,-8810.098227,-740.205942
3970.323652,-666.185348,-8656.879127,-444.123565
3970.323976,-370.102971,-8273.831378,-444.123565
3970.324301,0.000000,-8810.098227,-370.102971
3970.324625,-296.082377,-8580.269578,-666.185348
3970.324950,74.020594,-8197.221829,222.061783
3970.325274,222.061783,-8503.660028,-370.102971
3970.325599,518.144159,-8503.660028,-444.123565
3970.325923,148.041188,-8656.879127,-518.144159
3970.326248,0.000000,-8810.098227,-370.102971
3970.326572,148.041188,-8350.440928,-888.247130
3970.326897,0.000000,-8963.317327,0.000000
3970.327221,74.020594,-8733.488677,-296.082377
3970.327545,222.061783,-8656.879127,-444.123565
3970.327870,444.123565,-8810.098227,-370.102971
3970.328194,444.123565,-8656.879127,0.000000
3970.328519,518.144159,-8580.269578,-666.185348
3970.328843,814.226536,-8733.488677,-296.082377
3970.329168,888.247130,-8963.317327,-148.041188
3970.329492,962.267725,-8886.707777,-296.082377
3970.329817,444.123565,-8503.660028,-592.164754
3970.330141,518.144159,-8656.879127,-370.102971
3970.330466,518.144159,-8427.050478,-296.082377
3970.330790,518.144159,-8810.098227,-370.102971
3970.331115,518.144159,-8350.440928,-222.061783
3970.331439,444.123565,-8656.879127,-222.061783
3970.331764,740.205942,-8580.269578,-444.123565
3970.332088,1110.308913,-8580.269578,-444.123565
3970.332413,962.267725,-8427.050478,-74.020594
3970.332737,740.205942,-8427.050478,-444.123565
3970.333062,592.164754,-8580.269578,-444.123565
3970.333386,740.205942,-9116.536426,-740.205942
3970.333711,740.205942,-8656.879127,-222.061783
3970.334035,444.123565,-8656.879127,-370.102971
3970.334359,222.061783,-8733.488677,0.000000
3970.334684,296.082377,-8656.879127,-370.102971
3970.335008,666.185348,-8963.317327,-518.144159
3970.335333,888.247130,-8350.440928,-518.144159
3970.335657,740.205942,-8350.440928,-296.082377
3970.335982,1036.288319,-8733.488677,0.000000
3970.336306,592.164754,-9116.536426,0.000000
3970.336631,1110.308913,-8963.317327,-222.061783
3970.336955,888.247130,-8120.612279,-592.164754
3970.337280,1036.288319,-9116.536426,-148.041188
3970.337604,666.185348,-8886.707777,-222.061783
3970.337929,296.082377,-8886.707777,0.000000
3970.338253,518.144159,-8503.660028,-592.164754
3970.338578,296.082377,-9039.926876,-296.082377
3970.338902,222.061783,-8733.488677,-296.082377
3970.339227,444.123565,-8886.707777,0.000000
3970.339551,740.205942,-8197.221829,-370.102971
3970.339875,592.164754,-8656.879127,-296.082377
3970.340200,740.205942,-8427.050478,-370.102971
3970.340524,296.082377,-8810.098227,-296.082377
3970.340849,740.205942,-8810.098227,-370.102971
3970.341173,1036.288319,-8350.440928,-444.123565
3970.341497,444.123565,-8886.707777,-370.102971
3970.341822,0.000000,-8733.488677,-296.082377
3970.342146,0.000000,-8963.317327,-296.082377
3970.342470,0.000000,-8810.098227,-592.164754
3970.342795,0.000000,-8503.660028,-296.082377
3970.343119,0.000000,-8503.660028,-148.041188
3970.343444,-222.061783,-8810.098227,0.000000
3970.343768,222.061783,-8350.440928,-148.041188
3970.344092,888.247130,-8656.879127,0.000000
3970.344417,740.205942,-8197.221829,-444.123565
3970.344741,740.205942,-8733.488677,370.102971
3970.345065,370.102971,-8580.269578,-222.061783
3970.345390,296.082377,-8656.879127,-222.061783
3970.345714,0.000000,-8273.831378,-444.123565
3970.346038,0.000000,-8963.317327,-148.041188
3970.346363,0.000000,-8273.831378,0.000000
3970.346687,-74.020594,-8197.221829,-222.061783
3970.347012,74.020594,-8656.879127,-370.102971
3970.347336,444.123565,-8273.831378,-148.041188
3970.347660,1184.329507,-8120.612279,-222.061783
3970.347985,740.205942,-8503.660028,-518.144159
3970.348309,1036.288319,-8427.050478,0.000000
3970.348633,296.082377,-8273.831378,-444.123565
3970.348958,666.185348,-8427.050478,0.000000
3970.349282,-148.041188,-8656.879127,-296.082377
3970.349606,0.000000,-9193.145976,148.041188
3970.349931,-888.247130,-7890.783629,-962.267725
3970.350255,-296.082377,-9039.926876,296.082377
3970.350580,-444.123565,-8120.612279,-1184.329507
3970.350904,148.041188,-8963.317327,0.000000
3970.351228,-296.082377,-7890.783629,-1036.288319
3970.351553,370.102971,-9193.145976,592.164754
3970.351877,740.205942,-8044.002729,-1332.370696
3970.352201,740.205942,-9269.755526,148.041188
3970.352526,518.144159,-8120.612279,-740.205942
3970.352850,518.144159,-8886.707777,74.020594
3970.353175,148.041188,-8580.269578,-592.164754
3970.353499,148.041188,-8810.098227,296.082377
3970.353823,0.000000,-8580.269578,-1036.288319
3970.354148,0.000000,-8810.098227,0.000000
3970.354472,370.102971,-8580.269578,-592.164754
3970.354796,222.061783,-8886.707777,-222.061783
3970.355121,518.144159,-8733.488677,-666.185348
3970.355445,666.185348,-8580.269578,-296.082377
3970.355769,888.247130,-8810.098227,-222.061783
3970.356094,1110.308913,-8733.488677,-666.185348
3970.356418,962.267725,-9039.926876,-518.144159
3970.356743,814.226536,-8580.269578,-222.061783
3970.357067,518.144159,-9039.926876,-444.123565
3970.357391,-148.041188,-8197.221829,-592.164754
3970.357716,0.000000,-9193.145976,0.000000
3970.358040,148.041188,-8580.269578,-370.102971
3970.358364,296.082377,-8886.707777,-444.123565
3970.358689,370.102971,-8273.831378,-666.185348
3970.359013,888.247130,-8656.879127,0.000000
3970.359338,1110.308913,-8427.050478,-518.144159
3970.359662,962.267725,-8580.269578,-518.144159
3970.359986,962.267725,-8656.879127,-444.123565
3970.360311,370.102971,-8273.831378,0.000000
3970.360635,296.082377,-8580.269578,-592.164754
3970.360959,148.041188,-8503.660028,-222.061783
3970.361284,74.020594,-8656.879127,-518.144159
3970.361608,0.000000,-8580.269578,-222.061783
3970.361932,444.123565,-8656.879127,-148.041188
3970.362257,518.144159,-8273.831378,-296.082377
3970.362581,1406.391290,-8886.707777,-518.144159
3970.362906,1332.370696,-8044.002729,-518.144159
3970.363230,1702.473667,-8427.050478,0.000000
3970.363554,1480.411884,-8120.612279,-148.041188
3970.363879,1406.391290,-9116.536426,74.020594
3970.364203,740.205942,-8273.831378,-222.061783
3970.364527,592.164754,-9729.412825,0.000000
3970.364852,296.082377,-8273.831378,-296.082377
3970.365176,592.164754,-8963.317327,0.000000
3970.365501,222.061783,-8503.660028,-296.082377
3970.365825,518.144159,-8580.269578,-148.041188
3970.366149,740.205942,-8580.269578,-222.061783
3970.366474,740.205942,-8503.660028,-222.061783
3970.366798,1332.370696,-8733.488677,-296.082377
3970.367122,1332.370696,-8503.660028,-148.041188
3970.367447,814.226536,-8810.098227,0.000000
3970.367771,1036.288319,-8656.879127,-222.061783
3970.368095,518.144159,-8427.050478,-370.102971
3970.368420,296.082377,-8810.098227,-222.061783
3970.368744,222.061783,-8810.098227,-370.102971
3970.369069,-296.082377,-8656.879127,0.000000
3970.369393,0.000000,-8503.660028,-222.061783
3970.369717,0.000000,-8503.660028,-370.102971
3970.370042,148.041188,-8580.269578,-222.061783
3970.370366,666.185348,-8197.221829,-592.164754
3970.370690,888.247130,-8427.050478,0.000000
3970.371015,814.226536,-8350.440928,-148.041188
3970.371339,962.267725,-8810.098227,-370.102971
3970.371663,1110.308913,-8886.707777,-888.247130
3970.371988,740.205942,-8886.707777,-518.144159
3970.372312,518.144159,-8886.707777,-518.144159
3970.372637,0.000000,-8886.707777,-222.061783
3970.372961,-148.041188,-9729.412825,0.000000
3970.373285,-370.102971,-8810.098227,-592.164754
3970.373610,-148.041188,-8503.660028,-296.082377
3970.373934,0.000000,-8427.050478,-666.185348
3970.374258,518.144159,-8273.831378,0.000000
3970.374583,148.041188,-8350.440928,-148.041188
3970.374907,518.144159,-8503.660028,-296.082377
3970.375232,666.185348,-8503.660028,-592.164754
3970.375556,296.082377,-8963.317327,-592.164754
3970.375880,0.000000,-9499.584175,0.000000
3970.376205,-222.061783,-8733.488677,-370.102971
3970.376529,-666.185348,-9193.145976,-222.061783
3970.376853,-888.247130,-8350.440928,-370.102971
3970.377178,-592.164754,-8886.707777,-592.164754
3970.377502,-666.185348,-8580.269578,-444.123565
3970.377826,0.000000,-8197.221829,-222.061783
3970.378151,0.000000,-8580.269578,-518.144159
3970.378475,296.082377,-8503.660028,-666.185348
3970.378800,0.000000,-8197.221829,-444.123565
3970.379124,740.205942,-8580.269578,-444.123565
3970.379448,296.082377,-8733.488677,-296.082377
3970.379773,0.000000,-8810.098227,-74.020594
3970.380097,74.020594,-8963.317327,-592.164754
3970.380421,-370.102971,-8733.488677,-148.041188
3970.380746,-444.123565,-8580.269578,-592.164754
3970.381070,0.000000,-8810.098227,0.000000
3970.381395,0.000000,-8197.221829,-74.020594
3970.381719,666.185348,-8503.660028,-370.102971
3970.382043,740.205942,-8273.831378,-518.144159
3970.382368,1110.308913,-8273.831378,-74.020594
3970.382692,1332.370696,-8273.831378,-518.144159
3970.383016,1628.453072,-8733.488677,-222.061783
3970.383341,814.226536,-8656.879127,-370.102971
3970.383665,296.082377,-8580.269578,-148.041188
3970.383989,148.041188,-8580.269578,-296.082377
3970.384314,0.000000,-8886.707777,-444.123565
3970.384638,74.020594,-8580.269578,-296.082377
3970.384963,296.082377,-8733.488677,-444.123565
3970.385287,444.123565,-8503.660028,-222.061783
3970.385611,444.123565,-8197.221829,-666.185348
3970.385936,888.247130,-8427.050478,-74.020594
3970.386260,1110.308913,-7890.783629,-740.205942
3970.386584,1258.350101,-8886.707777,0.000000
3970.386909,888.247130,-8044.002729,-444.123565
3970.387233,1406.391290,-9039.926876,0.000000
3970.387557,444.123565,-8427.050478,-444.123565
3970.387882,444.123565,-8733.488677,-296.082377
3970.388206,518.144159,-8350.440928,-370.102971
3970.388531,444.123565,-8963.317327,0.000000
3970.388855,666.185348,-8810.098227,-666.185348
3970.389179,740.205942,-8656.879127,-296.082377
3970.389504,1036.288319,-8580.269578,-592.164754
3970.389828,1036.288319,-8427.050478,-370.102971
3970.390152,1480.411884,-8733.488677,-148.041188
3970.390477,814.226536,-8810.098227,-370.102971
3970.390801,814.226536,-8580.269578,-444.123565
3970.391126,518.144159,-8503.660028,-370.102971
3970.391450,888.247130,-8503.660028,-222.061783
3970.391774,666.185348,-8580.269578,-296.082377
3970.392099,148.041188,-8810.098227,0.000000
3970.392423,740.205942,-8656.879127,-518.144159
3970.392747,666.185348,-8350.440928,0.000000
3970.393072,1110.308913,-8886.707777,-296.082377
3970.393396,814.226536,-8656.879127,-518.144159
3970.393720,1036.288319,-8733.488677,-296.082377
3970.394045,888.247130,-8580.269578,-666.185348
3970.394369,444.123565,-8273.831378,0.000000
3970.394694,148.041188,-8580.269578,-666.185348
3970.395018,0.000000,-8886.707777,-74.020594
3970.395342,0.000000,-8580.269578,-518.144159
3970.395667,148.041188,-9039.926876,-592.164754
3970.395991,0.000000,-8733.488677,-444.123565
3970.396315,0.000000,-8810.098227,-370.102971
3970.396640,148.041188,-8733.488677,-518.144159
3970.396964,148.041188,-8503.660028,-666.185348
3970.397289,370.102971,-8733.488677,0.000000
3970.397613,222.061783,-8580.269578,0.000000
3970.397937,222.061783,-8656.879127,-222.061783
3970.398262,222.061783,-8656.879127,-222.061783
3970.398586,592.164754,-8197.221829,-222.061783
3970.398910,148.041188,-8580.269578,-222.061783
3970.399235,0.000000,-8503.660028,-296.082377
3970.399559,0.000000,-8656.879127,-222.061783
3970.399883,148.041188,-8810.098227,0.000000
3970.400208,74.020594,-8580.269578,-222.061783
3970.400532,148.041188,-8427.050478,-296.082377
3970.400857,814.226536,-8810.098227,0.000000
3970.401181,296.082377,-8503.660028,-666.185348
3970.401505,592.164754,-8810.098227,0.000000
3970.401830,296.082377,-8044.002729,-222.061783
3970.402154,444.123565,-8350.440928,-296.082377
3970.402478,0.000000,-8427.050478,-370.102971
3970.402803,0.000000,-8733.488677,0.000000
3970.403127,-296.082377,-8273.831378,-592.164754
3970.403452,148.041188,-8733.488677,0.000000
3970.403776,0.000000,-8273.831378,-296.082377
3970.404100,148.041188,-9116.536426,0.000000
3970.404425,74.020594,-8120.612279,-518.144159
3970.404749,148.041188,-8273.831378,222.061783
3970.405073,518.144159,-8580.269578,-666.185348
3970.405398,296.082377,-8580.269578,0.000000
3970.405722,222.061783,-8350.440928,0.000000
3970.406046,0.000000,-8427.050478,0.000000
3970.406371,296.082377,-8810.098227,-962.267725
3970.406695,296.082377,-8350.440928,-222.061783
3970.407020,0.000000,-8273.831378,-888.247130
3970.407344,-370.102971,-8580.269578,-370.102971
3970.407668,296.082377,-8810.098227,-592.164754
3970.407993,74.020594,-8503.660028,-370.102971
3970.408317,740.205942,-8580.269578,-444.123565
3970.408641,814.226536,-8503.660028,-814.226536
3970.408966,888.247130,-8963.317327,0.000000
3970.409290,888.247130,-8273.831378,-666.185348
3970.409614,814.226536,-8886.707777,-518.144159
3970.409939,444.123565,-8733.488677,-444.123565
3970.410263,518.144159,-8886.707777,-370.102971
3970.410588,370.102971,-8427.050478,-888.247130
3970.410912,518.144159,-8886.707777,-148.041188
3970.411236,0.000000,-8427.050478,-296.082377
3970.411561,0.000000,-8656.879127,-444.123565
3970.411885,296.082377,-8580.269578,-666.185348
3970.412209,370.102971,-8733.488677,-370.102971
3970.412534,666.185348,-8350.440928,-518.144159
3970.412858,370.102971,-8350.440928,-296.082377
3970.413183,666.185348,-8810.098227,-666.185348
3970.413507,518.144159,-8503.660028,-888.247130
3970.413831,518.144159,-8733.488677,-666.185348
3970.414156,296.082377,-8044.002729,-666.185348
3970.414480,74.020594,-8503.660028,-444.123565
3970.414804,0.000000,-8503.660028,-592.164754
3970.415129,296.082377,-8503.660028,0.000000
3970.415453,296.082377,-8810.098227,-222.061783
3970.415777,888.247130,-8580.269578,-370.102971
3970.416102,1110.308913,-8273.831378,-296.082377
3970.416426,1332.370696,-8580.269578,-222.061783
3970.416751,1110.308913,-8656.879127,-296.082377
3970.417075,1406.391290,-8580.269578,0.000000
3970.417399,1036.288319,-8580.269578,-370.102971
3970.417724,1258.350101,-8580.269578,0.000000
3970.418048,1036.288319,-8580.269578,0.000000
3970.418372,592.164754,-9039.926876,296.082377
3970.418697,370.102971,-8427.050478,-296.082377
3970.419021,592.164754,-8810.098227,0.000000
3970.419346,814.226536,-8350.440928,-222.061783
3970.419670,888.247130,-8350.440928,-370.102971
3970.419994,814.226536,-8656.879127,0.000000
3970.420319,814.226536,-8427.050478,0.000000
3970.420643,1332.370696,-8580.269578,-148.041188
3970.420967,962.267725,-8733.488677,0.000000
3970.421292,740.205942,-8733.488677,74.020594
3970.421616,666.185348,-8427.050478,-222.061783
3970.421940,518.144159,-8810.098227,0.000000
3970.422265,222.061783,-8733.488677,-148.041188
3970.422589,-296.082377,-8656.879127,370.102971
3970.422914,0.000000,-8350.440928,0.000000
3970.423238,0.000000,-8503.660028,0.000000
3970.423562,0.000000,-8427.050478,-296.082377
3970.423887,444.123565,-8810.098227,74.020594
3970.424211,888.247130,-8273.831378,-296.082377
3970.424535,888.247130,-8427.050478,-444.123565
3970.424860,888.247130,-8503.660028,-222.061783
3970.425184,962.267725,-8733.488677,-148.041188
3970.425509,592.164754,-8273.831378,-444.123565
3970.425833,370.102971,-8427.050478,-444.123565
3970.426157,296.082377,-9116.536426,-370.102971
3970.426482,-148.041188,-8350.440928,-370.102971
3970.426806,-148.041188,-8427.050478,-222.061783
3970.427130,-148.041188,-8580.269578,0.000000
3970.427455,148.041188,-8580.269578,-370.102971
3970.427779,74.020594,-8580.269578,-666.185348
3970.428103,222.061783,-8810.098227,-518.144159
3970.428428,814.226536,-8733.488677,-296.082377
3970.428752,666.185348,-8350.440928,-666.185348
3970.429077,518.144159,-8963.317327,-370.102971
3970.429401,74.020594,-8656.879127,-666.185348
3970.429725,222.061783,-9193.145976,-518.144159
3970.430050,-370.102971,-8656.879127,-518.144159
3970.430374,-740.205942,-9116.536426,-296.082377
3970.430698,-666.185348,-8656.879127,-814.226536
3970.431023,0.000000,-8503.660028,-222.061783
3970.431347,-370.102971,-8273.831378,-592.164754
3970.431671,74.020594,-8273.831378,-222.061783
3970.431996,74.020594,-8503.660028,-518.144159
3970.432320,0.000000,-8733.488677,-296.082377
3970.432645,0.000000,-8273.831378,-296.082377
3970.432969,-296.082377,-8810.098227,-592.164754
3970.433293,-222.061783,-8503.660028,-296.082377
3970.433618,-370.102971,-8580.269578,-296.082377
3970.433942,-296.082377,-8886.707777,-444.123565
3970.434266,0.000000,-8427.050478,-666.185348
3970.434591,444.123565,-8963.317327,-296.082377
3970.434915,592.164754,-8427.050478,-370.102971
3970.435240,1036.288319,-8350.440928,0.000000
3970.435564,888.247130,-8350.440928,-592.164754
3970.435888,740.205942,-8273.831378,-222.061783
3970.436213,740.205942,-8427.050478,-518.144159
3970.436537,296.082377,-8656.879127,0.000000
3970.436861,222.061783,-8197.221829,74.020594
3970.437186,148.041188,-8503.660028,-370.102971
3970.437510,666.185348,-8733.488677,-370.102971
3970.437834,740.205942,-8044.002729,-296.082377
3970.438159,1184.329507,-8886.707777,-222.061783
3970.438483,962.267725,-8273.831378,-370.102971
3970.438808,1258.350101,-8733.488677,-148.041188
3970.439132,1036.288319,-7890.783629,-592.164754
3970.439456,888.247130,-8197.221829,-370.102971
3970.439781,888.247130,-8580.269578,-740.205942
3970.440105,592.164754,-8656.879127,0.000000
3970.440429,518.144159,-7967.393179,-296.082377
3970.440754,0.000000,-8580.269578,-148.041188
3970.441078,296.082377,-8120.612279,-148.041188
3970.441403,740.205942,-8197.221829,-296.082377
3970.441727,1036.288319,-8580.269578,0.000000
3970.442051,1036.288319,-8427.050478,-222.061783
3970.442376,1554.432478,-8120.612279,-592.164754
3970.442700,1554.432478,-8427.050478,-296.082377
3970.443025,1554.432478,-8733.488677,-370.102971
3970.443349,1110.308913,-8886.707777,-518.144159
3970.443673,1184.329507,-9576.193725,148.041188
3970.443998,814.226536,-8197.221829,-370.102971
3970.444322,518.144159,-9116.536426,-222.061783
3970.444647,296.082377,-8580.269578,-370.102971
3970.444971,296.082377,-8733.488677,0.000000
3970.445295,444.123565,-8810.098227,-592.164754
3970.445620,592.164754,-8886.707777,0.000000
3970.445944,1110.308913,-8656.879127,-370.102971
3970.446269,1036.288319,-8810.098227,-148.041188
3970.446593,444.123565,-9193.145976,-296.082377
3970.446917,888.247130,-9193.145976,-148.041188
3970.447242,888.247130,-8580.269578,-222.061783
3970.447566,296.082377,-9116.536426,-370.102971
3970.447891,0.000000,-9039.926876,-444.123565
3970.448215,-444.123565,-8886.707777,-222.061783
3970.448539,-222.061783,-8810.098227,-666.185348
3970.448864,0.000000,-8733.488677,-148.041188
3970.449188,-370.102971,-8810.098227,-370.102971
3970.449513,-222.061783,-8503.660028,-444.123565
3970.449837,0.000000,-8427.050478,-592.164754
3970.450161,296.082377,-8733.488677,-370.102971
3970.450486,296.082377,-8580.269578,-666.185348
3970.450810,370.102971,-8503.660028,-222.061783
3970.451135,222.061783,-8733.488677,-148.041188
3970.451459,0.000000,-8810.098227,-370.102971
3970.451783,222.061783,-8580.269578,-370.102971
3970.452108,0.000000,-8656.879127,0.000000
3970.452432,222.061783,-8810.098227,-296.082377
3970.452757,0.000000,-8733.488677,0.000000
3970.453081,0.000000,-8503.660028,-296.082377
3970.453405,0.000000,-8197.221829,-444.123565
3970.453730,148.041188,-8963.317327,148.041188
3970.454054,74.020594,-8503.660028,0.000000
3970.454379,222.061783,-8044.002729,0.000000
3970.454703,740.205942,-8427.050478,0.000000
3970.455027,0.000000,-8580.269578,370.102971
3970.455352,444.123565,-8197.221829,0.000000
3970.455676,222.061783,-8656.879127,-296.082377
3970.456001,222.061783,-8656.879127,-222.061783
3970.456325,148.041188,-8350.440928,-296.082377
3970.456649,-296.082377,-7967.393179,-296.082377
3970.456974,-222.061783,-8273.831378,-370.102971
3970.457298,0.000000,-8656.879127,-222.061783
3970.457623,518.144159,-8503.660028,-296.082377
3970.457947,592.164754,-7354.516781,-222.061783
3970.458271,370.102971,-8197.221829,-296.082377
3970.458596,444.123565,-8427.050478,-370.102971
3970.458920,740.205942,-8427.050478,-666.185348
3970.459245,222.061783,-8656.879127,-370.102971
3970.459569,74.020594,-8197.221829,-296.082377
3970.459893,222.061783,-8886.707777,-592.164754
3970.460218,0.000000,-8503.660028,-518.144159
3970.460542,0.000000,-8886.707777,-444.123565
3970.460867,148.041188,-8350.440928,-888.247130
3970.461191,666.185348,-8810.098227,-296.082377
3970.461515,444.123565,-7967.393179,0.000000
3970.461840,962.267725,-8886.707777,-518.144159
3970.462164,1406.391290,-8503.660028,-370.102971
3970.462489,1036.288319,-8886.707777,-370.102971
3970.462813,888.247130,-8580.269578,-740.205942
3970.463137,740.205942,-8886.707777,-370.102971
3970.463462,296.082377,-9116.536426,0.000000
3970.463786,148.041188,-8656.879127,-148.041188
3970.464111,74.020594,-8733.488677,-666.185348
3970.464435,222.061783,-8656.879127,-370.102971
3970.464759,518.144159,-8427.050478,-518.144159
3970.465084,740.205942,-8810.098227,-518.144159
3970.465408,666.185348,-8810.098227,-740.205942
3970.465733,888.247130,-8427.050478,-370.102971
3970.466057,1184.329507,-8580.269578,-666.185348
3970.466381,1258.350101,-8120.612279,-222.061783
3970.466706,518.144159,-8810.098227,-296.082377
3970.467030,370.102971,-9039.926876,-222.061783
3970.467355,-296.082377,-8656.879127,-444.123565
3970.467679,-222.061783,-8810.098227,-518.144159
3970.468003,0.000000,-8197.221829,-296.082377
3970.468328,222.061783,-8580.269578,-148.041188
3970.468652,370.102971,-8656.879127,-592.164754
3970.468977,666.185348,-8427.050478,0.000000
3970.469301,1184.329507,-8503.660028,-666.185348
3970.469625,1332.370696,-8350.440928,-444.123565
3970.469950,1554.432478,-8963.317327,-296.082377
3970.470274,1036.288319,-8580.269578,-148.041188
3970.470599,1036.288319,-8733.488677,0.000000
3970.470923,740.205942,-8733.488677,-444.123565
3970.471247,444.123565,-8733.488677,0.000000
3970.471572,370.102971,-8350.440928,0.000000
3970.471896,296.082377,-8580.269578,0.000000
3970.472221,518.144159,-8656.879127,-296.082377
3970.472545,592.164754,-8427.050478,74.020594
3970.472869,518.144159,-8273.831378,-296.082377
3970.473194,1110.308913,-8580.269578,74.020594
3970.473518,1258.350101,-8427.050478,222.061783
3970.473843,962.267725,-8503.660028,0.000000
3970.474167,1036.288319,-8580.269578,0.000000
3970.474491,814.226536,-8810.098227,0.000000
3970.474816,592.164754,-9269.755526,0.000000
3970.475140,370.102971,-8427.050478,222.061783
3970.475465,0.000000,-9039.926876,0.000000
3970.475789,-148.041188,-8886.707777,-74.020594
3970.476113,0.000000,-8503.660028,-296.082377
3970.476438,-222.061783,-8580.269578,0.000000
3970.476762,222.061783,-8350.440928,-148.041188
3970.477087,444.123565,-8656.879127,-148.041188
3970.477411,740.205942,-8503.660028,0.000000
3970.477735,1184.329507,-8810.098227,-740.205942
3970.478060,962.267725,-8427.050478,-518.144159
3970.478384,1184.329507,-8810.098227,0.000000
3970.478709,444.123565,-8503.660028,-296.082377
3970.479033,222.061783,-9806.022374,-222.061783
3970.479358,74.020594,-8656.879127,-518.144159
3970.479682,0.000000,-8886.707777,-444.123565
3970.480006,0.000000,-8580.269578,-444.123565
3970.480331,74.020594,-8427.050478,-222.061783
3970.480655,74.020594,-8273.831378,0.000000
3970.480980,592.164754,-8273.831378,-444.123565
3970.481304,518.144159,-8503.660028,-518.144159
3970.481628,962.267725,-8656.879127,-518.144159
3970.481953,444.123565,-9193.145976,-296.082377
3970.482277,222.061783,-8656.879127,-518.144159
3970.482602,518.144159,-8963.317327,-444.123565
3970.482926,148.041188,-8656.879127,-814.226536
3970.483250,0.000000,-9116.536426,-666.185348
3970.483575,-370.102971,-8656.879127,-444.123565
3970.483899,-444.123565,-8963.317327,-444.123565
3970.484224,-444.123565,-8886.707777,-888.247130
3970.484548,-444.123565,-8580.269578,-370.102971
3970.484872,0.000000,-8044.002729,-814.226536
3970.485197,-296.082377,-8886.707777,-518.144159
3970.485521,222.061783,-8350.440928,-518.144159
3970.485846,370.102971,-8733.488677,-222.061783
3970.486170,0.000000,-9116.536426,-962.267725
3970.486494,148.041188,-8810.098227,-370.102971
3970.486819,74.020594,-8810.098227,-518.144159
3970.487143,222.061783,-8810.098227,-296.082377
3970.487468,74.020594,-8503.660028,-444.123565
3970.487792,74.020594,-8810.098227,0.000000
3970.488116,74.020594,-8656.879127,-370.102971
3970.488441,222.061783,-8503.660028,-518.144159
3970.488765,222.061783,-8503.660028,-444.123565
3970.489090,1110.308913,-8427.050478,-296.082377
3970.489414,592.164754,-8427.050478,-444.123565
3970.489738,296.082377,-8580.269578,-148.041188
3970.490063,666.185348,-8273.831378,-444.123565
3970.490387,962.267725,-8733.488677,-222.061783
3970.490712,814.226536,-8963.317327,-444.123565
3970.491036,518.144159,-8580.269578,-444.123565
3970.491360,592.164754,-8733.488677,0.000000
3970.491685,222.061783,-8427.050478,-222.061783
3970.492009,666.185348,-8963.317327,0.000000
3970.492334,518.144159,-8733.488677,-222.061783
3970.492658,592.164754,-8503.660028,0.000000
3970.492982,444.123565,-8503.660028,-148.041188
3970.493307,222.061783,-8886.707777,444.123565
3970.493631,592.164754,-8044.002729,-296.082377
3970.493956,666.185348,-8350.440928,-370.102971
3970.494280,666.185348,-8886.707777,-296.082377
3970.494604,888.247130,-8810.098227,0.000000
3970.494929,666.185348,-8580.269578,-148.041188
3970.495253,666.185348,-8656.879127,-148.041188
3970.495578,666.185348,-8656.879127,0.000000
3970.495902,814.226536,-8656.879127,-148.041188
3970.496226,888.247130,-8427.050478,-222.061783
3970.496551,740.205942,-8503.660028,0.000000
3970.496875,888.247130,-8350.440928,-222.061783
3970.497200,814.226536,-8503.660028,-222.061783
3970.497524,1036.288319,-8886.707777,-148.041188
3970.497848,444.123565,-8197.221829,0.000000
3970.498173,592.164754,-8656.879127,0.000000
3970.498497,370.102971,-8656.879127,-148.041188
3970.498822,444.123565,-8733.488677,74.020594
3970.499146,592.164754,-8656.879127,-370.102971
3970.499470,814.226536,-9269.755526,-296.082377
3970.499795,888.247130,-8886.707777,-370.102971
3970.500119,1036.288319,-9193.145976,-296.082377
3970.500444,814.226536,-8427.050478,-296.082377
3970.500768,518.144159,-9039.926876,-296.082377
3970.501092,444.123565,-8733.488677,-518.144159
3970.501417,0.000000,-8886.707777,-148.041188
3970.501741,0.000000,-8044.002729,0.000000
3970.502066,0.000000,-8503.660028,-444.123565
3970.502390,222.061783,-8350.440928,-740.205942
3970.502714,148.041188,-8810.098227,-592.164754
3970.503039,370.102971,-8733.488677,-444.123565
3970.503363,518.144159,-8503.660028,-592.164754
3970.503688,370.102971,-8503.660028,-444.123565
3970.504012,666.185348,-8580.269578,-370.102971
3970.504336,666.185348,-8580.269578,-148.041188
3970.504661,814.226536,-8273.831378,-518.144159
3970.504985,666.185348,-8503.660028,-518.144159
3970.505310,222.061783,-8886.707777,-370.102971
3970.505634,148.041188,-8656.879127,-370.102971
3970.505958,444.123565,-9039.926876,-444.123565
3970.506283,74.020594,-8656.879127,-370.102971
3970.506607,-222.061783,-8350.440928,74.020594
3970.506932,0.000000,-8427.050478,-148.041188
3970.507256,74.020594,-8044.002729,-296.082377
3970.507580,962.267725,-8810.098227,-444.123565
3970.507905,444.123565,-8733.488677,-592.164754
3970.508229,814.226536,-8810.098227,-296.082377
3970.508554,592.164754,-7967.393179,-444.123565
3970.508878,740.205942,-8733.488677,0.000000
3970.509202,-222.061783,-8273.831378,-518.144159
3970.509527,74.020594,-9346.365076,0.000000
3970.509851,-518.144159,-7890.783629,-888.247130
3970.510176,0.000000,-8886.707777,370.102971
3970.510500,-666.185348,-7890.783629,-962.267725
3970.510824,0.000000,-8886.707777,0.000000
3970.511149,-370.102971,-8044.002729,-740.205942
3970.511473,148.041188,-8810.098227,296.082377
3970.511798,148.041188,-7814.174080,-666.185348
3970.512122,666.185348,-8963.317327,370.102971
3970.512446,666.185348,-8044.002729,-962.267725
3970.512771,740.205942,-8733.488677,0.000000
3970.513095,518.144159,-8197.221829,-814.226536
3970.513420,444.123565,-8503.660028,148.041188
3970.513744,-296.082377,-8350.440928,-444.123565
3970.514068,-296.082377,-8810.098227,-222.061783
3970.514393,222.061783,-8810.098227,-666.185348
3970.514717,0.000000,-8197.221829,-296.082377
3970.515042,370.102971,-8656.879127,-444.123565
3970.515366,222.061783,-8427.050478,0.000000
3970.515690,592.164754,-8963.317327,0.000000
3970.516015,1036.288319,-8044.002729,-592.164754
3970.516339,814.226536,-8886.707777,-444.123565
3970.516664,740.205942,-8733.488677,-222.061783
3970.516988,592.164754,-8273.831378,0.000000
3970.517312,370.102971,-8886.707777,-592.164754
3970.517637,370.102971,-8810.098227,-296.082377
3970.517961,444.123565,-8427.050478,-592.164754
3970.518286,296.082377,-8810.098227,-444.123565
3970.518610,222.061783,-8503.660028,-444.123565
3970.518934,370.102971,-8427.050478,0.000000
3970.519259,666.185348,-8656.879127,-518.144159
3970.519583,592.164754,-8503.660028,-370.102971
3970.519908,888.247130,-8580.269578,-740.205942
3970.520232,1110.308913,-8427.050478,-444.123565
3970.520556,148.041188,-8810.098227,-444.123565
3970.520881,370.102971,-8810.098227,-814.226536
3970.521205,74.020594,-8427.050478,-296.082377
3970.521530,0.000000,-8886.707777,-518.144159
3970.521854,814.226536,-8810.098227,-296.082377
3970.522178,370.102971,-8503.660028,-666.185348
3970.522503,962.267725,-8810.098227,-222.061783
3970.522827,1184.329507,-8044.002729,-1110.308913
3970.523152,1480.411884,-9039.926876,-148.041188
3970.523476,1554.432478,-8197.221829,-518.144159
3970.523800,1406.391290,-8656.879127,0.000000
3970.524125,962.267725,-8197.221829,-518.144159
3970.524449,814.226536,-9039.926876,370.102971
3970.524774,666.185348,-8427.050478,-592.164754
3970.525098,888.247130,-9039.926876,-148.041188
3970.525422,444.123565,-8350.440928,-296.082377
3970.525747,74.020594,-8886.707777,222.061783
3970.526071,592.164754,-8733.488677,-222.061783
3970.526396,666.185348,-8580.269578,-148.041188
3970.526720,814.226536,-8580.269578,0.000000
3970.527044,962.267725,-8810.098227,-222.061783
3970.527369,1036.288319,-8503.660028,0.000000
3970.527693,1036.288319,-8580.269578,-148.041188
3970.528018,592.164754,-8580.269578,0.000000
3970.528342,592.164754,-8580.269578,-296.082377
3970.528666,1036.288319,-8810.098227,-148.041188
3970.528991,148.041188,-8656.879127,0.000000
3970.529315,-222.061783,-8810.098227,0.000000
3970.529640,0.000000,-8656.879127,0.000000
3970.529964,0.000000,-8503.660028,-148.041188
3970.530288,370.102971,-8656.879127,-222.061783
3970.530613,518.144159,-8120.612279,-370.102971
3970.530937,592.164754,-8503.660028,0.000000
3970.531262,296.082377,-8350.440928,-222.061783
3970.531586,666.185348,-8580.269578,0.000000
3970.531910,666.185348,-8273.831378,-444.123565
3970.532235,592.164754,-8580.269578,0.000000
3970.532559,74.020594,-8580.269578,-296.082377
3970.532884,0.000000,-8197.221829,74.020594
3970.533208,0.000000,-8733.488677,-296.082377
3970.533532,0.000000,-8350.440928,-74.020594
3970.533857,0.000000,-8656.879127,0.000000
3970.534181,0.000000,-8427.050478,296.082377
3970.534506,370.102971,-8273.831378,-518.144159
3970.534830,74.020594,-8427.050478,-296.082377
3970.535154,148.041188,-8503.660028,-370.102971
3970.535479,370.102971,-8350.440928,-666.185348
3970.535803,666.185348,-9116.536426,-444.123565
3970.536128,148.041188,-8733.488677,-444.123565
3970.536452,148.041188,-8963.317327,-370.102971
3970.536776,0.000000,-8810.098227,-370.102971
3970.537101,296.082377,-9193.145976,-666.185348
3970.537425,-296.082377,-8733.488677,-518.144159
3970.537750,-370.102971,-8350.440928,-370.102971
3970.538074,-444.123565,-8503.660028,-666.185348
3970.538398,0.000000,-8656.879127,-370.102971
3970.538723,444.123565,-8350.440928,-444.123565
3970.539047,222.061783,-8427.050478,-740.205942
3970.539372,148.041188,-8580.269578,-592.164754
3970.539696,-222.061783,-8580.269578,-592.164754
3970.540020,74.020594,-8810.098227,0.000000
3970.540345,-444.123565,-8503.660028,-444.123565
3970.540669,-222.061783,-9039.926876,-518.144159
3970.540994,222.061783,-8656.879127,-518.144159
3970.541318,814.226536,-8120.612279,0.000000
3970.541642,814.226536,-8503.660028,-518.144159
3970.541967,814.226536,-8273.831378,-296.082377
3970.542291,1406.391290,-8733.488677,-592.164754
3970.542615,1036.288319,-7967.393179,-666.185348
3970.542940,1036.288319,-9039.926876,-296.082377
3970.543264,0.000000,-8350.440928,-296.082377
3970.543589,444.123565,-8886.707777,-296.082377
3970.543913,0.000000,-8427.050478,-740.205942
3970.544237,740.205942,-9116.536426,0.000000
3970.544562,0.000000,-8350.440928,-666.185348
3970.544886,518.144159,-8733.488677,-296.082377
3970.545211,592.164754,-8120.612279,-518.144159
3970.545535,1480.411884,-8427.050478,0.000000
3970.545859,888.247130,-7967.393179,-592.164754
3970.546184,1258.350101,-8886.707777,-296.082377
3970.546508,888.247130,-8503.660028,-370.102971
3970.546832,814.226536,-8580.269578,0.000000
3970.547157,74.020594,-8273.831378,-370.102971
3970.547481,296.082377,-8810.098227,0.000000
3970.547806,296.082377,-8656.879127,-592.164754
3970.548130,518.144159,-8580.269578,0.000000
3970.548454,888.247130,-8733.488677,-518.144159
3970.548779,666.185348,-8656.879127,0.000000
3970.549103,1110.308913,-8197.221829,-296.082377
3970.549428,1184.329507,-8580.269578,-444.123565
3970.549752,1554.432478,-8503.660028,0.000000
3970.550076,1036.288319,-8350.440928,-296.082377
3970.550401,814.226536,-8580.269578,-148.041188
3970.550725,296.082377,-8580.269578,-74.020594
3970.551049,74.020594,-8963.317327,0.000000
3970.551374,222.061783,-8886.707777,-740.205942
3970.551698,222.061783,-8656.879127,296.082377
3970.552023,0.000000,-8427.050478,0.000000
3970.552347,444.123565,-8886.707777,0.000000
3970.552671,518.144159,-9039.926876,0.000000
3970.552996,1184.329507,-8656.879127,-296.082377
3970.553320,1332.370696,-8427.050478,-296.082377
3970.553645,962.267725,-8733.488677,0.000000
3970.553969,888.247130,-9193.145976,0.000000
3970.554293,444.123565,-8427.050478,-370.102971
3970.554618,222.061783,-8886.707777,-296.082377
3970.554942,74.020594,-8503.660028,-222.061783
3970.555266,0.000000,-8733.488677,-148.041188
3970.555591,-296.082377,-8580.269578,-518.144159
3970.555915,148.041188,-8733.488677,-296.082377
3970.556240,74.020594,-8273.831378,-592.164754
3970.556564,444.123565,-8580.269578,-148.041188
3970.556888,444.123565,-8273.831378,-666.185348
3970.557213,518.144159,-8810.098227,-370.102971
3970.557537,888.247130,-9116.536426,0.000000
3970.557862,444.123565,-8656.879127,-518.144159
3970.558186,222.061783,-9039.926876,0.000000
3970.558510,518.144159,-8656.879127,-370.102971
3970.558835,296.082377,-9039.926876,-222.061783
3970.559159,-370.102971,-8580.269578,-592.164754
3970.559483,0.000000,-8810.098227,0.000000
3970.559808,0.000000,-8886.707777,-592.164754
3970.560132,0.000000,-8656.879127,0.000000
3970.560457,296.082377,-8503.660028,-370.102971
3970.560781,518.144159,-8580.269578,-296.082377
3970.561105,518.144159,-8963.317327,-518.144159
3970.561430,222.061783,-8886.707777,-518.144159
3970.561754,666.185348,-8886.707777,-518.144159
3970.562079,74.020594,-8350.440928,-592.164754
3970.562403,74.020594,-9116.536426,-592.164754
3970.562727,-518.144159,-8273.831378,-296.082377
3970.563052,-222.061783,-9116.536426,-296.082377
3970.563376,-666.185348,-7967.393179,-1184.329507
3970.563700,0.000000,-9422.974625,0.000000
3970.564025,-740.205942,-7584.345430,-666.185348
3970.564349,444.123565,-9116.536426,74.020594
3970.564674,222.061783,-7584.345430,-666.185348
3970.564998,814.226536,-9193.145976,0.000000
3970.565322,518.144159,-7814.174080,-888.247130
3970.565647,740.205942,-9116.536426,74.020594
3970.565971,222.061783,-7660.954980,-814.226536
3970.566296,518.144159,-9499.584175,0.000000
3970.566620,0.000000,-8273.831378,-888.247130
3970.566944,0.000000,-8886.707777,-296.082377
3970.567269,-444.123565,-8197.221829,-814.226536
3970.567593,-222.061783,-8886.707777,0.000000
3970.567917,148.041188,-8197.221829,-370.102971
3970.568242,370.102971,-8580.269578,0.000000
3970.568566,518.144159,-8273.831378,-740.205942
3970.568891,888.247130,-8273.831378,-222.061783
3970.569215,962.267725,-8350.440928,-296.082377
3970.569539,666.185348,-8197.221829,-296.082377
3970.569864,666.185348,-8810.098227,-222.061783
3970.570188,518.144159,-8503.660028,-370.102971
3970.570513,222.061783,-8733.488677,-370.102971
3970.570837,148.041188,-8656.879127,-222.061783
3970.571161,444.123565,-8963.317327,0.000000
3970.571486,370.102971,-8503.660028,-592.164754
3970.571810,370.102971,-8733.488677,-222.061783
3970.572134,666.185348,-8580.269578,-592.164754
3970.572459,1184.329507,-8656.879127,-148.041188
3970.572783,962.267725,-8120.612279,0.000000
3970.573108,592.164754,-8733.488677,-296.082377
3970.573432,370.102971,-8197.221829,-518.144159
3970.573756,370.102971,-8733.488677,-518.144159
3970.574081,74.020594,-8427.050478,-592.164754
3970.574405,0.000000,-8810.098227,74.020594
3970.574730,0.000000,-8656.879127,-296.082377
3970.575054,444.123565,-8810.098227,0.000000
3970.575378,888.247130,-7967.393179,-814.226536
3970.575703,1110.308913,-8886.707777,148.041188
3970.576027,1332.370696,-7814.174080,-518.144159
3970.576351,1406.391290,-9039.926876,0.000000
3970.576676,1554.432478,-7967.393179,-148.041188
3970.577000,1184.329507,-8733.488677,74.020594
3970.577325,814.226536,-8427.050478,-740.205942
3970.577649,888.247130,-9116.536426,74.020594
3970.577973,518.144159,-8503.660028,-518.144159
3970.578298,814.226536,-8733.488677,0.000000
3970.578622,666.185348,-8427.050478,-296.082377
3970.578947,962.267725,-8656.879127,-222.061783
3970.579271,962.267725,-8580.269578,-518.144159
3970.579595,888.247130,-8427.050478,-370.102971
3970.579920,1036.288319,-8503.660028,-222.061783
3970.580244,962.267725,-8427.050478,-296.082377
3970.580568,1184.329507,-8656.879127,-370.102971
3970.580893,814.226536,-7967.393179,0.000000
3970.581217,740.205942,-8656.879127,-370.102971
3970.581542,370.102971,-8580.269578,-370.102971
3970.581866,74.020594,-8963.317327,222.061783
3970.582190,148.041188,-8503.660028,-370.102971
3970.582515,222.061783,-8963.317327,-370.102971
3970.582839,370.102971,-8656.879127,-296.082377
3970.583164,148.041188,-8427.050478,-148.041188
3970.583488,518.144159,-8580.269578,-666.185348
3970.583812,518.144159,-8656.879127,-444.123565
3970.584137,814.226536,-8886.707777,-444.123565
3970.584461,444.123565,-8427.050478,-444.123565
3970.584785,444.123565,-8963.317327,-296.082377
3970.585110,296.082377,-8350.440928,-518.144159
3970.585434,148.041188,-8886.707777,-222.061783
3970.585759,74.020594,-8350.440928,-666.185348
3970.586083,0.000000,-8963.317327,0.000000
3970.586407,222.061783,-8427.050478,-592.164754
3970.586732,148.041188,-8656.879127,-518.144159
3970.587056,296.082377,-8427.050478,-518.144159
3970.587380,296.082377,-8733.488677,-148.041188
3970.587705,592.164754,-8350.440928,-518.144159
3970.588029,1036.288319,-8886.707777,-518.144159
3970.588354,444.123565,-8503.660028,-518.144159
3970.588678,222.061783,-8656.879127,-592.164754
3970.589002,0.000000,-8580.269578,-148.041188
3970.589327,-370.102971,-8580.269578,-148.041188
3970.589651,0.000000,-8733.488677,-592.164754
3970.589976,-444.123565,-8580.269578,-370.102971
3970.590300,-518.144159,-8580.269578,-370.102971
3970.590624,-592.164754,-8656.879127,-222.061783
3970.590949,-444.123565,-8427.050478,-296.082377
3970.591273,74.020594,-8503.660028,-296.082377
3970.591597,222.061783,-8580.269578,-296.082377
3970.591922,370.102971,-8580.269578,-148.041188
3970.592246,222.061783,-8810.098227,0.000000
3970.592571,74.020594,-8503.660028,-222.061783
3970.592895,-370.102971,-8580.269578,-666.185348
3970.593219,-222.061783,-8580.269578,0.000000
3970.593544,-518.144159,-8503.660028,-222.061783
3970.593868,-592.164754,-8427.050478,0.000000
3970.594193,-222.061783,-8503.660028,-370.102971
3970.594517,296.082377,-8427.050478,-222.061783
3970.594841,888.247130,-8197.221829,-148.041188
3970.595166,1554.432478,-8350.440928,-148.041188
3970.595490,1110.308913,-8427.050478,-370.102971
3970.595814,1110.308913,-8503.660028,0.000000
3970.596139,814.226536,-8273.831378,-518.144159
3970.596463,518.144159,-9346.365076,-222.061783
3970.596788,518.144159,-8427.050478,-518.144159
3970.597112,0.000000,-8810.098227,-148.041188
3970.597436,0.000000,-8350.440928,-592.164754
3970.597761,0.000000,-8503.660028,-222.061783
3970.598085,296.082377,-8427.050478,-444.123565
3970.598410,740.205942,-8273.831378,-148.041188
3970.598734,1184.329507,-8580.269578,-296.082377
3970.599058,1406.391290,-8197.221829,-148.041188
3970.599383,1998.556043,-8810.098227,-370.102971
3970.599707,962.267725,-8810.098227,-666.185348
3970.600031,888.247130,-8733.488677,0.000000
3970.600356,592.164754,-8656.879127,0.000000
3970.600680,148.041188,-9193.145976,222.061783
3970.601005,370.102971,-8963.317327,-296.082377
3970.601329,370.102971,-8810.098227,-370.102971
3970.601653,518.144159,-8733.488677,-370.102971
3970.601978,814.226536,-8656.879127,-296.082377
3970.602302,1110.308913,-8580.269578,-148.041188
3970.602627,1184.329507,-8810.098227,-444.123565
3970.602951,1258.350101,-8503.660028,-592.164754
3970.603275,1110.308913,-8427.050478,-370.102971
3970.603600,1110.308913,-8886.707777,-148.041188
3970.603924,518.144159,-8656.879127,-444.123565
3970.604248,444.123565,-8886.707777,-518.144159
3970.604573,148.041188,-8733.488677,-370.102971
3970.604897,148.041188,-8733.488677,0.000000
3970.605222,296.082377,-8886.707777,-592.164754
3970.605546,518.144159,-8656.879127,-370.102971
3970.605870,740.205942,-8427.050478,-370.102971
3970.606195,888.247130,-8427.050478,-296.082377
3970.606519,1332.370696,-8810.098227,-222.061783
3970.606844,1036.288319,-8733.488677,-296.082377
3970.607168,888.247130,-8886.707777,-296.082377
3970.607492,666.185348,-8886.707777,-444.123565
3970.607817,222.061783,-8810.098227,0.000000
3970.608141,0.000000,-8733.488677,-518.144159
3970.608465,0.000000,-9346.365076,-296.082377
3970.608790,-296.082377,-8580.269578,-296.082377
3970.609114,148.041188,-9269.755526,-222.061783
3970.609439,74.020594,-8503.660028,-296.082377
3970.609763,740.205942,-8427.050478,-296.082377
3970.610087,148.041188,-8273.831378,-518.144159
3970.610412,296.082377,-8733.488677,0.000000
3970.610736,962.267725,-8120.612279,-666.185348
3970.611061,518.144159,-8810.098227,0.000000
3970.611385,222.061783,-8810.098227,-444.123565
3970.611709,0.000000,-8810.098227,-148.041188
3970.612034,518.144159,-8963.317327,-666.185348
3970.612358,0.000000,-8503.660028,0.000000
3970.612682,0.000000,-8810.098227,0.000000
3970.613007,148.041188,-8273.831378,0.000000
3970.613331,296.082377,-8273.831378,0.000000
3970.613656,222.061783,-8580.269578,-296.082377
3970.613980,666.185348,-8733.488677,-148.041188
3970.614304,740.205942,-7660.954980,0.000000
3970.614629,814.226536,-8273.831378,-222.061783
3970.614953,296.082377,-8427.050478,0.000000
3970.615278,296.082377,-8427.050478,0.000000
3970.615602,-518.144159,-8427.050478,-518.144159
3970.615926,-222.061783,-8963.317327,74.020594
3970.616251,-444.123565,-7507.735880,0.000000
3970.616575,-592.164754,-8580.269578,0.000000
3970.616899,0.000000,-8044.002729,-518.144159
3970.617224,0.000000,-8656.879127,0.000000
3970.617548,518.144159,-7737.564530,-814.226536
3970.617873,444.123565,-8044.002729,0.000000
3970.618197,740.205942,-8350.440928,-370.102971
3970.618521,296.082377,-8580.269578,-148.041188
3970.618846,518.144159,-8580.269578,-814.226536
3970.619170,444.123565,-8963.317327,-518.144159
3970.619495,0.000000,-8197.221829,-444.123565
3970.619819,-296.082377,-8810.098227,-592.164754
3970.620143,-296.082377,-8963.317327,-296.082377
3970.620468,-370.102971,-8963.317327,-518.144159
3970.620792,0.000000,-8810.098227,-666.185348
3970.621116,444.123565,-8350.440928,-370.102971
3970.621441,666.185348,-8350.440928,-296.082377
3970.621765,888.247130,-8656.879127,-666.185348
3970.622090,740.205942,-8886.707777,-296.082377
3970.622414,814.226536,-8580.269578,-592.164754
3970.622738,666.185348,-8580.269578,-370.102971
3970.623063,518.144159,-8733.488677,-370.102971
3970.623387,592.164754,-9576.193725,-222.061783
3970.623712,296.082377,-8963.317327,-444.123565
3970.624036,-222.061783,-8886.707777,-444.123565
3970.624360,0.000000,-8580.269578,-444.123565
3970.624685,444.123565,-8580.269578,-222.061783
3970.625009,740.205942,-8273.831378,-370.102971
3970.625333,444.123565,-8503.660028,-444.123565
3970.625658,666.185348,-8427.050478,-740.205942
3970.625982,888.247130,-8503.660028,-444.123565
3970.626307,666.185348,-8273.831378,-666.185348
3970.626631,592.164754,-8963.317327,-296.082377
3970.626955,222.061783,-8350.440928,-592.164754
3970.627280,0.000000,-8886.707777,-444.123565
3970.627604,0.000000,-8120.612279,-814.226536
3970.627929,370.102971,-8886.707777,0.000000
3970.628253,148.041188,-8044.002729,-370.102971
3970.628577,444.123565,-8886.707777,-296.082377
3970.628902,518.144159,-7967.393179,-666.185348
3970.629226,1480.411884,-8733.488677,0.000000
3970.629550,1258.350101,-8120.612279,-592.164754
3970.629875,1628.453072,-8963.317327,0.000000
3970.630199,1480.411884,-8273.831378,-222.061783
3970.630524,1554.432478,-9652.803275,74.020594
3970.630848,1036.288319,-8197.221829,-666.185348
3970.631172,740.205942,-9116.536426,296.082377
3970.631497,518.144159,-8580.269578,-370.102971
3970.631821,370.102971,-8656.879127,370.102971
3970.632146,222.061783,-8427.050478,-370.102971
3970.632470,592.164754,-8503.660028,0.000000
3970.632794,814.226536,-8427.050478,-444.123565
3970.633119,888.247130,-8656.879127,-296.082377
3970.633443,1554.432478,-8197.221829,0.000000
3970.633767,888.247130,-8350.440928,222.061783
3970.634092,1258.350101,-8886.707777,-370.102971
3970.634416,888.247130,-8580.269578,0.000000
3970.634741,1258.350101,-9116.536426,-296.082377
3970.635065,296.082377,-8503.660028,0.000000
3970.635389,148.041188,-8886.707777,0.000000
3970.635714,0.000000,-8733.488677,-148.041188
3970.636038,0.000000,-8886.707777,222.061783
3970.636362,-370.102971,-8503.660028,-296.082377
3970.636687,0.000000,-8350.440928,0.000000
3970.637011,222.061783,-8273.831378,-296.082377
3970.637336,518.144159,-8350.440928,-296.082377
3970.637660,666.185348,-8503.660028,-222.061783
3970.637984,740.205942,-8656.879127,0.000000
3970.638309,814.226536,-8503.660028,-592.164754
3970.638633,888.247130,-8503.660028,-370.102971
3970.638958,370.102971,-8273.831378,0.000000
3970.639282,0.000000,-8656.879127,-296.082377
3970.639606,0.000000,-8503.660028,-814.226536
3970.639931,0.000000,-8963.317327,-518.144159
3970.640255,0.000000,-8427.050478,-592.164754
3970.640579,222.061783,-8733.488677,-222.061783
3970.640904,296.082377,-8350.440928,-370.102971
3970.641228,666.185348,-8427.050478,-370.102971
3970.641553,666.185348,-8427.050478,-592.164754
3970.641877,370.102971,-8197.221829,-222.061783
3970.642201,222.061783,-8273.831378,-518.144159
3970.642526,148.041188,-8810.098227,-444.123565
3970.642850,-296.082377,-8656.879127,-518.144159
3970.643175,0.000000,-8503.660028,-666.185348
3970.643499,-592.164754,-8963.317327,-814.226536
3970.643823,-296.082377,-8963.317327,-592.164754
3970.644148,-370.102971,-8810.098227,-592.164754
3970.644472,0.000000,-8733.488677,-666.185348
3970.644796,0.000000,-8273.831378,-370.102971
3970.645121,74.020594,-8503.660028,-296.082377
3970.645445,296.082377,-8733.488677,-518.144159
3970.645770,370.102971,-8350.440928,-740.205942
3970.646094,74.020594,-8350.440928,-1110.308913
3970.646418,-222.061783,-8656.879127,-444.123565
3970.646743,-148.041188,-8656.879127,-592.164754
3970.647067,-518.144159,-8580.269578,-592.164754
3970.647392,-444.123565,-8656.879127,0.000000
3970.647716,-296.082377,-8810.098227,0.000000
3970.648040,222.061783,-8427.050478,-370.102971
3970.648365,740.205942,-8656.879127,-518.144159
3970.648689,1258.350101,-8350.440928,-296.082377
3970.649013,1406.391290,-8350.440928,-444.123565
3970.649338,888.247130,-8427.050478,-444.123565
3970.649662,740.205942,-8656.879127,0.000000
3970.649987,592.164754,-8733.488677,-444.123565
3970.650311,666.185348,-8886.707777,-888.247130
3970.650635,222.061783,-8580.269578,0.000000
3970.650960,0.000000,-8733.488677,-296.082377
3970.651284,148.041188,-8886.707777,-222.061783
3970.651609,1110.308913,-8580.269578,-444.123565
3970.651933,1110.308913,-8273.831378,-222.061783
3970.652257,962.267725,-8350.440928,-444.123565
3970.652582,1110.308913,-8197.221829,0.000000
3970.652906,1184.329507,-8273.831378,0.000000
3970.653230,814.226536,-8427.050478,-444.123565
3970.653555,592.164754,-8656.879127,-444.123565
3970.653879,666.185348,-8503.660028,0.000000
3970.654204,370.102971,-8503.660028,0.000000
3970.654528,518.144159,-9193.145976,-370.102971
3970.654852,444.123565,-8580.269578,0.000000
3970.655177,592.164754,-8273.831378,0.000000
3970.655501,1184.329507,-8503.660028,0.000000
3970.655826,1332.370696,-8810.098227,-370.102971
3970.656150,1776.494261,-8656.879127,0.000000
3970.656474,962.267725,-8427.050478,-518.144159
3970.656799,1258.350101,-8503.660028,0.000000
3970.657123,814.226536,-8503.660028,0.000000
3970.657447,296.082377,-8733.488677,-370.102971
3970.657772,74.020594,-8963.317327,0.000000
3970.658096,296.082377,-8580.269578,74.020594
3970.658421,814.226536,-8886.707777,-222.061783
3970.658745,814.226536,-8656.879127,-296.082377
3970.659069,1406.391290,-8886.707777,-148.041188
3970.659394,1258.350101,-8580.269578,-370.102971
3970.659718,1332.370696,-8886.707777,-370.102971
3970.660043,888.247130,-8963.317327,-518.144159
3970.660367,666.185348,-8733.488677,-296.082377
3970.660691,148.041188,-8810.098227,-814.226536
3970.661016,222.061783,-8886.707777,-370.102971
3970.661340,-222.061783,-8427.050478,-444.123565
3970.661664,222.061783,-8963.317327,-296.082377
3970.661989,74.020594,-8886.707777,-444.123565
3970.662313,148.041188,-8963.317327,-444.123565
3970.662638,444.123565,-9039.926876,-666.185348
3970.662962,296.082377,-9039.926876,518.144159
3970.663286,444.123565,-8886.707777,-592.164754
3970.663611,74.020594,-8656.879127,-444.123565
3970.663935,370.102971,-8810.098227,-666.185348
3970.664260,222.061783,-8580.269578,-444.123565
3970.664584,296.082377,-8656.879127,-444.123565
3970.664908,0.000000,-8733.488677,-444.123565
3970.665233,148.041188,-8580.269578,-296.082377
3970.665557,0.000000,-8503.660028,-296.082377
3970.665881,0.000000,-8580.269578,-222.061783
3970.666206,0.000000,-8580.269578,-148.041188
3970.666530,148.041188,-8350.440928,0.000000
3970.666855,296.082377,-8503.660028,-370.102971
3970.667179,222.061783,-8427.050478,-296.082377
3970.667503,814.226536,-8503.660028,-222.061783
3970.667828,74.020594,-8580.269578,-444.123565
3970.668152,74.020594,-8580.269578,444.123565
3970.668476,-148.041188,-8350.440928,-296.082377
3970.668801,0.000000,-8810.098227,-296.082377
3970.669125,-444.123565,-8350.440928,0.000000
3970.669450,-222.061783,-8810.098227,0.000000
3970.669774,-296.082377,-8120.612279,-518.144159
3970.670098,666.185348,-8427.050478,0.000000
3970.670423,-148.041188,-8580.269578,-296.082377
3970.670747,222.061783,-8273.831378,0.000000
3970.671072,148.041188,-8197.221829,-518.144159
3970.671396,740.205942,-8350.440928,296.082377
3970.671720,592.164754,-8733.488677,-518.144159
3970.672045,370.102971,-8733.488677,0.000000
3970.672369,0.000000,-8503.660028,-592.164754
3970.672693,-222.061783,-8197.221829,0.000000
3970.673018,0.000000,-9193.145976,-592.164754
3970.673342,0.000000,-8503.660028,0.000000
3970.673667,0.000000,-8733.488677,-444.123565
3970.673991,-222.061783,-8427.050478,-222.061783
3970.674315,444.123565,-7814.174080,-148.041188
3970.674640,444.123565,-8197.221829,0.000000
3970.674964,1110.308913,-8733.488677,-592.164754
3970.675289,888.247130,-8656.879127,0.000000
3970.675613,814.226536,-9346.365076,0.000000
3970.675937,1036.288319,-8350.440928,-296.082377
3970.676262,666.185348,-8427.050478,-518.144159
3970.676586,370.102971,-8886.707777,-296.082377
3970.676910,444.123565,-8503.660028,-74.020594
3970.677235,0.000000,-8580.269578,-296.082377
3970.677559,0.000000,-8580.269578,-296.082377
3970.677884,296.082377,-8503.660028,-370.102971
3970.678208,518.144159,-8886.707777,-814.226536
3970.678532,444.123565,-7660.954980,-148.041188
3970.678857,740.205942,-8350.440928,-370.102971
3970.679181,1406.391290,-8810.098227,-222.061783
3970.679506,1110.308913,-8503.660028,-592.164754
3970.679830,814.226536,-9193.145976,-592.164754
3970.680154,296.082377,-8733.488677,-888.247130
3970.680479,74.020594,-8810.098227,-592.164754
3970.680803,-296.082377,-8503.660028,-592.164754
3970.681127,-518.144159,-8656.879127,-222.061783
3970.681452,0.000000,-8350.440928,-592.164754
3970.681776,296.082377,-8503.660028,-370.102971
3970.682101,666.185348,-8350.440928,-592.164754
3970.682425,1110.308913,-8503.660028,-148.041188
3970.682749,2146.597232,-8350.440928,-666.185348
3970.683074,1776.494261,-8503.660028,-444.123565
3970.683398,1776.494261,-8503.660028,-518.144159
3970.683723,1332.370696,-8886.707777,0.000000
3970.684047,814.226536,-8580.269578,-592.164754
3970.684371,518.144159,-9039.926876,0.000000
3970.684696,222.061783,-8580.269578,-592.164754
3970.685020,222.061783,-8886.707777,-370.102971
3970.685344,370.102971,-8427.050478,-592.164754
3970.685669,518.144159,-8427.050478,0.000000
3970.685993,814.226536,-8197.221829,-296.082377
3970.686318,814.226536,-8273.831378,-148.041188
3970.686642,1258.350101,-8273.831378,-296.082377
3970.686966,1924.535449,-8810.098227,-148.041188
3970.687291,1702.473667,-8810.098227,-444.123565
3970.687615,1036.288319,-8273.831378,-222.061783
3970.687940,370.102971,-8886.707777,0.000000
3970.688264,296.082377,-8810.098227,-222.061783
3970.688588,0.000000,-8810.098227,0.000000
3970.688913,-222.061783,-8427.050478,0.000000
3970.689237,-592.164754,-8580.269578,-148.041188
3970.689561,-148.041188,-8656.879127,0.000000
3970.689886,444.123565,-8350.440928,0.000000
3970.690210,740.205942,-8044.002729,-148.041188
3970.690535,666.185348,-8197.221829,-222.061783
3970.690859,1110.308913,-8044.002729,0.000000
3970.691183,1110.308913,-8427.050478,-296.082377
3970.691508,962.267725,-8580.269578,148.041188
3970.691832,444.123565,-8197.221829,-370.102971
3970.692157,444.123565,-8886.707777,-296.082377
3970.692481,0.000000,-8580.269578,-222.061783
3970.692805,-444.123565,-8656.879127,0.000000
3970.693130,-296.082377,-8273.831378,-222.061783
3970.693454,0.000000,-8427.050478,-222.061783
3970.693778,148.041188,-8427.050478,-296.082377
3970.694103,814.226536,-8044.002729,-592.164754
3970.694427,444.123565,-8120.612279,-444.123565
3970.694752,592.164754,-8350.440928,-222.061783
3970.695076,592.164754,-8273.831378,-222.061783
3970.695400,370.102971,-8733.488677,-296.082377
3970.695725,592.164754,-8886.707777,-222.061783
3970.696049,0.000000,-8580.269578,-370.102971
3970.696374,-518.144159,-9116.536426,-222.061783
3970.696698,-370.102971,-8580.269578,-518.144159
3970.697022,-962.267725,-8580.269578,-370.102971
3970.697347,-592.164754,-8810.098227,-666.185348
3970.697671,-148.041188,-8733.488677,-296.082377
3970.697995,0.000000,-8427.050478,-444.123565
3970.698320,444.123565,-8427.050478,-296.082377
3970.698644,592.164754,-8120.612279,-666.185348
3970.698969,518.144159,-8580.269578,-370.102971
3970.699293,296.082377,-8503.660028,-740.205942
3970.699617,0.000000,-8963.317327,-518.144159
3970.699942,-370.102971,-8963.317327,-518.144159
3970.700266,-518.144159,-8886.707777,-518.144159
3970.700590,-296.082377,-8733.488677,-444.123565
3970.700915,-444.123565,-8886.707777,-592.164754
3970.701239,592.164754,-8810.098227,-444.123565
3970.701564,666.185348,-8503.660028,-592.164754
3970.701888,814.226536,-8503.660028,-518.144159
3970.702212,962.267725,-8273.831378,-444.123565
3970.702537,1110.308913,-8503.660028,-592.164754
3970.702861,1258.350101,-8733.488677,-740.205942
3970.703186,740.205942,-8733.488677,-444.123565
3970.703510,222.061783,-8656.879127,-296.082377
3970.703834,148.041188,-8886.707777,-444.123565
3970.704159,148.041188,-8656.879127,-592.164754
3970.704483,148.041188,-9039.926876,0.000000
3970.704807,296.082377,-8503.660028,0.000000
3970.705132,518.144159,-8656.879127,-370.102971
3970.705456,666.185348,-8810.098227,222.061783
3970.705781,1258.350101,-8044.002729,-444.123565
3970.706105,1258.350101,-8427.050478,-444.123565
3970.706429,1036.288319,-8197.221829,-444.123565
3970.706754,1332.370696,-8963.317327,0.000000
3970.707078,814.226536,-8427.050478,0.000000
3970.707403,444.123565,-8656.879127,0.000000
3970.707727,222.061783,-8503.660028,0.000000
3970.708051,444.123565,-8733.488677,0.000000
3970.708376,518.144159,-8656.879127,-148.041188
3970.708700,592.164754,-8733.488677,0.000000
3970.709024,666.185348,-8273.831378,0.000000
3970.709349,1258.350101,-8197.221829,-222.061783
3970.709673,1258.350101,-7507.735880,0.000000
3970.709998,1332.370696,-8656.879127,0.000000
3970.710322,1332.370696,-8044.002729,0.000000
3970.710646,1036.288319,-8427.050478,-370.102971
3970.710971,1110.308913,-8963.317327,74.020594
3970.711295,444.123565,-8963.317327,-148.041188
3970.711620,296.082377,-8656.879127,-444.123565
3970.711944,0.000000,-8810.098227,0.000000
3970.712268,0.000000,-8656.879127,-148.041188
3970.712593,296.082377,-8810.098227,-444.123565
3970.712917,518.144159,-8503.660028,-222.061783
3970.713241,1110.308913,-8656.879127,0.000000
3970.713566,888.247130,-8503.660028,-296.082377
3970.713890,1554.432478,-8886.707777,-518.144159
3970.714215,1036.288319,-8273.831378,-518.144159
3970.714539,888.247130,-8810.098227,-444.123565
3970.714863,74.020594,-8810.098227,-518.144159
3970.715188,222.061783,-8886.707777,74.020594
3970.715512,-148.041188,-8810.098227,-518.144159
3970.715837,-370.102971,-9116.536426,-296.082377
3970.716161,-370.102971,-8810.098227,-518.144159
3970.716485,0.000000,-8886.707777,-444.123565
3970.716810,592.164754,-8427.050478,-444.123565
3970.717134,222.061783,-8656.879127,-148.041188
3970.717458,740.205942,-8580.269578,-370.102971
3970.717783,814.226536,-8427.050478,-296.082377
3970.718107,666.185348,-8427.050478,-518.144159
3970.718432,666.185348,-8503.660028,-370.102971
3970.718756,296.082377,-8963.317327,-444.123565
3970.719080,-222.061783,-8733.488677,-370.102971
3970.719405,-370.102971,-8810.098227,-222.061783
3970.719729,-222.061783,-8733.488677,-444.123565
3970.720054,-296.082377,-8810.098227,-444.123565
3970.720378,0.000000,-8580.269578,-518.144159
3970.720702,296.082377,-8580.269578,-444.123565
3970.721027,1110.308913,-8810.098227,-666.185348
3970.721351,666.185348,-8427.050478,-814.226536
3970.721675,814.226536,-8656.879127,-296.082377
3970.722000,592.164754,-8503.660028,-444.123565
3970.722324,592.164754,-8810.098227,-592.164754
3970.722649,0.000000,-8810.098227,-370.102971
3970.722973,-444.123565,-8656.879127,-148.041188
3970.723297,-592.164754,-8733.488677,-814.226536
3970.723622,-444.123565,-8197.221829,0.000000
3970.723946,-518.144159,-8886.707777,-148.041188
3970.724271,0.000000,-8503.660028,-370.102971
3970.724595,148.041188,-8273.831378,-444.123565
3970.724919,518.144159,-8197.221829,-296.082377
3970.725244,592.164754,-8120.612279,-518.144159
3970.725568,444.123565,-8503.660028,-148.041188
3970.725892,296.082377,-8427.050478,-444.123565
3970.726217,444.123565,-8810.098227,0.000000
3970.726541,0.000000,-8044.002729,-888.247130
3970.726866,74.020594,-8810.098227,-148.041188
3970.727190,0.000000,-8810.098227,-444.123565
3970.727514,-296.082377,-8733.488677,-148.041188
3970.727839,74.020594,-8656.879127,-222.061783
3970.728163,444.123565,-8427.050478,-370.102971
3970.728487,666.185348,-8580.269578,-518.144159
3970.728812,518.144159,-8886.707777,-370.102971
3970.729136,962.267725,-8120.612279,-444.123565
3970.729461,1184.329507,-9039.926876,-740.205942
3970.729785,962.267725,-8733.488677,-444.123565
3970.730109,814.226536,-8656.879127,-296.082377
3970.730434,740.205942,-8580.269578,-296.082377
3970.730758,444.123565,-8963.317327,-148.041188
3970.731083,592.164754,-9039.926876,74.020594
3970.731407,222.061783,-8580.269578,-370.102971
3970.731731,74.020594,-8733.488677,-370.102971
3970.732056,296.082377,-8427.050478,-296.082377
3970.732380,444.123565,-8656.879127,-444.123565
3970.732704,518.144159,-8273.831378,-296.082377
3970.733029,666.185348,-8197.221829,-222.061783
3970.733353,740.205942,-8580.269578,-296.082377
3970.733678,1036.288319,-8656.879127,-592.164754
3970.734002,740.205942,-8886.707777,-296.082377
3970.734326,518.144159,-8503.660028,-370.102971
3970.734651,444.123565,-8580.269578,-296.082377
3970.734975,444.123565,-8733.488677,-444.123565
3970.735300,444.123565,-8273.831378,-444.123565
3970.735624,444.123565,-8733.488677,-518.144159
3970.735948,370.102971,-8580.269578,-148.041188
3970.736273,740.205942,-8580.269578,0.000000
3970.736597,740.205942,-8886.707777,-444.123565
3970.736921,1258.350101,-8197.221829,-222.061783
3970.737246,1406.391290,-8886.707777,-370.102971
3970.737570,1332.370696,-8580.269578,-74.020594
3970.737895,1036.288319,-9193.145976,0.000000
3970.738219,888.247130,-8350.440928,-296.082377
3970.738543,1110.308913,-8810.098227,-370.102971
3970.738868,444.123565,-8580.269578,-222.061783
3970.739192,444.123565,-8810.098227,-370.102971
3970.739517,518.144159,-8427.050478,-148.041188
3970.739841,444.123565,-9039.926876,-148.041188
3970.740165,370.102971,-8580.269578,-296.082377
3970.740490,814.226536,-8350.440928,-370.102971
3970.740814,518.144159,-8886.707777,148.041188
3970.741138,740.205942,-8350.440928,-296.082377
3970.741463,666.185348,-8886.707777,-148.041188
3970.741787,666.185348,-8273.831378,-148.041188
3970.742112,222.061783,-8963.317327,0.000000
3970.742436,0.000000,-8733.488677,-222.061783
3970.742760,222.061783,-8580.269578,0.000000
3970.743085,-148.041188,-8580.269578,-222.061783
3970.743409,0.000000,-8580.269578,0.000000
3970.743734,148.041188,-8427.050478,-222.061783
3970.744058,370.102971,-8427.050478,-296.082377
3970.744383,592.164754,-8503.660028,-148.041188
3970.744707,518.144159,-8503.660028,-148.041188
3970.745031,666.185348,-8656.879127,-666.185348
3970.745356,592.164754,-8580.269578,-148.041188
3970.745680,370.102971,-8350.440928,-444.123565
3970.746005,222.061783,-8503.660028,-74.020594
3970.746329,222.061783,-8503.660028,-444.123565
3970.746653,74.020594,-9039.926876,0.000000
3970.746978,-148.041188,-8427.050478,-666.185348
3970.747302,-296.082377,-8886.707777,-148.041188
3970.747627,148.041188,-8656.879127,-370.102971
3970.747951,370.102971,-8886.707777,-296.082377
3970.748275,518.144159,-8427.050478,0.000000
3970.748600,444.123565,-8580.269578,0.000000
3970.748924,518.144159,-8427.050478,-666.185348
3970.749249,518.144159,-8733.488677,0.000000
3970.749573,148.041188,-8886.707777,-296.082377
3970.749898,148.041188,-8810.098227,-444.123565
3970.750222,-296.082377,-8580.269578,-222.061783
3970.750546,-888.247130,-8963.317327,-592.164754
3970.750871,-666.185348,-8810.098227,-370.102971
3970.751195,-666.185348,-8503.660028,-444.123565
3970.751520,-148.041188,-8427.050478,-296.082377
3970.751844,0.000000,-8120.612279,-370.102971
3970.752168,888.247130,-8886.707777,-518.144159
3970.752493,592.164754,-8120.612279,-592.164754
3970.752817,592.164754,-8427.050478,-518.144159
3970.753142,370.102971,-8580.269578,-666.185348
3970.753466,888.247130,-8963.317327,-222.061783
3970.753790,-296.082377,-8580.269578,-296.082377
3970.754115,-148.041188,-8963.317327,-370.102971
3970.754439,-444.123565,-8503.660028,-592.164754
3970.754764,296.082377,-9039.926876,-444.123565
3970.755088,222.061783,-8427.050478,-444.123565
3970.755412,1036.288319,-8656.879127,-370.102971
3970.755737,962.267725,-8197.221829,-444.123565
3970.756061,1184.329507,-8427.050478,-148.041188
3970.756386,1258.350101,-8886.707777,-370.102971
3970.756710,1036.288319,-8580.269578,-148.041188
3970.757035,444.123565,-8350.440928,-518.144159
3970.757359,518.144159,-8656.879127,-296.082377
3970.757683,0.000000,-8503.660028,-370.102971
3970.758008,222.061783,-8810.098227,0.000000
3970.758332,444.123565,-8503.660028,-518.144159
3970.758657,666.185348,-8733.488677,-296.082377
3970.758981,962.267725,-8656.879127,-296.082377
3970.759305,888.247130,-8197.221829,0.000000
3970.759630,1110.308913,-8350.440928,-296.082377
3970.759954,1110.308913,-8810.098227,-518.144159
3970.760279,1036.288319,-8273.831378,-370.102971
3970.760603,814.226536,-8503.660028,0.000000
3970.760927,666.185348,-8580.269578,-592.164754
3970.761252,518.144159,-8733.488677,-370.102971
3970.761576,666.185348,-8350.440928,-370.102971
3970.761901,370.102971,-8810.098227,0.000000
3970.762225,1036.288319,-8656.879127,-296.082377
3970.762550,814.226536,-8580.269578,-222.061783
3970.762874,1036.288319,-8580.269578,-444.123565
3970.763198,1258.350101,-8350.440928,-518.144159
3970.763523,888.247130,-8580.269578,-296.082377
3970.763847,1258.350101,-8580.269578,-296.082377
3970.764172,444.123565,-8273.831378,-370.102971
3970.764496,592.164754,-8733.488677,0.000000
3970.764820,0.000000,-8120.612279,-740.205942
3970.765145,592.164754,-9039.926876,0.000000
3970.765469,148.041188,-8580.269578,-296.082377
3970.765794,518.144159,-8656.879127,-148.041188
3970.766118,518.144159,-8197.221829,-444.123565
3970.766442,814.226536,-8656.879127,0.000000
3970.766767,740.205942,-8580.269578,-444.123565
3970.767091,518.144159,-8733.488677,0.000000
3970.767416,518.144159,-8273.831378,-296.082377
3970.767740,518.144159,-8503.660028,-370.102971
3970.768065,296.082377,-8580.269578,-296.082377
3970.768389,74.020594,-8197.221829,-370.102971
3970.768713,74.020594,-8656.879127,0.000000
3970.769038,296.082377,-8886.707777,-148.041188
3970.769362,74.020594,-8886.707777,-296.082377
3970.769687,0.000000,-8656.879127,-444.123565
3970.770011,370.102971,-8733.488677,-222.061783
3970.770335,370.102971,-8963.317327,-518.144159
3970.770660,444.123565,-8733.488677,-296.082377
3970.770984,444.123565,-8503.660028,-222.061783
3970.771309,370.102971,-8656.879127,-518.144159
3970.771633,296.082377,-8733.488677,-296.082377
3970.771957,222.061783,-8733.488677,222.061783
3970.772282,444.123565,-8810.098227,0.000000
3970.772606,148.041188,-8427.050478,0.000000
3970.772931,148.041188,-8197.221829,0.000000
3970.773255,74.020594,-8120.612279,0.000000
3970.773580,148.041188,-8273.831378,0.000000
3970.773904,222.061783,-8733.488677,0.000000
3970.774228,74.020594,-8503.660028,-592.164754
3970.774553,296.082377,-8886.707777,0.000000
3970.774877,222.061783,-8273.831378,-666.185348
3970.775202,296.082377,-8580.269578,-222.061783
3970.775526,0.000000,-8503.660028,-592.164754
3970.775850,-222.061783,-8580.269578,0.000000
3970.776175,222.061783,-8350.440928,-666.185348
3970.776499,0.000000,-8656.879127,-222.061783
3970.776824,296.082377,-8427.050478,-370.102971
3970.777148,0.000000,-8503.660028,-370.102971
3970.777472,74.020594,-9422.974625,-740.205942
3970.777797,222.061783,-8120.612279,-296.082377
3970.778121,444.123565,-8886.707777,-444.123565
3970.778446,0.000000,-8503.660028,-148.041188
3970.778770,518.144159,-8810.098227,-296.082377
3970.779094,0.000000,-8120.612279,-370.102971
3970.779419,444.123565,-8810.098227,-296.082377
3970.779743,0.000000,-8273.831378,-814.226536
3970.780068,370.102971,-8963.317327,0.000000
3970.780392,-296.082377,-8810.098227,0.000000
3970.780717,518.144159,-9499.584175,-148.041188
3970.781041,518.144159,-7967.393179,-888.247130
3970.781365,666.185348,-8886.707777,0.000000
3970.781690,740.205942,-9116.536426,-888.247130
3970.782014,666.185348,-8810.098227,74.020594
3970.782339,962.267725,-8273.831378,-962.267725
3970.782663,814.226536,-8810.098227,-444.123565
3970.782987,592.164754,-8810.098227,-666.185348
3970.783312,148.041188,-8886.707777,-518.144159
3970.783636,74.020594,-8656.879127,-592.164754
3970.783961,0.000000,-8733.488677,-222.061783
3970.784285,444.123565,-8503.660028,-518.144159
3970.784609,814.226536,-9039.926876,-592.164754
3970.784934,518.144159,-8427.050478,-518.144159
3970.785258,518.144159,-8656.879127,-148.041188
3970.785583,962.267725,-8273.831378,-444.123565
3970.785907,814.226536,-9193.145976,-370.102971
3970.786232,1332.370696,-8580.269578,-518.144159
3970.786556,814.226536,-8810.098227,-666.185348
3970.786880,0.000000,-8656.879127,-518.144159
3970.787205,0.000000,-8503.660028,-296.082377
3970.787529,-74.020594,-8580.269578,-740.205942
3970.787854,0.000000,-8580.269578,-518.144159
3970.788178,-148.041188,-8503.660028,0.000000
3970.788502,518.144159,-8273.831378,-370.102971
3970.788827,518.144159,-9116.536426,-518.144159
3970.789151,1406.391290,-8503.660028,-222.061783
3970.789476,1702.473667,-8350.440928,-666.185348
3970.789800,1628.453072,-8656.879127,-296.082377
3970.790124,1554.432478,-8963.317327,0.000000
3970.790449,1184.329507,-9039.926876,222.061783
3970.790773,592.164754,-8810.098227,-296.082377
3970.791098,370.102971,-8656.879127,-148.041188
3970.791422,370.102971,-8656.879127,-296.082377
3970.791747,592.164754,-8427.050478,0.000000
3970.792071,518.144159,-8656.879127,0.000000
3970.792395,592.164754,-8427.050478,0.000000
3970.792720,814.226536,-8044.002729,-222.061783
3970.793044,1036.288319,-8963.317327,148.041188
3970.793369,1258.350101,-8656.879127,0.000000
3970.793693,962.267725,-8350.440928,-222.061783
3970.794017,1184.329507,-8427.050478,0.000000
3970.794342,962.267725,-8656.879127,0.000000
3970.794666,814.226536,-8963.317327,-74.020594
3970.794991,444.123565,-8656.879127,-296.082377
3970.795315,74.020594,-8733.488677,0.000000
3970.795639,0.000000,-8503.660028,-370.102971
3970.795964,0.000000,-8120.612279,370.102971
3970.796288,-148.041188,-8197.221829,-444.123565
3970.796613,0.000000,-8427.050478,-74.020594
3970.796937,518.144159,-8350.440928,-296.082377
3970.797262,888.247130,-8810.098227,0.000000
3970.797586,1184.329507,-8580.269578,-222.061783
3970.797910,814.226536,-8350.440928,-592.164754
3970.798235,1110.308913,-9116.536426,-148.041188
3970.798559,814.226536,-8350.440928,-444.123565
3970.798884,740.205942,-8656.879127,-444.123565
3970.799208,148.041188,-8963.317327,-666.185348
3970.799532,-148.041188,-9039.926876,0.000000
3970.799857,-296.082377,-8427.050478,-592.164754
3970.800181,0.000000,-8580.269578,0.000000
3970.800506,0.000000,-8273.831378,-518.144159
3970.800830,148.041188,-8503.660028,-222.061783
3970.801154,296.082377,-7890.783629,-814.226536
3970.801479,962.267725,-8580.269578,-370.102971
3970.801803,1036.288319,-8197.221829,-666.185348
3970.802128,444.123565,-8503.660028,-370.102971
3970.802452,740.205942,-8886.707777,-518.144159
3970.802776,74.020594,-8963.317327,-592.164754
3970.803101,74.020594,-9193.145976,-740.205942
3970.803425,0.000000,-9039.926876,-592.164754
3970.803750,-666.185348,-9039.926876,-370.102971
3970.804074,-888.247130,-8580.269578,-370.102971
3970.804399,148.041188,-9116.536426,-222.061783
3970.804723,0.000000,-8197.221829,-518.144159
3970.805047,74.020594,-8580.269578,-666.185348
3970.805372,222.061783,-8733.488677,-444.123565
3970.805696,222.061783,-8580.269578,-148.041188
3970.806021,0.000000,-8197.221829,-592.164754
3970.806345,370.102971,-8810.098227,-518.144159
3970.806669,0.000000,-8733.488677,-592.164754
3970.806994,0.000000,-9193.145976,0.000000
3970.807318,296.082377,-8427.050478,-666.185348
3970.807643,296.082377,-9116.536426,148.041188
3970.807967,148.041188,-8886.707777,-814.226536
3970.808291,518.144159,-8580.269578,-222.061783
3970.808616,888.247130,-8350.440928,-592.164754
3970.808940,740.205942,-8580.269578,0.000000
3970.809265,518.144159,-8197.221829,-666.185348
3970.809589,444.123565,-8810.098227,-370.102971
3970.809914,370.102971,-8197.221829,-518.144159
3970.810238,592.164754,-8656.879127,-370.102971
3970.810562,666.185348,-8580.269578,-740.205942
3970.810887,592.164754,-8656.879127,0.000000
3970.811211,740.205942,-8733.488677,0.000000
3970.811536,888.247130,-8963.317327,-296.082377
3970.811860,814.226536,-8350.440928,-370.102971
3970.812184,666.185348,-8733.488677,-148.041188
3970.812509,814.226536,-8427.050478,-296.082377
3970.812833,518.144159,-9269.755526,0.000000
3970.813158,592.164754,-8427.050478,-222.061783
3970.813482,518.144159,-8427.050478,-444.123565
3970.813806,296.082377,-8503.660028,-370.102971
3970.814131,518.144159,-8503.660028,0.000000
3970.814455,296.082377,-8273.831378,0.000000
3970.814780,666.185348,-8427.050478,0.000000
3970.815104,1036.288319,-8656.879127,-148.041188
3970.815429,1406.391290,-8273.831378,-666.185348
3970.815753,1554.432478,-8273.831378,-148.041188
3970.816077,1406.391290,-7967.393179,-296.082377
3970.816402,1406.391290,-8733.488677,-296.082377
3970.816726,1110.308913,-8273.831378,-444.123565
3970.817051,888.247130,-8503.660028,-370.102971
3970.817375,740.205942,-8427.050478,-518.144159
3970.817699,518.144159,-8656.879127,0.000000
3970.818024,444.123565,-8656.879127,-370.102971
3970.818348,370.102971,-8733.488677,0.000000
3970.818673,222.061783,-8580.269578,0.000000
3970.818997,962.267725,-8733.488677,-518.144159
3970.819321,1184.329507,-8427.050478,-370.102971
3970.819646,1554.432478,-8963.317327,0.000000
3970.819970,1036.288319,-9422.974625,-296.082377
3970.820295,888.247130,-8580.269578,-222.061783
3970.820619,814.226536,-8733.488677,-592.164754
3970.820944,666.185348,-8733.488677,-518.144159
3970.821268,74.020594,-8810.098227,-444.123565
3970.821592,-296.082377,-8886.707777,-74.020594
3970.821917,-370.102971,-8427.050478,-592.164754
3970.822241,0.000000,-8886.707777,-296.082377
3970.822566,0.000000,-8503.660028,-740.205942
3970.822890,148.041188,-8350.440928,-296.082377
3970.823214,370.102971,-8427.050478,-444.123565
3970.823539,592.164754,-8656.879127,-370.102971
3970.823863,666.185348,-8503.660028,-740.205942
3970.824188,888.247130,-8810.098227,-666.185348
3970.824512,74.020594,-8810.098227,-592.164754
3970.824836,0.000000,-8733.488677,-222.061783
3970.825161,0.000000,-8963.317327,-296.082377
3970.825485,-296.082377,-8503.660028,-370.102971
3970.825810,0.000000,-8503.660028,-296.082377
3970.826134,-148.041188,-8273.831378,-370.102971
3970.826459,74.020594,-8427.050478,0.000000
3970.826783,0.000000,-8350.440928,-296.082377
3970.827107,444.123565,-9193.145976,-518.144159
3970.827432,296.082377,-8350.440928,-444.123565
3970.827756,444.123565,-8350.440928,-370.102971
3970.828081,518.144159,-8427.050478,-296.082377
3970.828405,444.123565,-8810.098227,222.061783
3970.828729,0.000000,-8963.317327,0.000000
3970.829054,0.000000,-8044.002729,-296.082377
3970.829378,148.041188,-8963.317327,-222.061783
3970.829703,-222.061783,-8656.879127,-222.061783
3970.830027,-148.041188,-9039.926876,0.000000
3970.830351,-592.164754,-8044.002729,-370.102971
3970.830676,-370.102971,-8733.488677,0.000000
3970.831000,-148.041188,-8044.002729,-74.020594
3970.831325,666.185348,-7814.174080,-444.123565
3970.831649,296.082377,-8427.050478,0.000000
3970.831973,370.102971,-8427.050478,-74.020594
3970.832298,518.144159,-8580.269578,0.000000
3970.832622,222.061783,-8503.660028,-296.082377
3970.832947,444.123565,-9039.926876,74.020594
3970.833271,-296.082377,-8503.660028,-592.164754
3970.833596,148.041188,-8886.707777,148.041188
3970.833920,-222.061783,-8503.660028,-518.144159
3970.834244,0.000000,-8963.317327,0.000000
3970.834569,222.061783,-8120.612279,-740.205942
3970.834893,370.102971,-8503.660028,74.020594
3970.835218,666.185348,-8197.221829,-666.185348
3970.835542,1554.432478,-8120.612279,148.041188
3970.835866,1184.329507,-8350.440928,-370.102971
3970.836191,814.226536,-8580.269578,-370.102971
3970.836515,666.185348,-8810.098227,-518.144159
3970.836840,740.205942,-8427.050478,222.061783
3970.837164,222.061783,-8733.488677,-296.082377
3970.837488,0.000000,-8656.879127,-592.164754
3970.837813,296.082377,-8580.269578,-592.164754
3970.838137,74.020594,-8656.879127,-666.185348
3970.838462,296.082377,-8197.221829,-148.041188
3970.838786,518.144159,-8427.050478,-444.123565
3970.839111,666.185348,-8120.612279,-296.082377
3970.839435,1036.288319,-8350.440928,-370.102971
3970.839759,1480.411884,-8733.488677,-592.164754
3970.840084,740.205942,-8503.660028,-666.185348
3970.840408,592.164754,-8273.831378,-370.102971
3970.840733,74.020594,-8963.317327,-740.205942
3970.841057,222.061783,-9193.145976,-444.123565
3970.841381,222.061783,-8810.098227,-444.123565
3970.841706,370.102971,-8810.098227,-444.123565
3970.842030,444.123565,-8580.269578,-666.185348
3970.842355,666.185348,-8503.660028,74.020594
3970.842679,1554.432478,-8733.488677,-370.102971
3970.843003,1628.453072,-8580.269578,-296.082377
3970.843328,1480.411884,-8580.269578,-444.123565
3970.843652,1406.391290,-8733.488677,-222.061783
3970.843977,1480.411884,-8503.660028,-222.061783
3970.844301,888.247130,-9116.536426,-222.061783
3970.844625,740.205942,-8886.707777,-370.102971
3970.844950,296.082377,-8427.050478,-518.144159
3970.845274,518.144159,-8733.488677,-222.061783
3970.845599,814.226536,-8350.440928,0.000000
3970.845923,740.205942,-9116.536426,-296.082377
3970.846247,740.205942,-8273.831378,-148.041188
3970.846572,1110.308913,-8580.269578,0.000000
3970.846896,518.144159,-8427.050478,0.000000
3970.847221,888.247130,-8733.488677,0.000000
3970.847545,518.144159,-8580.269578,0.000000
3970.847869,444.123565,-8733.488677,0.000000
3970.848194,592.164754,-8350.440928,-370.102971
3970.848518,148.041188,-8963.317327,-222.061783
3970.848843,74.020594,-8656.879127,-148.041188
3970.849167,-296.082377,-8810.098227,0.000000
3970.849491,0.000000,-8580.269578,-296.082377
3970.849816,0.000000,-8656.879127,0.000000
3970.850140,222.061783,-8197.221829,-444.123565
