#time,accel_x,accel_y,accel_z
4528.764383,0.000000,-8656.879127,-444.123565
4528.764708,296.082377,-8197.221829,0.000000
4528.765032,296.082377,-8350.440928,222.061783
4528.765357,518.144159,-8810.098227,0.000000
4528.765682,814.226536,-8656.879127,-370.102971
4528.766006,370.102971,-8810.098227,370.102971
4528.766331,444.123565,-8656.879127,74.020594
4528.766656,444.123565,-8427.050478,370.102971
4528.766980,222.061783,-8656.879127,444.123565
4528.767305,222.061783,-8427.050478,296.082377
4528.767630,444.123565,-8963.317327,296.082377
4528.767954,444.123565,-8427.050478,296.082377
4528.768279,518.144159,-8580.269578,518.144159
4528.768604,370.102971,-8427.050478,592.164754
4528.768928,444.123565,-8350.440928,592.164754
4528.769253,296.082377,-8656.879127,592.164754
4528.769578,592.164754,-8427.050478,592.164754
4528.769902,814.226536,-8273.831378,888.247130
4528.770227,518.144159,-9039.926876,888.247130
4528.770552,0.000000,-8427.050478,592.164754
4528.770876,148.041188,-8886.707777,518.144159
4528.771201,0.000000,-8120.612279,518.144159
4528.771526,444.123565,-8350.440928,518.144159
4528.771850,148.041188,-8273.831378,518.144159
4528.772175,222.061783,-8656.879127,518.144159
4528.772500,518.144159,-8197.221829,296.082377
4528.772824,370.102971,-8656.879127,74.020594
4528.773149,592.164754,-8810.098227,444.123565
4528.773474,222.061783,-8503.660028,666.185348
4528.773798,592.164754,-8810.098227,592.164754
4528.774123,370.102971,-8197.221829,0.000000
4528.774447,444.123565,-8350.440928,222.061783
4528.774772,518.144159,-8810.098227,74.020594
4528.775096,370.102971,-8427.050478,370.102971
4528.775420,444.123565,-8427.050478,148.041188
4528.775745,444.123565,-8503.660028,74.020594
4528.776069,370.102971,-8503.660028,74.020594
4528.776393,592.164754,-8810.098227,0.000000
4528.776718,444.123565,-8733.488677,222.061783
4528.777042,592.164754,-8580.269578,-444.123565
4528.777366,370.102971,-8733.488677,0.000000
4528.777691,148.041188,-8503.660028,-148.041188
4528.778015,296.082377,-8886.707777,-370.102971
4528.778340,666.185348,-9346.365076,-888.247130
4528.778664,518.144159,-8503.660028,-444.123565
4528.778988,444.123565,-8273.831378,-666.185348
4528.779313,444.123565,-8580.269578,-518.144159
4528.779637,592.164754,-8503.660028,-888.247130
4528.779961,592.164754,-8503.660028,-666.185348
4528.780286,666.185348,-8503.660028,-740.205942
4528.780610,370.102971,-8580.269578,-592.164754
4528.780935,444.123565,-8197.221829,-592.164754
4528.781259,592.164754,-8350.440928,-888.247130
4528.781583,370.102971,-8733.488677,-1036.288319
4528.781908,888.247130,-8503.660028,-962.267725
4528.782232,592.164754,-8656.879127,-814.226536
4528.782556,444.123565,-8044.002729,-888.247130
4528.782881,518.144159,-8580.269578,-1258.350101
4528.783205,814.226536,-8733.488677,-1184.329507
4528.783529,666.185348,-8810.098227,-1110.308913
4528.783854,814.226536,-8656.879127,-888.247130
4528.784178,592.164754,-8656.879127,-888.247130
4528.784503,296.082377,-8580.269578,-740.205942
4528.784827,296.082377,-8963.317327,-1036.288319
4528.785151,370.102971,-9039.926876,-1036.288319
4528.785476,296.082377,-8044.002729,-888.247130
4528.785800,592.164754,-8427.050478,-1110.308913
4528.786124,222.061783,-9193.145976,-1036.288319
4528.786449,518.144159,-8273.831378,-1184.329507
4528.786773,518.144159,-8963.317327,-1110.308913
4528.787097,370.102971,-8580.269578,-1184.329507
4528.787422,296.082377,-8580.269578,-1036.288319
4528.787746,370.102971,-8733.488677,-1184.329507
4528.788071,0.000000,-8656.879127,-1110.308913
4528.788395,0.000000,-8733.488677,-962.267725
4528.788719,222.061783,-8580.269578,-1258.350101
4528.789044,222.061783,-8503.660028,-888.247130
4528.789368,148.041188,-8810.098227,-1110.308913
4528.789692,0.000000,-8656.879127,-1332.370696
4528.790017,296.082377,-8656.879127,-1110.308913
4528.790341,296.082377,-8810.098227,-1110.308913
4528.790665,74.020594,-8810.098227,-666.185348
4528.790990,222.061783,-8810.098227,-1184.329507
4528.791314,296.082377,-8656.879127,-962.267725
4528.791639,148.041188,-8350.440928,-666.185348
4528.791963,296.082377,-8733.488677,-814.226536
4528.792287,370.102971,-8580.269578,-592.164754
4528.792612,518.144159,-8503.660028,-370.102971
4528.792936,592.164754,-8503.660028,-666.185348
4528.793260,592.164754,-8580.269578,-518.144159
4528.793585,444.123565,-8580.269578,-666.185348
4528.793909,444.123565,-9116.536426,0.000000
4528.794234,370.102971,-8350.440928,-370.102971
4528.794558,666.185348,-8656.879127,-148.041188
4528.794882,666.185348,-8350.440928,-296.082377
4528.795207,592.164754,-7967.393179,-222.061783
4528.795531,740.205942,-8197.221829,-518.144159
4528.795855,666.185348,-8350.440928,0.000000
4528.796180,370.102971,-8427.050478,-222.061783
4528.796504,444.123565,-8810.098227,0.000000
4528.796828,740.205942,-8427.050478,-296.082377
4528.797153,888.247130,-9039.926876,0.000000
4528.797477,888.247130,-8810.098227,0.000000
4528.797802,592.164754,-8733.488677,0.000000
4528.798126,444.123565,-8810.098227,74.020594
4528.798450,740.205942,-8580.269578,74.020594
4528.798775,518.144159,-8656.879127,222.061783
4528.799099,888.247130,-8733.488677,592.164754
4528.799423,370.102971,-8427.050478,740.205942
4528.799748,592.164754,-8656.879127,370.102971
4528.800072,444.123565,-8503.660028,444.123565
4528.800396,518.144159,-8810.098227,592.164754
4528.800721,222.061783,-8733.488677,518.144159
4528.801045,592.164754,-8810.098227,814.226536
4528.801370,518.144159,-8503.660028,740.205942
4528.801694,666.185348,-8580.269578,888.247130
4528.802018,296.082377,-8427.050478,666.185348
4528.802343,814.226536,-9039.926876,1184.329507
4528.802667,370.102971,-8427.050478,814.226536
4528.802991,444.123565,-8273.831378,962.267725
4528.803316,296.082377,-8503.660028,740.205942
4528.803640,296.082377,-8427.050478,888.247130
4528.803964,296.082377,-8273.831378,444.123565
4528.804289,370.102971,-8580.269578,740.205942
4528.804613,444.123565,-8733.488677,740.205942
4528.804938,592.164754,-8350.440928,666.185348
4528.805262,518.144159,-7814.174080,740.205942
4528.805586,592.164754,-8273.831378,666.185348
4528.805911,444.123565,-8580.269578,444.123565
4528.806235,518.144159,-8350.440928,592.164754
4528.806559,444.123565,-8733.488677,962.267725
4528.806884,222.061783,-8656.879127,444.123565
4528.807208,0.000000,-8273.831378,444.123565
4528.807533,0.000000,-8427.050478,666.185348
4528.807857,74.020594,-8503.660028,296.082377
4528.808181,222.061783,-8350.440928,370.102971
4528.808506,0.000000,-8350.440928,444.123565
4528.808830,444.123565,-8656.879127,370.102971
4528.809154,518.144159,-8656.879127,222.061783
4528.809479,888.247130,-8810.098227,74.020594
4528.809803,740.205942,-8350.440928,296.082377
4528.810127,740.205942,-8656.879127,74.020594
4528.810452,370.102971,-8810.098227,222.061783
4528.810776,518.144159,-8656.879127,370.102971
4528.811101,666.185348,-8656.879127,0.000000
4528.811425,0.000000,-8427.050478,222.061783
4528.811749,74.020594,-8427.050478,0.000000
4528.812074,74.020594,-8656.879127,74.020594
4528.812398,444.123565,-8580.269578,-222.061783
4528.812722,444.123565,-8580.269578,-444.123565
4528.813047,370.102971,-8427.050478,-148.041188
4528.813371,592.164754,-8273.831378,-148.041188
4528.813695,1110.308913,-8427.050478,0.000000
4528.814020,444.123565,-8656.879127,0.000000
4528.814344,592.164754,-8656.879127,0.000000
4528.814669,296.082377,-8580.269578,-148.041188
4528.814993,74.020594,-8810.098227,444.123565
4528.815317,0.000000,-8580.269578,-148.041188
4528.815642,0.000000,-8580.269578,-148.041188
4528.815966,0.000000,-8273.831378,-296.082377
4528.816290,148.041188,-8580.269578,-370.102971
4528.816615,74.020594,-8044.002729,148.041188
4528.816939,296.082377,-8733.488677,-148.041188
4528.817263,296.082377,-8810.098227,-296.082377
4528.817588,666.185348,-8503.660028,-370.102971
4528.817912,1036.288319,-9116.536426,0.000000
4528.818237,444.123565,-8427.050478,-222.061783
4528.818561,444.123565,-8503.660028,-222.061783
4528.818885,444.123565,-8810.098227,-296.082377
4528.819210,222.061783,-8427.050478,0.000000
4528.819534,0.000000,-8810.098227,-296.082377
4528.819858,74.020594,-8580.269578,-370.102971
4528.820183,148.041188,-8044.002729,74.020594
4528.820507,0.000000,-8580.269578,-148.041188
4528.820831,0.000000,-8733.488677,0.000000
4528.821156,370.102971,-8656.879127,222.061783
4528.821480,444.123565,-8733.488677,74.020594
4528.821805,814.226536,-8886.707777,0.000000
4528.822129,518.144159,-7890.783629,296.082377
4528.822453,74.020594,-8427.050478,370.102971
4528.822778,222.061783,-8580.269578,0.000000
4528.823102,296.082377,-8810.098227,0.000000
4528.823426,0.000000,-8503.660028,0.000000
4528.823751,222.061783,-8580.269578,148.041188
4528.824075,0.000000,-8503.660028,0.000000
4528.824400,74.020594,-8503.660028,296.082377
4528.824724,444.123565,-8580.269578,0.000000
4528.825048,444.123565,-9116.536426,444.123565
4528.825373,370.102971,-8273.831378,148.041188
4528.825697,592.164754,-8810.098227,0.000000
4528.826021,518.144159,-8427.050478,0.000000
4528.826346,888.247130,-7967.393179,74.020594
4528.826670,518.144159,-8580.269578,0.000000
4528.826994,296.082377,-8350.440928,0.000000
4528.827319,74.020594,-8427.050478,-370.102971
4528.827643,74.020594,-8273.831378,-296.082377
4528.827968,148.041188,-8044.002729,-518.144159
4528.828292,296.082377,-8503.660028,-74.020594
4528.828616,296.082377,-8350.440928,-222.061783
4528.828941,370.102971,-8580.269578,0.000000
4528.829265,518.144159,-8427.050478,-444.123565
4528.829589,740.205942,-8503.660028,-148.041188
4528.829914,666.185348,-8810.098227,-296.082377
4528.830238,518.144159,-8503.660028,-518.144159
4528.830562,666.185348,-7814.174080,-370.102971
4528.830887,296.082377,-8273.831378,-518.144159
4528.831211,296.082377,-8580.269578,-518.144159
4528.831536,296.082377,-8580.269578,-444.123565
4528.831860,148.041188,-8580.269578,-666.185348
4528.832184,148.041188,-8427.050478,-296.082377
4528.832509,370.102971,-8733.488677,-592.164754
4528.832833,444.123565,-8580.269578,-518.144159
4528.833157,592.164754,-8503.660028,-296.082377
4528.833482,814.226536,-9652.803275,-740.205942
4528.833806,666.185348,-8656.879127,-666.185348
4528.834130,370.102971,-8350.440928,-962.267725
4528.834455,296.082377,-8656.879127,-962.267725
4528.834779,0.000000,-8656.879127,-1184.329507
4528.835104,0.000000,-8427.050478,-1110.308913
4528.835428,148.041188,-8503.660028,-740.205942
4528.835752,74.020594,-8656.879127,-962.267725
4528.836077,0.000000,-8580.269578,-1036.288319
4528.836401,444.123565,-8427.050478,-814.226536
4528.836725,74.020594,-8503.660028,-962.267725
4528.837050,444.123565,-9116.536426,-814.226536
4528.837374,370.102971,-8273.831378,-592.164754
4528.837699,296.082377,-8044.002729,-592.164754
4528.838023,74.020594,-8656.879127,-814.226536
4528.838347,444.123565,-8656.879127,-962.267725
4528.838672,222.061783,-8427.050478,-1258.350101
4528.838996,444.123565,-8580.269578,-740.205942
4528.839320,518.144159,-8120.612279,-888.247130
4528.839645,592.164754,-8656.879127,-740.205942
4528.839969,592.164754,-8350.440928,-814.226536
4528.840293,296.082377,-8656.879127,-740.205942
4528.840618,148.041188,-8733.488677,-666.185348
4528.840942,370.102971,-8273.831378,-444.123565
4528.841267,444.123565,-8350.440928,-888.247130
4528.841591,222.061783,-8656.879127,-518.144159
4528.841915,666.185348,-8350.440928,-1258.350101
4528.842240,444.123565,-8656.879127,-666.185348
4528.842564,666.185348,-8350.440928,-888.247130
4528.842888,592.164754,-8733.488677,-592.164754
4528.843213,666.185348,-8503.660028,-740.205942
4528.843537,888.247130,-8810.098227,-814.226536
4528.843861,518.144159,-9039.926876,-666.185348
4528.844186,444.123565,-8580.269578,-370.102971
4528.844510,518.144159,-8580.269578,-444.123565
4528.844835,592.164754,-8810.098227,-666.185348
4528.845159,518.144159,-8656.879127,-518.144159
4528.845483,888.247130,-8503.660028,-148.041188
4528.845808,518.144159,-8427.050478,-592.164754
4528.846132,222.061783,-9729.412825,0.000000
4528.846456,370.102971,-8580.269578,-518.144159
4528.846781,444.123565,-8580.269578,-370.102971
4528.847105,518.144159,-8273.831378,-444.123565
4528.847429,444.123565,-8963.317327,-296.082377
4528.847754,518.144159,-8350.440928,-444.123565
4528.848078,592.164754,-8810.098227,-518.144159
4528.848403,814.226536,-8886.707777,-74.020594
4528.848727,666.185348,-8580.269578,-148.041188
4528.849051,888.247130,-9039.926876,-222.061783
4528.849376,666.185348,-8963.317327,-296.082377
4528.849700,592.164754,-8580.269578,-296.082377
4528.850024,296.082377,-8810.098227,-74.020594
4528.850349,518.144159,-9039.926876,0.000000
4528.850673,814.226536,-8350.440928,-666.185348
4528.850998,888.247130,-9039.926876,-370.102971
4528.851322,814.226536,-8350.440928,-518.144159
4528.851646,666.185348,-8733.488677,-518.144159
4528.851971,740.205942,-8810.098227,-518.144159
4528.852295,592.164754,-8580.269578,-666.185348
4528.852619,814.226536,-8810.098227,-444.123565
4528.852944,296.082377,-8503.660028,-592.164754
4528.853268,370.102971,-9499.584175,-592.164754
4528.853592,666.185348,-8580.269578,-740.205942
4528.853917,518.144159,-8580.269578,-592.164754
4528.854241,444.123565,-8656.879127,-814.226536
4528.854566,592.164754,-8656.879127,-740.205942
4528.854890,518.144159,-8733.488677,-666.185348
4528.855214,0.000000,-8656.879127,-518.144159
4528.855539,518.144159,-8886.707777,-740.205942
4528.855863,666.185348,-8580.269578,-592.164754
4528.856187,1110.308913,-9039.926876,-592.164754
4528.856512,740.205942,-8886.707777,-814.226536
4528.856836,666.185348,-8733.488677,-740.205942
4528.857160,592.164754,-8810.098227,-740.205942
4528.857485,518.144159,-8963.317327,-444.123565
4528.857809,370.102971,-8886.707777,-1184.329507
4528.858134,814.226536,-8656.879127,-888.247130
4528.858458,222.061783,-8503.660028,-962.267725
4528.858782,148.041188,-8886.707777,-1036.288319
4528.859107,222.061783,-8503.660028,-1110.308913
4528.859431,74.020594,-8580.269578,-1184.329507
4528.859755,222.061783,-8503.660028,-1184.329507
4528.860080,148.041188,-8580.269578,-1110.308913
4528.860404,592.164754,-7967.393179,-1332.370696
4528.860728,444.123565,-8197.221829,-1924.535449
4528.861053,444.123565,-8656.879127,-1406.391290
4528.861377,444.123565,-8580.269578,-1702.473667
4528.861702,666.185348,-8503.660028,-1110.308913
4528.862026,444.123565,-8580.269578,-1850.514855
4528.862350,222.061783,-8886.707777,-1258.350101
4528.862675,222.061783,-8350.440928,-1406.391290
4528.862999,296.082377,-8886.707777,-1480.411884
4528.863323,518.144159,-8197.221829,-1554.432478
4528.863648,148.041188,-8503.660028,-1184.329507
4528.863972,666.185348,-8580.269578,-1332.370696
4528.864296,296.082377,-8273.831378,-1258.350101
4528.864621,740.205942,-8733.488677,-1036.288319
4528.864945,888.247130,-8503.660028,-1406.391290
4528.865270,592.164754,-8273.831378,-1332.370696
4528.865594,592.164754,-8580.269578,-1332.370696
4528.865918,592.164754,-8120.612279,-1258.350101
4528.866243,74.020594,-8580.269578,-1332.370696
4528.866567,370.102971,-8656.879127,-1184.329507
4528.866891,222.061783,-8427.050478,-370.102971
4528.867216,148.041188,-8580.269578,-740.205942
4528.867540,962.267725,-8656.879127,-518.144159
4528.867865,296.082377,-8120.612279,-444.123565
4528.868189,444.123565,-8656.879127,-370.102971
4528.868513,444.123565,-8350.440928,-444.123565
4528.868838,888.247130,-8273.831378,-444.123565
4528.869162,518.144159,-8656.879127,-592.164754
4528.869486,444.123565,-8350.440928,-370.102971
4528.869811,296.082377,-8580.269578,-296.082377
4528.870135,444.123565,-8503.660028,-222.061783
4528.870459,74.020594,-8656.879127,74.020594
4528.870784,296.082377,-8427.050478,0.000000
4528.871108,444.123565,-8733.488677,0.000000
4528.871433,518.144159,-8503.660028,0.000000
4528.871757,962.267725,-8963.317327,0.000000
4528.872081,370.102971,-8350.440928,74.020594
4528.872406,148.041188,-8810.098227,0.000000
4528.872730,222.061783,-8503.660028,0.000000
4528.873054,370.102971,-8810.098227,370.102971
4528.873379,444.123565,-8350.440928,0.000000
4528.873703,592.164754,-8580.269578,0.000000
4528.874027,740.205942,-8427.050478,222.061783
4528.874352,518.144159,-8886.707777,74.020594
4528.874676,444.123565,-8886.707777,148.041188
4528.875001,148.041188,-8733.488677,0.000000
4528.875325,592.164754,-8733.488677,74.020594
4528.875650,444.123565,-8350.440928,148.041188
4528.875974,592.164754,-9116.536426,148.041188
4528.876298,370.102971,-8273.831378,0.000000
4528.876623,370.102971,-8503.660028,0.000000
4528.876947,740.205942,-8810.098227,-296.082377
4528.877272,740.205942,-8427.050478,0.000000
4528.877596,444.123565,-8503.660028,0.000000
4528.877921,444.123565,-8810.098227,-370.102971
4528.878245,518.144159,-8350.440928,-296.082377
4528.878569,444.123565,-8886.707777,-222.061783
4528.878894,518.144159,-8733.488677,0.000000
4528.879218,296.082377,-8580.269578,-74.020594
4528.879543,370.102971,-8810.098227,-370.102971
4528.879867,296.082377,-8580.269578,-222.061783
4528.880192,666.185348,-8503.660028,-222.061783
4528.880516,370.102971,-8580.269578,-444.123565
4528.880840,370.102971,-8427.050478,-296.082377
4528.881165,370.102971,-8733.488677,-222.061783
4528.881489,592.164754,-8427.050478,-814.226536
4528.881814,814.226536,-8580.269578,-740.205942
4528.882138,518.144159,-8503.660028,-518.144159
4528.882463,962.267725,-8350.440928,-666.185348
4528.882787,444.123565,-8580.269578,-814.226536
4528.883112,444.123565,-8886.707777,-370.102971
4528.883436,444.123565,-8580.269578,-962.267725
4528.883760,222.061783,-8810.098227,-814.226536
4528.884085,222.061783,-8580.269578,-592.164754
4528.884409,814.226536,-9116.536426,-740.205942
4528.884734,444.123565,-8733.488677,-592.164754
4528.885058,370.102971,-8197.221829,-592.164754
4528.885383,740.205942,-8580.269578,-814.226536
4528.885707,592.164754,-8580.269578,-962.267725
4528.886031,518.144159,-8350.440928,-740.205942
4528.886356,518.144159,-8427.050478,-888.247130
4528.886680,592.164754,-8044.002729,-962.267725
4528.887005,444.123565,-8580.269578,-888.247130
4528.887329,1036.288319,-8733.488677,-1036.288319
4528.887654,518.144159,-8427.050478,-666.185348
4528.887978,518.144159,-8273.831378,-962.267725
4528.888302,592.164754,-8273.831378,-666.185348
4528.888627,888.247130,-8350.440928,-740.205942
4528.888951,370.102971,-8273.831378,-814.226536
4528.889276,518.144159,-8273.831378,-666.185348
4528.889600,370.102971,-8044.002729,-518.144159
4528.889925,444.123565,-8810.098227,-814.226536
4528.890249,444.123565,-8427.050478,-222.061783
4528.890574,518.144159,-8580.269578,-296.082377
4528.890898,296.082377,-8427.050478,-444.123565
4528.891222,518.144159,-8427.050478,-296.082377
4528.891547,592.164754,-8580.269578,-222.061783
4528.891871,518.144159,-8810.098227,0.000000
4528.892196,518.144159,-8197.221829,-518.144159
4528.892520,74.020594,-8580.269578,0.000000
4528.892845,592.164754,-8197.221829,296.082377
4528.893169,370.102971,-8427.050478,-148.041188
4528.893493,518.144159,-8733.488677,0.000000
4528.893818,444.123565,-8197.221829,0.000000
4528.894142,518.144159,-8350.440928,0.000000
4528.894467,592.164754,-8273.831378,296.082377
4528.894791,296.082377,-8350.440928,-296.082377
4528.895116,296.082377,-8733.488677,-74.020594
4528.895440,444.123565,-8350.440928,-148.041188
4528.895764,592.164754,-9422.974625,222.061783
4528.896089,592.164754,-8427.050478,-444.123565
4528.896413,518.144159,-8503.660028,0.000000
4528.896738,222.061783,-8503.660028,0.000000
4528.897062,444.123565,-8656.879127,148.041188
4528.897387,370.102971,-8656.879127,222.061783
4528.897711,444.123565,-8503.660028,0.000000
4528.898036,370.102971,-8503.660028,74.020594
4528.898360,592.164754,-8656.879127,444.123565
4528.898684,444.123565,-8656.879127,222.061783
4528.899009,592.164754,-8656.879127,370.102971
4528.899333,518.144159,-8656.879127,0.000000
4528.899658,592.164754,-8580.269578,148.041188
4528.899982,1036.288319,-8580.269578,0.000000
4528.900307,518.144159,-8733.488677,74.020594
4528.900631,296.082377,-8963.317327,0.000000
4528.900955,370.102971,-8503.660028,0.000000
4528.901280,518.144159,-8963.317327,0.000000
4528.901604,74.020594,-8503.660028,296.082377
4528.901929,296.082377,-9039.926876,0.000000
4528.902253,222.061783,-8656.879127,222.061783
4528.902578,370.102971,-8503.660028,0.000000
4528.902902,740.205942,-8733.488677,-444.123565
4528.903227,666.185348,-8580.269578,0.000000
4528.903551,592.164754,-8656.879127,-222.061783
4528.903875,444.123565,-8810.098227,0.000000
4528.904200,1036.288319,-8886.707777,-370.102971
4528.904524,1036.288319,-9193.145976,0.000000
4528.904849,666.185348,-8810.098227,0.000000
4528.905173,740.205942,-8963.317327,0.000000
4528.905498,666.185348,-8656.879127,0.000000
4528.905822,444.123565,-8810.098227,74.020594
4528.906146,222.061783,-9039.926876,-222.061783
4528.906471,444.123565,-8427.050478,0.000000
4528.906795,444.123565,-8580.269578,74.020594
4528.907120,592.164754,-8580.269578,0.000000
4528.907444,370.102971,-8656.879127,0.000000
4528.907769,370.102971,-8503.660028,0.000000
4528.908093,592.164754,-8427.050478,-148.041188
4528.908417,740.205942,-8350.440928,0.000000
4528.908742,444.123565,-8810.098227,-148.041188
4528.909066,296.082377,-8656.879127,-370.102971
4528.909391,370.102971,-8427.050478,-296.082377
4528.909715,296.082377,-8733.488677,0.000000
4528.910040,444.123565,-8427.050478,148.041188
4528.910364,222.061783,-8503.660028,0.000000
4528.910689,148.041188,-8580.269578,-222.061783
4528.911013,148.041188,-8273.831378,0.000000
4528.911337,444.123565,-8120.612279,-370.102971
4528.911662,444.123565,-8197.221829,-296.082377
4528.911986,148.041188,-8503.660028,0.000000
4528.912311,222.061783,-8273.831378,-444.123565
4528.912635,518.144159,-8810.098227,0.000000
4528.912960,222.061783,-8656.879127,-444.123565
4528.913284,222.061783,-8810.098227,-296.082377
4528.913608,444.123565,-8656.879127,-148.041188
4528.913933,0.000000,-8656.879127,0.000000
4528.914257,222.061783,-8580.269578,-222.061783
4528.914582,370.102971,-8656.879127,-148.041188
4528.914906,444.123565,-8733.488677,-222.061783
4528.915231,148.041188,-8656.879127,0.000000
4528.915555,444.123565,-8963.317327,0.000000
4528.915879,148.041188,-8503.660028,222.061783
4528.916204,296.082377,-8656.879127,-148.041188
4528.916528,370.102971,-8733.488677,0.000000
4528.916853,296.082377,-8580.269578,0.000000
4528.917177,666.185348,-8503.660028,-74.020594
4528.917502,518.144159,-8427.050478,0.000000
4528.917826,444.123565,-9039.926876,148.041188
4528.918151,370.102971,-8503.660028,0.000000
4528.918475,814.226536,-9193.145976,0.000000
4528.918799,296.082377,-8733.488677,0.000000
4528.919124,148.041188,-8733.488677,148.041188
4528.919448,148.041188,-8886.707777,222.061783
4528.919773,296.082377,-8963.317327,0.000000
4528.920097,222.061783,-8580.269578,0.000000
4528.920422,370.102971,-8733.488677,0.000000
4528.920746,518.144159,-8503.660028,0.000000
4528.921070,518.144159,-8656.879127,0.000000
4528.921395,444.123565,-8810.098227,0.000000
4528.921719,592.164754,-8656.879127,0.000000
4528.922044,518.144159,-8656.879127,-74.020594
4528.922368,0.000000,-8810.098227,148.041188
4528.922693,74.020594,-8886.707777,0.000000
4528.923017,370.102971,-8656.879127,0.000000
4528.923341,0.000000,-8580.269578,0.000000
4528.923666,370.102971,-8656.879127,-222.061783
4528.923990,444.123565,-8273.831378,148.041188
4528.924315,444.123565,-8044.002729,0.000000
4528.924639,148.041188,-8810.098227,-148.041188
4528.924964,370.102971,-8273.831378,-222.061783
4528.925288,370.102971,-8503.660028,-444.123565
4528.925613,518.144159,-9116.536426,-370.102971
4528.925937,222.061783,-8733.488677,-370.102971
4528.926261,444.123565,-8810.098227,0.000000
4528.926586,0.000000,-8810.098227,0.000000
4528.926910,0.000000,-9422.974625,148.041188
4528.927235,296.082377,-8963.317327,74.020594
4528.927559,74.020594,-8810.098227,-222.061783
4528.927884,222.061783,-8427.050478,0.000000
4528.928208,296.082377,-9193.145976,222.061783
4528.928532,296.082377,-8580.269578,0.000000
4528.928857,444.123565,-8656.879127,-444.123565
4528.929181,444.123565,-8733.488677,-148.041188
4528.929506,296.082377,-8427.050478,0.000000
4528.929830,148.041188,-9039.926876,-296.082377
4528.930155,296.082377,-8503.660028,-666.185348
4528.930479,444.123565,-8810.098227,-296.082377
4528.930804,74.020594,-8656.879127,-518.144159
4528.931128,296.082377,-8810.098227,-296.082377
4528.931452,148.041188,-8656.879127,-296.082377
4528.931777,296.082377,-8810.098227,-444.123565
4528.932101,222.061783,-8580.269578,-444.123565
4528.932426,370.102971,-9039.926876,-370.102971
4528.932750,74.020594,-8197.221829,-296.082377
4528.933075,222.061783,-8656.879127,-148.041188
4528.933399,74.020594,-8120.612279,-296.082377
4528.933723,222.061783,-8273.831378,-370.102971
4528.934048,0.000000,-8427.050478,-444.123565
4528.934372,370.102971,-8273.831378,-666.185348
4528.934697,518.144159,-8427.050478,-592.164754
4528.935021,444.123565,-8580.269578,-296.082377
4528.935346,740.205942,-8886.707777,-444.123565
4528.935670,296.082377,-8427.050478,-444.123565
4528.935994,296.082377,-8350.440928,-296.082377
4528.936319,0.000000,-8350.440928,-370.102971
4528.936643,148.041188,-8580.269578,-296.082377
4528.936968,0.000000,-8427.050478,0.000000
4528.937292,0.000000,-8427.050478,-296.082377
4528.937617,592.164754,-8656.879127,-740.205942
4528.937941,666.185348,-8120.612279,-296.082377
4528.938266,1110.308913,-8580.269578,-518.144159
4528.938590,666.185348,-8503.660028,-814.226536
4528.938914,666.185348,-8503.660028,-592.164754
4528.939239,592.164754,-8580.269578,-518.144159
4528.939563,518.144159,-9193.145976,0.000000
4528.939888,148.041188,-8503.660028,-370.102971
4528.940212,370.102971,-8733.488677,-518.144159
4528.940537,74.020594,-8580.269578,-518.144159
4528.940861,444.123565,-8810.098227,-148.041188
4528.941185,592.164754,-8733.488677,-148.041188
4528.941510,370.102971,-8273.831378,-222.061783
4528.941834,370.102971,-8733.488677,-222.061783
4528.942159,444.123565,-8580.269578,-370.102971
4528.942483,1036.288319,-8197.221829,0.000000
4528.942808,296.082377,-8427.050478,-370.102971
4528.943132,296.082377,-8810.098227,-222.061783
4528.943456,370.102971,-9039.926876,-222.061783
4528.943781,296.082377,-9652.803275,0.000000
4528.944105,444.123565,-8810.098227,-148.041188
4528.944430,518.144159,-8810.098227,-296.082377
4528.944754,666.185348,-8427.050478,-370.102971
4528.945079,666.185348,-8350.440928,0.000000
4528.945403,592.164754,-8733.488677,0.000000
4528.945728,518.144159,-8427.050478,-296.082377
4528.946052,444.123565,-8427.050478,-148.041188
4528.946376,370.102971,-8810.098227,-370.102971
4528.946701,444.123565,-8273.831378,0.000000
4528.947025,592.164754,-8580.269578,-222.061783
4528.947350,222.061783,-8503.660028,-444.123565
4528.947674,592.164754,-8580.269578,-592.164754
4528.947999,592.164754,-8580.269578,-444.123565
4528.948323,518.144159,-8580.269578,0.000000
4528.948647,518.144159,-8656.879127,-518.144159
4528.948972,592.164754,-8810.098227,-444.123565
4528.949296,444.123565,-8197.221829,-666.185348
4528.949621,518.144159,-8580.269578,-222.061783
4528.949945,296.082377,-8580.269578,-296.082377
4528.950270,444.123565,-8810.098227,-148.041188
4528.950594,444.123565,-8427.050478,-444.123565
4528.950919,518.144159,-7660.954980,0.000000
4528.951243,814.226536,-8273.831378,-518.144159
4528.951567,1184.329507,-8580.269578,-222.061783
4528.951892,740.205942,-8350.440928,-296.082377
4528.952216,592.164754,-8963.317327,-370.102971
4528.952541,592.164754,-8503.660028,-444.123565
4528.952865,518.144159,-8580.269578,-296.082377
4528.953190,370.102971,-8886.707777,-296.082377
4528.953514,148.041188,-8503.660028,-148.041188
4528.953838,74.020594,-7967.393179,-222.061783
4528.954163,518.144159,-8580.269578,-222.061783
4528.954487,444.123565,-8273.831378,-296.082377
4528.954812,592.164754,-8656.879127,-222.061783
4528.955136,740.205942,-8580.269578,148.041188
4528.955461,592.164754,-8197.221829,-444.123565
4528.955785,592.164754,-8733.488677,-740.205942
4528.956109,592.164754,-8427.050478,-666.185348
4528.956434,518.144159,-8580.269578,-740.205942
4528.956758,370.102971,-8656.879127,-666.185348
4528.957083,296.082377,-8656.879127,-444.123565
4528.957407,370.102971,-8580.269578,-814.226536
4528.957732,296.082377,-8733.488677,-740.205942
4528.958056,814.226536,-8273.831378,-888.247130
4528.958381,444.123565,-8580.269578,-740.205942
4528.958705,814.226536,-8427.050478,-814.226536
4528.959029,666.185348,-8580.269578,-962.267725
4528.959354,518.144159,-7967.393179,-592.164754
4528.959678,518.144159,-8273.831378,-1036.288319
4528.960003,518.144159,-8503.660028,-888.247130
4528.960327,666.185348,-8580.269578,-962.267725
4528.960652,296.082377,-8810.098227,-740.205942
4528.960976,296.082377,-8886.707777,-888.247130
4528.961300,370.102971,-8656.879127,-814.226536
4528.961625,592.164754,-8810.098227,-740.205942
4528.961949,518.144159,-8427.050478,-592.164754
4528.962274,666.185348,-8197.221829,-444.123565
4528.962598,518.144159,-8350.440928,-518.144159
4528.962923,592.164754,-8350.440928,-592.164754
4528.963247,740.205942,-8427.050478,-814.226536
4528.963571,666.185348,-8886.707777,-296.082377
4528.963896,444.123565,-8733.488677,-518.144159
4528.964220,592.164754,-8350.440928,-666.185348
4528.964545,666.185348,-8427.050478,-666.185348
4528.964869,370.102971,-8427.050478,-740.205942
4528.965194,666.185348,-9039.926876,-666.185348
4528.965518,592.164754,-8503.660028,-666.185348
4528.965843,592.164754,-8656.879127,-592.164754
4528.966167,296.082377,-8886.707777,-666.185348
4528.966491,518.144159,-9039.926876,-666.185348
4528.966816,518.144159,-8656.879127,-666.185348
4528.967140,444.123565,-8656.879127,-518.144159
4528.967465,444.123565,-8503.660028,-518.144159
4528.967789,222.061783,-8656.879127,-518.144159
4528.968114,74.020594,-8350.440928,-592.164754
4528.968438,222.061783,-8350.440928,-592.164754
4528.968762,592.164754,-9039.926876,-666.185348
4528.969087,518.144159,-8273.831378,-592.164754
4528.969411,148.041188,-8273.831378,-666.185348
4528.969736,444.123565,-8656.879127,-666.185348
4528.970060,592.164754,-8503.660028,-592.164754
4528.970385,518.144159,-8810.098227,-518.144159
4528.970709,148.041188,-8733.488677,-222.061783
4528.971033,74.020594,-8427.050478,-296.082377
4528.971358,370.102971,-8733.488677,-222.061783
4528.971682,222.061783,-8197.221829,-444.123565
4528.972007,444.123565,-8656.879127,-222.061783
4528.972331,444.123565,-8197.221829,0.000000
4528.972656,518.144159,-8350.440928,-148.041188
4528.972980,592.164754,-8427.050478,-444.123565
4528.973305,444.123565,-8350.440928,-222.061783
4528.973629,666.185348,-8427.050478,-592.164754
4528.973953,296.082377,-8963.317327,-518.144159
4528.974278,222.061783,-8733.488677,-148.041188
4528.974602,370.102971,-8427.050478,-222.061783
4528.974927,148.041188,-8044.002729,-296.082377
4528.975251,370.102971,-8580.269578,-370.102971
4528.975575,370.102971,-8733.488677,-592.164754
4528.975900,296.082377,-8197.221829,0.000000
4528.976224,148.041188,-8120.612279,-370.102971
4528.976548,444.123565,-8350.440928,-666.185348
4528.976873,592.164754,-8350.440928,-518.144159
4528.977197,444.123565,-8580.269578,-666.185348
4528.977521,518.144159,-8656.879127,-666.185348
4528.977846,592.164754,-9116.536426,-518.144159
4528.978170,444.123565,-8886.707777,-296.082377
4528.978494,0.000000,-8733.488677,-222.061783
4528.978818,222.061783,-8580.269578,-518.144159
4528.979143,592.164754,-9269.755526,-444.123565
4528.979467,592.164754,-8273.831378,-518.144159
4528.979791,518.144159,-8810.098227,-370.102971
4528.980116,518.144159,-8503.660028,-666.185348
4528.980440,518.144159,-8503.660028,-592.164754
4528.980764,296.082377,-8580.269578,-888.247130
4528.981088,444.123565,-8810.098227,-518.144159
4528.981413,444.123565,-8273.831378,-518.144159
4528.981737,740.205942,-8810.098227,-444.123565
4528.982061,370.102971,-8197.221829,-962.267725
4528.982386,666.185348,-9039.926876,-814.226536
4528.982710,666.185348,-8580.269578,-888.247130
4528.983034,518.144159,-8580.269578,-370.102971
4528.983359,222.061783,-8656.879127,-814.226536
4528.983683,296.082377,-8963.317327,-666.185348
4528.984007,518.144159,-8580.269578,-740.205942
4528.984331,370.102971,-8503.660028,-962.267725
4528.984656,518.144159,-8503.660028,-740.205942
4528.984980,888.247130,-8427.050478,-518.144159
4528.985304,666.185348,-8427.050478,-518.144159
4528.985629,666.185348,-8580.269578,-814.226536
4528.985953,592.164754,-8580.269578,-740.205942
4528.986277,592.164754,-8656.879127,-740.205942
4528.986602,592.164754,-8503.660028,-740.205942
4528.986926,592.164754,-8963.317327,-740.205942
4528.987250,370.102971,-8580.269578,-444.123565
4528.987574,296.082377,-8580.269578,-444.123565
4528.987899,148.041188,-8733.488677,-444.123565
4528.988223,296.082377,-8656.879127,-296.082377
4528.988547,370.102971,-8810.098227,-370.102971
4528.988872,444.123565,-8350.440928,-370.102971
4528.989196,814.226536,-8733.488677,-222.061783
4528.989520,740.205942,-8503.660028,-740.205942
4528.989844,592.164754,-8503.660028,0.000000
4528.990169,296.082377,-8427.050478,-444.123565
4528.990493,222.061783,-9346.365076,-148.041188
4528.990817,518.144159,-8503.660028,-444.123565
4528.991142,370.102971,-9116.536426,-518.144159
4528.991466,666.185348,-8810.098227,-370.102971
4528.991790,148.041188,-8886.707777,-148.041188
4528.992115,0.000000,-8427.050478,-222.061783
4528.992439,222.061783,-8427.050478,-296.082377
4528.992763,74.020594,-8580.269578,-592.164754
4528.993087,592.164754,-8350.440928,-296.082377
4528.993412,222.061783,-8044.002729,0.000000
4528.993736,370.102971,-8580.269578,-148.041188
4528.994060,592.164754,-8427.050478,-370.102971
4528.994385,666.185348,-8427.050478,-592.164754
4528.994709,666.185348,-9193.145976,0.000000
4528.995033,444.123565,-8580.269578,-444.123565
4528.995358,222.061783,-8886.707777,-222.061783
4528.995682,518.144159,-8810.098227,-444.123565
4528.996006,444.123565,-8580.269578,-518.144159
4528.996330,296.082377,-8733.488677,-222.061783
4528.996655,444.123565,-8810.098227,-296.082377
4528.996979,444.123565,-8273.831378,0.000000
4528.997303,148.041188,-8580.269578,-296.082377
4528.997628,222.061783,-8810.098227,444.123565
4528.997952,296.082377,-8427.050478,-296.082377
4528.998276,666.185348,-8656.879127,-370.102971
4528.998600,666.185348,-8733.488677,-592.164754
4528.998925,740.205942,-9193.145976,-222.061783
4528.999249,148.041188,-8503.660028,-370.102971
4528.999573,518.144159,-8810.098227,-518.144159
4528.999898,592.164754,-9039.926876,-592.164754
4529.000222,444.123565,-8273.831378,-370.102971
4529.000546,444.123565,-8580.269578,-518.144159
4529.000871,444.123565,-8656.879127,-518.144159
4529.001195,666.185348,-8810.098227,-592.164754
4529.001519,444.123565,-8886.707777,-592.164754
4529.001843,296.082377,-8733.488677,-370.102971
4529.002168,370.102971,-8350.440928,0.000000
4529.002492,296.082377,-8810.098227,-296.082377
4529.002816,370.102971,-8503.660028,-518.144159
4529.003141,518.144159,-9039.926876,-370.102971
4529.003465,592.164754,-8580.269578,-518.144159
4529.003789,592.164754,-8427.050478,-296.082377
4529.004114,740.205942,-8656.879127,-444.123565
4529.004438,518.144159,-8886.707777,0.000000
4529.004762,666.185348,-8427.050478,-222.061783
4529.005086,148.041188,-8503.660028,-370.102971
4529.005411,444.123565,-8733.488677,0.000000
4529.005735,222.061783,-8427.050478,-296.082377
4529.006059,296.082377,-9116.536426,-148.041188
4529.006384,518.144159,-8044.002729,-370.102971
4529.006708,222.061783,-8810.098227,-296.082377
4529.007032,592.164754,-8656.879127,-370.102971
4529.007356,444.123565,-8273.831378,0.000000
4529.007681,444.123565,-8580.269578,-296.082377
4529.008005,370.102971,-8273.831378,-222.061783
4529.008329,814.226536,-8656.879127,-148.041188
4529.008654,518.144159,-8503.660028,-370.102971
4529.008978,1110.308913,-8656.879127,-444.123565
4529.009302,222.061783,-8580.269578,-222.061783
4529.009627,222.061783,-8580.269578,-296.082377
4529.009951,222.061783,-8733.488677,-148.041188
4529.010275,370.102971,-8810.098227,-370.102971
4529.010599,74.020594,-8197.221829,148.041188
4529.010924,148.041188,-8120.612279,0.000000
4529.011248,222.061783,-8733.488677,0.000000
4529.011572,296.082377,-8273.831378,-222.061783
4529.011897,296.082377,-8810.098227,-296.082377
4529.012221,370.102971,-8580.269578,-296.082377
4529.012545,296.082377,-8656.879127,-222.061783
4529.012870,296.082377,-8810.098227,0.000000
4529.013194,222.061783,-8580.269578,0.000000
4529.013518,0.000000,-8503.660028,-222.061783
4529.013842,0.000000,-8350.440928,0.000000
4529.014167,222.061783,-8350.440928,0.000000
4529.014491,222.061783,-8580.269578,0.000000
4529.014815,370.102971,-8656.879127,0.000000
4529.015140,370.102971,-8350.440928,0.000000
4529.015464,666.185348,-8580.269578,-222.061783
4529.015788,370.102971,-8580.269578,-148.041188
4529.016112,592.164754,-8503.660028,-370.102971
4529.016437,296.082377,-8503.660028,-222.061783
4529.016761,444.123565,-8503.660028,-222.061783
4529.017085,296.082377,-8886.707777,-296.082377
4529.017410,1258.350101,-8733.488677,-296.082377
4529.017734,296.082377,-8886.707777,-222.061783
4529.018058,74.020594,-8503.660028,0.000000
4529.018383,518.144159,-8427.050478,-296.082377
4529.018707,222.061783,-8427.050478,-296.082377
4529.019031,518.144159,-8580.269578,0.000000
4529.019355,0.000000,-8503.660028,148.041188
4529.019680,0.000000,-8503.660028,74.020594
4529.020004,296.082377,-8503.660028,0.000000
4529.020328,962.267725,-8273.831378,-296.082377
4529.020653,518.144159,-8810.098227,-148.041188
4529.020977,518.144159,-8273.831378,-148.041188
4529.021301,592.164754,-8733.488677,0.000000
4529.021625,444.123565,-7967.393179,74.020594
4529.021950,444.123565,-8656.879127,0.000000
4529.022274,592.164754,-8733.488677,-222.061783
4529.022598,0.000000,-8580.269578,0.000000
4529.022923,296.082377,-8810.098227,0.000000
4529.023247,444.123565,-8427.050478,0.000000
4529.023571,222.061783,-8273.831378,0.000000
4529.023896,592.164754,-8580.269578,-296.082377
4529.024220,370.102971,-8733.488677,-148.041188
4529.024544,1036.288319,-8733.488677,0.000000
4529.024868,296.082377,-8350.440928,-444.123565
4529.025193,592.164754,-8733.488677,-222.061783
4529.025517,592.164754,-8656.879127,0.000000
4529.025841,74.020594,-9116.536426,0.000000
4529.026166,148.041188,-8810.098227,-148.041188
4529.026490,0.000000,-8810.098227,0.000000
4529.026814,444.123565,-8580.269578,-222.061783
4529.027139,74.020594,-8427.050478,-222.061783
4529.027463,148.041188,-8503.660028,-222.061783
4529.027787,296.082377,-8580.269578,148.041188
4529.028111,444.123565,-8197.221829,0.000000
4529.028436,666.185348,-8350.440928,0.000000
4529.028760,444.123565,-8580.269578,0.000000
4529.029084,518.144159,-8197.221829,-222.061783
4529.029409,666.185348,-8503.660028,-296.082377
4529.029733,296.082377,-8273.831378,-444.123565
4529.030057,740.205942,-8810.098227,0.000000
4529.030381,296.082377,-8656.879127,-148.041188
4529.030706,222.061783,-8503.660028,0.000000
4529.031030,148.041188,-8503.660028,-222.061783
4529.031354,518.144159,-8120.612279,0.000000
4529.031679,222.061783,-8733.488677,0.000000
4529.032003,296.082377,-8427.050478,0.000000
4529.032327,444.123565,-8273.831378,-222.061783
4529.032652,444.123565,-8197.221829,-222.061783
4529.032976,888.247130,-8350.440928,296.082377
4529.033300,444.123565,-8273.831378,0.000000
4529.033624,222.061783,-8580.269578,-296.082377
4529.033949,518.144159,-8503.660028,-370.102971
4529.034273,518.144159,-7814.174080,-296.082377
4529.034597,296.082377,-8656.879127,-222.061783
4529.034922,518.144159,-8580.269578,0.000000
4529.035246,74.020594,-8810.098227,0.000000
4529.035570,444.123565,-8810.098227,0.000000
4529.035895,296.082377,-8656.879127,0.000000
4529.036219,444.123565,-9039.926876,74.020594
4529.036543,148.041188,-8120.612279,0.000000
4529.036867,296.082377,-8580.269578,74.020594
4529.037192,518.144159,-9193.145976,0.000000
4529.037516,0.000000,-8580.269578,0.000000
4529.037840,444.123565,-8503.660028,-148.041188
4529.038165,592.164754,-8580.269578,-222.061783
4529.038489,518.144159,-8810.098227,0.000000
4529.038813,74.020594,-9039.926876,-148.041188
4529.039137,296.082377,-8656.879127,74.020594
4529.039462,0.000000,-8656.879127,-296.082377
4529.039786,222.061783,-9039.926876,-148.041188
4529.040110,-370.102971,-9116.536426,74.020594
4529.040435,0.000000,-8886.707777,0.000000
4529.040759,222.061783,-8580.269578,-222.061783
4529.041083,222.061783,-8656.879127,-296.082377
4529.041408,666.185348,-8503.660028,-518.144159
4529.041732,444.123565,-8350.440928,0.000000
4529.042056,666.185348,-8580.269578,-222.061783
4529.042380,518.144159,-8886.707777,-296.082377
4529.042705,592.164754,-8503.660028,-518.144159
4529.043029,444.123565,-8580.269578,-370.102971
4529.043353,740.205942,-8503.660028,-444.123565
4529.043678,444.123565,-8963.317327,-148.041188
4529.044002,518.144159,-8580.269578,-370.102971
4529.044326,444.123565,-8273.831378,-296.082377
4529.044651,592.164754,-8810.098227,-444.123565
4529.044975,666.185348,-8427.050478,0.000000
4529.045299,592.164754,-8273.831378,0.000000
4529.045623,740.205942,-9039.926876,-740.205942
4529.045948,666.185348,-8503.660028,-296.082377
4529.046272,666.185348,-8503.660028,-296.082377
4529.046596,666.185348,-8810.098227,-148.041188
4529.046921,518.144159,-8427.050478,-222.061783
4529.047245,296.082377,-8810.098227,-222.061783
4529.047569,592.164754,-8733.488677,-222.061783
4529.047893,592.164754,-8656.879127,-222.061783
4529.048218,444.123565,-8810.098227,-518.144159
4529.048542,814.226536,-8733.488677,0.000000
4529.048866,444.123565,-8580.269578,0.000000
4529.049191,592.164754,-8656.879127,-148.041188
4529.049515,222.061783,-8273.831378,0.000000
4529.049839,888.247130,-9346.365076,0.000000
4529.050164,814.226536,-8350.440928,-296.082377
4529.050488,444.123565,-8580.269578,0.000000
4529.050812,444.123565,-8580.269578,-296.082377
4529.051136,518.144159,-8580.269578,-444.123565
4529.051461,296.082377,-8886.707777,-296.082377
4529.051785,296.082377,-8886.707777,-518.144159
4529.052109,518.144159,-8580.269578,-296.082377
4529.052434,148.041188,-8886.707777,-518.144159
4529.052758,-296.082377,-9346.365076,-444.123565
4529.053082,666.185348,-8733.488677,-518.144159
4529.053407,0.000000,-8886.707777,-592.164754
4529.053731,296.082377,-8503.660028,-444.123565
4529.054055,296.082377,-8503.660028,-370.102971
4529.054379,0.000000,-8733.488677,-370.102971
4529.054704,444.123565,-8197.221829,-444.123565
4529.055028,518.144159,-8427.050478,-666.185348
4529.055352,370.102971,-8580.269578,-444.123565
4529.055677,444.123565,-7890.783629,-222.061783
4529.056001,444.123565,-8580.269578,-592.164754
4529.056325,592.164754,-8810.098227,-814.226536
4529.056649,444.123565,-8503.660028,-518.144159
4529.056974,444.123565,-8273.831378,-666.185348
4529.057298,444.123565,-8656.879127,-370.102971
4529.057622,222.061783,-8427.050478,-222.061783
4529.057947,296.082377,-8656.879127,-444.123565
4529.058271,370.102971,-8580.269578,-370.102971
4529.058595,370.102971,-8810.098227,-296.082377
4529.058920,592.164754,-8810.098227,-518.144159
4529.059244,592.164754,-8197.221829,-592.164754
4529.059568,444.123565,-8963.317327,-666.185348
4529.059892,296.082377,-8503.660028,-148.041188
4529.060217,740.205942,-8656.879127,-518.144159
4529.060541,444.123565,-8963.317327,-518.144159
4529.060865,222.061783,-8733.488677,-370.102971
4529.061190,74.020594,-8810.098227,0.000000
4529.061514,592.164754,-8733.488677,0.000000
4529.061838,370.102971,-8273.831378,-592.164754
4529.062163,666.185348,-8963.317327,-444.123565
4529.062487,518.144159,-8427.050478,-518.144159
4529.062811,370.102971,-8580.269578,-74.020594
4529.063135,592.164754,-8427.050478,-592.164754
4529.063460,666.185348,-8427.050478,-518.144159
4529.063784,814.226536,-8580.269578,-740.205942
4529.064108,518.144159,-7431.126331,-592.164754
4529.064433,592.164754,-8656.879127,-296.082377
4529.064757,222.061783,-8733.488677,-592.164754
4529.065081,222.061783,-8886.707777,-444.123565
4529.065405,370.102971,-8656.879127,-370.102971
4529.065730,370.102971,-8503.660028,-518.144159
4529.066054,222.061783,-8427.050478,-148.041188
4529.066378,222.061783,-8580.269578,-370.102971
4529.066703,444.123565,-8580.269578,-518.144159
4529.067027,592.164754,-8350.440928,-592.164754
4529.067351,444.123565,-8427.050478,-592.164754
4529.067676,592.164754,-8733.488677,-370.102971
4529.068000,296.082377,-8273.831378,-518.144159
4529.068324,962.267725,-8886.707777,-592.164754
4529.068648,592.164754,-8580.269578,-666.185348
4529.068973,370.102971,-9039.926876,-444.123565
4529.069297,370.102971,-8580.269578,-444.123565
4529.069621,222.061783,-8733.488677,0.000000
4529.069946,0.000000,-8656.879127,-370.102971
4529.070270,370.102971,-8656.879127,-740.205942
4529.070594,592.164754,-8733.488677,-444.123565
4529.070919,444.123565,-8810.098227,-296.082377
4529.071243,444.123565,-8197.221829,-222.061783
4529.071567,148.041188,-8503.660028,-148.041188
4529.071891,444.123565,-8733.488677,74.020594
4529.072216,444.123565,-8044.002729,-370.102971
4529.072540,592.164754,-8197.221829,0.000000
4529.072864,666.185348,-8503.660028,-296.082377
4529.073189,518.144159,-8427.050478,-370.102971
4529.073513,296.082377,-8886.707777,-296.082377
4529.073837,518.144159,-8810.098227,-74.020594
4529.074161,518.144159,-8886.707777,-296.082377
4529.074486,444.123565,-8580.269578,-592.164754
4529.074810,370.102971,-8580.269578,-296.082377
4529.075134,296.082377,-8427.050478,-592.164754
4529.075459,222.061783,-8197.221829,0.000000
4529.075783,222.061783,-8273.831378,-518.144159
4529.076107,518.144159,-8810.098227,-740.205942
4529.076431,666.185348,-8350.440928,-888.247130
4529.076756,592.164754,-8886.707777,-370.102971
4529.077080,370.102971,-8350.440928,-814.226536
4529.077404,518.144159,-8656.879127,-740.205942
4529.077728,444.123565,-8810.098227,-1110.308913
4529.078053,592.164754,-8810.098227,-814.226536
4529.078377,222.061783,-8503.660028,-962.267725
4529.078701,296.082377,-8886.707777,-740.205942
4529.079025,74.020594,-8427.050478,-814.226536
4529.079350,296.082377,-8427.050478,-888.247130
4529.079674,444.123565,-8044.002729,-370.102971
4529.079998,444.123565,-8273.831378,-518.144159
4529.080322,222.061783,-8350.440928,-592.164754
4529.080646,518.144159,-8580.269578,-740.205942
4529.080971,814.226536,-8427.050478,-888.247130
4529.081295,814.226536,-8580.269578,-814.226536
4529.081619,518.144159,-8580.269578,-592.164754
4529.081943,444.123565,-8656.879127,-666.185348
4529.082268,592.164754,-8656.879127,-740.205942
4529.082592,222.061783,-8656.879127,-148.041188
4529.082916,518.144159,-8810.098227,-666.185348
4529.083240,296.082377,-8580.269578,-592.164754
4529.083565,592.164754,-8580.269578,-592.164754
4529.083889,148.041188,-8120.612279,-444.123565
4529.084213,370.102971,-8273.831378,-592.164754
4529.084537,592.164754,-8503.660028,-518.144159
4529.084862,444.123565,-8810.098227,-592.164754
4529.085186,592.164754,-8886.707777,0.000000
4529.085510,370.102971,-8350.440928,-592.164754
4529.085834,444.123565,-8886.707777,-370.102971
4529.086159,370.102971,-8580.269578,-666.185348
4529.086483,518.144159,-8963.317327,-370.102971
4529.086807,0.000000,-8273.831378,-296.082377
4529.087131,74.020594,-8503.660028,-370.102971
4529.087455,-148.041188,-8810.098227,-444.123565
4529.087780,296.082377,-8656.879127,-370.102971
4529.088104,814.226536,-8350.440928,0.000000
4529.088428,592.164754,-8580.269578,-148.041188
4529.088752,370.102971,-8810.098227,-370.102971
4529.089077,370.102971,-8656.879127,0.000000
4529.089401,444.123565,-8733.488677,-518.144159
4529.089725,518.144159,-8580.269578,-296.082377
4529.090049,518.144159,-8580.269578,-592.164754
4529.090374,444.123565,-8427.050478,0.000000
4529.090698,222.061783,-8656.879127,-518.144159
4529.091022,592.164754,-8886.707777,-518.144159
4529.091346,296.082377,-8733.488677,0.000000
4529.091671,0.000000,-8656.879127,-296.082377
4529.091995,222.061783,-8656.879127,-370.102971
4529.092319,370.102971,-8197.221829,74.020594
4529.092643,222.061783,-8427.050478,0.000000
4529.092967,296.082377,-8503.660028,-222.061783
4529.093292,518.144159,-8580.269578,-592.164754
4529.093616,518.144159,-8810.098227,-222.061783
4529.093940,592.164754,-8120.612279,-444.123565
4529.094264,296.082377,-8886.707777,-370.102971
4529.094589,370.102971,-8197.221829,-592.164754
4529.094913,444.123565,-9039.926876,-444.123565
4529.095237,666.185348,-8427.050478,-370.102971
4529.095561,444.123565,-8733.488677,-148.041188
4529.095886,740.205942,-8503.660028,-370.102971
4529.096210,592.164754,-8656.879127,-444.123565
4529.096534,740.205942,-7584.345430,-370.102971
4529.096858,518.144159,-8580.269578,-370.102971
4529.097183,888.247130,-8197.221829,-740.205942
4529.097507,740.205942,-8580.269578,-296.082377
4529.097831,592.164754,-8580.269578,-518.144159
4529.098155,518.144159,-8427.050478,-296.082377
4529.098479,740.205942,-8427.050478,-518.144159
4529.098804,814.226536,-8810.098227,-592.164754
4529.099128,666.185348,-8656.879127,-518.144159
4529.099452,444.123565,-8656.879127,-370.102971
4529.099776,222.061783,-8580.269578,-444.123565
4529.100101,592.164754,-8580.269578,-370.102971
4529.100425,222.061783,-8886.707777,-222.061783
4529.100749,296.082377,-7967.393179,-296.082377
4529.101073,296.082377,-8656.879127,-222.061783
4529.101398,222.061783,-8580.269578,-222.061783
4529.101722,592.164754,-8427.050478,-518.144159
4529.102046,444.123565,-8350.440928,-592.164754
4529.102370,740.205942,-8503.660028,-518.144159
4529.102695,148.041188,-8350.440928,-370.102971
4529.103019,222.061783,-8273.831378,-296.082377
4529.103343,296.082377,-8120.612279,-740.205942
4529.103667,296.082377,-10035.851024,-296.082377
4529.103992,296.082377,-8427.050478,-370.102971
4529.104316,222.061783,-8656.879127,-296.082377
4529.104640,148.041188,-8350.440928,-592.164754
4529.104964,296.082377,-8427.050478,-148.041188
4529.105288,444.123565,-8197.221829,-518.144159
4529.105613,222.061783,-8733.488677,-518.144159
4529.105937,0.000000,-8350.440928,-370.102971
4529.106261,222.061783,-8350.440928,-370.102971
4529.106585,148.041188,-8656.879127,-592.164754
4529.106910,592.164754,-8273.831378,-740.205942
4529.107234,444.123565,-8810.098227,-666.185348
4529.107558,814.226536,-8427.050478,-370.102971
4529.107882,740.205942,-9039.926876,-592.164754
4529.108207,370.102971,-8886.707777,-148.041188
4529.108531,148.041188,-8427.050478,-370.102971
4529.108855,74.020594,-8733.488677,-444.123565
4529.109179,0.000000,-8580.269578,-148.041188
4529.109504,370.102971,-8810.098227,0.000000
4529.109828,592.164754,-8656.879127,-296.082377
4529.110152,370.102971,-8427.050478,-222.061783
4529.110476,370.102971,-8580.269578,-222.061783
4529.110800,814.226536,-8886.707777,0.000000
4529.111125,592.164754,-8656.879127,0.000000
4529.111449,444.123565,-8427.050478,-222.061783
4529.111773,444.123565,-8656.879127,0.000000
4529.112097,888.247130,-8044.002729,0.000000
4529.112422,148.041188,-8886.707777,0.000000
4529.112746,370.102971,-8963.317327,-148.041188
4529.113070,296.082377,-8656.879127,0.000000
4529.113394,444.123565,-8503.660028,0.000000
4529.113719,444.123565,-8273.831378,0.000000
4529.114043,666.185348,-8580.269578,-370.102971
4529.114367,518.144159,-8503.660028,0.000000
4529.114691,444.123565,-8427.050478,0.000000
4529.115016,74.020594,-8886.707777,74.020594
4529.115340,444.123565,-8580.269578,-444.123565
4529.115664,666.185348,-9039.926876,-518.144159
4529.115988,518.144159,-8580.269578,-518.144159
4529.116312,666.185348,-9116.536426,0.000000
4529.116637,370.102971,-8503.660028,-370.102971
4529.116961,518.144159,-8963.317327,-296.082377
4529.117285,222.061783,-8350.440928,-296.082377
4529.117609,444.123565,-8963.317327,-444.123565
4529.117934,518.144159,-8580.269578,-148.041188
4529.118258,296.082377,-8656.879127,0.000000
4529.118582,518.144159,-8810.098227,-296.082377
4529.118906,518.144159,-8350.440928,0.000000
4529.119231,814.226536,-8733.488677,-296.082377
4529.119555,444.123565,-8656.879127,-296.082377
4529.119879,222.061783,-8503.660028,-296.082377
4529.120203,296.082377,-8886.707777,0.000000
4529.120528,222.061783,-8580.269578,-148.041188
4529.120852,370.102971,-8886.707777,-296.082377
4529.121176,444.123565,-8733.488677,-592.164754
4529.121500,74.020594,-8427.050478,0.000000
4529.121825,0.000000,-8963.317327,-296.082377
4529.122149,592.164754,-8580.269578,-148.041188
4529.122473,518.144159,-8503.660028,-296.082377
4529.122797,370.102971,-8656.879127,0.000000
4529.123121,518.144159,-8503.660028,0.000000
4529.123446,444.123565,-9116.536426,0.000000
4529.123770,740.205942,-8810.098227,-370.102971
4529.124094,592.164754,-8503.660028,-222.061783
4529.124418,518.144159,-8733.488677,-666.185348
4529.124743,814.226536,-8503.660028,-370.102971
4529.125067,370.102971,-8273.831378,-296.082377
4529.125391,370.102971,-8733.488677,-222.061783
4529.125715,444.123565,-8273.831378,-296.082377
4529.126040,518.144159,-8350.440928,-370.102971
4529.126364,518.144159,-8886.707777,0.000000
4529.126688,518.144159,-8427.050478,0.000000
4529.127012,592.164754,-8273.831378,-222.061783
4529.127337,370.102971,-8273.831378,-222.061783
4529.127661,0.000000,-8733.488677,222.061783
4529.127985,222.061783,-8350.440928,-592.164754
4529.128309,592.164754,-8273.831378,-370.102971
4529.128633,222.061783,-8350.440928,-444.123565
4529.128958,370.102971,-8810.098227,-518.144159
4529.129282,370.102971,-7890.783629,-148.041188
4529.129606,518.144159,-8810.098227,-148.041188
4529.129930,296.082377,-8273.831378,-370.102971
4529.130255,222.061783,-8810.098227,0.000000
4529.130579,296.082377,-8810.098227,148.041188
4529.130903,370.102971,-8427.050478,0.000000
4529.131227,148.041188,-8733.488677,0.000000
4529.131552,296.082377,-8733.488677,0.000000
4529.131876,592.164754,-8350.440928,222.061783
4529.132200,296.082377,-8733.488677,0.000000
4529.132524,444.123565,-8427.050478,74.020594
4529.132849,518.144159,-8427.050478,-296.082377
4529.133173,740.205942,-8733.488677,-148.041188
4529.133497,666.185348,-8273.831378,-222.061783
4529.133821,370.102971,-9039.926876,74.020594
4529.134145,444.123565,-8810.098227,0.000000
4529.134470,222.061783,-8810.098227,0.000000
4529.134794,74.020594,-8810.098227,-296.082377
4529.135118,222.061783,-8503.660028,-148.041188
4529.135442,296.082377,-8656.879127,222.061783
4529.135767,222.061783,-8580.269578,0.000000
4529.136091,592.164754,-8580.269578,0.000000
4529.136415,296.082377,-8503.660028,0.000000
4529.136739,518.144159,-8810.098227,0.000000
4529.137064,740.205942,-8273.831378,74.020594
4529.137388,518.144159,-8733.488677,0.000000
4529.137712,592.164754,-8197.221829,-148.041188
4529.138036,592.164754,-9039.926876,-296.082377
4529.138361,370.102971,-8963.317327,0.000000
4529.138685,518.144159,-8656.879127,0.000000
4529.139009,518.144159,-8963.317327,148.041188
4529.139333,222.061783,-8810.098227,74.020594
4529.139658,148.041188,-8810.098227,0.000000
4529.139982,370.102971,-8810.098227,0.000000
4529.140306,370.102971,-8427.050478,0.000000
4529.140630,592.164754,-8810.098227,0.000000
4529.140954,370.102971,-8350.440928,-222.061783
4529.141279,444.123565,-8580.269578,0.000000
4529.141603,666.185348,-8580.269578,-296.082377
4529.141927,1332.370696,-8963.317327,-666.185348
4529.142251,444.123565,-8503.660028,0.000000
4529.142576,148.041188,-8580.269578,-296.082377
4529.142900,148.041188,-8656.879127,-148.041188
4529.143224,518.144159,-8273.831378,0.000000
4529.143548,296.082377,-8886.707777,-148.041188
4529.143873,296.082377,-8656.879127,-222.061783
4529.144197,222.061783,-8503.660028,-370.102971
4529.144521,518.144159,-8656.879127,-370.102971
4529.144845,370.102971,-8503.660028,-296.082377
4529.145170,370.102971,-8656.879127,-444.123565
4529.145494,592.164754,-8656.879127,-370.102971
4529.145818,444.123565,-8350.440928,-222.061783
4529.146142,444.123565,-8044.002729,0.000000
4529.146466,296.082377,-8273.831378,-444.123565
4529.146791,814.226536,-8886.707777,-592.164754
4529.147115,370.102971,-8810.098227,-296.082377
4529.147439,444.123565,-8427.050478,148.041188
4529.147763,74.020594,-8503.660028,0.000000
4529.148088,370.102971,-8350.440928,-296.082377
4529.148412,296.082377,-8656.879127,0.000000
4529.148736,370.102971,-8580.269578,-296.082377
4529.149060,148.041188,-8273.831378,296.082377
4529.149385,74.020594,-8273.831378,-296.082377
4529.149709,370.102971,-8656.879127,0.000000
4529.150033,444.123565,-8273.831378,-666.185348
4529.150357,962.267725,-8503.660028,-592.164754
4529.150682,888.247130,-8273.831378,-814.226536
4529.151006,666.185348,-8580.269578,-370.102971
4529.151330,444.123565,-8503.660028,-666.185348
4529.151654,444.123565,-8197.221829,-370.102971
4529.151979,222.061783,-8427.050478,-518.144159
4529.152303,222.061783,-8656.879127,-666.185348
4529.152627,444.123565,-8120.612279,-592.164754
4529.152951,296.082377,-8503.660028,-370.102971
4529.153275,518.144159,-8503.660028,-592.164754
4529.153600,518.144159,-8580.269578,-444.123565
4529.153924,444.123565,-8503.660028,-814.226536
4529.154248,518.144159,-8273.831378,-592.164754
4529.154572,1258.350101,-8656.879127,-592.164754
4529.154897,518.144159,-8427.050478,-592.164754
4529.155221,518.144159,-8656.879127,-592.164754
4529.155545,666.185348,-8963.317327,-592.164754
4529.155869,444.123565,-8963.317327,-444.123565
4529.156194,296.082377,-8656.879127,-148.041188
4529.156518,74.020594,-8733.488677,-222.061783
4529.156842,592.164754,-8963.317327,-74.020594
4529.157166,444.123565,-8886.707777,-296.082377
4529.157491,222.061783,-8273.831378,0.000000
4529.157815,444.123565,-8503.660028,74.020594
4529.158139,370.102971,-8886.707777,0.000000
4529.158463,444.123565,-8580.269578,0.000000
4529.158787,370.102971,-8120.612279,0.000000
4529.159112,296.082377,-8886.707777,-148.041188
4529.159436,740.205942,-8580.269578,0.000000
4529.159760,444.123565,-8580.269578,0.000000
4529.160084,222.061783,-9039.926876,0.000000
4529.160409,222.061783,-8580.269578,0.000000
4529.160733,518.144159,-8580.269578,-222.061783
4529.161057,666.185348,-8580.269578,-148.041188
4529.161381,370.102971,-8503.660028,0.000000
4529.161706,444.123565,-8273.831378,-444.123565
4529.162030,296.082377,-8273.831378,-148.041188
4529.162354,518.144159,-8427.050478,-222.061783
4529.162678,666.185348,-8733.488677,-370.102971
4529.163003,666.185348,-7737.564530,0.000000
4529.163327,518.144159,-8350.440928,-370.102971
4529.163651,518.144159,-8580.269578,-666.185348
4529.163975,740.205942,-8503.660028,-296.082377
4529.164299,444.123565,-8427.050478,-370.102971
4529.164624,444.123565,-8273.831378,0.000000
4529.164948,518.144159,-8350.440928,-444.123565
4529.165272,444.123565,-8580.269578,-296.082377
4529.165596,370.102971,-8350.440928,-370.102971
4529.165921,444.123565,-8044.002729,-148.041188
4529.166245,444.123565,-8427.050478,-222.061783
4529.166569,370.102971,-8120.612279,-222.061783
4529.166893,370.102971,-8580.269578,-296.082377
4529.167218,666.185348,-8427.050478,-444.123565
4529.167542,592.164754,-8350.440928,0.000000
4529.167866,370.102971,-8580.269578,-296.082377
4529.168190,518.144159,-8580.269578,-296.082377
4529.168515,148.041188,-8733.488677,-148.041188
4529.168839,0.000000,-8503.660028,-296.082377
4529.169163,0.000000,-8503.660028,-296.082377
4529.169487,296.082377,-8963.317327,-666.185348
4529.169812,222.061783,-8580.269578,-518.144159
4529.170136,296.082377,-8427.050478,-740.205942
4529.170460,444.123565,-8886.707777,-518.144159
4529.170784,370.102971,-8197.221829,-370.102971
4529.171108,518.144159,-8733.488677,-518.144159
4529.171433,296.082377,-7814.174080,-444.123565
4529.171757,444.123565,-8580.269578,-592.164754
4529.172081,296.082377,-8197.221829,-814.226536
4529.172405,370.102971,-8656.879127,-518.144159
4529.172730,0.000000,-8273.831378,-962.267725
4529.173054,296.082377,-9039.926876,-888.247130
4529.173378,148.041188,-8273.831378,-666.185348
4529.173702,148.041188,-8580.269578,-592.164754
4529.174027,148.041188,-8427.050478,-666.185348
4529.174351,444.123565,-8273.831378,-296.082377
4529.174675,296.082377,-8733.488677,-592.164754
4529.174999,444.123565,-8427.050478,-296.082377
4529.175324,444.123565,-8350.440928,-666.185348
4529.175648,518.144159,-8427.050478,-222.061783
4529.175972,518.144159,-8197.221829,-592.164754
4529.176296,888.247130,-8580.269578,-888.247130
4529.176620,962.267725,-8503.660028,-666.185348
4529.176944,444.123565,-8197.221829,-222.061783
4529.177268,518.144159,-8656.879127,-740.205942
4529.177593,370.102971,-8350.440928,-518.144159
4529.177917,592.164754,-8580.269578,-518.144159
4529.178241,444.123565,-8580.269578,-444.123565
4529.178566,444.123565,-8503.660028,-148.041188
4529.178890,444.123565,-8350.440928,-370.102971
4529.179214,592.164754,-8427.050478,-370.102971
4529.179539,148.041188,-8273.831378,-592.164754
4529.179863,666.185348,-8886.707777,-444.123565
4529.180187,592.164754,-8427.050478,-370.102971
4529.180512,740.205942,-8656.879127,-296.082377
4529.180836,370.102971,-8733.488677,-666.185348
4529.181160,296.082377,-8963.317327,0.000000
4529.181485,370.102971,-8427.050478,-666.185348
4529.181809,444.123565,-8963.317327,-518.144159
4529.182133,444.123565,-8656.879127,-592.164754
4529.182458,370.102971,-9039.926876,-592.164754
4529.182782,444.123565,-8503.660028,-222.061783
4529.183106,592.164754,-8733.488677,-666.185348
4529.183431,666.185348,-8733.488677,-592.164754
4529.183755,518.144159,-8427.050478,-370.102971
4529.184079,222.061783,-8580.269578,-370.102971
4529.184404,592.164754,-8810.098227,-592.164754
4529.184728,444.123565,-8427.050478,-740.205942
4529.185052,370.102971,-8733.488677,-370.102971
4529.185377,0.000000,-8580.269578,-444.123565
4529.185701,444.123565,-9193.145976,-666.185348
4529.186025,222.061783,-8656.879127,-666.185348
4529.186350,370.102971,-8580.269578,-370.102971
4529.186674,0.000000,-8656.879127,-518.144159
4529.186998,0.000000,-8197.221829,-222.061783
4529.187323,222.061783,-8503.660028,-518.144159
4529.187647,74.020594,-8427.050478,-444.123565
4529.187971,148.041188,-8656.879127,-518.144159
4529.188296,222.061783,-8120.612279,-518.144159
4529.188620,666.185348,-8810.098227,-666.185348
4529.188945,370.102971,-8427.050478,-370.102971
4529.189269,444.123565,-8273.831378,-222.061783
4529.189593,592.164754,-8273.831378,-592.164754
4529.189918,962.267725,-9346.365076,-592.164754
4529.190242,148.041188,-8963.317327,-592.164754
4529.190566,592.164754,-8733.488677,-518.144159
4529.190891,296.082377,-8273.831378,-296.082377
4529.191215,222.061783,-8886.707777,-518.144159
4529.191539,740.205942,-8810.098227,-518.144159
4529.191864,592.164754,-8350.440928,-518.144159
4529.192188,518.144159,-8733.488677,-296.082377
4529.192512,518.144159,-8503.660028,-296.082377
4529.192837,296.082377,-8810.098227,0.000000
4529.193161,222.061783,-8350.440928,-370.102971
4529.193485,666.185348,-8503.660028,-444.123565
4529.193810,222.061783,-8656.879127,-518.144159
4529.194134,740.205942,-9499.584175,-370.102971
4529.194458,296.082377,-8656.879127,-518.144159
4529.194783,222.061783,-8810.098227,-296.082377
4529.195107,296.082377,-8503.660028,-296.082377
4529.195431,518.144159,-8503.660028,-296.082377
4529.195756,666.185348,-8656.879127,-444.123565
4529.196080,518.144159,-8427.050478,-370.102971
4529.196404,222.061783,-8580.269578,-444.123565
4529.196729,296.082377,-8427.050478,-370.102971
4529.197053,666.185348,-9116.536426,-518.144159
4529.197377,592.164754,-8810.098227,-666.185348
4529.197702,444.123565,-8273.831378,-666.185348
4529.198026,518.144159,-8580.269578,-888.247130
4529.198350,444.123565,-8886.707777,-666.185348
4529.198675,814.226536,-8580.269578,-592.164754
4529.198999,592.164754,-8580.269578,-666.185348
4529.199323,222.061783,-8580.269578,-666.185348
4529.199648,296.082377,-8733.488677,-370.102971
4529.199972,444.123565,-8427.050478,-518.144159
4529.200296,222.061783,-8656.879127,-740.205942
4529.200621,592.164754,-8656.879127,-666.185348
4529.200945,666.185348,-8350.440928,-518.144159
4529.201269,296.082377,-7967.393179,-370.102971
4529.201594,370.102971,-8503.660028,-518.144159
4529.201918,444.123565,-8656.879127,-444.123565
4529.202242,888.247130,-8350.440928,-666.185348
4529.202567,666.185348,-8810.098227,-740.205942
4529.202891,740.205942,-8656.879127,-370.102971
4529.203215,444.123565,-8733.488677,-296.082377
4529.203540,444.123565,-9116.536426,-444.123565
4529.203864,370.102971,-8580.269578,-666.185348
4529.204189,740.205942,-8810.098227,-518.144159
4529.204513,222.061783,-8503.660028,0.000000
4529.204837,296.082377,-8273.831378,-444.123565
4529.205162,518.144159,-8963.317327,-148.041188
4529.205486,666.185348,-8197.221829,-814.226536
4529.205810,740.205942,-8810.098227,-296.082377
4529.206135,444.123565,-8503.660028,-370.102971
4529.206459,666.185348,-8656.879127,0.000000
4529.206783,518.144159,-8580.269578,-148.041188
4529.207108,444.123565,-8963.317327,-592.164754
4529.207432,370.102971,-8733.488677,-370.102971
4529.207756,444.123565,-9039.926876,-222.061783
4529.208081,296.082377,-8427.050478,-296.082377
4529.208405,518.144159,-8503.660028,-518.144159
4529.208729,370.102971,-8503.660028,-370.102971
4529.209054,518.144159,-8656.879127,-444.123565
4529.209378,370.102971,-8503.660028,-370.102971
4529.209702,518.144159,-8350.440928,-592.164754
4529.210027,222.061783,-8350.440928,-148.041188
4529.210351,666.185348,-8580.269578,-148.041188
4529.210675,592.164754,-8427.050478,-518.144159
4529.211000,666.185348,-8656.879127,-222.061783
4529.211324,666.185348,-8350.440928,-592.164754
4529.211648,370.102971,-8580.269578,-296.082377
4529.211973,370.102971,-8733.488677,-370.102971
4529.212297,296.082377,-8810.098227,-444.123565
4529.212621,370.102971,-8963.317327,-592.164754
4529.212946,296.082377,-8580.269578,-296.082377
4529.213270,592.164754,-8733.488677,-296.082377
4529.213594,222.061783,-8427.050478,-148.041188
4529.213919,592.164754,-8656.879127,-222.061783
4529.214243,518.144159,-8273.831378,-592.164754
4529.214567,518.144159,-8580.269578,-444.123565
4529.214892,814.226536,-8350.440928,-740.205942
4529.215216,518.144159,-8656.879127,-444.123565
4529.215540,296.082377,-8656.879127,-592.164754
4529.215865,518.144159,-8733.488677,-222.061783
4529.216189,296.082377,-8580.269578,-666.185348
4529.216513,370.102971,-8656.879127,-370.102971
4529.216838,370.102971,-9039.926876,-444.123565
4529.217162,296.082377,-8810.098227,-444.123565
4529.217486,296.082377,-8580.269578,-518.144159
4529.217811,444.123565,-8503.660028,-592.164754
4529.218135,666.185348,-9576.193725,-444.123565
4529.218459,296.082377,-8120.612279,-296.082377
4529.218784,222.061783,-8733.488677,-444.123565
4529.219108,74.020594,-8350.440928,-518.144159
4529.219433,370.102971,-8733.488677,-592.164754
4529.219757,666.185348,-8963.317327,-518.144159
4529.220081,296.082377,-8580.269578,-444.123565
4529.220406,444.123565,-8810.098227,0.000000
4529.220730,518.144159,-8503.660028,-444.123565
4529.221054,0.000000,-9116.536426,148.041188
4529.221379,222.061783,-8733.488677,-296.082377
4529.221703,518.144159,-8656.879127,-296.082377
4529.222027,296.082377,-8503.660028,0.000000
4529.222352,444.123565,-8503.660028,-222.061783
4529.222676,370.102971,-8580.269578,-296.082377
4529.223000,592.164754,-8503.660028,-370.102971
4529.223325,740.205942,-8733.488677,-592.164754
4529.223649,370.102971,-8427.050478,-296.082377
4529.223973,518.144159,-8886.707777,-148.041188
4529.224298,444.123565,-8656.879127,-296.082377
4529.224622,370.102971,-8427.050478,-444.123565
4529.224946,444.123565,-8810.098227,-518.144159
4529.225271,814.226536,-8810.098227,0.000000
4529.225595,444.123565,-8273.831378,-296.082377
4529.225919,296.082377,-8733.488677,-370.102971
4529.226244,370.102971,-8580.269578,-444.123565
4529.226568,666.185348,-8886.707777,0.000000
4529.226892,370.102971,-8503.660028,-296.082377
4529.227217,518.144159,-8503.660028,0.000000
4529.227541,592.164754,-8427.050478,-148.041188
4529.227865,444.123565,-8656.879127,0.000000
4529.228190,518.144159,-8580.269578,74.020594
4529.228514,592.164754,-8427.050478,-296.082377
4529.228838,666.185348,-8580.269578,222.061783
4529.229163,444.123565,-8580.269578,74.020594
4529.229487,0.000000,-9346.365076,370.102971
4529.229811,74.020594,-8733.488677,0.000000
4529.230136,148.041188,-8656.879127,74.020594
4529.230460,370.102971,-8810.098227,0.000000
4529.230784,370.102971,-8580.269578,296.082377
4529.231109,222.061783,-8503.660028,222.061783
4529.231433,592.164754,-8427.050478,-222.061783
4529.231757,370.102971,-8503.660028,-148.041188
4529.232082,666.185348,-8810.098227,0.000000
4529.232406,740.205942,-8350.440928,-518.144159
4529.232730,518.144159,-8580.269578,-296.082377
4529.233055,370.102971,-8580.269578,-222.061783
4529.233379,370.102971,-8733.488677,0.000000
4529.233704,296.082377,-8656.879127,-222.061783
4529.234028,0.000000,-8580.269578,0.000000
4529.234352,148.041188,-8886.707777,0.000000
4529.234677,148.041188,-8427.050478,-444.123565
4529.235001,296.082377,-8503.660028,0.000000
4529.235325,370.102971,-8427.050478,0.000000
4529.235650,370.102971,-8656.879127,0.000000
4529.235974,370.102971,-8273.831378,-148.041188
4529.236298,370.102971,-8886.707777,-296.082377
4529.236623,592.164754,-8427.050478,0.000000
4529.236947,592.164754,-8656.879127,-370.102971
4529.237271,370.102971,-8580.269578,-518.144159
4529.237596,592.164754,-9116.536426,-296.082377
4529.237920,222.061783,-8810.098227,222.061783
4529.238244,0.000000,-8580.269578,-222.061783
4529.238569,74.020594,-8427.050478,-222.061783
4529.238893,370.102971,-8580.269578,-296.082377
4529.239217,370.102971,-8733.488677,0.000000
4529.239542,0.000000,-7890.783629,-222.061783
4529.239866,296.082377,-8580.269578,-296.082377
4529.240190,740.205942,-8886.707777,-296.082377
4529.240515,740.205942,-8656.879127,-444.123565
4529.240839,518.144159,-7890.783629,148.041188
4529.241163,222.061783,-8580.269578,-222.061783
4529.241488,444.123565,-8810.098227,-740.205942
4529.241812,296.082377,-8733.488677,-222.061783
4529.242136,296.082377,-8503.660028,-222.061783
4529.242461,666.185348,-8733.488677,-296.082377
4529.242785,518.144159,-8197.221829,0.000000
4529.243109,740.205942,-8580.269578,-518.144159
4529.243434,444.123565,-8503.660028,-222.061783
4529.243758,518.144159,-8197.221829,0.000000
4529.244082,222.061783,-8580.269578,-296.082377
4529.244407,296.082377,-8350.440928,0.000000
4529.244731,592.164754,-8656.879127,-148.041188
4529.245055,518.144159,-8197.221829,0.000000
4529.245380,518.144159,-8810.098227,-296.082377
4529.245704,444.123565,-8733.488677,-518.144159
4529.246028,592.164754,-8273.831378,0.000000
4529.246353,666.185348,-8503.660028,-74.020594
4529.246677,592.164754,-8656.879127,-296.082377
4529.247001,296.082377,-8427.050478,-370.102971
4529.247326,666.185348,-8733.488677,-444.123565
4529.247650,444.123565,-8580.269578,-370.102971
4529.247974,148.041188,-8580.269578,-518.144159
4529.248299,518.144159,-8580.269578,-296.082377
4529.248623,370.102971,-8273.831378,-444.123565
4529.248948,518.144159,-8580.269578,-370.102971
4529.249272,740.205942,-8044.002729,0.000000
4529.249596,518.144159,-8580.269578,-370.102971
4529.249921,592.164754,-8580.269578,-518.144159
4529.250245,148.041188,-8733.488677,-444.123565
4529.250569,0.000000,-8886.707777,0.000000
4529.250894,222.061783,-8503.660028,-740.205942
4529.251218,148.041188,-8656.879127,-148.041188
4529.251542,0.000000,-8656.879127,-370.102971
4529.251867,222.061783,-9039.926876,-222.061783
4529.252191,296.082377,-8427.050478,-148.041188
4529.252515,444.123565,-8656.879127,0.000000
4529.252840,370.102971,-8427.050478,-296.082377
4529.253164,444.123565,-8350.440928,0.000000
4529.253488,296.082377,-8810.098227,0.000000
4529.253813,296.082377,-8656.879127,0.000000
4529.254137,370.102971,-8733.488677,-296.082377
4529.254461,444.123565,-8503.660028,-444.123565
4529.254786,296.082377,-8886.707777,0.000000
4529.255110,296.082377,-8656.879127,0.000000
4529.255434,518.144159,-8580.269578,0.000000
4529.255759,74.020594,-8427.050478,-148.041188
4529.256083,592.164754,-8580.269578,-148.041188
4529.256407,814.226536,-9193.145976,0.000000
4529.256732,592.164754,-8503.660028,-444.123565
4529.257056,592.164754,-8580.269578,-148.041188
4529.257380,444.123565,-8427.050478,-518.144159
4529.257705,370.102971,-8810.098227,-296.082377
4529.258029,592.164754,-8503.660028,-222.061783
4529.258353,666.185348,-8733.488677,-518.144159
4529.258678,444.123565,-8656.879127,-296.082377
4529.259002,518.144159,-8580.269578,-592.164754
4529.259326,888.247130,-8656.879127,-814.226536
4529.259651,222.061783,-8580.269578,-370.102971
4529.259975,518.144159,-8503.660028,0.000000
4529.260299,370.102971,-8580.269578,-296.082377
4529.260624,592.164754,-8963.317327,-296.082377
4529.260948,148.041188,-8350.440928,-444.123565
4529.261272,740.205942,-8503.660028,-296.082377
4529.261597,592.164754,-8273.831378,0.000000
4529.261921,444.123565,-8427.050478,-222.061783
4529.262245,740.205942,-9039.926876,-148.041188
4529.262570,666.185348,-8350.440928,-296.082377
4529.262894,592.164754,-8350.440928,-296.082377
4529.263218,740.205942,-8810.098227,-296.082377
4529.263543,814.226536,-8580.269578,74.020594
4529.263867,296.082377,-8810.098227,0.000000
4529.264192,296.082377,-8580.269578,-592.164754
4529.264516,592.164754,-8580.269578,-370.102971
4529.264840,444.123565,-8427.050478,0.000000
4529.265165,222.061783,-8427.050478,-222.061783
4529.265489,370.102971,-8273.831378,-222.061783
4529.265813,370.102971,-8580.269578,-296.082377
4529.266138,518.144159,-8197.221829,-370.102971
4529.266462,518.144159,-8810.098227,-518.144159
4529.266786,592.164754,-8197.221829,-518.144159
4529.267111,370.102971,-8580.269578,-296.082377
4529.267435,296.082377,-8810.098227,-814.226536
4529.267759,74.020594,-8886.707777,-888.247130
4529.268084,148.041188,-8733.488677,-518.144159
4529.268408,0.000000,-8886.707777,-370.102971
4529.268732,370.102971,-8656.879127,-518.144159
4529.269057,222.061783,-8197.221829,-592.164754
4529.269381,518.144159,-8580.269578,-370.102971
4529.269705,518.144159,-8580.269578,-518.144159
4529.270030,444.123565,-8503.660028,-296.082377
4529.270354,518.144159,-8197.221829,0.000000
4529.270678,74.020594,-8503.660028,-222.061783
4529.271003,370.102971,-8963.317327,-370.102971
4529.271327,444.123565,-8656.879127,-222.061783
4529.271651,370.102971,-8656.879127,-222.061783
4529.271976,444.123565,-8044.002729,-222.061783
4529.272300,222.061783,-8810.098227,0.000000
4529.272624,0.000000,-8810.098227,0.000000
4529.272949,222.061783,-8656.879127,0.000000
4529.273273,296.082377,-8656.879127,-296.082377
4529.273597,222.061783,-8273.831378,-74.020594
4529.273922,518.144159,-8197.221829,0.000000
4529.274246,444.123565,-8197.221829,-518.144159
4529.274570,296.082377,-8350.440928,-444.123565
4529.274895,814.226536,-8503.660028,-296.082377
4529.275219,814.226536,-8273.831378,-666.185348
4529.275543,740.205942,-8580.269578,-296.082377
4529.275868,592.164754,-8580.269578,-592.164754
4529.276192,666.185348,-8963.317327,-740.205942
4529.276516,518.144159,-8503.660028,-370.102971
4529.276841,444.123565,-8503.660028,-666.185348
4529.277165,444.123565,-8656.879127,-518.144159
4529.277489,444.123565,-8273.831378,-370.102971
4529.277814,296.082377,-8810.098227,-592.164754
4529.278138,444.123565,-8427.050478,-592.164754
4529.278463,666.185348,-8733.488677,-296.082377
4529.278787,518.144159,-8580.269578,-444.123565
4529.279111,222.061783,-8197.221829,-444.123565
4529.279436,592.164754,-8350.440928,-296.082377
4529.279760,592.164754,-8656.879127,-444.123565
4529.280084,370.102971,-8580.269578,-592.164754
4529.280409,888.247130,-8580.269578,-962.267725
4529.280733,444.123565,-8427.050478,-296.082377
4529.281057,222.061783,-8656.879127,-370.102971
4529.281382,444.123565,-8886.707777,-592.164754
4529.281706,518.144159,-8733.488677,-444.123565
4529.282030,592.164754,-8656.879127,-444.123565
4529.282355,296.082377,-8810.098227,-444.123565
4529.282679,444.123565,-8656.879127,-370.102971
4529.283003,370.102971,-8273.831378,-444.123565
4529.283328,814.226536,-8580.269578,-592.164754
4529.283652,74.020594,-8580.269578,-666.185348
4529.283976,518.144159,-8733.488677,-370.102971
4529.284301,444.123565,-8273.831378,-666.185348
4529.284625,148.041188,-9346.365076,-666.185348
4529.284949,518.144159,-8350.440928,-1036.288319
4529.285274,592.164754,-8886.707777,-444.123565
4529.285598,370.102971,-8733.488677,-518.144159
4529.285922,222.061783,-8580.269578,-666.185348
4529.286247,444.123565,-9039.926876,-592.164754
4529.286571,222.061783,-8810.098227,-740.205942
4529.286896,222.061783,-8810.098227,-666.185348
4529.287220,296.082377,-8810.098227,-518.144159
4529.287544,148.041188,-8963.317327,296.082377
4529.287869,518.144159,-8427.050478,-148.041188
4529.288193,296.082377,-8427.050478,-444.123565
4529.288517,740.205942,-8656.879127,-444.123565
4529.288842,666.185348,-8733.488677,-518.144159
4529.289166,740.205942,-8810.098227,-444.123565
4529.289490,518.144159,-8580.269578,-592.164754
4529.289815,592.164754,-8886.707777,74.020594
4529.290139,296.082377,-8580.269578,-370.102971
4529.290463,518.144159,-8963.317327,-148.041188
4529.290788,148.041188,-8886.707777,-222.061783
4529.291112,370.102971,-8427.050478,0.000000
4529.291436,370.102971,-8273.831378,-296.082377
4529.291761,666.185348,-8273.831378,-666.185348
4529.292085,814.226536,-8427.050478,-370.102971
4529.292409,592.164754,-8580.269578,-370.102971
4529.292734,740.205942,-8273.831378,-518.144159
4529.293058,592.164754,-8350.440928,0.000000
4529.293382,444.123565,-8427.050478,-370.102971
4529.293707,370.102971,-8656.879127,0.000000
4529.294031,444.123565,-8810.098227,-444.123565
4529.294355,370.102971,-8733.488677,-148.041188
4529.294680,888.247130,-8350.440928,-370.102971
4529.295004,222.061783,-8580.269578,-222.061783
4529.295328,444.123565,-8503.660028,-222.061783
4529.295653,666.185348,-8580.269578,-370.102971
4529.295977,222.061783,-8273.831378,-222.061783
4529.296302,518.144159,-8350.440928,-222.061783
4529.296626,444.123565,-8503.660028,-518.144159
4529.296950,370.102971,-8656.879127,-370.102971
4529.297275,370.102971,-8120.612279,-518.144159
4529.297599,296.082377,-8886.707777,-296.082377
4529.297923,740.205942,-8580.269578,-370.102971
4529.298248,518.144159,-8503.660028,-148.041188
4529.298572,444.123565,-9116.536426,-296.082377
4529.298896,592.164754,-8810.098227,-74.020594
4529.299221,296.082377,-8503.660028,-148.041188
4529.299545,74.020594,-8427.050478,-296.082377
4529.299869,0.000000,-8656.879127,-148.041188
4529.300194,148.041188,-9039.926876,296.082377
4529.300518,222.061783,-8350.440928,-296.082377
4529.300842,444.123565,-8580.269578,-370.102971
4529.301167,518.144159,-8350.440928,-666.185348
4529.301491,518.144159,-8273.831378,-222.061783
4529.301815,444.123565,-8427.050478,-666.185348
4529.302140,592.164754,-8886.707777,-592.164754
4529.302464,518.144159,-8733.488677,-518.144159
4529.302788,222.061783,-8963.317327,-666.185348
4529.303113,740.205942,-8886.707777,-814.226536
4529.303437,370.102971,-8963.317327,-666.185348
4529.303761,222.061783,-8733.488677,-814.226536
4529.304086,444.123565,-8503.660028,-740.205942
4529.304410,296.082377,-8810.098227,-814.226536
4529.304735,222.061783,-8580.269578,-518.144159
4529.305059,814.226536,-8273.831378,-666.185348
4529.305383,518.144159,-8656.879127,-518.144159
4529.305708,518.144159,-8656.879127,-740.205942
4529.306032,814.226536,-8580.269578,-444.123565
4529.306356,740.205942,-8503.660028,-740.205942
4529.306681,666.185348,-8733.488677,-592.164754
4529.307005,518.144159,-8886.707777,-444.123565
4529.307329,888.247130,-8963.317327,-370.102971
4529.307654,444.123565,-8427.050478,-592.164754
4529.307978,518.144159,-9039.926876,-222.061783
4529.308302,740.205942,-8350.440928,-370.102971
4529.308627,592.164754,-8350.440928,0.000000
4529.308951,370.102971,-8503.660028,-148.041188
4529.309275,666.185348,-8427.050478,-444.123565
4529.309600,666.185348,-8273.831378,-592.164754
4529.309924,592.164754,-8580.269578,-296.082377
4529.310248,370.102971,-7737.564530,0.000000
4529.310573,518.144159,-8733.488677,-296.082377
4529.310897,666.185348,-8350.440928,-444.123565
4529.311221,592.164754,-8580.269578,-518.144159
4529.311546,444.123565,-8503.660028,0.000000
4529.311870,518.144159,-8427.050478,-222.061783
4529.312194,296.082377,-8656.879127,-296.082377
4529.312519,148.041188,-8656.879127,-370.102971
4529.312843,814.226536,-8810.098227,-296.082377
4529.313167,962.267725,-8273.831378,-592.164754
4529.313492,518.144159,-8503.660028,-444.123565
4529.313816,444.123565,-8503.660028,-296.082377
4529.314141,518.144159,-8656.879127,-296.082377
4529.314465,888.247130,-8580.269578,-962.267725
4529.314789,444.123565,-8733.488677,-518.144159
4529.315114,592.164754,-8656.879127,0.000000
4529.315438,0.000000,-8810.098227,0.000000
4529.315762,592.164754,-9039.926876,-370.102971
4529.316087,222.061783,-8733.488677,-296.082377
4529.316411,0.000000,-8886.707777,-296.082377
4529.316735,0.000000,-8886.707777,-222.061783
4529.317060,0.000000,-8656.879127,-296.082377
4529.317384,296.082377,-8656.879127,148.041188
4529.317708,148.041188,-8350.440928,0.000000
4529.318033,370.102971,-8733.488677,-222.061783
4529.318357,74.020594,-8810.098227,-222.061783
4529.318681,740.205942,-8886.707777,-148.041188
4529.319006,296.082377,-8503.660028,-296.082377
4529.319330,370.102971,-8886.707777,-518.144159
4529.319654,370.102971,-8886.707777,-296.082377
4529.319979,888.247130,-8963.317327,-296.082377
4529.320303,444.123565,-8656.879127,-444.123565
4529.320627,370.102971,-8580.269578,-370.102971
4529.320952,222.061783,-8733.488677,-592.164754
4529.321276,518.144159,-8580.269578,0.000000
4529.321600,444.123565,-8503.660028,-740.205942
4529.321925,444.123565,-8427.050478,-518.144159
4529.322249,592.164754,-8273.831378,-592.164754
4529.322574,444.123565,-8427.050478,-518.144159
4529.322898,666.185348,-8503.660028,-1036.288319
4529.323222,444.123565,-8273.831378,-666.185348
4529.323547,814.226536,-8580.269578,-592.164754
4529.323871,518.144159,-8427.050478,-888.247130
4529.324195,592.164754,-8197.221829,-148.041188
4529.324520,296.082377,-8427.050478,-296.082377
4529.324844,296.082377,-8580.269578,-296.082377
4529.325168,148.041188,-8810.098227,-518.144159
4529.325493,370.102971,-8427.050478,-444.123565
4529.325817,814.226536,-8656.879127,-148.041188
4529.326141,592.164754,-8044.002729,-222.061783
4529.326466,444.123565,-8503.660028,0.000000
4529.326790,518.144159,-8197.221829,-296.082377
4529.327114,814.226536,-8197.221829,0.000000
4529.327439,740.205942,-8273.831378,-296.082377
4529.327763,888.247130,-8733.488677,0.000000
4529.328087,296.082377,-8427.050478,-444.123565
4529.328412,592.164754,-8733.488677,-222.061783
4529.328736,296.082377,-8580.269578,0.000000
4529.329060,370.102971,-8656.879127,-222.061783
4529.329385,296.082377,-8656.879127,0.000000
4529.329709,444.123565,-8656.879127,-148.041188
4529.330033,1110.308913,-8656.879127,-740.205942
4529.330358,592.164754,-8350.440928,-222.061783
4529.330682,370.102971,-8427.050478,0.000000
4529.331007,296.082377,-8503.660028,0.000000
4529.331331,296.082377,-9269.755526,-148.041188
4529.331655,370.102971,-8580.269578,-370.102971
4529.331980,74.020594,-8580.269578,-518.144159
4529.332304,222.061783,-8503.660028,-296.082377
4529.332628,222.061783,-8350.440928,-370.102971
4529.332953,370.102971,-8810.098227,-222.061783
4529.333277,0.000000,-8810.098227,-296.082377
4529.333601,148.041188,-8503.660028,-296.082377
4529.333926,296.082377,-8886.707777,0.000000
4529.334250,0.000000,-8427.050478,-444.123565
4529.334574,148.041188,-8656.879127,74.020594
4529.334899,296.082377,-8427.050478,-222.061783
4529.335223,444.123565,-8580.269578,0.000000
4529.335547,370.102971,-8656.879127,-962.267725
4529.335872,666.185348,-8733.488677,-222.061783
4529.336196,814.226536,-8197.221829,0.000000
4529.336520,444.123565,-8656.879127,-296.082377
4529.336845,740.205942,-8656.879127,-296.082377
4529.337169,370.102971,-8580.269578,-370.102971
4529.337493,518.144159,-8733.488677,-296.082377
4529.337818,222.061783,-8810.098227,0.000000
4529.338142,370.102971,-8656.879127,0.000000
4529.338466,222.061783,-8580.269578,-370.102971
4529.338791,296.082377,-8580.269578,0.000000
4529.339115,518.144159,-8656.879127,-296.082377
4529.339439,592.164754,-8427.050478,0.000000
4529.339764,814.226536,-8580.269578,0.000000
4529.340088,740.205942,-8427.050478,-296.082377
4529.340413,888.247130,-8503.660028,74.020594
4529.340737,666.185348,-8656.879127,-370.102971
4529.341061,814.226536,-8656.879127,0.000000
4529.341386,888.247130,-8886.707777,-222.061783
4529.341710,370.102971,-8733.488677,-148.041188
4529.342034,0.000000,-8580.269578,-74.020594
4529.342359,0.000000,-8733.488677,0.000000
4529.342683,148.041188,-8963.317327,-296.082377
4529.343007,370.102971,-8580.269578,0.000000
4529.343332,444.123565,-8810.098227,-148.041188
4529.343656,444.123565,-8120.612279,-296.082377
4529.343980,592.164754,-8963.317327,-222.061783
4529.344305,888.247130,-8427.050478,-444.123565
4529.344629,592.164754,-8503.660028,-592.164754
4529.344953,222.061783,-8810.098227,-444.123565
4529.345278,148.041188,-8427.050478,-592.164754
4529.345602,222.061783,-8350.440928,-592.164754
4529.345926,74.020594,-8733.488677,-518.144159
4529.346251,296.082377,-9039.926876,-518.144159
4529.346575,444.123565,-8350.440928,-296.082377
4529.346899,444.123565,-9269.755526,-518.144159
4529.347224,444.123565,-8503.660028,-370.102971
4529.347548,592.164754,-8503.660028,-518.144159
4529.347872,370.102971,-8503.660028,-444.123565
4529.348197,592.164754,-8580.269578,-444.123565
4529.348521,370.102971,-8810.098227,-592.164754
4529.348846,296.082377,-8656.879127,-518.144159
4529.349170,222.061783,-8197.221829,-444.123565
4529.349494,370.102971,-9039.926876,-296.082377
4529.349819,592.164754,-8503.660028,-444.123565
4529.350143,370.102971,-8810.098227,-370.102971
4529.350467,222.061783,-8733.488677,-444.123565
4529.350792,0.000000,-8733.488677,-444.123565
4529.351116,296.082377,-8656.879127,-370.102971
4529.351440,148.041188,-8733.488677,-148.041188
4529.351765,222.061783,-8733.488677,-296.082377
4529.352089,296.082377,-8580.269578,-148.041188
4529.352413,296.082377,-8350.440928,-444.123565
4529.352738,444.123565,-8350.440928,-518.144159
4529.353062,444.123565,-8656.879127,-444.123565
4529.353386,592.164754,-8503.660028,-444.123565
4529.353711,296.082377,-8197.221829,-444.123565
4529.354035,222.061783,-8273.831378,-740.205942
4529.354359,592.164754,-8580.269578,-370.102971
4529.354684,370.102971,-8580.269578,-592.164754
4529.355008,592.164754,-8580.269578,-296.082377
4529.355332,518.144159,-8580.269578,0.000000
4529.355657,518.144159,-8503.660028,-370.102971
4529.355981,296.082377,-8273.831378,74.020594
4529.356305,518.144159,-8503.660028,-296.082377
4529.356630,296.082377,-8350.440928,0.000000
4529.356954,444.123565,-8197.221829,74.020594
4529.357278,666.185348,-8273.831378,0.000000
4529.357603,444.123565,-8120.612279,-74.020594
4529.357927,592.164754,-8427.050478,-370.102971
4529.358252,518.144159,-8197.221829,0.000000
4529.358576,518.144159,-8580.269578,0.000000
4529.358900,592.164754,-8733.488677,74.020594
4529.359225,518.144159,-9039.926876,-148.041188
4529.359549,222.061783,-8044.002729,0.000000
4529.359873,222.061783,-8733.488677,-148.041188
4529.360198,740.205942,-8733.488677,-296.082377
4529.360522,444.123565,-8197.221829,0.000000
4529.360846,518.144159,-8503.660028,-296.082377
4529.361171,592.164754,-8350.440928,-444.123565
4529.361495,592.164754,-8427.050478,-444.123565
4529.361819,592.164754,-8503.660028,-222.061783
4529.362144,518.144159,-8427.050478,-222.061783
4529.362468,1036.288319,-8733.488677,0.000000
4529.362792,444.123565,-8733.488677,-370.102971
4529.363117,444.123565,-8886.707777,-222.061783
4529.363441,74.020594,-8963.317327,-370.102971
4529.363765,296.082377,-8656.879127,0.000000
4529.364090,296.082377,-8733.488677,0.000000
4529.364414,148.041188,-9039.926876,-296.082377
4529.364738,0.000000,-8503.660028,0.000000
4529.365063,296.082377,-8733.488677,-222.061783
4529.365387,666.185348,-8503.660028,-222.061783
4529.365711,370.102971,-8656.879127,0.000000
4529.366036,518.144159,-8503.660028,0.000000
4529.366360,444.123565,-8427.050478,-296.082377
4529.366685,592.164754,-7814.174080,0.000000
4529.367009,518.144159,-8963.317327,-370.102971
4529.367333,518.144159,-8733.488677,0.000000
4529.367658,296.082377,-8656.879127,-222.061783
4529.367982,0.000000,-8427.050478,0.000000
4529.368306,148.041188,-8580.269578,-148.041188
4529.368631,74.020594,-8733.488677,-296.082377
4529.368955,222.061783,-8733.488677,-370.102971
4529.369279,518.144159,-8503.660028,0.000000
4529.369604,518.144159,-8197.221829,0.000000
4529.369928,370.102971,-8427.050478,-518.144159
4529.370252,666.185348,-8580.269578,-222.061783
4529.370577,740.205942,-8273.831378,-518.144159
4529.370901,740.205942,-8886.707777,0.000000
4529.371225,296.082377,-8350.440928,-222.061783
4529.371550,666.185348,-9039.926876,-444.123565
4529.371874,370.102971,-8580.269578,-666.185348
4529.372198,518.144159,-8580.269578,-296.082377
4529.372523,370.102971,-8197.221829,-370.102971
4529.372847,518.144159,-8580.269578,-222.061783
4529.373171,296.082377,-8503.660028,0.000000
4529.373496,666.185348,-8273.831378,0.000000
4529.373820,666.185348,-8120.612279,-148.041188
4529.374144,814.226536,-8427.050478,0.000000
4529.374469,666.185348,-8197.221829,-222.061783
4529.374793,592.164754,-8580.269578,0.000000
4529.375117,518.144159,-8580.269578,-296.082377
4529.375442,814.226536,-8350.440928,-296.082377
4529.375766,740.205942,-8656.879127,-444.123565
4529.376091,444.123565,-8733.488677,0.000000
4529.376415,444.123565,-8503.660028,0.000000
4529.376739,518.144159,-8580.269578,0.000000
4529.377064,370.102971,-8656.879127,-222.061783
4529.377388,370.102971,-8656.879127,-148.041188
4529.377712,592.164754,-8044.002729,-370.102971
4529.378037,1036.288319,-8733.488677,-148.041188
4529.378361,444.123565,-8350.440928,-518.144159
4529.378686,740.205942,-8427.050478,-740.205942
4529.379010,444.123565,-8350.440928,-592.164754
4529.379335,592.164754,-8810.098227,-518.144159
4529.379659,444.123565,-8580.269578,-518.144159
4529.379984,296.082377,-8580.269578,-666.185348
4529.380308,222.061783,-8503.660028,-814.226536
4529.380632,74.020594,-8580.269578,-666.185348
4529.380957,296.082377,-8656.879127,-592.164754
4529.381281,0.000000,-8503.660028,-592.164754
4529.381606,222.061783,-8656.879127,-666.185348
4529.381930,222.061783,-8503.660028,-740.205942
4529.382255,444.123565,-8350.440928,-592.164754
4529.382579,296.082377,-8733.488677,-518.144159
4529.382904,148.041188,-8810.098227,-370.102971
4529.383228,444.123565,-8580.269578,-370.102971
4529.383552,74.020594,-8656.879127,-518.144159
4529.383877,296.082377,-8350.440928,-592.164754
4529.384201,444.123565,-8656.879127,-518.144159
4529.384526,444.123565,-8656.879127,-518.144159
4529.384850,444.123565,-8580.269578,-592.164754
4529.385175,296.082377,-8580.269578,-296.082377
4529.385499,370.102971,-8886.707777,-370.102971
4529.385824,296.082377,-8427.050478,-666.185348
4529.386148,518.144159,-8886.707777,-666.185348
4529.386472,296.082377,-8197.221829,-296.082377
4529.386797,888.247130,-8580.269578,-592.164754
4529.387121,666.185348,-8580.269578,-740.205942
4529.387446,444.123565,-8810.098227,-592.164754
4529.387770,296.082377,-8733.488677,-444.123565
4529.388095,740.205942,-8350.440928,-592.164754
4529.388419,518.144159,-8580.269578,-666.185348
4529.388744,592.164754,-8733.488677,-666.185348
4529.389068,518.144159,-8733.488677,-740.205942
4529.389393,666.185348,-9576.193725,-222.061783
4529.389717,222.061783,-8580.269578,-518.144159
4529.390041,222.061783,-8810.098227,-222.061783
4529.390366,370.102971,-8733.488677,-148.041188
4529.390690,370.102971,-8656.879127,-370.102971
4529.391015,592.164754,-8273.831378,-444.123565
4529.391339,740.205942,-8350.440928,-370.102971
4529.391664,666.185348,-8120.612279,-296.082377
4529.391988,666.185348,-8503.660028,-148.041188
4529.392313,666.185348,-7890.783629,-222.061783
4529.392637,740.205942,-8580.269578,-148.041188
4529.392961,592.164754,-8503.660028,-296.082377
4529.393286,444.123565,-8963.317327,0.000000
4529.393610,740.205942,-8656.879127,0.000000
4529.393935,592.164754,-8580.269578,0.000000
4529.394259,296.082377,-8503.660028,-148.041188
4529.394584,370.102971,-8656.879127,0.000000
4529.394908,592.164754,-8580.269578,0.000000
4529.395233,444.123565,-8197.221829,-222.061783
4529.395557,296.082377,-8656.879127,0.000000
4529.395882,222.061783,-8350.440928,-222.061783
4529.396206,518.144159,-8656.879127,-222.061783
4529.396530,0.000000,-8427.050478,-296.082377
4529.396855,296.082377,-8733.488677,-296.082377
4529.397179,74.020594,-9116.536426,0.000000
4529.397504,0.000000,-8656.879127,0.000000
4529.397828,0.000000,-8963.317327,-592.164754
4529.398153,148.041188,-8580.269578,-444.123565
4529.398477,296.082377,-8427.050478,-296.082377
4529.398802,148.041188,-8503.660028,-296.082377
4529.399126,222.061783,-8963.317327,-740.205942
4529.399450,444.123565,-8503.660028,-814.226536
4529.399775,444.123565,-8733.488677,-444.123565
4529.400099,444.123565,-8580.269578,-444.123565
4529.400424,444.123565,-8503.660028,-370.102971
4529.400748,666.185348,-9116.536426,-740.205942
4529.401073,370.102971,-8427.050478,-296.082377
4529.401397,444.123565,-8656.879127,-592.164754
4529.401722,740.205942,-8810.098227,-518.144159
4529.402046,592.164754,-9269.755526,-296.082377
4529.402371,370.102971,-8963.317327,-296.082377
4529.402695,222.061783,-8503.660028,-222.061783
4529.403019,518.144159,-8656.879127,0.000000
4529.403344,444.123565,-8580.269578,-444.123565
4529.403668,444.123565,-8427.050478,0.000000
4529.403993,518.144159,-8350.440928,-222.061783
4529.404317,666.185348,-8350.440928,0.000000
4529.404642,740.205942,-8120.612279,-518.144159
4529.404966,888.247130,-9193.145976,0.000000
4529.405291,962.267725,-8350.440928,-740.205942
4529.405615,740.205942,-8503.660028,-518.144159
4529.405939,296.082377,-8656.879127,-370.102971
4529.406264,518.144159,-9499.584175,-518.144159
4529.406588,592.164754,-8503.660028,-666.185348
4529.406913,444.123565,-8733.488677,-666.185348
4529.407237,296.082377,-8427.050478,-592.164754
4529.407562,518.144159,-8656.879127,-592.164754
4529.407886,740.205942,-8733.488677,-518.144159
4529.408211,666.185348,-8580.269578,-370.102971
4529.408535,518.144159,-8197.221829,-518.144159
4529.408859,814.226536,-8656.879127,-222.061783
4529.409184,222.061783,-8886.707777,-222.061783
4529.409508,518.144159,-8963.317327,-296.082377
4529.409833,814.226536,-8427.050478,-370.102971
4529.410157,444.123565,-9039.926876,-370.102971
4529.410482,444.123565,-8886.707777,-296.082377
4529.410806,370.102971,-9039.926876,-296.082377
4529.411131,296.082377,-8810.098227,-148.041188
4529.411455,0.000000,-8810.098227,0.000000
4529.411780,148.041188,-8656.879127,-592.164754
4529.412104,370.102971,-9193.145976,-148.041188
4529.412428,148.041188,-8197.221829,-296.082377
4529.412753,370.102971,-8810.098227,-296.082377
4529.413077,222.061783,-8273.831378,-592.164754
4529.413402,444.123565,-9116.536426,0.000000
4529.413726,592.164754,-8503.660028,-888.247130
4529.414051,74.020594,-8963.317327,-518.144159
4529.414375,148.041188,-8656.879127,-592.164754
4529.414700,148.041188,-8810.098227,-666.185348
4529.415024,222.061783,-9039.926876,-740.205942
4529.415348,222.061783,-9039.926876,-666.185348
4529.415673,296.082377,-8580.269578,-666.185348
4529.415997,222.061783,-8810.098227,-592.164754
4529.416322,222.061783,-8963.317327,-444.123565
4529.416646,222.061783,-8580.269578,-444.123565
4529.416971,592.164754,-8350.440928,-666.185348
4529.417295,518.144159,-8503.660028,-666.185348
4529.417620,74.020594,-9039.926876,-222.061783
4529.417944,148.041188,-8963.317327,-296.082377
4529.418269,444.123565,-8580.269578,-666.185348
4529.418593,148.041188,-8350.440928,-518.144159
4529.418917,222.061783,-8427.050478,-518.144159
4529.419242,296.082377,-8427.050478,-74.020594
4529.419566,296.082377,-8503.660028,0.000000
4529.419891,518.144159,-8656.879127,-148.041188
4529.420215,518.144159,-8197.221829,-296.082377
4529.420540,888.247130,-8580.269578,-592.164754
4529.420864,518.144159,-8427.050478,-222.061783
4529.421189,592.164754,-8733.488677,0.000000
4529.421513,592.164754,-8273.831378,0.000000
4529.421837,666.185348,-8273.831378,-74.020594
4529.422162,592.164754,-8580.269578,-444.123565
4529.422486,888.247130,-8656.879127,-370.102971
4529.422811,814.226536,-8427.050478,-370.102971
4529.423135,666.185348,-8427.050478,-296.082377
4529.423460,444.123565,-8656.879127,-222.061783
4529.423784,814.226536,-8656.879127,-296.082377
4529.424109,518.144159,-8580.269578,-444.123565
4529.424433,370.102971,-8580.269578,-296.082377
4529.424758,518.144159,-8273.831378,74.020594
4529.425082,370.102971,-8733.488677,-222.061783
4529.425406,444.123565,-8197.221829,-592.164754
4529.425731,740.205942,-8350.440928,-296.082377
4529.426055,518.144159,-8427.050478,148.041188
4529.426380,592.164754,-8580.269578,-222.061783
4529.426704,518.144159,-8580.269578,-444.123565
4529.427029,518.144159,-8197.221829,-296.082377
4529.427353,370.102971,-8656.879127,-444.123565
4529.427678,0.000000,-8273.831378,-296.082377
4529.428002,222.061783,-8580.269578,0.000000
4529.428326,0.000000,-8963.317327,0.000000
4529.428651,0.000000,-8503.660028,-222.061783
4529.428975,0.000000,-8273.831378,0.000000
4529.429300,148.041188,-8886.707777,0.000000
4529.429624,148.041188,-8580.269578,-296.082377
4529.429949,148.041188,-8350.440928,-296.082377
4529.430273,222.061783,-8580.269578,-370.102971
4529.430598,296.082377,-8427.050478,-296.082377
4529.430922,444.123565,-8580.269578,-518.144159
4529.431246,148.041188,-8580.269578,-666.185348
4529.431571,370.102971,-8656.879127,-370.102971
4529.431895,148.041188,-8427.050478,-592.164754
4529.432220,296.082377,-8886.707777,-148.041188
4529.432544,222.061783,-8810.098227,-592.164754
4529.432869,370.102971,-8886.707777,-222.061783
4529.433193,888.247130,-8273.831378,-518.144159
4529.433518,518.144159,-8810.098227,-444.123565
4529.433842,370.102971,-8350.440928,-740.205942
4529.434167,444.123565,-8656.879127,-370.102971
4529.434491,666.185348,-8503.660028,-370.102971
4529.434815,222.061783,-8427.050478,-222.061783
4529.435140,518.144159,-8350.440928,-222.061783
4529.435464,444.123565,-8503.660028,0.000000
4529.435789,444.123565,-8427.050478,-444.123565
4529.436113,814.226536,-8273.831378,-814.226536
4529.436438,666.185348,-8656.879127,-370.102971
4529.436762,666.185348,-8427.050478,0.000000
4529.437087,444.123565,-8733.488677,-444.123565
4529.437411,444.123565,-8120.612279,296.082377
4529.437735,444.123565,-8810.098227,-222.061783
4529.438060,518.144159,-8656.879127,0.000000
4529.438384,370.102971,-8273.831378,-148.041188
4529.438709,518.144159,-8580.269578,148.041188
4529.439033,370.102971,-8120.612279,0.000000
4529.439358,592.164754,-8427.050478,0.000000
4529.439682,740.205942,-8427.050478,-592.164754
4529.440007,814.226536,-8350.440928,-222.061783
4529.440331,888.247130,-8120.612279,0.000000
4529.440656,592.164754,-8580.269578,-444.123565
4529.440980,740.205942,-8886.707777,-444.123565
4529.441304,518.144159,-8656.879127,-296.082377
4529.441629,296.082377,-7967.393179,-370.102971
4529.441953,370.102971,-8580.269578,0.000000
4529.442278,518.144159,-8656.879127,-148.041188
4529.442602,370.102971,-8656.879127,-518.144159
4529.442927,518.144159,-8733.488677,-296.082377
4529.443251,592.164754,-8733.488677,-296.082377
4529.443576,666.185348,-8427.050478,-296.082377
4529.443900,370.102971,-8580.269578,-222.061783
4529.444224,222.061783,-8580.269578,-148.041188
4529.444549,814.226536,-9193.145976,-148.041188
4529.444873,296.082377,-8580.269578,-370.102971
4529.445198,370.102971,-9116.536426,-296.082377
4529.445522,296.082377,-8733.488677,-222.061783
4529.445847,148.041188,-9116.536426,-296.082377
4529.446171,0.000000,-8503.660028,-370.102971
4529.446496,222.061783,-8886.707777,-370.102971
4529.446820,222.061783,-8810.098227,-370.102971
4529.447145,74.020594,-8197.221829,-296.082377
4529.447469,74.020594,-8503.660028,0.000000
4529.447793,666.185348,-8656.879127,-370.102971
4529.448118,592.164754,-8427.050478,-296.082377
4529.448442,518.144159,-8580.269578,-592.164754
4529.448767,518.144159,-8580.269578,-444.123565
4529.449091,296.082377,-8733.488677,-518.144159
4529.449416,296.082377,-8886.707777,-518.144159
4529.449740,74.020594,-8656.879127,-518.144159
4529.450065,74.020594,-8810.098227,-74.020594
4529.450389,0.000000,-8120.612279,-222.061783
4529.450713,592.164754,-8810.098227,0.000000
4529.451038,518.144159,-8656.879127,-296.082377
4529.451362,888.247130,-8503.660028,-148.041188
4529.451687,592.164754,-8197.221829,-592.164754
4529.452011,444.123565,-8580.269578,-296.082377
4529.452336,222.061783,-8503.660028,-296.082377
4529.452660,444.123565,-8656.879127,0.000000
4529.452985,74.020594,-8044.002729,-592.164754
4529.453309,296.082377,-8273.831378,-444.123565
4529.453633,666.185348,-8733.488677,-666.185348
4529.453958,370.102971,-8733.488677,0.000000
4529.454282,518.144159,-8810.098227,-296.082377
4529.454607,74.020594,-8427.050478,-592.164754
4529.454931,888.247130,-8350.440928,-222.061783
4529.455256,296.082377,-8580.269578,-296.082377
4529.455580,370.102971,-8656.879127,-370.102971
4529.455905,518.144159,-8886.707777,-296.082377
4529.456229,222.061783,-8580.269578,-444.123565
4529.456554,296.082377,-8427.050478,-296.082377
4529.456878,370.102971,-8197.221829,-296.082377
4529.457202,814.226536,-8503.660028,0.000000
4529.457527,740.205942,-7660.954980,-222.061783
4529.457851,666.185348,-8656.879127,-592.164754
4529.458176,518.144159,-8273.831378,-666.185348
4529.458500,370.102971,-8580.269578,-296.082377
4529.458825,518.144159,-8580.269578,-740.205942
4529.459149,370.102971,-8656.879127,-148.041188
4529.459474,222.061783,-8656.879127,-296.082377
4529.459798,148.041188,-8810.098227,0.000000
4529.460122,370.102971,-8580.269578,-222.061783
4529.460447,444.123565,-8886.707777,-370.102971
4529.460771,370.102971,-8273.831378,0.000000
4529.461096,370.102971,-8656.879127,0.000000
4529.461420,370.102971,-8427.050478,-370.102971
4529.461745,666.185348,-8580.269578,-518.144159
4529.462069,148.041188,-8656.879127,-518.144159
4529.462394,148.041188,-8810.098227,-518.144159
4529.462718,222.061783,-8963.317327,-222.061783
4529.463043,518.144159,-9346.365076,222.061783
4529.463367,0.000000,-8580.269578,-296.082377
4529.463691,222.061783,-8886.707777,-148.041188
4529.464016,296.082377,-8503.660028,-444.123565
4529.464340,814.226536,-9499.584175,-666.185348
4529.464665,296.082377,-8350.440928,0.000000
4529.464989,0.000000,-8427.050478,-518.144159
4529.465314,444.123565,-8273.831378,-370.102971
4529.465638,370.102971,-8503.660028,-666.185348
4529.465963,444.123565,-8350.440928,-592.164754
4529.466287,444.123565,-8656.879127,-370.102971
4529.466611,444.123565,-8580.269578,-148.041188
4529.466936,444.123565,-8886.707777,-444.123565
4529.467260,962.267725,-8580.269578,-666.185348
4529.467585,814.226536,-8503.660028,-222.061783
4529.467909,740.205942,-8427.050478,-666.185348
4529.468234,592.164754,-8656.879127,-222.061783
4529.468558,740.205942,-8656.879127,-592.164754
4529.468883,592.164754,-8503.660028,-370.102971
4529.469207,518.144159,-8350.440928,-148.041188
4529.469531,444.123565,-8427.050478,0.000000
4529.469856,518.144159,-8503.660028,-222.061783
4529.470180,962.267725,-8580.269578,-296.082377
4529.470505,740.205942,-8503.660028,0.000000
4529.470829,814.226536,-8656.879127,-518.144159
4529.471154,888.247130,-8656.879127,74.020594
4529.471478,962.267725,-8963.317327,0.000000
4529.471803,444.123565,-8810.098227,-222.061783
4529.472127,148.041188,-8886.707777,-370.102971
4529.472452,222.061783,-8733.488677,0.000000
4529.472776,370.102971,-9346.365076,-592.164754
4529.473100,296.082377,-9193.145976,-444.123565
4529.473425,444.123565,-8733.488677,74.020594
4529.473749,518.144159,-8350.440928,-222.061783
4529.474074,518.144159,-8580.269578,-148.041188
4529.474398,592.164754,-8656.879127,-370.102971
4529.474723,888.247130,-8503.660028,0.000000
4529.475047,518.144159,-8427.050478,-444.123565
4529.475372,740.205942,-8810.098227,-370.102971
4529.475696,0.000000,-8886.707777,370.102971
4529.476020,148.041188,-9039.926876,-148.041188
4529.476345,0.000000,-8350.440928,-222.061783
4529.476669,-148.041188,-8733.488677,0.000000
4529.476994,222.061783,-9039.926876,0.000000
4529.477318,592.164754,-8197.221829,-222.061783
4529.477643,370.102971,-8580.269578,-296.082377
4529.477967,518.144159,-8273.831378,-148.041188
4529.478292,592.164754,-8503.660028,0.000000
4529.478616,444.123565,-8733.488677,-148.041188
4529.478941,222.061783,-8503.660028,-148.041188
4529.479265,296.082377,-8580.269578,-222.061783
4529.479589,148.041188,-8963.317327,-592.164754
4529.479914,148.041188,-8886.707777,-518.144159
4529.480238,74.020594,-8733.488677,-148.041188
4529.480563,222.061783,-8810.098227,-222.061783
4529.480887,0.000000,-8656.879127,-148.041188
4529.481212,592.164754,-8733.488677,-518.144159
4529.481536,740.205942,-8503.660028,-444.123565
4529.481861,740.205942,-8197.221829,-518.144159
4529.482185,888.247130,-8656.879127,-444.123565
4529.482510,962.267725,-8197.221829,-444.123565
4529.482834,592.164754,-8733.488677,-1036.288319
4529.483159,370.102971,-8656.879127,-444.123565
4529.483483,222.061783,-8580.269578,-444.123565
4529.483808,518.144159,-8810.098227,-222.061783
4529.484132,888.247130,-8656.879127,-222.061783
4529.484456,518.144159,-8886.707777,-518.144159
4529.484781,444.123565,-8810.098227,-518.144159
4529.485105,962.267725,-8197.221829,-518.144159
4529.485430,814.226536,-8810.098227,-592.164754
4529.485754,222.061783,-8580.269578,-370.102971
4529.486079,592.164754,-8503.660028,-296.082377
4529.486403,444.123565,-8580.269578,-370.102971
4529.486728,370.102971,-8810.098227,-370.102971
4529.487052,888.247130,-8427.050478,-296.082377
4529.487377,740.205942,-9116.536426,-370.102971
4529.487701,592.164754,-8350.440928,-370.102971
4529.488026,888.247130,-8427.050478,-592.164754
4529.488350,740.205942,-8963.317327,0.000000
4529.488674,518.144159,-8503.660028,-370.102971
4529.488999,370.102971,-8503.660028,-444.123565
4529.489323,370.102971,-8503.660028,-296.082377
4529.489648,296.082377,-8580.269578,-444.123565
4529.489972,222.061783,-8810.098227,-888.247130
4529.490297,296.082377,-8656.879127,-444.123565
4529.490621,296.082377,-8656.879127,-444.123565
4529.490946,74.020594,-8427.050478,-518.144159
4529.491270,1184.329507,-8810.098227,-666.185348
4529.491595,370.102971,-8580.269578,-814.226536
4529.491919,740.205942,-8427.050478,-370.102971
4529.492244,518.144159,-8044.002729,-740.205942
4529.492568,592.164754,-8886.707777,-444.123565
4529.492893,444.123565,-8733.488677,-888.247130
4529.493217,444.123565,-8656.879127,-592.164754
4529.493541,0.000000,-8656.879127,-592.164754
4529.493866,0.000000,-8733.488677,-296.082377
4529.494190,148.041188,-9116.536426,-444.123565
4529.494515,148.041188,-8733.488677,-444.123565
4529.494839,296.082377,-8503.660028,-370.102971
4529.495164,370.102971,-8656.879127,-296.082377
4529.495488,962.267725,-8810.098227,0.000000
4529.495813,444.123565,-8350.440928,-370.102971
4529.496137,296.082377,-8580.269578,-666.185348
4529.496462,444.123565,-8580.269578,-370.102971
4529.496786,148.041188,-8886.707777,-592.164754
4529.497111,0.000000,-9193.145976,0.000000
4529.497435,0.000000,-8656.879127,0.000000
4529.497759,0.000000,-8810.098227,-296.082377
4529.498084,148.041188,-8503.660028,-148.041188
4529.498408,74.020594,-8120.612279,0.000000
4529.498733,592.164754,-8810.098227,-148.041188
4529.499057,666.185348,-8044.002729,-148.041188
4529.499382,814.226536,-8350.440928,-296.082377
4529.499706,518.144159,-8120.612279,-222.061783
4529.500031,518.144159,-8427.050478,-592.164754
4529.500355,518.144159,-8656.879127,-296.082377
4529.500680,518.144159,-8503.660028,-518.144159
4529.501004,222.061783,-8733.488677,-370.102971
4529.501329,444.123565,-8733.488677,-666.185348
4529.501653,296.082377,-8503.660028,-592.164754
4529.501977,296.082377,-8580.269578,-518.144159
4529.502302,518.144159,-8656.879127,-370.102971
4529.502626,1036.288319,-8350.440928,-740.205942
4529.502951,296.082377,-8656.879127,-370.102971
4529.503275,592.164754,-8580.269578,-518.144159
4529.503600,444.123565,-8580.269578,-222.061783
4529.503924,814.226536,-8810.098227,-74.020594
4529.504249,444.123565,-8656.879127,222.061783
4529.504573,518.144159,-8503.660028,-222.061783
4529.504898,592.164754,-8427.050478,-222.061783
4529.505222,666.185348,-8197.221829,-666.185348
4529.505547,962.267725,-9039.926876,-592.164754
4529.505871,740.205942,-8656.879127,-370.102971
4529.506196,518.144159,-8733.488677,-296.082377
4529.506520,222.061783,-8733.488677,-370.102971
4529.506844,592.164754,-9039.926876,-296.082377
4529.507169,296.082377,-8503.660028,-222.061783
4529.507493,444.123565,-8886.707777,-222.061783
4529.507818,518.144159,-8733.488677,-370.102971
4529.508142,888.247130,-8350.440928,0.000000
4529.508467,592.164754,-8273.831378,-444.123565
4529.508791,518.144159,-8733.488677,-370.102971
4529.509116,888.247130,-8580.269578,-666.185348
4529.509440,666.185348,-8427.050478,-518.144159
4529.509765,444.123565,-8503.660028,-370.102971
4529.510089,222.061783,-8580.269578,-666.185348
4529.510414,74.020594,-8656.879127,-370.102971
4529.510738,0.000000,-8810.098227,-222.061783
4529.511062,222.061783,-8273.831378,0.000000
4529.511387,148.041188,-8886.707777,0.000000
4529.511711,148.041188,-8656.879127,-296.082377
4529.512036,296.082377,-8580.269578,0.000000
4529.512360,444.123565,-7354.516781,-370.102971
4529.512685,296.082377,-8350.440928,-296.082377
4529.513009,592.164754,-8273.831378,-518.144159
4529.513334,296.082377,-8427.050478,-296.082377
4529.513658,518.144159,-8580.269578,-518.144159
4529.513983,666.185348,-8273.831378,-518.144159
4529.514307,592.164754,-8503.660028,-370.102971
4529.514632,370.102971,-8733.488677,-370.102971
4529.514956,444.123565,-8656.879127,-444.123565
4529.515280,148.041188,-8503.660028,-296.082377
4529.515605,0.000000,-8350.440928,-444.123565
4529.515929,222.061783,-8656.879127,-740.205942
4529.516254,370.102971,-8197.221829,-444.123565
4529.516578,592.164754,-8503.660028,-592.164754
4529.516903,222.061783,-7967.393179,-592.164754
4529.517227,666.185348,-8427.050478,-666.185348
4529.517552,592.164754,-8427.050478,-666.185348
4529.517876,666.185348,-8733.488677,-370.102971
4529.518201,740.205942,-8044.002729,0.000000
4529.518525,444.123565,-8963.317327,-370.102971
4529.518850,296.082377,-8886.707777,-370.102971
4529.519174,148.041188,-8580.269578,-222.061783
4529.519499,740.205942,-8427.050478,-518.144159
4529.519823,0.000000,-8273.831378,-222.061783
4529.520147,222.061783,-8580.269578,-370.102971
4529.520472,370.102971,-8503.660028,-518.144159
4529.520796,666.185348,-8273.831378,-370.102971
4529.521121,518.144159,-8197.221829,-444.123565
4529.521445,592.164754,-8733.488677,-444.123565
4529.521770,592.164754,-8273.831378,-444.123565
4529.522094,814.226536,-8580.269578,-518.144159
4529.522419,740.205942,-9039.926876,-666.185348
4529.522743,740.205942,-8656.879127,-666.185348
4529.523068,444.123565,-8886.707777,-518.144159
4529.523392,370.102971,-8503.660028,-444.123565
4529.523717,222.061783,-9269.755526,-444.123565
4529.524041,148.041188,-8656.879127,-370.102971
4529.524365,296.082377,-8503.660028,-444.123565
4529.524690,444.123565,-8656.879127,-444.123565
4529.525014,444.123565,-8810.098227,0.000000
4529.525339,222.061783,-8350.440928,-370.102971
4529.525663,592.164754,-8886.707777,-518.144159
4529.525988,222.061783,-8273.831378,-962.267725
4529.526312,666.185348,-8656.879127,-666.185348
4529.526637,814.226536,-8963.317327,-518.144159
4529.526961,296.082377,-8580.269578,-296.082377
4529.527286,222.061783,-8733.488677,-814.226536
4529.527610,370.102971,-9039.926876,-296.082377
4529.527935,74.020594,-8810.098227,-444.123565
4529.528259,444.123565,-8427.050478,-296.082377
4529.528584,444.123565,-8733.488677,-370.102971
4529.528908,296.082377,-8886.707777,0.000000
4529.529232,592.164754,-8580.269578,-370.102971
4529.529557,148.041188,-8580.269578,0.000000
4529.529881,592.164754,-8580.269578,-222.061783
4529.530206,444.123565,-7967.393179,0.000000
4529.530530,518.144159,-8733.488677,0.000000
4529.530855,444.123565,-7814.174080,-296.082377
4529.531179,666.185348,-8580.269578,-444.123565
4529.531504,370.102971,-8733.488677,0.000000
4529.531828,370.102971,-8963.317327,-148.041188
4529.532153,444.123565,-8656.879127,0.000000
4529.532477,518.144159,-8580.269578,-148.041188
4529.532802,296.082377,-8656.879127,0.000000
4529.533126,370.102971,-8656.879127,-222.061783
4529.533450,666.185348,-8733.488677,-444.123565
4529.533775,444.123565,-8273.831378,148.041188
4529.534099,740.205942,-8350.440928,-444.123565
4529.534424,296.082377,-8503.660028,-444.123565
4529.534748,888.247130,-8273.831378,-370.102971
4529.535073,666.185348,-8963.317327,-222.061783
4529.535397,814.226536,-8580.269578,-370.102971
4529.535722,518.144159,-8503.660028,-222.061783
4529.536046,666.185348,-8656.879127,-296.082377
4529.536371,370.102971,-8427.050478,-592.164754
4529.536695,666.185348,-8810.098227,-518.144159
4529.537020,444.123565,-8503.660028,-444.123565
4529.537344,296.082377,-8810.098227,-222.061783
4529.537668,222.061783,-8580.269578,-370.102971
4529.537993,222.061783,-8733.488677,0.000000
4529.538317,222.061783,-8197.221829,-370.102971
4529.538642,370.102971,-8427.050478,-222.061783
4529.538966,518.144159,-8580.269578,-296.082377
4529.539291,814.226536,-9116.536426,-518.144159
4529.539615,444.123565,-8427.050478,-592.164754
4529.539940,518.144159,-8503.660028,-370.102971
4529.540264,222.061783,-8733.488677,-666.185348
4529.540589,370.102971,-8886.707777,-148.041188
4529.540913,74.020594,-8810.098227,-592.164754
4529.541238,-222.061783,-8963.317327,-370.102971
4529.541562,0.000000,-8733.488677,-518.144159
4529.541887,148.041188,-8886.707777,-592.164754
4529.542211,0.000000,-9116.536426,74.020594
4529.542535,518.144159,-8427.050478,-296.082377
4529.542860,370.102971,-8503.660028,-592.164754
4529.543184,592.164754,-8503.660028,-592.164754
4529.543509,666.185348,-8963.317327,-814.226536
4529.543833,888.247130,-8733.488677,-740.205942
4529.544158,592.164754,-8350.440928,-592.164754
4529.544482,222.061783,-8810.098227,-518.144159
4529.544807,74.020594,-8886.707777,-370.102971
4529.545131,0.000000,-9039.926876,-296.082377
4529.545456,222.061783,-8810.098227,-370.102971
4529.545780,74.020594,-8886.707777,-148.041188
4529.546105,444.123565,-8580.269578,0.000000
4529.546429,666.185348,-8886.707777,148.041188
4529.546753,592.164754,-8120.612279,0.000000
4529.547078,592.164754,-8503.660028,0.000000
4529.547402,740.205942,-8503.660028,0.000000
4529.547727,518.144159,-8963.317327,0.000000
4529.548051,296.082377,-8656.879127,74.020594
4529.548376,74.020594,-8656.879127,74.020594
4529.548700,592.164754,-8656.879127,0.000000
4529.549025,296.082377,-8733.488677,-296.082377
4529.549349,370.102971,-8733.488677,0.000000
4529.549674,222.061783,-8503.660028,-148.041188
4529.549998,444.123565,-8503.660028,-370.102971
4529.550323,814.226536,-8427.050478,-444.123565
4529.550647,444.123565,-8810.098227,148.041188
4529.550972,296.082377,-7967.393179,-148.041188
4529.551296,518.144159,-7967.393179,-222.061783
4529.551620,518.144159,-8580.269578,-592.164754
4529.551945,592.164754,-8427.050478,-296.082377
4529.552269,518.144159,-8350.440928,-370.102971
4529.552594,592.164754,-8656.879127,-222.061783
4529.552918,814.226536,-8656.879127,-222.061783
4529.553243,444.123565,-8580.269578,-222.061783
4529.553567,814.226536,-8503.660028,-518.144159
4529.553892,444.123565,-8580.269578,-222.061783
4529.554216,296.082377,-8656.879127,-148.041188
4529.554541,296.082377,-8503.660028,0.000000
4529.554865,518.144159,-8733.488677,0.000000
4529.555190,296.082377,-8656.879127,-148.041188
4529.555514,666.185348,-8656.879127,0.000000
4529.555838,444.123565,-8886.707777,-444.123565
4529.556163,592.164754,-8580.269578,0.000000
4529.556487,222.061783,-8656.879127,0.000000
4529.556812,296.082377,-8656.879127,-296.082377
4529.557136,296.082377,-8503.660028,-370.102971
4529.557461,296.082377,-8886.707777,-666.185348
4529.557785,74.020594,-8273.831378,0.000000
4529.558110,222.061783,-8656.879127,-222.061783
4529.558434,0.000000,-9039.926876,-148.041188
4529.558759,0.000000,-9116.536426,-296.082377
4529.559083,222.061783,-8656.879127,0.000000
4529.559408,444.123565,-8580.269578,-666.185348
4529.559732,296.082377,-8580.269578,-148.041188
4529.560056,296.082377,-8580.269578,-518.144159
4529.560381,370.102971,-8503.660028,-740.205942
4529.560705,518.144159,-8273.831378,-592.164754
4529.561030,444.123565,-8810.098227,-814.226536
4529.561354,518.144159,-8427.050478,-592.164754
4529.561679,444.123565,-8733.488677,-814.226536
4529.562003,0.000000,-8886.707777,-370.102971
4529.562328,148.041188,-8810.098227,-296.082377
4529.562652,148.041188,-8580.269578,-592.164754
4529.562977,296.082377,-8503.660028,-222.061783
4529.563301,592.164754,-8733.488677,0.000000
4529.563626,888.247130,-8810.098227,-444.123565
4529.563950,444.123565,-8427.050478,-518.144159
4529.564275,592.164754,-8350.440928,-222.061783
4529.564599,740.205942,-8733.488677,-296.082377
4529.564923,740.205942,-8503.660028,-296.082377
4529.565248,740.205942,-8427.050478,-148.041188
4529.565572,666.185348,-8350.440928,-444.123565
4529.565897,740.205942,-8503.660028,-296.082377
4529.566221,888.247130,-8886.707777,-222.061783
4529.566546,370.102971,-8733.488677,0.000000
4529.566870,74.020594,-8427.050478,74.020594
4529.567195,222.061783,-8810.098227,-222.061783
4529.567519,222.061783,-8656.879127,0.000000
4529.567844,518.144159,-8886.707777,-592.164754
4529.568168,740.205942,-8580.269578,-222.061783
4529.568493,666.185348,-8350.440928,0.000000
4529.568817,592.164754,-8273.831378,-370.102971
4529.569141,962.267725,-8580.269578,-148.041188
4529.569466,740.205942,-8273.831378,-666.185348
4529.569790,592.164754,-8427.050478,-666.185348
4529.570115,518.144159,-8273.831378,-518.144159
4529.570439,740.205942,-8350.440928,0.000000
4529.570764,148.041188,-8810.098227,0.000000
4529.571088,444.123565,-8656.879127,-296.082377
4529.571413,148.041188,-8886.707777,-518.144159
4529.571737,444.123565,-8503.660028,-148.041188
4529.572062,444.123565,-8350.440928,-296.082377
4529.572386,444.123565,-8503.660028,-370.102971
4529.572711,370.102971,-8350.440928,0.000000
4529.573035,518.144159,-8350.440928,-370.102971
4529.573359,148.041188,-8427.050478,222.061783
4529.573684,74.020594,-8503.660028,74.020594
4529.574008,0.000000,-8503.660028,-296.082377
4529.574333,74.020594,-8733.488677,0.000000
4529.574657,370.102971,-8044.002729,-296.082377
4529.574982,592.164754,-9039.926876,0.000000
4529.575306,444.123565,-8273.831378,-148.041188
4529.575631,370.102971,-8810.098227,0.000000
4529.575955,0.000000,-8503.660028,-148.041188
4529.576280,666.185348,-8963.317327,-222.061783
4529.576604,296.082377,-8580.269578,-666.185348
4529.576929,370.102971,-8656.879127,-222.061783
4529.577253,518.144159,-8427.050478,-222.061783
4529.577578,518.144159,-9269.755526,0.000000
4529.577902,444.123565,-8580.269578,-370.102971
4529.578226,740.205942,-8656.879127,-444.123565
4529.578551,592.164754,-8503.660028,-370.102971
4529.578875,518.144159,-8810.098227,-518.144159
4529.579200,296.082377,-8886.707777,-296.082377
4529.579524,370.102971,-9193.145976,-444.123565
4529.579848,296.082377,-8810.098227,-370.102971
4529.580173,148.041188,-8656.879127,-370.102971
4529.580497,0.000000,-8886.707777,222.061783
4529.580822,296.082377,-8656.879127,0.000000
4529.581146,444.123565,-8810.098227,-296.082377
4529.581470,222.061783,-8273.831378,148.041188
4529.581795,666.185348,-8273.831378,0.000000
4529.582119,666.185348,-8044.002729,-222.061783
4529.582443,592.164754,-8503.660028,-148.041188
4529.582768,370.102971,-8427.050478,-370.102971
4529.583092,370.102971,-8810.098227,-296.082377
4529.583417,296.082377,-8503.660028,-666.185348
4529.583741,592.164754,-8733.488677,-444.123565
4529.584065,518.144159,-8580.269578,-518.144159
4529.584390,148.041188,-8886.707777,-444.123565
4529.584714,0.000000,-8273.831378,-740.205942
4529.585038,444.123565,-8733.488677,-444.123565
4529.585363,740.205942,-8044.002729,-888.247130
4529.585687,592.164754,-8350.440928,-444.123565
4529.586012,296.082377,-8120.612279,-962.267725
4529.586336,592.164754,-8580.269578,-740.205942
4529.586660,592.164754,-8197.221829,-666.185348
