#time,accel_x,accel_y,accel_z
4258.670168,444.123565,-8503.660028,-518.144159
4258.670492,370.102971,-8810.098227,-296.082377
4258.670816,222.061783,-8503.660028,-296.082377
4258.671141,444.123565,-7890.783629,0.000000
4258.671465,370.102971,-8656.879127,-444.123565
4258.671789,444.123565,-8503.660028,0.000000
4258.672114,518.144159,-8656.879127,-296.082377
4258.672438,518.144159,-8503.660028,-518.144159
4258.672762,518.144159,-8350.440928,-148.041188
4258.673087,518.144159,-8503.660028,-592.164754
4258.673411,740.205942,-8656.879127,-518.144159
4258.673735,222.061783,-8656.879127,-222.061783
4258.674060,222.061783,-8580.269578,0.000000
4258.674384,444.123565,-8427.050478,-518.144159
4258.674708,444.123565,-8886.707777,-296.082377
4258.675033,592.164754,-8503.660028,-370.102971
4258.675357,370.102971,-8273.831378,148.041188
4258.675681,74.020594,-8810.098227,-370.102971
4258.676005,518.144159,-8580.269578,-370.102971
4258.676330,592.164754,-8963.317327,-370.102971
4258.676654,444.123565,-8427.050478,-592.164754
4258.676978,148.041188,-8656.879127,0.000000
4258.677303,518.144159,-8503.660028,-592.164754
4258.677627,370.102971,-8886.707777,-222.061783
4258.677951,518.144159,-8503.660028,-296.082377
4258.678276,518.144159,-8580.269578,-148.041188
4258.678600,370.102971,-8810.098227,-370.102971
4258.678924,444.123565,-8733.488677,-296.082377
4258.679249,296.082377,-8656.879127,-370.102971
4258.679573,518.144159,-8656.879127,-444.123565
4258.679897,518.144159,-8503.660028,-518.144159
4258.680222,148.041188,-8580.269578,0.000000
4258.680546,222.061783,-8810.098227,-296.082377
4258.680870,222.061783,-8733.488677,-444.123565
4258.681194,370.102971,-8580.269578,-740.205942
4258.681519,444.123565,-8733.488677,-592.164754
4258.681843,518.144159,-8886.707777,-148.041188
4258.682167,370.102971,-8350.440928,0.000000
4258.682492,444.123565,-8503.660028,-296.082377
4258.682816,370.102971,-8580.269578,-370.102971
4258.683140,518.144159,-8427.050478,-518.144159
4258.683465,592.164754,-8580.269578,-592.164754
4258.683789,370.102971,-8580.269578,-296.082377
4258.684113,518.144159,-8580.269578,-444.123565
4258.684438,370.102971,-8503.660028,-222.061783
4258.684762,296.082377,-8503.660028,-222.061783
4258.685086,592.164754,-8810.098227,-296.082377
4258.685411,814.226536,-8350.440928,-296.082377
4258.685735,444.123565,-8656.879127,0.000000
4258.686059,222.061783,-8810.098227,-296.082377
4258.686383,370.102971,-8503.660028,-518.144159
4258.686708,518.144159,-8197.221829,-148.041188
4258.687032,666.185348,-8656.879127,-592.164754
4258.687356,370.102971,-8427.050478,-296.082377
4258.687681,222.061783,-8503.660028,-444.123565
4258.688005,518.144159,-8580.269578,-148.041188
4258.688329,148.041188,-8273.831378,-740.205942
4258.688654,444.123565,-8580.269578,-296.082377
4258.688978,666.185348,-8273.831378,-148.041188
4258.689302,296.082377,-8580.269578,-370.102971
4258.689627,222.061783,-8273.831378,-740.205942
4258.689951,222.061783,-8733.488677,-444.123565
4258.690275,370.102971,-8733.488677,-370.102971
4258.690600,222.061783,-8580.269578,-518.144159
4258.690924,0.000000,-8273.831378,0.000000
4258.691248,370.102971,-8427.050478,-370.102971
4258.691572,666.185348,-8810.098227,-444.123565
4258.691897,148.041188,-8733.488677,0.000000
4258.692221,518.144159,-8810.098227,-296.082377
4258.692545,444.123565,-8044.002729,-370.102971
4258.692870,222.061783,-8886.707777,-370.102971
4258.693194,-814.226536,-8503.660028,-666.185348
4258.693518,-888.247130,-9346.365076,-444.123565
4258.693843,-1184.329507,-8273.831378,-1184.329507
4258.694167,-2072.576638,-8810.098227,-370.102971
4258.694491,-2220.617826,-8197.221829,-444.123565
4258.694816,-2072.576638,-8733.488677,0.000000
4258.695140,-1554.432478,-8656.879127,-518.144159
4258.695464,-814.226536,-8427.050478,-370.102971
4258.695789,-740.205942,-8503.660028,-370.102971
4258.696113,-1258.350101,-8503.660028,-296.082377
4258.696437,-1480.411884,-8810.098227,-666.185348
4258.696761,-2146.597232,-8810.098227,-444.123565
4258.697086,-2590.720797,-8810.098227,-370.102971
4258.697410,-3478.967927,-8733.488677,-518.144159
4258.697734,-3478.967927,-8886.707777,-222.061783
4258.698059,-3108.864956,-9039.926876,-222.061783
4258.698383,-2812.782580,-8656.879127,-296.082377
4258.698707,-2368.659014,-8273.831378,-370.102971
4258.699032,-1998.556043,-8656.879127,-518.144159
4258.699356,-1702.473667,-8580.269578,-592.164754
4258.699680,-1406.391290,-8810.098227,-222.061783
4258.700005,-2072.576638,-9116.536426,-444.123565
4258.700329,-2738.761985,-8886.707777,-74.020594
4258.700653,-3108.864956,-9039.926876,-370.102971
4258.700978,-3849.070898,-9193.145976,296.082377
4258.701302,-3701.029710,-8963.317327,-148.041188
4258.701626,-3182.885551,-9039.926876,-296.082377
4258.701950,-3256.906145,-8503.660028,0.000000
4258.702275,-2664.741391,-9269.755526,-148.041188
4258.702599,-2294.638420,-8503.660028,-814.226536
4258.702923,-1998.556043,-8503.660028,-370.102971
4258.703248,-1480.411884,-8427.050478,-370.102971
4258.703572,-1628.453072,-8503.660028,-370.102971
4258.703896,-1998.556043,-8350.440928,-222.061783
4258.704221,-2220.617826,-8886.707777,74.020594
4258.704545,-2294.638420,-8656.879127,-148.041188
4258.704869,-2664.741391,-8810.098227,0.000000
4258.705194,-2960.823768,-8427.050478,0.000000
4258.705518,-2886.803174,-8656.879127,0.000000
4258.705842,-2368.659014,-8427.050478,-666.185348
4258.706167,-1702.473667,-8427.050478,-444.123565
4258.706491,-1776.494261,-8044.002729,-222.061783
4258.706815,-1924.535449,-8044.002729,-370.102971
4258.707139,-1554.432478,-8044.002729,-666.185348
4258.707464,-1924.535449,-7660.954980,-518.144159
4258.707788,-1628.453072,-8427.050478,0.000000
4258.708112,-1702.473667,-8197.221829,-592.164754
4258.708437,-1554.432478,-8886.707777,-222.061783
4258.708761,-1480.411884,-8044.002729,-370.102971
4258.709085,-814.226536,-8886.707777,-370.102971
4258.709410,-814.226536,-8810.098227,-222.061783
4258.709734,-370.102971,-8580.269578,-296.082377
4258.710058,0.000000,-8197.221829,-592.164754
4258.710383,-148.041188,-8656.879127,-666.185348
4258.710707,-148.041188,-9039.926876,-518.144159
4258.711031,148.041188,-8656.879127,-222.061783
4258.711356,592.164754,-8350.440928,-444.123565
4258.711680,592.164754,-9039.926876,0.000000
4258.712004,592.164754,-8503.660028,-370.102971
4258.712328,1036.288319,-9039.926876,-370.102971
4258.712653,1184.329507,-8886.707777,-666.185348
4258.712977,1036.288319,-9499.584175,-666.185348
4258.713301,666.185348,-9346.365076,-666.185348
4258.713626,-962.267725,-9576.193725,-518.144159
4258.713950,-1554.432478,-9346.365076,-370.102971
4258.714274,-1776.494261,-8810.098227,-592.164754
4258.714599,-2590.720797,-9039.926876,-370.102971
4258.714923,-3034.844362,-8273.831378,-592.164754
4258.715247,-3108.864956,-8503.660028,-148.041188
4258.715572,-2072.576638,-8350.440928,-370.102971
4258.715896,-1998.556043,-8427.050478,-740.205942
4258.716220,-1776.494261,-8656.879127,-444.123565
4258.716545,-1480.411884,-8350.440928,-1110.308913
4258.716869,-1554.432478,-8503.660028,0.000000
4258.717193,-1258.350101,-8810.098227,-888.247130
4258.717517,-1702.473667,-9269.755526,-518.144159
4258.717842,-1924.535449,-8963.317327,-370.102971
4258.718166,-2072.576638,-9346.365076,0.000000
4258.718490,-2220.617826,-8656.879127,-370.102971
4258.718815,-1036.288319,-8810.098227,0.000000
4258.719139,-592.164754,-8886.707777,0.000000
4258.719463,518.144159,-8427.050478,-444.123565
4258.719788,148.041188,-8350.440928,-666.185348
4258.720112,666.185348,-8886.707777,-740.205942
4258.720436,-518.144159,-8273.831378,-296.082377
4258.720761,-1776.494261,-9346.365076,74.020594
4258.721085,-2738.761985,-8886.707777,-666.185348
4258.721409,-4515.256246,-8886.707777,74.020594
4258.721734,-4811.338623,-8580.269578,222.061783
4258.722058,-4811.338623,-9116.536426,592.164754
4258.722382,-4441.235652,-8733.488677,518.144159
4258.722706,-3034.844362,-8427.050478,0.000000
4258.723031,-2368.659014,-8197.221829,0.000000
4258.723355,-1406.391290,-8427.050478,74.020594
4258.723679,666.185348,-8350.440928,740.205942
4258.724004,-296.082377,-7584.345430,-370.102971
4258.724328,-1332.370696,-9499.584175,888.247130
4258.724652,-1850.514855,-8733.488677,0.000000
4258.724977,-2590.720797,-9422.974625,444.123565
4258.725301,-3775.050304,-9269.755526,-222.061783
4258.725625,-5403.503377,-9193.145976,296.082377
4258.725950,-5255.462188,-8963.317327,-592.164754
4258.726274,-5033.400406,-9039.926876,74.020594
4258.726598,-4737.318029,-7890.783629,-740.205942
4258.726923,-3108.864956,-7660.954980,-666.185348
4258.727247,-1480.411884,-7201.297681,-148.041188
4258.727571,518.144159,-7507.735880,-222.061783
4258.727895,2072.576638,-7584.345430,222.061783
4258.728220,2812.782580,-7507.735880,0.000000
4258.728544,3404.947333,-8350.440928,296.082377
4258.728868,2886.803174,-8044.002729,-592.164754
4258.729193,2294.638420,-9806.022374,518.144159
4258.729517,0.000000,-8886.707777,-888.247130
4258.729841,-2664.741391,-9499.584175,-740.205942
4258.730166,-4959.379811,-9346.365076,-1554.432478
4258.730490,-5995.668130,-8810.098227,-2072.576638
4258.730814,-5921.647536,-8273.831378,-1406.391290
4258.731139,-5477.523971,-7967.393179,-2220.617826
4258.731463,-2664.741391,-8427.050478,-592.164754
4258.731787,0.000000,-7277.907231,-1332.370696
4258.732112,2294.638420,-8427.050478,222.061783
4258.732436,4885.359217,-8427.050478,-592.164754
4258.732760,5847.626942,-9499.584175,518.144159
4258.733084,4441.235652,-9193.145976,-962.267725
4258.733409,1480.411884,-10265.679673,0.000000
4258.733733,-2368.659014,-10112.460574,-444.123565
4258.734057,-4663.297435,-10112.460574,-592.164754
4258.734382,-6661.853478,-9499.584175,-444.123565
4258.734706,-7994.224174,-8580.269578,-1702.473667
4258.735030,-6661.853478,-7890.783629,0.000000
4258.735355,-4441.235652,-6665.030833,-1110.308913
4258.735679,518.144159,-7890.783629,-740.205942
4258.736003,4737.318029,-7354.516781,-1332.370696
4258.736328,7328.038826,-7584.345430,0.000000
4258.736652,8364.327145,-8197.221829,-370.102971
4258.736976,7031.956449,-9576.193725,-370.102971
4258.737301,2812.782580,-10112.460574,-1036.288319
4258.737625,-1036.288319,-11108.384721,-962.267725
4258.737949,-8290.306550,-11644.651570,-518.144159
4258.738273,-11991.336260,-10265.679673,-518.144159
4258.738600,-12139.377449,-9499.584175,0.000000
4258.738924,-11103.089130,-8120.612279,-296.082377
4258.739249,-7254.018232,-6894.859482,-814.226536
4258.739573,-1332.370696,-5822.325785,-666.185348
4258.739897,3923.091493,-5745.716235,-148.041188
4258.740222,9178.553681,-6741.640382,74.020594
4258.740546,8290.306550,-7737.564530,1110.308913
4258.740870,6587.832884,-8427.050478,296.082377
4258.741195,1998.556043,-9959.241474,666.185348
4258.741519,-3256.906145,-11338.213370,74.020594
4258.741843,-8734.430116,-12717.185267,666.185348
4258.742167,-12287.418637,-11721.261119,222.061783
4258.742492,-11547.212695,-10955.165621,1332.370696
4258.742816,-10658.965565,-7814.174080,-1332.370696
4258.743140,-4885.359217,-8350.440928,-1480.411884
4258.743465,-2072.576638,-6894.859482,-666.185348
4258.743789,2146.597232,-5822.325785,0.000000
4258.744113,4959.379811,-4979.620737,-2368.659014
4258.744437,3330.926739,-7277.907231,296.082377
4258.744762,1110.308913,-7660.954980,1480.411884
4258.745086,-666.185348,-9576.193725,296.082377
4258.745410,-6661.853478,-10572.117872,814.226536
4258.745735,-7698.141797,-10495.508323,148.041188
4258.746059,-6957.935855,-10725.336972,814.226536
4258.746383,-5847.626942,-10725.336972,-1184.329507
4258.746708,-4145.153275,-9039.926876,0.000000
4258.747032,-1554.432478,-7890.783629,-888.247130
4258.747356,1406.391290,-7354.516781,-1702.473667
4258.747680,2960.823768,-7048.078582,-296.082377
4258.748005,2960.823768,-5975.544884,592.164754
4258.748329,1776.494261,-7354.516781,592.164754
4258.748653,1406.391290,-7431.126331,592.164754
4258.748978,0.000000,-10265.679673,1628.453072
4258.749302,-2146.597232,-9806.022374,-1036.288319
4258.749626,-3923.091493,-11491.432470,-518.144159
4258.749951,-5107.421000,-10035.851024,-2146.597232
4258.750275,-5773.606348,-10725.336972,-1776.494261
4258.750599,-3701.029710,-9193.145976,-1776.494261
4258.750923,-3775.050304,-8197.221829,-666.185348
4258.751248,-1110.308913,-7431.126331,0.000000
4258.751572,1776.494261,-6511.811733,-370.102971
4258.751896,4293.194464,-6971.469032,1258.350101
4258.752221,4071.132681,-5745.716235,222.061783
4258.752545,4515.256246,-7814.174080,0.000000
4258.752869,962.267725,-8120.612279,-1406.391290
4258.753194,-888.247130,-9729.412825,-370.102971
4258.753518,-4589.276840,-8810.098227,-1924.535449
4258.753842,-4219.173869,-10572.117872,-962.267725
4258.754166,-5033.400406,-9652.803275,-2368.659014
4258.754491,-4145.153275,-11874.480219,-1702.473667
4258.754815,-2146.597232,-8197.221829,-2590.720797
4258.755139,-1776.494261,-9882.631924,296.082377
4258.755464,0.000000,-8044.002729,-1628.453072
4258.755788,296.082377,-7354.516781,-444.123565
4258.756112,1406.391290,-7354.516781,1258.350101
4258.756437,1480.411884,-6971.469032,666.185348
4258.756761,2368.659014,-8197.221829,0.000000
4258.757085,3552.988522,-8503.660028,-1184.329507
4258.757409,592.164754,-9959.241474,-2516.700203
4258.757734,-3627.009116,-8810.098227,-3108.864956
4258.758058,-5921.647536,-12104.308868,0.000000
4258.758382,-4515.256246,-9039.926876,-1702.473667
4258.758707,-5551.544565,-10572.117872,370.102971
4258.759031,-4811.338623,-7201.297681,-740.205942
4258.759355,-444.123565,-8810.098227,1184.329507
4258.759680,-222.061783,-8580.269578,0.000000
4258.760004,1036.288319,-7354.516781,-962.267725
4258.760328,-1184.329507,-8273.831378,222.061783
4258.760652,-1924.535449,-7048.078582,-2368.659014
4258.760977,-1850.514855,-8886.707777,296.082377
4258.761301,-1850.514855,-8427.050478,-1406.391290
4258.761625,-2368.659014,-11644.651570,962.267725
4258.761950,-4663.297435,-8427.050478,-1332.370696
4258.762274,-5255.462188,-11568.042020,444.123565
4258.762598,-3108.864956,-7584.345430,0.000000
4258.762922,-3034.844362,-8580.269578,1554.432478
4258.763247,1702.473667,-7354.516781,592.164754
4258.763571,1036.288319,-7354.516781,962.267725
4258.763895,3478.967927,-7124.688131,-148.041188
4258.764220,3627.009116,-7814.174080,-370.102971
4258.764544,2072.576638,-7814.174080,-740.205942
4258.764868,222.061783,-9422.974625,0.000000
4258.765193,-1184.329507,-9193.145976,148.041188
4258.765517,-3478.967927,-8197.221829,518.144159
4258.765841,-1258.350101,-8503.660028,666.185348
4258.766165,-666.185348,-10112.460574,370.102971
4258.766490,222.061783,-9346.365076,1258.350101
4258.766814,1332.370696,-10035.851024,148.041188
4258.767138,1776.494261,-7737.564530,-592.164754
4258.767463,3108.864956,-7277.907231,-296.082377
4258.767787,5995.668130,-6741.640382,740.205942
4258.768111,4441.235652,-6435.202183,962.267725
4258.768436,4367.215058,-7277.907231,-444.123565
4258.768760,3404.947333,-8197.221829,296.082377
4258.769084,740.205942,-8963.317327,-1702.473667
4258.769408,-2812.782580,-8503.660028,-518.144159
4258.769733,-4145.153275,-9576.193725,296.082377
4258.770057,-2146.597232,-8197.221829,0.000000
4258.770381,-1480.411884,-9882.631924,370.102971
4258.770706,2812.782580,-8503.660028,-1036.288319
4258.771030,4589.276840,-8427.050478,0.000000
4258.771354,6883.915261,-7277.907231,-296.082377
4258.771679,6883.915261,-8503.660028,-1110.308913
4258.772003,8068.244768,-8810.098227,-666.185348
4258.772327,4367.215058,-8427.050478,-518.144159
4258.772651,3256.906145,-7354.516781,-2072.576638
4258.772976,-370.102971,-9729.412825,-888.247130
4258.773300,-74.020594,-9806.022374,-370.102971
4258.773624,-4071.132681,-9882.631924,-962.267725
4258.773949,-3108.864956,-9652.803275,-1036.288319
4258.774273,-4367.215058,-7660.954980,-3034.844362
4258.774597,4663.297435,-10572.117872,370.102971
4258.774922,2220.617826,-6894.859482,-2442.679609
4258.775246,5699.585753,-9729.412825,1776.494261
4258.775570,6735.874072,-5439.278036,-2664.741391
4258.775894,6661.853478,-9652.803275,148.041188
4258.776219,6365.771101,-7814.174080,-1850.514855
4258.776543,-814.226536,-10265.679673,-370.102971
4258.776867,1110.308913,-11721.261119,1406.391290
4258.777192,-2812.782580,-7660.954980,-3849.070898
4258.777516,-6661.853478,-14019.547613,4219.173869
4258.777840,-5699.585753,-5975.544884,-5107.421000
4258.778165,-5107.421000,-11644.651570,1924.535449
4258.778489,-2220.617826,-6741.640382,-2886.803174
4258.778813,-592.164754,-9422.974625,0.000000
4258.779137,-1702.473667,-6128.763984,0.000000
4258.779462,3478.967927,-7354.516781,1110.308913
4258.779786,3997.112087,-7431.126331,1036.288319
4258.780110,5181.441594,-9039.926876,666.185348
4258.780435,4811.338623,-9116.536426,1110.308913
4258.780759,-814.226536,-9116.536426,-888.247130
4258.781083,-1628.453072,-11721.261119,-296.082377
4258.781407,-3997.112087,-9882.631924,-296.082377
4258.781732,-5033.400406,-9959.241474,1628.453072
4258.782056,-5625.565159,-7814.174080,-2220.617826
4258.782380,-5551.544565,-9576.193725,1184.329507
4258.782705,-7254.018232,-6358.592633,-3108.864956
4258.783029,-2664.741391,-8886.707777,1554.432478
4258.783353,-370.102971,-5439.278036,-1554.432478
4258.783678,2886.803174,-7660.954980,1036.288319
4258.784002,2220.617826,-4979.620737,-1036.288319
4258.784326,4589.276840,-9039.926876,2294.638420
4258.784650,4145.153275,-7507.735880,-814.226536
4258.784975,592.164754,-7660.954980,666.185348
4258.785299,1184.329507,-10418.898773,1036.288319
4258.785623,-296.082377,-9193.145976,74.020594
4258.785948,0.000000,-9422.974625,592.164754
4258.786272,0.000000,-7584.345430,-370.102971
4258.786596,-814.226536,-8580.269578,888.247130
4258.786921,-1554.432478,-7048.078582,0.000000
4258.787245,1628.453072,-7890.783629,-592.164754
4258.787569,-1628.453072,-7814.174080,-1184.329507
4258.787893,592.164754,-6588.421283,518.144159
4258.788218,2442.679609,-7431.126331,296.082377
4258.788542,962.267725,-7737.564530,0.000000
4258.788866,4663.297435,-9346.365076,-1184.329507
4258.789191,4071.132681,-8656.879127,-518.144159
4258.789515,2294.638420,-11491.432470,-592.164754
4258.789839,1332.370696,-8810.098227,-1776.494261
4258.790164,296.082377,-11644.651570,296.082377
4258.790488,1776.494261,-8273.831378,-1332.370696
4258.790812,296.082377,-9806.022374,-296.082377
4258.791136,-296.082377,-7890.783629,-148.041188
4258.791461,2590.720797,-8197.221829,888.247130
4258.791785,1110.308913,-8197.221829,-1406.391290
4258.792109,1924.535449,-7354.516781,-1480.411884
4258.792434,814.226536,-7890.783629,-1776.494261
4258.792758,1406.391290,-8197.221829,-2072.576638
4258.793082,3849.070898,-9039.926876,-1554.432478
4258.793407,3701.029710,-9269.755526,-1184.329507
4258.793731,3108.864956,-10418.898773,-444.123565
4258.794055,962.267725,-9116.536426,-2294.638420
4258.794379,2220.617826,-11644.651570,-666.185348
4258.794704,1406.391290,-9499.584175,-1998.556043
4258.795028,-2220.617826,-11261.603821,-814.226536
4258.795352,-1332.370696,-7967.393179,-1332.370696
4258.795677,-1332.370696,-9806.022374,962.267725
4258.796001,-3923.091493,-6052.154434,-222.061783
4258.796325,1184.329507,-8503.660028,-1776.494261
4258.796650,-740.205942,-8886.707777,-1184.329507
4258.796974,-962.267725,-7660.954980,-2220.617826
4258.797298,2146.597232,-9193.145976,-592.164754
4258.797622,-814.226536,-7660.954980,0.000000
4258.797947,1258.350101,-9039.926876,666.185348
4258.798271,1776.494261,-7737.564530,-1258.350101
4258.798595,1998.556043,-10955.165621,74.020594
4258.798920,2368.659014,-8197.221829,0.000000
4258.799244,-222.061783,-9806.022374,0.000000
4258.799568,-2072.576638,-9422.974625,444.123565
4258.799893,0.000000,-6971.469032,592.164754
4258.800217,-3182.885551,-8350.440928,1776.494261
4258.800541,-3256.906145,-6971.469032,0.000000
4258.800865,-1850.514855,-8886.707777,1406.391290
4258.801190,-2220.617826,-7048.078582,-1480.411884
4258.801514,-2220.617826,-7737.564530,518.144159
4258.801838,0.000000,-7354.516781,370.102971
4258.802163,-518.144159,-8733.488677,1332.370696
4258.802487,518.144159,-7507.735880,518.144159
4258.802811,1480.411884,-8273.831378,1628.453072
4258.803135,2886.803174,-8656.879127,296.082377
4258.803460,1258.350101,-8733.488677,1480.411884
4258.803784,2442.679609,-9346.365076,666.185348
4258.804108,-1998.556043,-8656.879127,1258.350101
4258.804433,-1258.350101,-8197.221829,74.020594
4258.804757,-1110.308913,-7967.393179,962.267725
4258.805081,-3034.844362,-7967.393179,0.000000
4258.805406,-814.226536,-8963.317327,1110.308913
4258.805730,-3108.864956,-7890.783629,-1406.391290
4258.806054,-370.102971,-9193.145976,-888.247130
4258.806378,-296.082377,-6741.640382,-1998.556043
4258.806703,1332.370696,-9806.022374,296.082377
4258.807027,3330.926739,-7507.735880,74.020594
4258.807351,888.247130,-8273.831378,296.082377
4258.807676,3627.009116,-7814.174080,-370.102971
4258.808000,4145.153275,-7967.393179,-1924.535449
4258.808324,2812.782580,-10342.289223,-444.123565
4258.808649,2368.659014,-9193.145976,-1924.535449
4258.808973,-740.205942,-8273.831378,-222.061783
4258.809297,-962.267725,-8427.050478,222.061783
4258.809621,-740.205942,-9039.926876,-814.226536
4258.809946,1554.432478,-8810.098227,-2368.659014
4258.810270,-962.267725,-9116.536426,-2146.597232
4258.810594,592.164754,-8120.612279,-2664.741391
4258.810919,1776.494261,-9882.631924,-2368.659014
4258.811243,1702.473667,-8503.660028,-1406.391290
4258.811567,3330.926739,-8350.440928,-1702.473667
4258.811892,1480.411884,-9422.974625,-1036.288319
4258.812216,4441.235652,-9193.145976,-1628.453072
4258.812540,4737.318029,-9806.022374,-1110.308913
4258.812864,2442.679609,-9806.022374,-2072.576638
4258.813189,3034.844362,-10648.727422,-1332.370696
4258.813513,-592.164754,-8886.707777,-666.185348
4258.813837,1924.535449,-8733.488677,370.102971
4258.814162,518.144159,-8427.050478,-1036.288319
4258.814486,-1258.350101,-9499.584175,-1258.350101
4258.814810,-592.164754,-8656.879127,-1406.391290
4258.815135,-3330.926739,-8197.221829,-2368.659014
4258.815459,1998.556043,-8503.660028,-814.226536
4258.815783,740.205942,-9652.803275,-222.061783
4258.816107,1776.494261,-8656.879127,-814.226536
4258.816432,1184.329507,-9499.584175,-222.061783
4258.816756,740.205942,-7277.907231,-1850.514855
4258.817080,1628.453072,-10342.289223,518.144159
4258.817405,1332.370696,-8427.050478,-740.205942
4258.817729,296.082377,-10725.336972,0.000000
4258.818053,-666.185348,-8580.269578,-296.082377
4258.818378,-2368.659014,-7737.564530,666.185348
4258.818702,-518.144159,-7890.783629,1998.556043
4258.819026,-2072.576638,-7507.735880,666.185348
4258.819350,-1850.514855,-7737.564530,0.000000
4258.819675,-962.267725,-8120.612279,222.061783
4258.819999,-296.082377,-6435.202183,370.102971
4258.820323,0.000000,-8886.707777,370.102971
4258.820648,2590.720797,-7737.564530,222.061783
4258.820972,1406.391290,-6511.811733,2220.617826
4258.821296,962.267725,-7584.345430,814.226536
4258.821620,5255.462188,-9039.926876,1036.288319
4258.821945,1406.391290,-9039.926876,-296.082377
4258.822269,2294.638420,-10189.070123,888.247130
4258.822593,-222.061783,-7354.516781,740.205942
4258.822918,-2886.803174,-9116.536426,444.123565
4258.823242,-2368.659014,-8350.440928,1480.411884
4258.823566,-4737.318029,-6511.811733,740.205942
4258.823891,-2368.659014,-8503.660028,0.000000
4258.824215,-1258.350101,-6894.859482,-592.164754
4258.824539,-3552.988522,-9576.193725,-296.082377
4258.824863,-2146.597232,-8044.002729,222.061783
4258.825188,-1258.350101,-6971.469032,-962.267725
4258.825512,-1702.473667,-7890.783629,1702.473667
4258.825836,4219.173869,-7967.393179,-444.123565
4258.826161,5033.400406,-9806.022374,296.082377
4258.826485,2886.803174,-9882.631924,-666.185348
4258.826809,1702.473667,-8350.440928,-1036.288319
4258.827134,740.205942,-10189.070123,592.164754
4258.827458,-1332.370696,-9346.365076,-370.102971
4258.827782,740.205942,-9346.365076,518.144159
4258.828106,-370.102971,-8810.098227,-888.247130
4258.828431,-3478.967927,-9039.926876,-3034.844362
4258.828755,-2368.659014,-8580.269578,-2812.782580
4258.829079,-148.041188,-8427.050478,-1332.370696
4258.829404,-740.205942,-8580.269578,-1184.329507
4258.829728,2220.617826,-8503.660028,-296.082377
4258.830052,4663.297435,-7737.564530,-2146.597232
4258.830377,5773.606348,-8886.707777,-518.144159
4258.830701,7920.203579,-8733.488677,-1554.432478
4258.831025,4293.194464,-12104.308868,-2220.617826
4258.831349,3775.050304,-9959.241474,-1554.432478
4258.831674,-1258.350101,-9729.412825,-666.185348
4258.831998,-2368.659014,-10035.851024,-740.205942
4258.832322,-2294.638420,-8350.440928,-962.267725
4258.832647,-2960.823768,-8427.050478,-370.102971
4258.832971,-1258.350101,-8656.879127,-2738.761985
4258.833295,-740.205942,-8273.831378,-1776.494261
4258.833620,-222.061783,-8656.879127,-2368.659014
4258.833944,1998.556043,-7967.393179,-666.185348
4258.834268,3552.988522,-8273.831378,-962.267725
4258.834592,4071.132681,-9499.584175,-1332.370696
4258.834917,4959.379811,-8810.098227,-666.185348
4258.835241,4071.132681,-8963.317327,-370.102971
4258.835565,2590.720797,-9576.193725,-666.185348
4258.835890,-1332.370696,-9576.193725,-370.102971
4258.836214,-296.082377,-11338.213370,1554.432478
4258.836538,-5107.421000,-6511.811733,-370.102971
4258.836863,-2442.679609,-9116.536426,1110.308913
4258.837187,-1184.329507,-7507.735880,-1406.391290
4258.837511,-1702.473667,-8350.440928,-222.061783
4258.837835,1332.370696,-7124.688131,-740.205942
4258.838160,0.000000,-7277.907231,814.226536
4258.838484,0.000000,-7048.078582,888.247130
4258.838808,2590.720797,-6971.469032,518.144159
4258.839133,2516.700203,-8427.050478,0.000000
4258.839457,3478.967927,-7584.345430,222.061783
4258.839782,2220.617826,-9422.974625,1110.308913
4258.840106,1776.494261,-8963.317327,444.123565
4258.840430,666.185348,-9039.926876,444.123565
4258.840755,-2146.597232,-9729.412825,962.267725
4258.841079,-1184.329507,-7124.688131,222.061783
4258.841404,-888.247130,-7507.735880,1406.391290
4258.841728,-2738.761985,-6818.249932,0.000000
4258.842053,-2886.803174,-7277.907231,1628.453072
4258.842377,-1850.514855,-6511.811733,-592.164754
4258.842702,-2072.576638,-8350.440928,-370.102971
4258.843026,1036.288319,-7584.345430,148.041188
4258.843350,-370.102971,-8580.269578,518.144159
4258.843675,1036.288319,-8044.002729,-444.123565
4258.843999,2072.576638,-8886.707777,222.061783
4258.844324,2368.659014,-10265.679673,1036.288319
4258.844648,2146.597232,-9652.803275,-1036.288319
4258.844973,814.226536,-9576.193725,0.000000
4258.845297,-2072.576638,-8886.707777,0.000000
4258.845621,-1332.370696,-8963.317327,444.123565
4258.845946,-2368.659014,-8197.221829,0.000000
4258.846270,-1184.329507,-7890.783629,-1332.370696
4258.846595,-518.144159,-8733.488677,-222.061783
4258.846919,0.000000,-7354.516781,-1628.453072
4258.847244,-1184.329507,-8503.660028,-2146.597232
4258.847568,518.144159,-7967.393179,-148.041188
4258.847892,3552.988522,-9116.536426,-1850.514855
4258.848217,3775.050304,-9193.145976,-666.185348
4258.848541,2590.720797,-9193.145976,-1184.329507
4258.848866,1924.535449,-10112.460574,-740.205942
4258.849190,1776.494261,-10342.289223,-1036.288319
4258.849515,1036.288319,-9652.803275,-1776.494261
4258.849839,222.061783,-10572.117872,-666.185348
4258.850164,-1998.556043,-8963.317327,0.000000
4258.850488,-1776.494261,-8733.488677,-1184.329507
4258.850812,1406.391290,-8810.098227,-962.267725
4258.851137,814.226536,-8197.221829,-1258.350101
4258.851461,74.020594,-9039.926876,-2146.597232
4258.851786,592.164754,-9269.755526,-1184.329507
4258.852110,-592.164754,-8120.612279,-814.226536
4258.852435,740.205942,-9193.145976,-1184.329507
4258.852759,2516.700203,-8733.488677,296.082377
4258.853083,1554.432478,-9116.536426,0.000000
4258.853408,2960.823768,-9576.193725,-592.164754
4258.853732,2368.659014,-8886.707777,-1036.288319
4258.854057,1850.514855,-9806.022374,-1628.453072
4258.854381,2590.720797,-9959.241474,-814.226536
4258.854706,-444.123565,-7890.783629,-296.082377
4258.855030,1036.288319,-7737.564530,370.102971
4258.855354,-518.144159,-7354.516781,0.000000
4258.855679,296.082377,-8733.488677,-740.205942
4258.856003,-222.061783,-8350.440928,0.000000
4258.856328,0.000000,-7431.126331,-962.267725
4258.856652,-2294.638420,-7507.735880,-962.267725
4258.856977,-296.082377,-8963.317327,1110.308913
4258.857301,1332.370696,-7048.078582,222.061783
4258.857626,1258.350101,-8886.707777,1184.329507
4258.857950,2960.823768,-6741.640382,0.000000
4258.858274,5477.523971,-8197.221829,0.000000
4258.858599,1628.453072,-6665.030833,-962.267725
4258.858923,1332.370696,-8810.098227,1332.370696
4258.859248,-296.082377,-7890.783629,1776.494261
4258.859572,-2590.720797,-8044.002729,518.144159
4258.859897,-888.247130,-8273.831378,0.000000
4258.860221,-2886.803174,-8733.488677,592.164754
4258.860545,-2516.700203,-9422.974625,592.164754
4258.860870,-2886.803174,-7354.516781,-888.247130
4258.861194,-3182.885551,-8350.440928,0.000000
4258.861519,1332.370696,-7660.954980,592.164754
4258.861843,2442.679609,-7354.516781,296.082377
4258.862168,2590.720797,-7277.907231,-148.041188
4258.862492,5329.482782,-7814.174080,74.020594
4258.862816,2294.638420,-8197.221829,444.123565
4258.863141,1406.391290,-8963.317327,-1480.411884
4258.863465,74.020594,-10878.556072,296.082377
4258.863790,-2960.823768,-8503.660028,592.164754
4258.864114,-1184.329507,-9269.755526,0.000000
4258.864439,-1924.535449,-10495.508323,814.226536
4258.864763,-1924.535449,-8580.269578,-2146.597232
4258.865088,-2738.761985,-9499.584175,-888.247130
4258.865412,-3182.885551,-8427.050478,-1850.514855
4258.865736,-962.267725,-9269.755526,-1184.329507
4258.866061,-888.247130,-7354.516781,-1036.288319
4258.866385,1554.432478,-9039.926876,0.000000
4258.866710,3330.926739,-7431.126331,-1110.308913
4258.867034,2368.659014,-8886.707777,-1332.370696
4258.867359,4737.318029,-10495.508323,-592.164754
4258.867683,3552.988522,-10418.898773,-1776.494261
4258.868007,1998.556043,-10572.117872,-2220.617826
4258.868332,518.144159,-10878.556072,222.061783
4258.868656,-296.082377,-7890.783629,-1924.535449
4258.868981,-1628.453072,-10725.336972,592.164754
4258.869305,-2886.803174,-7660.954980,-2960.823768
4258.869630,-1776.494261,-10878.556072,-740.205942
4258.869954,-3108.864956,-7201.297681,-1924.535449
4258.870278,-666.185348,-8580.269578,0.000000
4258.870603,-296.082377,-7431.126331,-962.267725
4258.870927,2072.576638,-8427.050478,370.102971
4258.871252,5403.503377,-7660.954980,-592.164754
4258.871576,4737.318029,-9576.193725,-592.164754
4258.871901,5181.441594,-9346.365076,-1480.411884
4258.872225,4737.318029,-10725.336972,-592.164754
4258.872550,-222.061783,-9116.536426,-740.205942
4258.872874,-2442.679609,-10342.289223,1406.391290
4258.873198,-1776.494261,-9422.974625,-296.082377
4258.873523,-4737.318029,-9346.365076,1110.308913
4258.873847,-2220.617826,-8273.831378,74.020594
4258.874172,-2072.576638,-8044.002729,-962.267725
4258.874496,74.020594,-7201.297681,222.061783
4258.874821,-2738.761985,-6818.249932,-1924.535449
4258.875145,4737.318029,-9269.755526,74.020594
4258.875469,1332.370696,-7201.297681,222.061783
4258.875794,5773.606348,-7737.564530,740.205942
4258.876118,5551.544565,-6894.859482,-444.123565
4258.876443,1776.494261,-11184.994271,222.061783
4258.876767,2886.803174,-9116.536426,-888.247130
4258.877092,222.061783,-9576.193725,2294.638420
4258.877416,-2960.823768,-8197.221829,-444.123565
4258.877740,-2442.679609,-8120.612279,1406.391290
4258.878065,-1332.370696,-7660.954980,888.247130
4258.878389,444.123565,-7737.564530,-740.205942
4258.878714,444.123565,-8656.879127,74.020594
4258.879038,-444.123565,-6205.373534,-1406.391290
4258.879363,-2146.597232,-8197.221829,666.185348
4258.879687,1406.391290,-6665.030833,0.000000
4258.880012,1628.453072,-8733.488677,222.061783
4258.880336,1184.329507,-9193.145976,518.144159
4258.880660,2442.679609,-9729.412825,740.205942
4258.880985,296.082377,-9193.145976,-740.205942
4258.881309,592.164754,-10342.289223,74.020594
4258.881634,296.082377,-9729.412825,-370.102971
4258.881958,-1258.350101,-10955.165621,1036.288319
4258.882283,-222.061783,-8044.002729,0.000000
4258.882607,222.061783,-7277.907231,296.082377
4258.882931,-1554.432478,-7201.297681,-518.144159
4258.883256,0.000000,-8350.440928,370.102971
4258.883580,-888.247130,-7277.907231,-2220.617826
4258.883905,-2516.700203,-9269.755526,-444.123565
4258.884229,740.205942,-8580.269578,0.000000
4258.884554,-962.267725,-8733.488677,-1406.391290
4258.884878,1628.453072,-10112.460574,1480.411884
4258.885203,3849.070898,-9959.241474,-296.082377
4258.885527,2368.659014,-10342.289223,-1998.556043
4258.885851,1702.473667,-9806.022374,-370.102971
4258.886176,518.144159,-9193.145976,-1850.514855
4258.886500,-296.082377,-9422.974625,888.247130
4258.886825,888.247130,-6818.249932,-592.164754
4258.887149,740.205942,-9882.631924,-444.123565
4258.887474,148.041188,-7584.345430,-296.082377
4258.887798,-1776.494261,-8350.440928,74.020594
4258.888122,-1924.535449,-8963.317327,-2886.803174
4258.888447,-814.226536,-8656.879127,-296.082377
4258.888771,-2738.761985,-7814.174080,-814.226536
4258.889096,666.185348,-9116.536426,0.000000
4258.889420,1702.473667,-7584.345430,148.041188
4258.889745,2516.700203,-10648.727422,-592.164754
4258.890069,3775.050304,-7660.954980,-1702.473667
4258.890393,1628.453072,-8656.879127,-1036.288319
4258.890718,1406.391290,-10035.851024,-962.267725
4258.891042,1776.494261,-8580.269578,962.267725
4258.891367,296.082377,-8273.831378,-1480.411884
4258.891691,-148.041188,-8963.317327,0.000000
4258.892016,-1110.308913,-7048.078582,-740.205942
4258.892340,-1924.535449,-9652.803275,-370.102971
4258.892665,-1406.391290,-7660.954980,-814.226536
4258.892989,-1110.308913,-7890.783629,-888.247130
4258.893313,-962.267725,-8120.612279,-1480.411884
4258.893638,74.020594,-6588.421283,1258.350101
4258.893962,3404.947333,-8656.879127,0.000000
4258.894287,6143.709319,-8656.879127,-222.061783
4258.894611,5625.565159,-7660.954980,-296.082377
4258.894936,5107.421000,-9193.145976,-222.061783
4258.895260,2812.782580,-8503.660028,-740.205942
4258.895584,518.144159,-9193.145976,814.226536
4258.895909,148.041188,-8810.098227,370.102971
4258.896233,-1776.494261,-9499.584175,1258.350101
4258.896558,-2590.720797,-8350.440928,-814.226536
4258.896882,-1332.370696,-9116.536426,0.000000
4258.897207,-4737.318029,-8044.002729,-1406.391290
4258.897531,-1776.494261,-9959.241474,-148.041188
4258.897855,-888.247130,-7201.297681,-370.102971
4258.898180,666.185348,-8810.098227,740.205942
4258.898504,1332.370696,-6665.030833,-518.144159
4258.898829,4293.194464,-9499.584175,518.144159
4258.899153,4071.132681,-8580.269578,-1184.329507
4258.899478,5847.626942,-9116.536426,74.020594
4258.899802,4071.132681,-8733.488677,-740.205942
4258.900127,740.205942,-9422.974625,-222.061783
4258.900451,666.185348,-9806.022374,74.020594
4258.900775,-1776.494261,-8044.002729,0.000000
4258.901100,-2960.823768,-9193.145976,1110.308913
4258.901424,-2220.617826,-8044.002729,-814.226536
4258.901749,-3627.009116,-9269.755526,-1406.391290
4258.902073,-3034.844362,-7354.516781,-1776.494261
4258.902398,-1480.411884,-9269.755526,-1480.411884
4258.902722,0.000000,-7814.174080,0.000000
4258.903046,2664.741391,-8120.612279,444.123565
4258.903371,4589.276840,-7814.174080,-1332.370696
4258.903695,4145.153275,-9269.755526,296.082377
4258.904020,5329.482782,-9499.584175,-2146.597232
4258.904344,2738.761985,-10878.556072,-296.082377
4258.904669,814.226536,-9652.803275,-1406.391290
4258.904993,-666.185348,-10418.898773,666.185348
4258.905317,-5699.585753,-8273.831378,-370.102971
4258.905642,-3552.988522,-9346.365076,740.205942
4258.905966,-2368.659014,-8503.660028,0.000000
4258.906291,-3923.091493,-7507.735880,-740.205942
4258.906615,-2886.803174,-8350.440928,-2072.576638
4258.906940,-2368.659014,-7967.393179,-1628.453072
4258.907264,-444.123565,-7660.954980,0.000000
4258.907589,3701.029710,-8427.050478,1258.350101
4258.907913,4885.359217,-8656.879127,-296.082377
4258.908237,4515.256246,-9499.584175,-444.123565
4258.908562,5181.441594,-10955.165621,-814.226536
4258.908886,3775.050304,-10648.727422,-814.226536
4258.909211,0.000000,-10495.508323,148.041188
4258.909535,1110.308913,-8733.488677,962.267725
4258.909860,-2812.782580,-8503.660028,370.102971
4258.910184,-4219.173869,-7354.516781,74.020594
4258.910508,-3478.967927,-7354.516781,888.247130
4258.910833,-3256.906145,-6435.202183,-1776.494261
4258.911157,-888.247130,-8427.050478,-592.164754
4258.911482,-740.205942,-5975.544884,-1998.556043
4258.911806,962.267725,-8810.098227,370.102971
4258.912131,4219.173869,-7354.516781,444.123565
4258.912455,4959.379811,-8273.831378,0.000000
4258.912779,5921.647536,-9576.193725,148.041188
4258.913104,5329.482782,-10725.336972,-1036.288319
4258.913428,4367.215058,-11261.603821,-1850.514855
4258.913753,222.061783,-9039.926876,-518.144159
4258.914077,296.082377,-9039.926876,370.102971
4258.914402,-1036.288319,-8656.879127,1480.411884
4258.914726,-2886.803174,-4903.011187,0.000000
4258.915051,-444.123565,-8810.098227,74.020594
4258.915375,-4071.132681,-6741.640382,-2220.617826
4258.915699,-2960.823768,-7354.516781,-1480.411884
4258.916024,-1184.329507,-7201.297681,-1406.391290
4258.916348,2368.659014,-9422.974625,1998.556043
4258.916673,1924.535449,-8350.440928,-740.205942
4258.916997,4441.235652,-9422.974625,-666.185348
4258.917322,5255.462188,-8810.098227,148.041188
4258.917646,4811.338623,-10725.336972,-1406.391290
4258.917970,4663.297435,-9806.022374,-962.267725
4258.918295,666.185348,-9806.022374,0.000000
4258.918619,-2738.761985,-9806.022374,-148.041188
4258.918944,-2442.679609,-7584.345430,0.000000
4258.919268,-2812.782580,-8044.002729,74.020594
4258.919593,-1998.556043,-7967.393179,0.000000
4258.919917,-1924.535449,-6894.859482,-1184.329507
4258.920241,-1850.514855,-8963.317327,-2294.638420
4258.920566,296.082377,-8503.660028,-1998.556043
4258.920890,888.247130,-8197.221829,296.082377
4258.921215,1628.453072,-9652.803275,-1184.329507
4258.921539,2368.659014,-10342.289223,518.144159
4258.921864,4737.318029,-8503.660028,-888.247130
4258.922188,4663.297435,-10418.898773,-148.041188
4258.922513,2960.823768,-8963.317327,-666.185348
4258.922837,-1332.370696,-9882.631924,-370.102971
4258.923161,-592.164754,-8427.050478,296.082377
4258.923486,-5699.585753,-7048.078582,-518.144159
4258.923810,-1702.473667,-8350.440928,370.102971
4258.924135,-2368.659014,-7660.954980,222.061783
4258.924459,-3997.112087,-8044.002729,-2442.679609
4258.924784,-962.267725,-7737.564530,-962.267725
4258.925108,-1554.432478,-8503.660028,0.000000
4258.925432,-148.041188,-9269.755526,-814.226536
4258.925757,2516.700203,-8733.488677,-814.226536
4258.926081,2442.679609,-9422.974625,740.205942
4258.926406,3701.029710,-9116.536426,-962.267725
4258.926730,4293.194464,-9346.365076,0.000000
4258.927055,2664.741391,-9806.022374,0.000000
4258.927379,-444.123565,-8503.660028,-1628.453072
4258.927703,-222.061783,-9729.412825,1258.350101
4258.928028,-2738.761985,-7737.564530,0.000000
4258.928352,-1406.391290,-7507.735880,740.205942
4258.928677,-2812.782580,-7124.688131,0.000000
4258.929001,-2738.761985,-8427.050478,-666.185348
4258.929326,-1850.514855,-7354.516781,-814.226536
4258.929650,-1110.308913,-7737.564530,-444.123565
4258.929975,1480.411884,-9193.145976,370.102971
4258.930299,3330.926739,-8503.660028,0.000000
4258.930623,4663.297435,-9193.145976,740.205942
4258.930948,3701.029710,-8580.269578,-1406.391290
4258.931272,5477.523971,-10725.336972,518.144159
4258.931597,4589.276840,-9806.022374,-888.247130
4258.931921,1554.432478,-9116.536426,-148.041188
4258.932246,-370.102971,-8273.831378,1036.288319
4258.932570,-1776.494261,-7890.783629,-814.226536
4258.932894,-962.267725,-8273.831378,1110.308913
4258.933219,-222.061783,-6818.249932,-666.185348
4258.933543,-2368.659014,-9422.974625,148.041188
4258.933868,-2442.679609,-6665.030833,-1258.350101
4258.934192,-2146.597232,-9422.974625,-518.144159
4258.934517,-222.061783,-8886.707777,-2294.638420
4258.934841,2220.617826,-10035.851024,814.226536
4258.935165,2590.720797,-8656.879127,-1850.514855
4258.935490,2960.823768,-8810.098227,-74.020594
4258.935814,5773.606348,-9346.365076,0.000000
4258.936139,4589.276840,-9422.974625,-2220.617826
4258.936463,2664.741391,-9806.022374,0.000000
4258.936787,1332.370696,-7124.688131,-666.185348
4258.937112,-1258.350101,-9193.145976,296.082377
4258.937436,0.000000,-8197.221829,518.144159
4258.937760,-518.144159,-7431.126331,-888.247130
4258.938085,-1850.514855,-8427.050478,222.061783
4258.938409,-2960.823768,-8503.660028,-1702.473667
4258.938733,-1110.308913,-9193.145976,-1258.350101
4258.939058,-2220.617826,-8120.612279,-666.185348
4258.939382,1332.370696,-9193.145976,-370.102971
4258.939706,2960.823768,-8656.879127,-592.164754
4258.940030,3034.844362,-9499.584175,0.000000
4258.940355,3182.885551,-9116.536426,-1480.411884
4258.940679,4145.153275,-10265.679673,-740.205942
4258.941003,1850.514855,-9269.755526,-1998.556043
4258.941328,1258.350101,-9806.022374,-888.247130
4258.941652,0.000000,-8273.831378,888.247130
4258.941976,-1998.556043,-7201.297681,-444.123565
4258.942301,-1702.473667,-9499.584175,1184.329507
4258.942625,-4737.318029,-7660.954980,-296.082377
4258.942949,-2738.761985,-9729.412825,-1184.329507
4258.943273,-4219.173869,-6971.469032,-1554.432478
4258.943598,-2146.597232,-8810.098227,-518.144159
4258.943922,888.247130,-9039.926876,962.267725
4258.944246,2664.741391,-7124.688131,-1406.391290
4258.944571,3997.112087,-9729.412825,888.247130
4258.944895,4959.379811,-6435.202183,-1258.350101
4258.945219,3849.070898,-10265.679673,1110.308913
4258.945544,3182.885551,-8197.221829,-1702.473667
4258.945868,888.247130,-9346.365076,666.185348
4258.946192,-1480.411884,-8120.612279,222.061783
4258.946516,-3108.864956,-9193.145976,814.226536
4258.946841,-3552.988522,-7048.078582,0.000000
4258.947165,-3775.050304,-8580.269578,0.000000
4258.947489,-4515.256246,-8273.831378,-1480.411884
4258.947814,-1776.494261,-7201.297681,0.000000
4258.948138,-2368.659014,-7967.393179,-666.185348
4258.948462,1184.329507,-8580.269578,0.000000
4258.948787,3923.091493,-7354.516781,-296.082377
4258.949111,5033.400406,-8963.317327,222.061783
4258.949435,5181.441594,-8120.612279,-814.226536
4258.949759,4885.359217,-9959.241474,888.247130
4258.950084,3256.906145,-10189.070123,0.000000
4258.950408,2220.617826,-9346.365076,148.041188
4258.950732,0.000000,-8733.488677,74.020594
4258.951057,-740.205942,-8580.269578,518.144159
4258.951381,-3108.864956,-7431.126331,740.205942
4258.951705,-2442.679609,-9269.755526,0.000000
4258.952030,-3923.091493,-7737.564530,-962.267725
4258.952354,-2516.700203,-7048.078582,-1776.494261
4258.952678,-296.082377,-8963.317327,518.144159
4258.953002,1480.411884,-8733.488677,-592.164754
4258.953327,5255.462188,-8044.002729,-444.123565
4258.953651,3478.967927,-7890.783629,-592.164754
4258.953975,4885.359217,-8886.707777,74.020594
4258.954300,4959.379811,-8886.707777,-962.267725
4258.954624,3404.947333,-10265.679673,518.144159
4258.954948,0.000000,-8886.707777,814.226536
4258.955273,-296.082377,-9039.926876,-666.185348
4258.955597,-1850.514855,-10189.070123,370.102971
4258.955921,666.185348,-8044.002729,-666.185348
4258.956245,-1776.494261,-8656.879127,-518.144159
4258.956570,-3330.926739,-8044.002729,-814.226536
4258.956894,-1036.288319,-7584.345430,-962.267725
4258.957218,-1184.329507,-8044.002729,-1480.411884
4258.957543,740.205942,-8810.098227,74.020594
4258.957867,4885.359217,-8350.440928,-1184.329507
4258.958191,3775.050304,-9422.974625,-592.164754
4258.958516,4071.132681,-9806.022374,-1480.411884
4258.958840,4589.276840,-11338.213370,-666.185348
4258.959164,2146.597232,-10572.117872,-1184.329507
4258.959488,1406.391290,-9576.193725,-518.144159
4258.959813,-740.205942,-8810.098227,444.123565
4258.960137,-2368.659014,-8580.269578,-370.102971
4258.960461,-3701.029710,-7277.907231,-296.082377
4258.960786,-3775.050304,-8197.221829,222.061783
4258.961110,-3108.864956,-7737.564530,-1480.411884
4258.961434,-2368.659014,-8044.002729,0.000000
4258.961759,-666.185348,-7124.688131,-962.267725
4258.962083,518.144159,-8656.879127,-740.205942
4258.962407,2664.741391,-8886.707777,-370.102971
4258.962732,4219.173869,-9422.974625,-814.226536
4258.963056,4959.379811,-9806.022374,-962.267725
4258.963380,2146.597232,-9422.974625,-518.144159
4258.963704,666.185348,-10801.946522,148.041188
4258.964029,1628.453072,-9576.193725,0.000000
4258.964353,-2368.659014,-8350.440928,-1036.288319
4258.964677,-2368.659014,-8427.050478,518.144159
4258.965002,-5625.565159,-7507.735880,962.267725
4258.965326,-3627.009116,-7354.516781,-148.041188
4258.965650,-3108.864956,-7890.783629,-740.205942
4258.965975,-1480.411884,-6741.640382,-592.164754
4258.966299,-1332.370696,-8350.440928,-592.164754
4258.966623,3552.988522,-7277.907231,-148.041188
4258.966947,3330.926739,-8810.098227,666.185348
4258.967272,4441.235652,-8963.317327,-370.102971
4258.967596,5477.523971,-9116.536426,888.247130
4258.967920,4145.153275,-8963.317327,-148.041188
4258.968245,3108.864956,-10801.946522,0.000000
4258.968569,2516.700203,-8810.098227,518.144159
4258.968893,-1258.350101,-9422.974625,444.123565
4258.969218,-2442.679609,-7048.078582,-370.102971
4258.969542,-1998.556043,-7890.783629,888.247130
4258.969866,-3552.988522,-6818.249932,0.000000
4258.970190,-2516.700203,-8044.002729,-592.164754
4258.970515,-2294.638420,-7814.174080,-1850.514855
4258.970839,-3997.112087,-8427.050478,0.000000
4258.971163,0.000000,-7660.954980,74.020594
4258.971488,814.226536,-9039.926876,0.000000
4258.971812,3108.864956,-8733.488677,-1406.391290
4258.972136,4663.297435,-9269.755526,-1036.288319
4258.972461,4959.379811,-9269.755526,-1332.370696
4258.972785,3775.050304,-8963.317327,-296.082377
4258.973109,2368.659014,-8963.317327,-888.247130
4258.973433,148.041188,-8350.440928,666.185348
4258.973758,-1332.370696,-7890.783629,148.041188
4258.974082,0.000000,-8963.317327,962.267725
4258.974406,-592.164754,-7354.516781,370.102971
4258.974731,-1776.494261,-9269.755526,-740.205942
4258.975055,-1258.350101,-8580.269578,-1554.432478
4258.975379,-2220.617826,-9729.412825,-2590.720797
4258.975704,-1036.288319,-9346.365076,-444.123565
4258.976028,296.082377,-7814.174080,-888.247130
4258.976352,2664.741391,-8963.317327,296.082377
4258.976676,4737.318029,-8044.002729,222.061783
4258.977001,4737.318029,-8503.660028,-2146.597232
4258.977325,3997.112087,-10035.851024,-962.267725
4258.977649,592.164754,-9729.412825,-1776.494261
4258.977974,592.164754,-11338.213370,74.020594
4258.978298,-962.267725,-9116.536426,0.000000
4258.978622,-2960.823768,-9039.926876,814.226536
4258.978947,-4811.338623,-8810.098227,-444.123565
4258.979271,-3849.070898,-8963.317327,-962.267725
4258.979595,-2146.597232,-9652.803275,-1776.494261
4258.979919,-2664.741391,-8197.221829,-2072.576638
4258.980244,0.000000,-8044.002729,-1850.514855
4258.980568,3404.947333,-8580.269578,1036.288319
4258.980892,3775.050304,-7124.688131,-1850.514855
4258.981217,5625.565159,-9346.365076,0.000000
4258.981541,4589.276840,-8273.831378,-1036.288319
4258.981865,3627.009116,-10112.460574,-444.123565
4258.982190,1332.370696,-9422.974625,-740.205942
4258.982514,-1480.411884,-10035.851024,888.247130
4258.982838,-2368.659014,-8810.098227,0.000000
4258.983162,-2442.679609,-8197.221829,0.000000
4258.983487,-3330.926739,-8503.660028,74.020594
4258.983811,-3108.864956,-9346.365076,-296.082377
4258.984135,-3330.926739,-7124.688131,-814.226536
4258.984460,-2812.782580,-7354.516781,-1110.308913
4258.984784,-3108.864956,-6588.421283,-666.185348
4258.985108,3034.844362,-9729.412825,370.102971
4258.985433,1036.288319,-7431.126331,0.000000
4258.985757,6957.935855,-8044.002729,-222.061783
4258.986081,7105.977043,-10112.460574,0.000000
4258.986406,2146.597232,-8656.879127,-1406.391290
4258.986730,222.061783,-9652.803275,888.247130
4258.987054,814.226536,-10112.460574,1184.329507
4258.987378,-2442.679609,-7967.393179,0.000000
4258.987703,-592.164754,-8733.488677,1924.535449
4258.988027,-3256.906145,-8273.831378,-740.205942
4258.988351,-3108.864956,-8733.488677,148.041188
4258.988676,-5107.421000,-7584.345430,-518.144159
4258.989000,-3108.864956,-8273.831378,0.000000
4258.989324,-3478.967927,-6281.983084,-666.185348
4258.989649,2368.659014,-9039.926876,518.144159
4258.989973,3404.947333,-8350.440928,-1628.453072
4258.990297,5699.585753,-9039.926876,74.020594
4258.990621,4589.276840,-7967.393179,74.020594
4258.990946,4589.276840,-9959.241474,74.020594
4258.991270,3552.988522,-9422.974625,-148.041188
4258.991594,222.061783,-10189.070123,148.041188
4258.991919,740.205942,-9959.241474,666.185348
4258.992243,-2368.659014,-7584.345430,-296.082377
4258.992567,-1998.556043,-9116.536426,740.205942
4258.992892,-4145.153275,-7660.954980,-666.185348
4258.993216,-3256.906145,-7431.126331,-592.164754
4258.993540,-3182.885551,-8120.612279,-1110.308913
4258.993864,0.000000,-8427.050478,0.000000
4258.994189,666.185348,-7584.345430,-148.041188
4258.994513,5773.606348,-7967.393179,-1110.308913
4258.994837,5773.606348,-9652.803275,-1332.370696
4258.995162,5033.400406,-8503.660028,-814.226536
4258.995486,4441.235652,-10648.727422,0.000000
4258.995810,1628.453072,-8810.098227,-2072.576638
4258.996135,-740.205942,-11184.994271,962.267725
4258.996459,-1480.411884,-9039.926876,-222.061783
4258.996783,-2368.659014,-9806.022374,444.123565
4258.997107,-4589.276840,-7201.297681,-740.205942
4258.997432,-2516.700203,-9039.926876,0.000000
4258.997756,-3923.091493,-6741.640382,-2812.782580
4258.998080,-2294.638420,-8427.050478,-592.164754
4258.998405,-296.082377,-6818.249932,-1702.473667
4258.998729,2368.659014,-7048.078582,-370.102971
4258.999053,5847.626942,-8120.612279,-370.102971
4258.999378,7402.059420,-8580.269578,-1110.308913
4258.999702,5033.400406,-9729.412825,-370.102971
4259.000026,4071.132681,-9269.755526,-962.267725
4259.000350,1702.473667,-11797.870669,0.000000
4259.000675,814.226536,-9193.145976,-1258.350101
4259.000999,-2590.720797,-9499.584175,666.185348
4259.001323,-2368.659014,-7814.174080,444.123565
4259.001648,-5107.421000,-7890.783629,370.102971
4259.001972,-3849.070898,-8580.269578,-814.226536
4259.002296,-3775.050304,-8120.612279,-1258.350101
4259.002621,-3034.844362,-8044.002729,-518.144159
4259.002945,222.061783,-7354.516781,-1332.370696
4259.003269,2738.761985,-8427.050478,-814.226536
4259.003593,5403.503377,-8886.707777,518.144159
4259.003918,4367.215058,-8810.098227,-518.144159
4259.004242,5847.626942,-9652.803275,-592.164754
4259.004566,3034.844362,-9269.755526,222.061783
4259.004891,1924.535449,-9346.365076,666.185348
4259.005215,-1184.329507,-9116.536426,148.041188
4259.005539,-962.267725,-9116.536426,814.226536
4259.005864,-1406.391290,-7890.783629,666.185348
4259.006188,-2368.659014,-7890.783629,0.000000
4259.006512,-1776.494261,-7660.954980,-592.164754
4259.006836,-1480.411884,-7890.783629,0.000000
4259.007161,-1776.494261,-7277.907231,-2294.638420
4259.007485,666.185348,-8656.879127,370.102971
4259.007809,888.247130,-7431.126331,-222.061783
4259.008134,2368.659014,-8427.050478,-370.102971
4259.008458,3478.967927,-8503.660028,-518.144159
4259.008782,3478.967927,-9422.974625,518.144159
4259.009107,4293.194464,-8503.660028,0.000000
4259.009431,1776.494261,-9499.584175,-370.102971
4259.009755,222.061783,-9806.022374,1036.288319
4259.010079,-518.144159,-8273.831378,-148.041188
4259.010404,-1850.514855,-7431.126331,-296.082377
4259.010728,0.000000,-8580.269578,2146.597232
4259.011052,-3108.864956,-7048.078582,-518.144159
4259.011377,-296.082377,-8273.831378,-222.061783
4259.011701,-370.102971,-7507.735880,-1184.329507
4259.012025,-592.164754,-8044.002729,-1110.308913
4259.012350,-74.020594,-8044.002729,-444.123565
4259.012674,2368.659014,-7737.564530,-814.226536
4259.012998,2072.576638,-9806.022374,370.102971
4259.013323,3256.906145,-7737.564530,-1110.308913
4259.013647,4589.276840,-11031.775171,740.205942
4259.013971,1776.494261,-7967.393179,-1332.370696
4259.014295,148.041188,-9346.365076,0.000000
4259.014620,-962.267725,-9039.926876,-518.144159
4259.014944,444.123565,-9729.412825,222.061783
4259.015268,-2886.803174,-8580.269578,444.123565
4259.015593,-1998.556043,-9422.974625,74.020594
4259.015917,-2368.659014,-7048.078582,-1036.288319
4259.016241,-1036.288319,-8963.317327,-740.205942
4259.016566,222.061783,-8350.440928,-1110.308913
4259.016890,1036.288319,-7967.393179,-444.123565
4259.017214,888.247130,-7737.564530,-74.020594
4259.017538,4515.256246,-8503.660028,-1776.494261
4259.017863,4737.318029,-9269.755526,-296.082377
4259.018187,6735.874072,-8503.660028,0.000000
4259.018511,-2146.597232,-9499.584175,-1776.494261
4259.018836,592.164754,-9806.022374,296.082377
4259.019160,-4071.132681,-9039.926876,518.144159
4259.019484,-740.205942,-9346.365076,888.247130
4259.019809,-1924.535449,-8503.660028,222.061783
4259.020133,-3923.091493,-7354.516781,-1480.411884
4259.020457,-2738.761985,-8273.831378,518.144159
4259.020781,-1924.535449,-7507.735880,-2664.741391
4259.021106,-1406.391290,-9422.974625,74.020594
4259.021430,1258.350101,-6588.421283,-1998.556043
4259.021754,5107.421000,-9039.926876,888.247130
4259.022079,3923.091493,-6818.249932,-2442.679609
4259.022403,6217.729913,-10648.727422,740.205942
4259.022727,2590.720797,-8273.831378,-888.247130
4259.023052,2442.679609,-10189.070123,370.102971
4259.023376,1036.288319,-9269.755526,0.000000
4259.023700,-962.267725,-8810.098227,296.082377
4259.024024,-1184.329507,-8810.098227,-296.082377
4259.024349,-2516.700203,-8120.612279,-518.144159
4259.024673,-1998.556043,-8733.488677,222.061783
4259.024997,-2738.761985,-8044.002729,-1258.350101
4259.025322,-2738.761985,-8044.002729,-222.061783
4259.025646,-2812.782580,-7354.516781,-962.267725
4259.025970,1850.514855,-8044.002729,-1258.350101
4259.026295,2886.803174,-7354.516781,-444.123565
4259.026619,4959.379811,-8963.317327,222.061783
4259.026943,5255.462188,-8810.098227,-962.267725
4259.027267,3923.091493,-9346.365076,296.082377
4259.027592,2146.597232,-8197.221829,-444.123565
4259.027916,1110.308913,-10035.851024,444.123565
4259.028240,-888.247130,-8427.050478,0.000000
4259.028565,-2294.638420,-9499.584175,444.123565
4259.028889,-2812.782580,-7890.783629,444.123565
4259.029213,-1998.556043,-8886.707777,1110.308913
4259.029538,-2072.576638,-7814.174080,-888.247130
4259.029862,-1036.288319,-8350.440928,-296.082377
4259.030186,-2812.782580,-7124.688131,-1406.391290
4259.030510,-370.102971,-9346.365076,1258.350101
4259.030835,2220.617826,-5975.544884,-1554.432478
4259.031159,5255.462188,-9499.584175,666.185348
4259.031483,4293.194464,-7354.516781,-2590.720797
4259.031808,4663.297435,-11414.822920,1332.370696
4259.032132,1036.288319,-8120.612279,-962.267725
4259.032456,1184.329507,-10878.556072,740.205942
4259.032781,-2072.576638,-8427.050478,-814.226536
4259.033105,-2146.597232,-9882.631924,1110.308913
4259.033429,-1702.473667,-7354.516781,74.020594
4259.033753,-2220.617826,-8810.098227,444.123565
4259.034078,-2442.679609,-7431.126331,-592.164754
4259.034402,-2294.638420,-8044.002729,-444.123565
4259.034726,-666.185348,-8350.440928,-1850.514855
4259.035051,74.020594,-6511.811733,-444.123565
4259.035375,1850.514855,-7814.174080,148.041188
4259.035699,2886.803174,-9652.803275,-1036.288319
4259.036024,4219.173869,-9422.974625,-666.185348
4259.036348,1628.453072,-9806.022374,296.082377
4259.036672,518.144159,-7584.345430,-888.247130
4259.036997,3478.967927,-9729.412825,0.000000
4259.037321,-592.164754,-10342.289223,666.185348
4259.037645,814.226536,-9193.145976,1036.288319
4259.037969,-444.123565,-7660.954980,-296.082377
4259.038294,-2738.761985,-8580.269578,-370.102971
4259.038618,-3404.947333,-6894.859482,-1110.308913
4259.038942,-1406.391290,-9039.926876,-1110.308913
4259.039267,-2960.823768,-7277.907231,-962.267725
4259.039591,222.061783,-8273.831378,296.082377
4259.039915,2886.803174,-7354.516781,-2146.597232
4259.040240,4589.276840,-9039.926876,1332.370696
4259.040564,5403.503377,-8197.221829,-888.247130
4259.040888,5847.626942,-9576.193725,74.020594
4259.041213,2886.803174,-8886.707777,-148.041188
4259.041537,2442.679609,-9116.536426,-296.082377
4259.041861,370.102971,-10112.460574,-222.061783
4259.042186,-2960.823768,-8197.221829,0.000000
4259.042510,-1924.535449,-9422.974625,1258.350101
4259.042834,-4071.132681,-6971.469032,-592.164754
4259.043159,-2294.638420,-8963.317327,0.000000
4259.043483,-2960.823768,-7201.297681,-222.061783
4259.043807,-2146.597232,-7507.735880,-2072.576638
4259.044132,740.205942,-7660.954980,-740.205942
4259.044456,4515.256246,-7967.393179,-370.102971
4259.044780,3552.988522,-8044.002729,-222.061783
4259.045104,4515.256246,-7584.345430,148.041188
4259.045429,4367.215058,-8580.269578,-148.041188
4259.045753,2368.659014,-9806.022374,-1406.391290
4259.046077,3108.864956,-10189.070123,-518.144159
4259.046402,-962.267725,-10725.336972,1110.308913
4259.046726,-3775.050304,-8810.098227,-1258.350101
4259.047050,-4145.153275,-7967.393179,0.000000
4259.047375,-3849.070898,-7737.564530,0.000000
4259.047699,-2442.679609,-8427.050478,444.123565
4259.048023,-4145.153275,-7354.516781,-2368.659014
4259.048348,-1110.308913,-8963.317327,-222.061783
4259.048672,-148.041188,-6665.030833,-2442.679609
4259.048996,2294.638420,-8427.050478,-296.082377
4259.049321,2886.803174,-8350.440928,-962.267725
4259.049645,3552.988522,-9499.584175,592.164754
4259.049969,5033.400406,-9499.584175,-666.185348
4259.050294,2886.803174,-9959.241474,-888.247130
4259.050618,814.226536,-8810.098227,296.082377
4259.050942,-1554.432478,-8580.269578,0.000000
4259.051267,-962.267725,-9576.193725,666.185348
4259.051591,-1998.556043,-7277.907231,814.226536
4259.051915,74.020594,-8503.660028,518.144159
4259.052239,-2294.638420,-7737.564530,-1184.329507
4259.052564,-2368.659014,-7814.174080,-518.144159
4259.052888,-1184.329507,-7124.688131,-1924.535449
4259.053212,1406.391290,-8886.707777,296.082377
4259.053537,2072.576638,-8120.612279,-370.102971
4259.053861,2442.679609,-9346.365076,0.000000
4259.054185,2664.741391,-8656.879127,962.267725
4259.054510,3108.864956,-9652.803275,0.000000
4259.054834,2664.741391,-8580.269578,0.000000
4259.055158,0.000000,-8197.221829,-518.144159
4259.055483,1110.308913,-9806.022374,0.000000
4259.055807,2294.638420,-9499.584175,0.000000
4259.056131,-962.267725,-7124.688131,-518.144159
4259.056456,-962.267725,-9039.926876,444.123565
4259.056780,-2812.782580,-6971.469032,-222.061783
4259.057104,-2590.720797,-9346.365076,-1184.329507
4259.057429,-1258.350101,-7124.688131,-1924.535449
4259.057753,-1998.556043,-8350.440928,666.185348
4259.058077,-148.041188,-8273.831378,-666.185348
4259.058402,2294.638420,-7584.345430,74.020594
4259.058726,5921.647536,-8810.098227,0.000000
4259.059050,5181.441594,-7507.735880,-1110.308913
4259.059374,5107.421000,-9806.022374,1036.288319
4259.059699,2368.659014,-8044.002729,-1332.370696
4259.060023,1332.370696,-10648.727422,666.185348
4259.060347,222.061783,-8120.612279,0.000000
4259.060672,296.082377,-10572.117872,518.144159
4259.060996,-4663.297435,-7124.688131,-1184.329507
4259.061320,-1258.350101,-9652.803275,1258.350101
4259.061645,-3034.844362,-6894.859482,-1480.411884
4259.061969,-2368.659014,-9729.412825,222.061783
4259.062293,-1406.391290,-6588.421283,-1998.556043
4259.062618,1480.411884,-8886.707777,296.082377
4259.062942,1850.514855,-7354.516781,-1480.411884
4259.063266,5921.647536,-9039.926876,-518.144159
4259.063591,3775.050304,-9729.412825,-592.164754
4259.063915,2516.700203,-9422.974625,-1332.370696
4259.064239,3182.885551,-10112.460574,444.123565
4259.064564,-2516.700203,-8427.050478,444.123565
4259.064888,-888.247130,-10955.165621,814.226536
4259.065212,-2368.659014,-7584.345430,222.061783
4259.065537,-1258.350101,-9346.365076,740.205942
4259.065861,-3330.926739,-7048.078582,-518.144159
4259.066185,-1998.556043,-8580.269578,222.061783
4259.066509,-2146.597232,-7737.564530,-2368.659014
4259.066834,814.226536,-8656.879127,-1036.288319
4259.067158,1924.535449,-6971.469032,0.000000
4259.067482,3182.885551,-7507.735880,-666.185348
4259.067807,4589.276840,-8197.221829,0.000000
4259.068131,4441.235652,-9576.193725,-1036.288319
4259.068455,3330.926739,-9959.241474,296.082377
4259.068780,444.123565,-8886.707777,-518.144159
4259.069104,74.020594,-9729.412825,814.226536
4259.069428,-1332.370696,-8044.002729,148.041188
4259.069753,-1332.370696,-8810.098227,0.000000
4259.070077,-1850.514855,-8273.831378,444.123565
4259.070401,-3034.844362,-6894.859482,222.061783
4259.070726,-2442.679609,-8580.269578,-518.144159
4259.071050,-3849.070898,-7354.516781,0.000000
4259.071374,1036.288319,-7048.078582,-1258.350101
4259.071699,740.205942,-7967.393179,222.061783
4259.072023,2368.659014,-6588.421283,-296.082377
4259.072347,4145.153275,-8963.317327,-518.144159
4259.072672,4367.215058,-9806.022374,-888.247130
4259.072996,1332.370696,-9499.584175,-592.164754
4259.073320,2146.597232,-8580.269578,-666.185348
4259.073644,-814.226536,-10035.851024,1332.370696
4259.073969,-740.205942,-9193.145976,370.102971
4259.074293,-1850.514855,-8503.660028,-444.123565
4259.074617,-962.267725,-8810.098227,1258.350101
4259.074942,-1554.432478,-7431.126331,-1480.411884
4259.075266,296.082377,-8886.707777,592.164754
4259.075590,-1480.411884,-6435.202183,-592.164754
4259.075915,-1258.350101,-6894.859482,-370.102971
4259.076239,0.000000,-6128.763984,-296.082377
4259.076563,3404.947333,-8886.707777,0.000000
4259.076888,4071.132681,-8044.002729,-1628.453072
4259.077212,2960.823768,-10265.679673,-444.123565
4259.077536,1554.432478,-9116.536426,0.000000
4259.077861,1702.473667,-8733.488677,962.267725
4259.078185,1702.473667,-8810.098227,-444.123565
4259.078509,0.000000,-9576.193725,-444.123565
4259.078834,-962.267725,-8044.002729,74.020594
4259.079158,296.082377,-9959.241474,-592.164754
4259.079482,-518.144159,-7584.345430,-444.123565
4259.079807,370.102971,-8503.660028,518.144159
4259.080131,-2590.720797,-7354.516781,-1406.391290
4259.080455,-1554.432478,-7660.954980,-888.247130
4259.080780,-296.082377,-7354.516781,-888.247130
4259.081104,2516.700203,-9652.803275,148.041188
4259.081428,370.102971,-8733.488677,-1184.329507
4259.081752,3923.091493,-10265.679673,-888.247130
4259.082077,1332.370696,-8273.831378,-1406.391290
4259.082401,3478.967927,-10112.460574,-592.164754
4259.082725,592.164754,-7277.907231,-296.082377
4259.083050,74.020594,-11108.384721,1110.308913
4259.083374,-518.144159,-8503.660028,-1110.308913
4259.083698,222.061783,-9806.022374,1258.350101
4259.084023,-3923.091493,-7431.126331,-1924.535449
4259.084347,1036.288319,-10495.508323,592.164754
4259.084671,-3552.988522,-5898.935335,-2886.803174
4259.084996,1554.432478,-9959.241474,1850.514855
4259.085320,370.102971,-5056.230287,-1998.556043
4259.085644,-296.082377,-9806.022374,666.185348
4259.085969,2664.741391,-7737.564530,-1850.514855
4259.086293,2886.803174,-9806.022374,-666.185348
4259.086617,1554.432478,-9193.145976,-592.164754
4259.086942,3552.988522,-8656.879127,296.082377
4259.087266,2220.617826,-9039.926876,814.226536
4259.087590,296.082377,-8886.707777,0.000000
4259.087915,1850.514855,-10112.460574,1036.288319
4259.088239,-1184.329507,-7890.783629,666.185348
4259.088563,-1998.556043,-9652.803275,1184.329507
4259.088887,-3701.029710,-7201.297681,-1184.329507
4259.089212,-1480.411884,-8503.660028,-1110.308913
4259.089536,-1850.514855,-6511.811733,-666.185348
4259.089860,-2442.679609,-7737.564530,0.000000
4259.090185,-518.144159,-7584.345430,296.082377
4259.090509,1776.494261,-7507.735880,962.267725
4259.090833,4589.276840,-9116.536426,-518.144159
4259.091158,5477.523971,-8120.612279,-370.102971
4259.091482,3627.009116,-9269.755526,444.123565
4259.091806,2368.659014,-9116.536426,-1258.350101
4259.092131,740.205942,-11261.603821,518.144159
4259.092455,-1110.308913,-8503.660028,296.082377
4259.092779,-1258.350101,-9499.584175,-148.041188
4259.093104,-3256.906145,-8273.831378,74.020594
4259.093428,-3108.864956,-8273.831378,148.041188
4259.093752,-2886.803174,-7354.516781,-666.185348
4259.094077,-2368.659014,-6818.249932,-1036.288319
4259.094401,1480.411884,-7660.954980,222.061783
4259.094725,3256.906145,-6588.421283,-1998.556043
4259.095050,5033.400406,-9806.022374,-296.082377
4259.095374,5107.421000,-8273.831378,-666.185348
4259.095698,6069.688724,-8886.707777,222.061783
4259.096022,4219.173869,-8733.488677,-370.102971
4259.096347,2146.597232,-9806.022374,-1258.350101
4259.096671,-1776.494261,-10189.070123,-148.041188
4259.096995,-3849.070898,-10035.851024,740.205942
4259.097320,-3404.947333,-9576.193725,148.041188
4259.097644,-4145.153275,-8963.317327,-296.082377
4259.097968,-2960.823768,-8350.440928,-296.082377
4259.098293,-2220.617826,-7124.688131,-1480.411884
4259.098617,0.000000,-7431.126331,-1480.411884
4259.098941,2072.576638,-7124.688131,0.000000
4259.099266,3923.091493,-7124.688131,-1554.432478
4259.099590,4071.132681,-8503.660028,-962.267725
4259.099914,4367.215058,-9116.536426,74.020594
4259.100239,3108.864956,-9652.803275,74.020594
4259.100563,1110.308913,-10418.898773,-888.247130
4259.100887,-296.082377,-10112.460574,-740.205942
4259.101212,-2294.638420,-9576.193725,-518.144159
4259.101536,-2590.720797,-9806.022374,74.020594
4259.101860,-3701.029710,-8350.440928,-296.082377
4259.102185,-2220.617826,-7814.174080,222.061783
4259.102509,-1702.473667,-7737.564530,296.082377
4259.102833,-814.226536,-8044.002729,-2220.617826
4259.103157,666.185348,-8350.440928,-1776.494261
4259.103482,2368.659014,-6511.811733,-1036.288319
4259.103806,2368.659014,-8044.002729,-296.082377
4259.104130,4219.173869,-8810.098227,-222.061783
4259.104455,4737.318029,-9116.536426,666.185348
4259.104779,2738.761985,-9039.926876,-592.164754
4259.105103,2368.659014,-9652.803275,-962.267725
4259.105428,740.205942,-10265.679673,0.000000
4259.105752,-296.082377,-9269.755526,222.061783
4259.106076,-1258.350101,-8963.317327,518.144159
4259.106401,-2738.761985,-8197.221829,-74.020594
4259.106725,-148.041188,-7737.564530,1332.370696
4259.107049,-5107.421000,-7354.516781,-1184.329507
4259.107374,-814.226536,-9499.584175,-962.267725
4259.107698,-2072.576638,-6205.373534,-148.041188
4259.108022,-740.205942,-8120.612279,-370.102971
4259.108347,2738.761985,-7354.516781,-444.123565
4259.108671,3108.864956,-8810.098227,592.164754
4259.108995,2516.700203,-9116.536426,-296.082377
4259.109320,1036.288319,-9499.584175,74.020594
4259.109644,1554.432478,-9576.193725,-296.082377
4259.109968,0.000000,-9193.145976,74.020594
4259.110292,370.102971,-7737.564530,-666.185348
4259.110617,370.102971,-9882.631924,1850.514855
4259.110941,0.000000,-7354.516781,-740.205942
4259.111265,1184.329507,-9422.974625,1110.308913
4259.111590,-1776.494261,-7354.516781,-1406.391290
4259.111914,-962.267725,-9116.536426,814.226536
4259.112238,-1924.535449,-5669.106685,-2072.576638
4259.112563,1110.308913,-9729.412825,-370.102971
4259.112887,-222.061783,-6894.859482,-666.185348
4259.113211,1776.494261,-7814.174080,74.020594
4259.113536,1850.514855,-8733.488677,-666.185348
4259.113860,4293.194464,-9269.755526,740.205942
4259.114184,3478.967927,-9806.022374,-370.102971
4259.114509,3478.967927,-9652.803275,-888.247130
4259.114833,2368.659014,-8733.488677,-296.082377
4259.115157,-814.226536,-9806.022374,0.000000
4259.115482,-962.267725,-8350.440928,296.082377
4259.115806,-1406.391290,-8427.050478,74.020594
4259.116130,-2072.576638,-9346.365076,518.144159
4259.116455,-1850.514855,-8963.317327,-1702.473667
4259.116779,-2516.700203,-7967.393179,-814.226536
4259.117103,-3182.885551,-8273.831378,-740.205942
4259.117427,1998.556043,-7507.735880,-1110.308913
4259.117752,888.247130,-9346.365076,-1110.308913
4259.118076,3256.906145,-8963.317327,-666.185348
4259.118400,1998.556043,-7890.783629,740.205942
4259.118725,740.205942,-7967.393179,-888.247130
4259.119049,2146.597232,-8273.831378,148.041188
4259.119373,0.000000,-8197.221829,296.082377
4259.119698,148.041188,-10572.117872,222.061783
4259.120022,-370.102971,-8273.831378,-1332.370696
4259.120346,-888.247130,-9269.755526,740.205942
4259.120671,-148.041188,-7584.345430,-888.247130
4259.120995,-1184.329507,-9116.536426,0.000000
4259.121319,-1258.350101,-8044.002729,-370.102971
4259.121644,-2072.576638,-7354.516781,-1184.329507
4259.121968,-148.041188,-7660.954980,-740.205942
4259.122292,962.267725,-8886.707777,222.061783
4259.122617,4145.153275,-8733.488677,-962.267725
4259.122941,2812.782580,-8580.269578,444.123565
4259.123265,2516.700203,-8886.707777,-444.123565
4259.123590,2294.638420,-9039.926876,-888.247130
4259.123914,1776.494261,-9882.631924,-222.061783
4259.124238,1776.494261,-9422.974625,962.267725
4259.124562,370.102971,-8733.488677,-1036.288319
4259.124887,-1184.329507,-9039.926876,-296.082377
4259.125211,-1184.329507,-8503.660028,-370.102971
4259.125535,-3034.844362,-8044.002729,0.000000
4259.125860,-2368.659014,-8580.269578,-666.185348
4259.126184,-1258.350101,-7354.516781,-518.144159
4259.126508,-962.267725,-7967.393179,296.082377
4259.126833,222.061783,-6971.469032,74.020594
4259.127157,2812.782580,-8350.440928,-1702.473667
4259.127481,5033.400406,-9116.536426,-962.267725
4259.127806,3849.070898,-9346.365076,296.082377
4259.128130,3478.967927,-9499.584175,-1184.329507
4259.128454,814.226536,-8427.050478,-666.185348
4259.128779,666.185348,-10878.556072,1554.432478
4259.129103,-518.144159,-7967.393179,-1480.411884
4259.129427,-74.020594,-8580.269578,666.185348
4259.129752,-1184.329507,-7660.954980,74.020594
4259.130076,-2812.782580,-9193.145976,-222.061783
4259.130400,-3701.029710,-7507.735880,0.000000
4259.130725,-1406.391290,-7737.564530,148.041188
4259.131049,-1036.288319,-6741.640382,-1480.411884
4259.131373,1776.494261,-8503.660028,1110.308913
4259.131697,4663.297435,-7201.297681,-2146.597232
4259.132022,5255.462188,-9729.412825,0.000000
4259.132346,3256.906145,-9039.926876,-1998.556043
4259.132670,3108.864956,-12257.527968,666.185348
4259.132995,740.205942,-8350.440928,-962.267725
4259.133319,222.061783,-10035.851024,1258.350101
4259.133643,0.000000,-8044.002729,-1036.288319
4259.133968,-1924.535449,-10342.289223,1110.308913
4259.134292,-2442.679609,-7967.393179,-1850.514855
4259.134616,-2368.659014,-8427.050478,1258.350101
4259.134941,-3701.029710,-7124.688131,-2146.597232
4259.135265,-2442.679609,-8273.831378,1110.308913
4259.135589,-1628.453072,-7048.078582,0.000000
4259.135914,1184.329507,-8427.050478,-962.267725
4259.136238,4071.132681,-9422.974625,-814.226536
4259.136562,4367.215058,-8427.050478,-1554.432478
4259.136887,4737.318029,-10112.460574,-666.185348
4259.137211,2442.679609,-8810.098227,-962.267725
4259.137535,2590.720797,-10878.556072,962.267725
4259.137859,148.041188,-8733.488677,888.247130
4259.138183,-1110.308913,-8580.269578,962.267725
4259.138508,-1406.391290,-9269.755526,0.000000
4259.138832,-2664.741391,-7201.297681,-814.226536
4259.139156,-1850.514855,-8656.879127,0.000000
4259.139480,-2812.782580,-6818.249932,-2146.597232
4259.139804,-2146.597232,-8503.660028,592.164754
4259.140129,-666.185348,-6052.154434,-962.267725
4259.140453,2960.823768,-9193.145976,0.000000
4259.140777,2960.823768,-8886.707777,-1036.288319
4259.141101,2886.803174,-8810.098227,-740.205942
4259.141425,4293.194464,-8350.440928,-444.123565
4259.141750,2812.782580,-9806.022374,-148.041188
4259.142074,2664.741391,-10112.460574,-740.205942
4259.142398,-2886.803174,-9652.803275,222.061783
4259.142722,-2664.741391,-7967.393179,-1702.473667
4259.143046,-1924.535449,-9499.584175,2146.597232
4259.143371,-1998.556043,-6818.249932,-2146.597232
4259.143695,-1850.514855,-8886.707777,1036.288319
4259.144019,-3330.926739,-4596.572988,-1184.329507
4259.144343,-296.082377,-9806.022374,1924.535449
4259.144667,1406.391290,-6052.154434,-4737.318029
4259.144992,1480.411884,-10265.679673,-1406.391290
4259.145316,5551.544565,-10418.898773,-3256.906145
4259.145640,6217.729913,-10035.851024,1998.556043
4259.145964,0.000000,-7814.174080,-1702.473667
4259.146288,3552.988522,-11261.603821,444.123565
4259.146613,-592.164754,-7814.174080,-1332.370696
4259.146937,-888.247130,-7354.516781,1924.535449
4259.147261,-296.082377,-9039.926876,-1110.308913
4259.147585,-2294.638420,-8273.831378,2072.576638
4259.147909,-1110.308913,-9576.193725,1258.350101
4259.148234,-148.041188,-8044.002729,0.000000
4259.148558,-3552.988522,-10265.679673,-222.061783
4259.148882,-2072.576638,-9729.412825,-2812.782580
4259.149206,2294.638420,-9806.022374,-296.082377
4259.149530,1776.494261,-6741.640382,-2146.597232
4259.149855,2368.659014,-11108.384721,814.226536
4259.150179,3478.967927,-6052.154434,-2442.679609
4259.150503,3108.864956,-10878.556072,1110.308913
4259.150827,1924.535449,-7354.516781,-2738.761985
4259.151151,-592.164754,-9193.145976,666.185348
4259.151476,1184.329507,-6818.249932,-1628.453072
4259.151800,296.082377,-8886.707777,518.144159
4259.152124,-1554.432478,-6665.030833,-1332.370696
4259.152448,-148.041188,-9116.536426,370.102971
4259.152772,-1480.411884,-6511.811733,-666.185348
4259.153097,-1628.453072,-9039.926876,0.000000
4259.153421,-148.041188,-8197.221829,-666.185348
4259.153745,1110.308913,-8120.612279,-444.123565
4259.154069,1110.308913,-8733.488677,-962.267725
4259.154393,2738.761985,-8886.707777,-518.144159
4259.154718,2072.576638,-8503.660028,0.000000
4259.155042,1776.494261,-9422.974625,-962.267725
4259.155366,1480.411884,-8963.317327,444.123565
4259.155690,2146.597232,-9039.926876,1258.350101
4259.156014,592.164754,-7967.393179,-1258.350101
4259.156339,2368.659014,-8503.660028,814.226536
4259.156663,-2220.617826,-8886.707777,0.000000
4259.156987,-592.164754,-8810.098227,740.205942
4259.157311,-2368.659014,-6588.421283,0.000000
4259.157635,148.041188,-10725.336972,666.185348
4259.157960,-296.082377,-6818.249932,-1110.308913
4259.158284,-222.061783,-7967.393179,0.000000
4259.158608,1110.308913,-8503.660028,-740.205942
4259.158932,2368.659014,-8656.879127,-370.102971
4259.159256,3478.967927,-8963.317327,-1776.494261
4259.159581,3182.885551,-9806.022374,370.102971
4259.159905,2590.720797,-7584.345430,-296.082377
4259.160229,1184.329507,-8886.707777,0.000000
4259.160553,962.267725,-7890.783629,-592.164754
4259.160877,666.185348,-9882.631924,-296.082377
4259.161202,-296.082377,-7967.393179,-814.226536
4259.161526,-888.247130,-8656.879127,0.000000
4259.161850,-888.247130,-7814.174080,222.061783
4259.162174,-1406.391290,-9116.536426,518.144159
4259.162498,-592.164754,-8503.660028,-888.247130
4259.162823,1110.308913,-7584.345430,0.000000
4259.163147,518.144159,-6665.030833,0.000000
4259.163471,1998.556043,-7967.393179,1406.391290
4259.163795,4071.132681,-8120.612279,-1480.411884
4259.164119,2220.617826,-10189.070123,370.102971
4259.164444,2368.659014,-8427.050478,-1036.288319
4259.164768,3182.885551,-9882.631924,-296.082377
4259.165092,518.144159,-7890.783629,-814.226536
4259.165416,-888.247130,-9499.584175,74.020594
4259.165740,-1258.350101,-8427.050478,-1184.329507
4259.166065,-962.267725,-9806.022374,592.164754
4259.166389,-2368.659014,-8580.269578,-370.102971
4259.166713,-2294.638420,-7660.954980,-518.144159
4259.167037,-2072.576638,-8197.221829,-814.226536
4259.167361,-1628.453072,-8044.002729,-666.185348
4259.167686,518.144159,-8197.221829,-1184.329507
4259.168010,148.041188,-7201.297681,-666.185348
4259.168334,2886.803174,-9116.536426,296.082377
4259.168658,3627.009116,-7967.393179,-1110.308913
4259.168982,4811.338623,-10878.556072,222.061783
4259.169307,2960.823768,-7660.954980,-1184.329507
4259.169631,666.185348,-10112.460574,814.226536
4259.169955,296.082377,-8733.488677,-888.247130
4259.170279,-592.164754,-8044.002729,444.123565
4259.170603,-1554.432478,-8580.269578,-222.061783
4259.170928,-1554.432478,-8733.488677,0.000000
4259.171252,-3256.906145,-7584.345430,148.041188
4259.171576,-3256.906145,-7431.126331,-1036.288319
4259.171900,-1036.288319,-7584.345430,0.000000
4259.172224,-1258.350101,-8044.002729,-666.185348
4259.172549,2886.803174,-8350.440928,740.205942
4259.172873,4441.235652,-7737.564530,-666.185348
4259.173197,4071.132681,-9499.584175,-1480.411884
4259.173521,4071.132681,-10035.851024,370.102971
4259.173845,2368.659014,-9193.145976,-1184.329507
4259.174169,1480.411884,-10418.898773,-296.082377
4259.174494,-1036.288319,-9116.536426,296.082377
4259.174818,-2146.597232,-8580.269578,666.185348
4259.175142,-1628.453072,-7431.126331,-370.102971
4259.175466,-1850.514855,-8044.002729,148.041188
4259.175790,-2442.679609,-6894.859482,-444.123565
4259.176115,-2368.659014,-7584.345430,222.061783
4259.176439,148.041188,-7814.174080,-888.247130
4259.176763,814.226536,-7354.516781,-370.102971
4259.177087,1258.350101,-7737.564530,-1036.288319
4259.177411,3775.050304,-8656.879127,-1406.391290
4259.177736,3108.864956,-7814.174080,-296.082377
4259.178060,5403.503377,-10112.460574,666.185348
4259.178384,3108.864956,-10035.851024,-1036.288319
4259.178708,814.226536,-10725.336972,0.000000
4259.179032,-518.144159,-8503.660028,444.123565
4259.179357,-2442.679609,-8197.221829,740.205942
4259.179681,-1998.556043,-8350.440928,-370.102971
4259.180005,-888.247130,-7354.516781,-370.102971
4259.180329,-1776.494261,-7890.783629,0.000000
4259.180653,-2442.679609,-7048.078582,-1036.288319
4259.180978,296.082377,-7890.783629,-370.102971
4259.181302,296.082377,-8886.707777,148.041188
4259.181626,1924.535449,-7201.297681,-1924.535449
4259.181950,3627.009116,-10265.679673,814.226536
4259.182274,3997.112087,-8350.440928,-1332.370696
4259.182599,5107.421000,-11261.603821,0.000000
4259.182923,1110.308913,-10418.898773,-2294.638420
4259.183247,1258.350101,-10495.508323,-296.082377
4259.183571,148.041188,-8963.317327,222.061783
4259.183895,-2960.823768,-7890.783629,0.000000
4259.184220,-222.061783,-8120.612279,962.267725
4259.184544,-1480.411884,-7277.907231,-592.164754
4259.184868,-3330.926739,-9193.145976,-962.267725
4259.185192,-1850.514855,-7048.078582,-2220.617826
4259.185516,-1332.370696,-8963.317327,814.226536
4259.185841,1776.494261,-7660.954980,-1850.514855
4259.186165,2072.576638,-10265.679673,296.082377
4259.186489,1850.514855,-9576.193725,-1776.494261
4259.186813,3404.947333,-10035.851024,-666.185348
4259.187137,2516.700203,-9499.584175,-1480.411884
4259.187462,2072.576638,-9346.365076,740.205942
4259.187786,222.061783,-8810.098227,-370.102971
4259.188110,-1406.391290,-8044.002729,0.000000
4259.188434,-962.267725,-7967.393179,0.000000
4259.188758,-888.247130,-7431.126331,814.226536
4259.189083,-2294.638420,-7890.783629,-888.247130
4259.189407,-2072.576638,-7967.393179,-740.205942
4259.189731,-1480.411884,-8503.660028,148.041188
4259.190055,-1332.370696,-6894.859482,-888.247130
4259.190379,222.061783,-8656.879127,1480.411884
4259.190704,1850.514855,-7277.907231,0.000000
4259.191028,3034.844362,-9882.631924,-444.123565
4259.191352,2886.803174,-8580.269578,-962.267725
4259.191676,3849.070898,-10112.460574,0.000000
4259.192000,1850.514855,-8886.707777,-592.164754
4259.192325,1480.411884,-9652.803275,0.000000
4259.192649,148.041188,-8273.831378,518.144159
4259.192973,-1554.432478,-7660.954980,-1036.288319
4259.193297,2220.617826,-9193.145976,1480.411884
4259.193621,-148.041188,-7277.907231,-740.205942
4259.193946,-2664.741391,-9193.145976,962.267725
4259.194270,-2812.782580,-7431.126331,-1258.350101
4259.194594,-1554.432478,-7890.783629,1480.411884
4259.194918,-1036.288319,-8044.002729,-888.247130
4259.195242,74.020594,-8733.488677,-222.061783
4259.195567,1776.494261,-9039.926876,-814.226536
4259.195891,1998.556043,-8963.317327,0.000000
4259.196215,3404.947333,-9039.926876,0.000000
4259.196539,3256.906145,-8886.707777,296.082377
4259.196863,2886.803174,-9193.145976,-148.041188
4259.197188,814.226536,-8427.050478,-592.164754
4259.197512,2368.659014,-8810.098227,222.061783
4259.197836,-1776.494261,-7048.078582,0.000000
4259.198160,-518.144159,-8580.269578,222.061783
4259.198484,-2442.679609,-7507.735880,-1554.432478
4259.198809,-1332.370696,-9499.584175,0.000000
4259.199133,-2146.597232,-6435.202183,-1776.494261
4259.199457,-1776.494261,-9959.241474,-370.102971
4259.199781,-370.102971,-7431.126331,-962.267725
4259.200105,2146.597232,-9882.631924,0.000000
4259.200430,3330.926739,-8810.098227,-1628.453072
4259.200754,5033.400406,-9116.536426,296.082377
4259.201078,5773.606348,-7967.393179,-1924.535449
4259.201402,4293.194464,-9806.022374,-222.061783
4259.201726,2146.597232,-7737.564530,-1258.350101
4259.202051,296.082377,-9576.193725,148.041188
4259.202375,444.123565,-8733.488677,-518.144159
4259.202699,-2960.823768,-8810.098227,222.061783
4259.203023,-2886.803174,-8810.098227,74.020594
4259.203347,-4367.215058,-7967.393179,-1924.535449
4259.203672,-4219.173869,-9269.755526,-1036.288319
4259.203996,-2442.679609,-7814.174080,-962.267725
4259.204320,-1332.370696,-8503.660028,-592.164754
4259.204644,2516.700203,-7507.735880,-666.185348
4259.204968,3923.091493,-9269.755526,-666.185348
4259.205293,6735.874072,-9499.584175,-740.205942
4259.205617,4663.297435,-9806.022374,-592.164754
4259.205941,3478.967927,-9269.755526,-814.226536
4259.206265,962.267725,-9882.631924,-444.123565
4259.206589,-74.020594,-9499.584175,74.020594
4259.206914,-2368.659014,-9116.536426,0.000000
4259.207238,-3108.864956,-8120.612279,222.061783
4259.207562,-3034.844362,-8886.707777,888.247130
4259.207886,-3923.091493,-6741.640382,-1184.329507
4259.208210,-2220.617826,-8580.269578,814.226536
4259.208535,222.061783,-6205.373534,-1998.556043
4259.208859,1702.473667,-7507.735880,888.247130
4259.209183,2590.720797,-6741.640382,-740.205942
4259.209507,6217.729913,-9806.022374,-148.041188
4259.209831,5551.544565,-9806.022374,-962.267725
4259.210155,3849.070898,-9422.974625,-666.185348
4259.210480,3108.864956,-10189.070123,148.041188
4259.210804,-370.102971,-8733.488677,-370.102971
4259.211128,-1628.453072,-10265.679673,2072.576638
4259.211452,-4515.256246,-6128.763984,0.000000
4259.211776,-1554.432478,-10342.289223,1776.494261
4259.212101,-3256.906145,-5975.544884,-518.144159
4259.212425,-2368.659014,-8810.098227,1776.494261
4259.212749,-2442.679609,-5592.497135,-2368.659014
4259.213073,-1998.556043,-7660.954980,0.000000
4259.213397,1406.391290,-6435.202183,-370.102971
4259.213722,4737.318029,-9193.145976,888.247130
4259.214046,5995.668130,-7660.954980,-1110.308913
4259.214370,6143.709319,-10265.679673,1628.453072
4259.214694,4885.359217,-8733.488677,-962.267725
4259.215018,2146.597232,-10342.289223,0.000000
4259.215343,518.144159,-8427.050478,-1184.329507
4259.215667,-962.267725,-9346.365076,1554.432478
4259.215991,-3108.864956,-6741.640382,-1480.411884
4259.216315,-2368.659014,-9806.022374,1258.350101
4259.216639,-3775.050304,-5898.935335,-518.144159
4259.216964,-2886.803174,-8886.707777,444.123565
4259.217288,-2442.679609,-7431.126331,-1554.432478
4259.217612,-1184.329507,-7967.393179,-370.102971
4259.217936,0.000000,-7660.954980,-962.267725
4259.218260,2294.638420,-8656.879127,-444.123565
4259.218585,5477.523971,-8273.831378,-148.041188
4259.218909,5181.441594,-9346.365076,-740.205942
4259.219233,6735.874072,-10342.289223,-222.061783
4259.219557,3108.864956,-9116.536426,-1258.350101
4259.219881,814.226536,-10418.898773,-740.205942
4259.220206,-1480.411884,-9959.241474,-370.102971
4259.220530,-2516.700203,-8503.660028,-740.205942
4259.220854,-3034.844362,-9116.536426,814.226536
4259.221178,-2886.803174,-8197.221829,-1332.370696
4259.221502,-3404.947333,-10112.460574,-370.102971
4259.221827,-3627.009116,-6818.249932,-888.247130
4259.222151,-370.102971,-8350.440928,-814.226536
4259.222475,814.226536,-7814.174080,-1184.329507
4259.222799,3923.091493,-9346.365076,-962.267725
4259.223123,4071.132681,-7890.783629,-1184.329507
4259.223448,5625.565159,-10265.679673,-962.267725
4259.223772,4219.173869,-9039.926876,-1258.350101
4259.224096,2368.659014,-10572.117872,-148.041188
4259.224420,-1406.391290,-9039.926876,-592.164754
4259.224744,74.020594,-9882.631924,1554.432478
4259.225069,-3552.988522,-7967.393179,-2146.597232
4259.225393,-2442.679609,-7660.954980,1036.288319
4259.225717,-740.205942,-7124.688131,592.164754
4259.226041,-2220.617826,-6971.469032,-740.205942
4259.226365,-518.144159,-7814.174080,148.041188
4259.226690,-1110.308913,-6665.030833,-1184.329507
4259.227014,222.061783,-8503.660028,74.020594
4259.227338,3775.050304,-7967.393179,0.000000
4259.227662,3997.112087,-9806.022374,-1332.370696
4259.227986,6661.853478,-9346.365076,-296.082377
4259.228311,5625.565159,-9193.145976,-1332.370696
4259.228635,2220.617826,-9806.022374,740.205942
4259.228959,2812.782580,-8120.612279,-592.164754
4259.229283,-2294.638420,-8044.002729,888.247130
4259.229607,1110.308913,-10495.508323,148.041188
4259.229932,-1258.350101,-5669.106685,-592.164754
4259.230256,-1184.329507,-9959.241474,2368.659014
4259.230580,-2738.761985,-6128.763984,-1406.391290
4259.230904,-4367.215058,-8580.269578,1110.308913
4259.231228,-1036.288319,-7124.688131,-1702.473667
4259.231553,0.000000,-8963.317327,222.061783
4259.231877,1850.514855,-7048.078582,148.041188
4259.232201,1406.391290,-9039.926876,296.082377
4259.232525,5255.462188,-8503.660028,-518.144159
4259.232849,4737.318029,-9806.022374,-740.205942
4259.233174,2738.761985,-9422.974625,-962.267725
4259.233498,1554.432478,-9346.365076,444.123565
4259.233822,-1850.514855,-8273.831378,74.020594
4259.234146,-814.226536,-9806.022374,0.000000
4259.234470,-1258.350101,-7814.174080,518.144159
4259.234795,-2960.823768,-8580.269578,518.144159
4259.235119,-3404.947333,-7277.907231,-222.061783
4259.235443,-2220.617826,-8886.707777,148.041188
4259.235767,-1628.453072,-7507.735880,-1332.370696
4259.236091,-1480.411884,-8197.221829,-1110.308913
4259.236416,1776.494261,-7201.297681,-518.144159
4259.236740,3997.112087,-8656.879127,518.144159
4259.237064,4959.379811,-7354.516781,-962.267725
4259.237388,6365.771101,-10265.679673,-740.205942
4259.237712,2664.741391,-9499.584175,-1332.370696
4259.238037,2072.576638,-10418.898773,444.123565
4259.238361,666.185348,-7967.393179,-888.247130
4259.238685,-1110.308913,-9729.412825,74.020594
4259.239010,-1702.473667,-7507.735880,-740.205942
4259.239334,-2072.576638,-9422.974625,1110.308913
4259.239658,-3182.885551,-6665.030833,-1036.288319
4259.239983,-962.267725,-9652.803275,814.226536
4259.240307,-1258.350101,-7431.126331,-2294.638420
4259.240632,-592.164754,-9193.145976,0.000000
4259.240956,0.000000,-7354.516781,-2812.782580
4259.241280,1184.329507,-10495.508323,666.185348
4259.241605,2738.761985,-7890.783629,-2590.720797
4259.241929,5107.421000,-10342.289223,370.102971
4259.242253,1850.514855,-9116.536426,-1406.391290
4259.242578,1110.308913,-9959.241474,518.144159
4259.242902,444.123565,-8044.002729,0.000000
4259.243226,74.020594,-8120.612279,222.061783
4259.243551,444.123565,-9806.022374,-444.123565
4259.243875,-962.267725,-7354.516781,0.000000
4259.244199,-888.247130,-8810.098227,814.226536
4259.244524,-3330.926739,-7354.516781,-1776.494261
4259.244848,-1480.411884,-9039.926876,444.123565
4259.245172,-1480.411884,-6741.640382,-1480.411884
4259.245497,666.185348,-9269.755526,666.185348
4259.245821,962.267725,-8120.612279,-1480.411884
4259.246146,3701.029710,-8886.707777,148.041188
4259.246470,5107.421000,-8886.707777,-444.123565
4259.246794,4367.215058,-9422.974625,-814.226536
4259.247119,4293.194464,-10572.117872,-148.041188
4259.247443,1036.288319,-7890.783629,0.000000
4259.247767,148.041188,-10112.460574,592.164754
4259.248092,-962.267725,-7737.564530,0.000000
4259.248416,-1554.432478,-8963.317327,1184.329507
4259.248740,-3775.050304,-6894.859482,-370.102971
4259.249065,-3627.009116,-8580.269578,592.164754
4259.249389,-3182.885551,-6588.421283,-444.123565
4259.249713,-2220.617826,-7967.393179,888.247130
4259.250038,370.102971,-7201.297681,-1332.370696
4259.250362,1924.535449,-9269.755526,222.061783
4259.250686,4145.153275,-6818.249932,-1110.308913
4259.251011,4737.318029,-10495.508323,592.164754
4259.251335,3034.844362,-8044.002729,-2590.720797
4259.251659,1924.535449,-11491.432470,1332.370696
4259.251984,-370.102971,-7737.564530,-888.247130
4259.252308,444.123565,-11414.822920,666.185348
4259.252633,-1554.432478,-7890.783629,-888.247130
4259.252957,-2886.803174,-10265.679673,1406.391290
4259.253281,-3404.947333,-5669.106685,-740.205942
4259.253606,-3108.864956,-8350.440928,1036.288319
4259.253930,-1406.391290,-7048.078582,-2442.679609
4259.254254,-1776.494261,-7814.174080,-666.185348
4259.254579,444.123565,-7431.126331,-1776.494261
4259.254903,3552.988522,-9116.536426,0.000000
4259.255227,4811.338623,-7967.393179,-1406.391290
4259.255552,4737.318029,-10725.336972,814.226536
4259.255876,4219.173869,-9652.803275,-1702.473667
4259.256200,1258.350101,-10801.946522,0.000000
4259.256525,1110.308913,-9116.536426,-592.164754
4259.256849,592.164754,-8810.098227,-148.041188
4259.257173,-2146.597232,-8350.440928,0.000000
4259.257498,-148.041188,-8733.488677,814.226536
4259.257822,-2590.720797,-7431.126331,-444.123565
4259.258147,-3256.906145,-7431.126331,148.041188
4259.258471,-2664.741391,-8044.002729,0.000000
4259.258795,-296.082377,-7737.564530,-2590.720797
4259.259120,-296.082377,-8886.707777,-1110.308913
4259.259444,3034.844362,-8120.612279,-592.164754
4259.259768,1998.556043,-9576.193725,-666.185348
4259.260093,3182.885551,-9806.022374,-814.226536
4259.260417,3034.844362,-10495.508323,296.082377
4259.260741,592.164754,-9576.193725,-2294.638420
4259.261066,1184.329507,-10265.679673,-148.041188
4259.261390,-1036.288319,-8044.002729,74.020594
4259.261714,-296.082377,-8810.098227,-888.247130
4259.262039,-1480.411884,-7890.783629,148.041188
4259.262363,-888.247130,-7507.735880,370.102971
4259.262687,-1480.411884,-7584.345430,-814.226536
4259.263012,-2368.659014,-8120.612279,-1110.308913
4259.263336,0.000000,-8350.440928,-518.144159
4259.263661,0.000000,-7737.564530,-1036.288319
4259.263985,1702.473667,-8580.269578,-814.226536
4259.264309,3108.864956,-7814.174080,-962.267725
4259.264634,3404.947333,-9269.755526,0.000000
4259.264958,4663.297435,-10035.851024,-296.082377
4259.265282,3701.029710,-9346.365076,-592.164754
4259.265607,1628.453072,-9729.412825,888.247130
4259.265931,-74.020594,-7814.174080,-1554.432478
4259.266255,1036.288319,-9806.022374,1406.391290
4259.266580,222.061783,-7048.078582,-2220.617826
4259.266904,-1406.391290,-10035.851024,2146.597232
4259.267228,-2960.823768,-6511.811733,-1184.329507
4259.267553,-3923.091493,-8503.660028,370.102971
4259.267877,-1776.494261,-7660.954980,-1554.432478
4259.268201,-1702.473667,-8963.317327,-222.061783
4259.268526,814.226536,-8044.002729,-222.061783
4259.268850,3108.864956,-7354.516781,148.041188
4259.269175,5329.482782,-10112.460574,-370.102971
4259.269499,5329.482782,-8733.488677,-1036.288319
4259.269823,4663.297435,-10342.289223,-592.164754
4259.270148,3034.844362,-9576.193725,370.102971
4259.270472,74.020594,-9882.631924,518.144159
4259.270796,-1628.453072,-8733.488677,-962.267725
4259.271121,-2146.597232,-10112.460574,74.020594
4259.271445,-2368.659014,-6818.249932,-296.082377
4259.271769,-2812.782580,-8656.879127,370.102971
4259.272094,-3775.050304,-7507.735880,-370.102971
4259.272418,-2368.659014,-7737.564530,0.000000
4259.272742,-1258.350101,-7354.516781,-1480.411884
4259.273067,3404.947333,-9729.412825,-888.247130
4259.273391,2590.720797,-9039.926876,-1776.494261
4259.273715,5329.482782,-7507.735880,1924.535449
4259.274040,5921.647536,-7354.516781,-2516.700203
4259.274364,2738.761985,-10342.289223,-592.164754
4259.274689,666.185348,-10648.727422,-666.185348
4259.275013,-296.082377,-9576.193725,1036.288319
4259.275337,-1776.494261,-8273.831378,-1628.453072
4259.275662,-3404.947333,-9422.974625,0.000000
4259.275986,-1924.535449,-8350.440928,148.041188
4259.276310,-3404.947333,-6665.030833,-962.267725
4259.276635,-3701.029710,-9729.412825,0.000000
4259.276959,-2368.659014,-6588.421283,-1184.329507
4259.277283,1110.308913,-9116.536426,-740.205942
4259.277608,1776.494261,-7507.735880,-740.205942
4259.277932,5181.441594,-8810.098227,-1998.556043
4259.278256,4959.379811,-9959.241474,-370.102971
4259.278581,2146.597232,-9346.365076,-1036.288319
4259.278905,1776.494261,-10342.289223,-962.267725
4259.279229,74.020594,-9806.022374,-962.267725
4259.279554,-2072.576638,-9193.145976,740.205942
4259.279878,-370.102971,-8350.440928,-592.164754
4259.280202,-2220.617826,-9116.536426,296.082377
4259.280527,-1258.350101,-8350.440928,-962.267725
4259.280851,-1924.535449,-7967.393179,592.164754
4259.281176,-1998.556043,-8427.050478,-370.102971
4259.281500,-3034.844362,-8503.660028,-444.123565
4259.281824,1776.494261,-8656.879127,-296.082377
4259.282149,1554.432478,-7584.345430,0.000000
4259.282473,2664.741391,-9193.145976,-1036.288319
4259.282797,5625.565159,-8273.831378,-296.082377
4259.283122,3404.947333,-9959.241474,-518.144159
4259.283446,3256.906145,-10342.289223,-962.267725
4259.283770,74.020594,-9269.755526,296.082377
4259.284095,-740.205942,-8580.269578,518.144159
4259.284419,222.061783,-8580.269578,0.000000
4259.284743,-888.247130,-7890.783629,-1258.350101
4259.285068,0.000000,-9039.926876,444.123565
4259.285392,-3256.906145,-5822.325785,-1036.288319
4259.285716,-4515.256246,-8197.221829,74.020594
4259.286041,-1258.350101,-6894.859482,-370.102971
4259.286365,148.041188,-8886.707777,-148.041188
4259.286690,1036.288319,-7507.735880,-1480.411884
4259.287014,1702.473667,-8580.269578,-444.123565
4259.287338,5033.400406,-7814.174080,-370.102971
4259.287663,4737.318029,-9269.755526,592.164754
4259.287987,2960.823768,-8580.269578,0.000000
4259.288311,1776.494261,-10189.070123,74.020594
4259.288636,222.061783,-8427.050478,-962.267725
4259.288960,1110.308913,-9806.022374,370.102971
4259.289284,444.123565,-7890.783629,-1258.350101
4259.289609,-3182.885551,-8963.317327,-518.144159
4259.289933,-2442.679609,-7814.174080,-296.082377
4259.290257,-4219.173869,-8810.098227,0.000000
4259.290582,-6143.709319,-7431.126331,-592.164754
4259.290906,-2738.761985,-8044.002729,-222.061783
4259.291230,1406.391290,-7660.954980,-1332.370696
4259.291555,4589.276840,-9806.022374,0.000000
4259.291879,5181.441594,-8197.221829,-1702.473667
4259.292204,3627.009116,-9652.803275,1776.494261
4259.292528,4663.297435,-7967.393179,-1332.370696
4259.292852,3108.864956,-11644.651570,740.205942
4259.293177,962.267725,-9116.536426,148.041188
4259.293501,-148.041188,-8886.707777,0.000000
4259.293825,-1554.432478,-7737.564530,-962.267725
4259.294150,-1110.308913,-9116.536426,592.164754
4259.294474,-2368.659014,-7660.954980,0.000000
4259.294798,-3330.926739,-7890.783629,-370.102971
4259.295123,-5477.523971,-7354.516781,-888.247130
4259.295447,-3775.050304,-8810.098227,296.082377
4259.295771,-74.020594,-6511.811733,-740.205942
4259.296096,5107.421000,-8656.879127,518.144159
4259.296420,5921.647536,-8120.612279,-1332.370696
4259.296744,5551.544565,-9422.974625,148.041188
4259.297069,3552.988522,-8580.269578,-1776.494261
4259.297393,2146.597232,-10801.946522,-1110.308913
4259.297718,3034.844362,-10495.508323,444.123565
4259.298042,592.164754,-8273.831378,296.082377
4259.298366,-3330.926739,-8963.317327,-222.061783
4259.298691,-666.185348,-8427.050478,0.000000
4259.299015,-5625.565159,-7431.126331,-888.247130
4259.299339,-2368.659014,-8120.612279,888.247130
4259.299664,-4663.297435,-6511.811733,-1406.391290
4259.299988,-3404.947333,-9039.926876,370.102971
4259.300312,666.185348,-6281.983084,-1184.329507
4259.300637,3627.009116,-9499.584175,-148.041188
4259.300961,6809.894666,-9346.365076,-814.226536
4259.301285,7550.100608,-8273.831378,0.000000
4259.301610,6217.729913,-10801.946522,-148.041188
4259.301934,2146.597232,-9193.145976,-1924.535449
4259.302258,2368.659014,-10725.336972,1332.370696
4259.302583,-888.247130,-7814.174080,-740.205942
4259.302907,-1332.370696,-9499.584175,444.123565
4259.303232,-3330.926739,-7354.516781,-740.205942
4259.303556,-3701.029710,-7737.564530,1036.288319
4259.303880,-3923.091493,-7967.393179,-518.144159
4259.304205,-5699.585753,-7431.126331,-370.102971
4259.304529,1184.329507,-7814.174080,-444.123565
4259.304853,370.102971,-7354.516781,-814.226536
4259.305178,6143.709319,-9269.755526,-222.061783
4259.305502,6957.935855,-7124.688131,-1628.453072
4259.305826,6439.791695,-11261.603821,1406.391290
4259.306151,3108.864956,-8197.221829,-1628.453072
4259.306475,2072.576638,-12257.527968,814.226536
4259.306799,-666.185348,-9116.536426,-1258.350101
4259.307124,-1554.432478,-9269.755526,962.267725
4259.307448,-1332.370696,-7584.345430,-1036.288319
4259.307772,-2146.597232,-7967.393179,814.226536
4259.308097,-1332.370696,-5745.716235,-370.102971
4259.308421,-3627.009116,-7354.516781,740.205942
4259.308746,-4219.173869,-8886.707777,-1480.411884
4259.309070,444.123565,-7890.783629,-444.123565
4259.309394,444.123565,-8427.050478,-666.185348
4259.309719,3404.947333,-8810.098227,0.000000
4259.310043,5995.668130,-7737.564530,-1258.350101
4259.310367,6661.853478,-10418.898773,888.247130
4259.310692,2812.782580,-9806.022374,-2664.741391
4259.311016,2146.597232,-11108.384721,296.082377
4259.311340,0.000000,-8350.440928,-1036.288319
4259.311665,-444.123565,-9346.365076,148.041188
4259.311989,-1702.473667,-6588.421283,-962.267725
4259.312313,-2664.741391,-7814.174080,962.267725
4259.312638,-518.144159,-6588.421283,-518.144159
4259.312962,-1850.514855,-7584.345430,-592.164754
4259.313286,-2664.741391,-8044.002729,0.000000
4259.313611,-1184.329507,-7201.297681,-962.267725
4259.313935,2886.803174,-9882.631924,-740.205942
4259.314259,3404.947333,-7354.516781,-222.061783
4259.314584,5995.668130,-9193.145976,0.000000
4259.314908,3775.050304,-7354.516781,0.000000
4259.315233,3775.050304,-11031.775171,1184.329507
4259.315557,2960.823768,-8656.879127,-2368.659014
4259.315881,-1998.556043,-10189.070123,1258.350101
4259.316206,74.020594,-7507.735880,74.020594
4259.316530,-1998.556043,-9346.365076,-740.205942
4259.316854,-2812.782580,-8044.002729,370.102971
4259.317179,-1036.288319,-7814.174080,370.102971
4259.317503,-1998.556043,-7967.393179,-888.247130
4259.317827,-2886.803174,-9652.803275,444.123565
4259.318152,-740.205942,-7354.516781,-888.247130
4259.318476,-444.123565,-8273.831378,-1036.288319
4259.318800,1998.556043,-8963.317327,222.061783
4259.319125,4219.173869,-9499.584175,-592.164754
4259.319449,2516.700203,-8733.488677,-888.247130
4259.319773,2368.659014,-10342.289223,1110.308913
4259.320098,1110.308913,-8580.269578,-1036.288319
4259.320422,-1406.391290,-9039.926876,-518.144159
4259.320747,-296.082377,-8886.707777,0.000000
4259.321071,0.000000,-8580.269578,0.000000
4259.321395,0.000000,-8427.050478,-444.123565
4259.321720,-888.247130,-8810.098227,296.082377
4259.322044,-1480.411884,-7124.688131,0.000000
4259.322368,-2590.720797,-8580.269578,-518.144159
4259.322693,-2738.761985,-7124.688131,-666.185348
4259.323017,888.247130,-9499.584175,74.020594
4259.323341,2590.720797,-6511.811733,-1110.308913
4259.323666,3404.947333,-9652.803275,592.164754
4259.323990,3256.906145,-7277.907231,-1628.453072
4259.324314,2886.803174,-10112.460574,370.102971
4259.324639,2442.679609,-8963.317327,-888.247130
4259.324963,1776.494261,-10418.898773,0.000000
4259.325287,1110.308913,-7967.393179,-296.082377
4259.325612,-296.082377,-8427.050478,0.000000
4259.325936,-296.082377,-8044.002729,-518.144159
4259.326261,1332.370696,-8503.660028,0.000000
4259.326585,-1480.411884,-8427.050478,444.123565
4259.326909,-2590.720797,-7967.393179,370.102971
4259.327234,-1776.494261,-7507.735880,-814.226536
4259.327558,-814.226536,-7890.783629,-370.102971
4259.327882,1036.288319,-8427.050478,-518.144159
4259.328207,3182.885551,-8963.317327,-1258.350101
4259.328531,592.164754,-8273.831378,-740.205942
4259.328855,4293.194464,-8963.317327,1554.432478
4259.329180,2960.823768,-8580.269578,-2294.638420
4259.329504,2442.679609,-10495.508323,222.061783
4259.329828,3034.844362,-9039.926876,666.185348
4259.330153,1628.453072,-9269.755526,-592.164754
4259.330477,-666.185348,-8656.879127,-1554.432478
4259.330801,-148.041188,-7890.783629,0.000000
4259.331126,-3923.091493,-8963.317327,370.102971
4259.331450,-4885.359217,-7201.297681,-740.205942
4259.331775,-4219.173869,-7660.954980,518.144159
4259.332099,-1702.473667,-6894.859482,-740.205942
4259.332423,-888.247130,-7354.516781,-370.102971
4259.332748,3552.988522,-8273.831378,-592.164754
4259.333072,4959.379811,-8503.660028,-888.247130
4259.333396,6069.688724,-9882.631924,444.123565
4259.333721,3034.844362,-9806.022374,-1036.288319
4259.334045,2146.597232,-10418.898773,222.061783
4259.334369,1924.535449,-9422.974625,-1184.329507
4259.334694,-1036.288319,-9576.193725,-1554.432478
4259.335018,-2516.700203,-8580.269578,-592.164754
4259.335342,-2220.617826,-6818.249932,0.000000
4259.335667,-2368.659014,-7890.783629,74.020594
4259.335991,-5477.523971,-6818.249932,-74.020594
4259.336315,-2368.659014,-8044.002729,518.144159
4259.336640,0.000000,-6818.249932,-888.247130
4259.336964,4071.132681,-7967.393179,74.020594
4259.337289,5773.606348,-7890.783629,-1258.350101
4259.337613,6291.750507,-9499.584175,-1036.288319
4259.337937,4737.318029,-9422.974625,-1332.370696
4259.338262,3997.112087,-9959.241474,-592.164754
4259.338586,1332.370696,-10189.070123,-888.247130
4259.338910,-740.205942,-10035.851024,444.123565
4259.339235,0.000000,-9039.926876,-296.082377
4259.339559,-3330.926739,-8580.269578,296.082377
4259.339884,-3034.844362,-7890.783629,148.041188
4259.340208,-3034.844362,-7277.907231,-148.041188
4259.340532,-2664.741391,-7890.783629,0.000000
4259.340857,-1184.329507,-7737.564530,-592.164754
4259.341181,-444.123565,-7354.516781,-444.123565
4259.341505,3034.844362,-9269.755526,370.102971
4259.341830,3404.947333,-7584.345430,-1702.473667
4259.342154,3108.864956,-9269.755526,-962.267725
4259.342479,4811.338623,-9422.974625,518.144159
4259.342803,1628.453072,-8733.488677,-962.267725
4259.343127,592.164754,-11644.651570,-740.205942
4259.343452,296.082377,-8503.660028,-518.144159
4259.343776,3627.009116,-8733.488677,2812.782580
4259.344101,-5995.668130,-7354.516781,-2368.659014
4259.344425,-1628.453072,-8810.098227,148.041188
4259.344749,-4071.132681,-5515.887586,296.082377
4259.345074,-1184.329507,-7737.564530,1036.288319
4259.345398,-370.102971,-6281.983084,-518.144159
4259.345722,962.267725,-8656.879127,-1110.308913
4259.346047,666.185348,-7584.345430,-296.082377
4259.346371,4293.194464,-8120.612279,-296.082377
4259.346696,3849.070898,-11108.384721,-888.247130
4259.347020,3627.009116,-7890.783629,-740.205942
4259.347344,3034.844362,-10725.336972,-296.082377
4259.347669,-814.226536,-9422.974625,-444.123565
4259.347993,-518.144159,-8810.098227,222.061783
4259.348318,592.164754,-8350.440928,74.020594
4259.348642,-1628.453072,-8197.221829,-370.102971
4259.348966,-666.185348,-7507.735880,1776.494261
4259.349291,-962.267725,-6435.202183,-1924.535449
4259.349615,-2738.761985,-9193.145976,1110.308913
4259.349940,-2590.720797,-6971.469032,-1776.494261
4259.350264,-518.144159,-9039.926876,592.164754
4259.350588,1554.432478,-7890.783629,-1110.308913
4259.350913,2368.659014,-9116.536426,-222.061783
4259.351237,3552.988522,-9116.536426,-1628.453072
4259.351561,3701.029710,-9346.365076,518.144159
4259.351886,3330.926739,-9422.974625,-1110.308913
4259.352210,666.185348,-9193.145976,740.205942
4259.352535,4145.153275,-8733.488677,444.123565
4259.352859,-148.041188,-6818.249932,-888.247130
4259.353183,-1184.329507,-8120.612279,-592.164754
4259.353508,-962.267725,-8810.098227,0.000000
4259.353832,-3108.864956,-8733.488677,444.123565
4259.354157,148.041188,-6971.469032,-2220.617826
4259.354481,-4367.215058,-9039.926876,592.164754
4259.354805,-1406.391290,-7431.126331,370.102971
4259.355130,1332.370696,-8656.879127,-740.205942
4259.355454,2294.638420,-8197.221829,-888.247130
4259.355779,3627.009116,-9806.022374,74.020594
4259.356103,2294.638420,-6818.249932,-1776.494261
4259.356427,2368.659014,-10955.165621,1110.308913
4259.356752,3701.029710,-8120.612279,-444.123565
4259.357076,2442.679609,-11108.384721,666.185348
4259.357400,-518.144159,-6894.859482,-1850.514855
4259.357725,148.041188,-9959.241474,222.061783
4259.358049,592.164754,-6741.640382,-2442.679609
4259.358374,-3108.864956,-9346.365076,962.267725
4259.358698,-2146.597232,-7277.907231,-370.102971
4259.359022,-3849.070898,-8197.221829,0.000000
4259.359347,-3034.844362,-8120.612279,-1110.308913
4259.359671,222.061783,-8044.002729,370.102971
4259.359996,4367.215058,-7354.516781,-666.185348
4259.360320,2960.823768,-8656.879127,0.000000
4259.360644,4737.318029,-8197.221829,-370.102971
4259.360969,3478.967927,-9193.145976,518.144159
4259.361293,3775.050304,-8427.050478,-222.061783
4259.361618,3404.947333,-8503.660028,-1628.453072
4259.361942,2146.597232,-8503.660028,666.185348
4259.362266,2368.659014,-9422.974625,-1110.308913
4259.362591,-888.247130,-9039.926876,-1184.329507
4259.362915,-3182.885551,-7660.954980,-592.164754
4259.363239,-3256.906145,-9269.755526,740.205942
4259.363564,-4663.297435,-7660.954980,-222.061783
4259.363888,-4219.173869,-8427.050478,0.000000
4259.364213,-518.144159,-7890.783629,-148.041188
4259.364537,1332.370696,-8656.879127,296.082377
4259.364861,3108.864956,-7431.126331,-1036.288319
4259.365186,4441.235652,-10112.460574,1628.453072
4259.365510,5255.462188,-8886.707777,-1628.453072
4259.365835,4219.173869,-11414.822920,-518.144159
4259.366159,518.144159,-8733.488677,-740.205942
4259.366483,370.102971,-8963.317327,296.082377
4259.366808,-666.185348,-8963.317327,-1406.391290
4259.367132,-1184.329507,-7890.783629,1406.391290
4259.367456,-2220.617826,-8197.221829,74.020594
4259.367781,-5699.585753,-7737.564530,-814.226536
4259.368105,-3478.967927,-8273.831378,888.247130
4259.368430,-814.226536,-6971.469032,-1110.308913
4259.368754,1702.473667,-8810.098227,1998.556043
4259.369078,2516.700203,-5975.544884,-962.267725
4259.369403,4811.338623,-8427.050478,518.144159
4259.369727,3034.844362,-7660.954980,0.000000
4259.370052,6217.729913,-10572.117872,-740.205942
4259.370376,3404.947333,-8963.317327,-2220.617826
4259.370700,592.164754,-10572.117872,1036.288319
4259.371025,444.123565,-8197.221829,0.000000
4259.371349,-1628.453072,-8503.660028,0.000000
4259.371674,-1924.535449,-8273.831378,148.041188
4259.371998,-1406.391290,-8120.612279,74.020594
4259.372322,-3923.091493,-6818.249932,222.061783
4259.372647,-3404.947333,-8044.002729,-592.164754
4259.372971,-2960.823768,-6358.592633,-222.061783
4259.373295,296.082377,-8810.098227,-444.123565
4259.373620,3923.091493,-7737.564530,-666.185348
4259.373944,4737.318029,-8580.269578,-1110.308913
4259.374269,4367.215058,-9576.193725,148.041188
4259.374593,4071.132681,-8963.317327,-888.247130
4259.374917,4589.276840,-10648.727422,444.123565
4259.375242,740.205942,-9193.145976,-1998.556043
4259.375566,1702.473667,-10189.070123,518.144159
4259.375891,-1036.288319,-7354.516781,0.000000
4259.376215,-1924.535449,-9039.926876,-962.267725
4259.376539,-2368.659014,-7737.564530,666.185348
4259.376864,-3404.947333,-7354.516781,0.000000
4259.377188,-3108.864956,-8044.002729,-370.102971
4259.377513,-2442.679609,-7277.907231,296.082377
4259.377837,-962.267725,-8273.831378,222.061783
4259.378161,2368.659014,-8120.612279,-1480.411884
4259.378486,2072.576638,-8120.612279,-444.123565
4259.378810,6957.935855,-10112.460574,-222.061783
4259.379134,4441.235652,-8427.050478,-1258.350101
4259.379459,2516.700203,-11721.261119,-740.205942
4259.379783,2368.659014,-9806.022374,-1036.288319
4259.380108,-370.102971,-9039.926876,740.205942
4259.380432,-592.164754,-8503.660028,-1036.288319
4259.380756,-148.041188,-7431.126331,-666.185348
4259.381081,-2368.659014,-7584.345430,1036.288319
4259.381405,-3108.864956,-7737.564530,-888.247130
4259.381730,-4071.132681,-7048.078582,-148.041188
4259.382054,-3404.947333,-7048.078582,-814.226536
4259.382378,-1776.494261,-8350.440928,0.000000
4259.382703,1480.411884,-7890.783629,-1554.432478
4259.383027,5329.482782,-9729.412825,370.102971
4259.383352,6069.688724,-8886.707777,-814.226536
4259.383676,3108.864956,-9576.193725,-296.082377
4259.384000,3775.050304,-10112.460574,-888.247130
4259.384325,1628.453072,-9422.974625,-1110.308913
4259.384649,1924.535449,-9806.022374,-296.082377
4259.384973,-1110.308913,-7967.393179,296.082377
4259.385298,-2738.761985,-7814.174080,148.041188
4259.385622,-3034.844362,-9269.755526,-370.102971
4259.385947,-3701.029710,-7584.345430,-148.041188
4259.386271,-1924.535449,-7431.126331,296.082377
4259.386595,-2664.741391,-7354.516781,-814.226536
4259.386920,-296.082377,-8656.879127,666.185348
4259.387244,2590.720797,-8197.221829,-666.185348
4259.387569,3849.070898,-8963.317327,-740.205942
4259.387893,3997.112087,-8886.707777,0.000000
4259.388217,3775.050304,-8963.317327,-296.082377
4259.388542,1924.535449,-10035.851024,-962.267725
4259.388866,-296.082377,-9806.022374,-888.247130
4259.389191,0.000000,-9039.926876,0.000000
4259.389515,-1406.391290,-7660.954980,-296.082377
4259.389839,-2664.741391,-8580.269578,370.102971
4259.390164,-1628.453072,-8044.002729,518.144159
4259.390488,-3404.947333,-6971.469032,-666.185348
4259.390812,-1258.350101,-8810.098227,0.000000
4259.391137,-2442.679609,-8120.612279,0.000000
4259.391461,148.041188,-8733.488677,0.000000
4259.391786,3552.988522,-8503.660028,-1332.370696
4259.392110,4515.256246,-9422.974625,-296.082377
4259.392434,4367.215058,-8350.440928,-222.061783
4259.392759,3849.070898,-9729.412825,-888.247130
4259.393083,2220.617826,-9806.022374,-518.144159
4259.393408,0.000000,-9346.365076,-1332.370696
4259.393732,888.247130,-8427.050478,-888.247130
4259.394056,-1480.411884,-8427.050478,-296.082377
4259.394381,-518.144159,-8580.269578,-1776.494261
4259.394705,-592.164754,-8044.002729,592.164754
4259.395029,-2220.617826,-7431.126331,0.000000
4259.395354,-1554.432478,-9193.145976,-1258.350101
4259.395678,-2368.659014,-7354.516781,-592.164754
4259.396003,444.123565,-8273.831378,-444.123565
4259.396327,1850.514855,-9193.145976,-148.041188
4259.396651,3627.009116,-8273.831378,-888.247130
4259.396976,3182.885551,-9116.536426,-1184.329507
4259.397300,888.247130,-9806.022374,-666.185348
4259.397625,74.020594,-9806.022374,-2442.679609
4259.397949,1702.473667,-9959.241474,-148.041188
4259.398273,2664.741391,-8427.050478,-444.123565
4259.398598,740.205942,-8197.221829,-740.205942
4259.398922,-592.164754,-8273.831378,592.164754
4259.399247,222.061783,-7814.174080,-148.041188
4259.399571,-2368.659014,-8197.221829,74.020594
4259.399895,-2442.679609,-8197.221829,74.020594
4259.400220,-740.205942,-9116.536426,-370.102971
4259.400544,-3182.885551,-7967.393179,-2220.617826
4259.400868,666.185348,-9346.365076,-148.041188
4259.401193,1332.370696,-7814.174080,-592.164754
4259.401517,2886.803174,-8580.269578,74.020594
4259.401842,3552.988522,-10189.070123,-444.123565
4259.402166,1998.556043,-8503.660028,-1332.370696
4259.402490,370.102971,-10418.898773,444.123565
4259.402815,1850.514855,-8656.879127,-1554.432478
4259.403139,888.247130,-9499.584175,518.144159
4259.403464,-296.082377,-7048.078582,-1258.350101
4259.403788,-814.226536,-9806.022374,1184.329507
4259.404112,-1554.432478,-7354.516781,-814.226536
4259.404437,-3330.926739,-9116.536426,888.247130
4259.404761,-2516.700203,-6894.859482,-1406.391290
4259.405086,-1702.473667,-8273.831378,1702.473667
4259.405410,-518.144159,-8197.221829,-740.205942
4259.405734,2442.679609,-7890.783629,0.000000
4259.406059,4589.276840,-7584.345430,-666.185348
4259.406383,2146.597232,-9576.193725,666.185348
4259.406707,666.185348,-9729.412825,-962.267725
4259.407032,2294.638420,-9652.803275,-1110.308913
4259.407356,444.123565,-10955.165621,-1406.391290
4259.407681,-1998.556043,-8733.488677,0.000000
4259.408005,-1480.411884,-7967.393179,-740.205942
4259.408329,-2146.597232,-9269.755526,148.041188
4259.408654,-296.082377,-8197.221829,148.041188
4259.408978,0.000000,-7507.735880,0.000000
4259.409303,-2812.782580,-7584.345430,-1628.453072
4259.409627,-1184.329507,-9576.193725,666.185348
4259.409951,2072.576638,-7890.783629,148.041188
4259.410276,2590.720797,-8656.879127,-592.164754
4259.410600,4219.173869,-8503.660028,-888.247130
4259.410925,3627.009116,-7814.174080,444.123565
4259.411249,4441.235652,-9039.926876,-1110.308913
4259.411573,3849.070898,-9499.584175,-2220.617826
4259.411898,740.205942,-9422.974625,-296.082377
4259.412222,-1110.308913,-8810.098227,1110.308913
4259.412546,-1628.453072,-9806.022374,370.102971
4259.412871,0.000000,-8580.269578,-444.123565
4259.413195,-2516.700203,-8120.612279,0.000000
4259.413520,-3330.926739,-7660.954980,-888.247130
4259.413844,-4219.173869,-9193.145976,-370.102971
4259.414168,-1776.494261,-7201.297681,-222.061783
4259.414493,296.082377,-8810.098227,-296.082377
4259.414817,1628.453072,-7890.783629,-962.267725
4259.415142,4219.173869,-9346.365076,296.082377
4259.415466,5107.421000,-8044.002729,-1924.535449
4259.415790,3775.050304,-11108.384721,0.000000
4259.416115,2516.700203,-9422.974625,-1258.350101
4259.416439,222.061783,-9729.412825,0.000000
4259.416764,2368.659014,-9806.022374,0.000000
4259.417088,-1406.391290,-8503.660028,-296.082377
4259.417412,888.247130,-6741.640382,0.000000
4259.417737,-2960.823768,-7737.564530,888.247130
4259.418061,-592.164754,-7354.516781,-444.123565
4259.418385,-888.247130,-8656.879127,0.000000
4259.418710,0.000000,-7507.735880,-1258.350101
4259.419034,-518.144159,-8963.317327,296.082377
4259.419359,2664.741391,-7431.126331,-1850.514855
4259.419683,2664.741391,-10112.460574,666.185348
4259.420007,3552.988522,-8197.221829,-1998.556043
4259.420332,2960.823768,-11261.603821,-222.061783
4259.420656,222.061783,-8273.831378,-1110.308913
4259.420981,592.164754,-10112.460574,148.041188
4259.421305,-370.102971,-8350.440928,0.000000
4259.421629,-2368.659014,-8120.612279,-370.102971
4259.421954,-518.144159,-7737.564530,222.061783
4259.422278,-962.267725,-8044.002729,0.000000
4259.422602,740.205942,-8273.831378,-814.226536
4259.422927,-2738.761985,-8427.050478,0.000000
4259.423251,-1924.535449,-7584.345430,-370.102971
4259.423576,814.226536,-9269.755526,1332.370696
4259.423900,2220.617826,-7431.126331,-740.205942
4259.424224,4219.173869,-9576.193725,370.102971
4259.424549,2960.823768,-7584.345430,-444.123565
4259.424873,2294.638420,-10342.289223,-814.226536
4259.425198,148.041188,-9882.631924,-518.144159
4259.425522,740.205942,-9499.584175,1036.288319
4259.425846,-1110.308913,-7431.126331,-222.061783
4259.426171,-1184.329507,-8810.098227,296.082377
4259.426495,1998.556043,-8197.221829,74.020594
4259.426820,370.102971,-7890.783629,148.041188
4259.427144,-1776.494261,-7967.393179,-1110.308913
4259.427468,-1110.308913,-8810.098227,518.144159
4259.427793,-370.102971,-7967.393179,-962.267725
4259.428117,-444.123565,-9882.631924,888.247130
4259.428441,1110.308913,-7431.126331,-444.123565
4259.428766,2220.617826,-8580.269578,-444.123565
4259.429090,2960.823768,-8350.440928,-666.185348
4259.429415,3849.070898,-10035.851024,-444.123565
4259.429739,2590.720797,-7584.345430,-1184.329507
4259.430063,1036.288319,-9039.926876,-296.082377
4259.430388,518.144159,-8656.879127,74.020594
4259.430712,518.144159,-9116.536426,-592.164754
4259.431037,-370.102971,-7814.174080,-1258.350101
4259.431361,0.000000,-8963.317327,74.020594
4259.431685,-4293.194464,-7890.783629,-888.247130
4259.432010,-3330.926739,-8886.707777,74.020594
4259.432334,-1776.494261,-7737.564530,-1332.370696
4259.432659,222.061783,-8656.879127,518.144159
4259.432983,814.226536,-7507.735880,74.020594
4259.433307,3775.050304,-7354.516781,-740.205942
4259.433632,3627.009116,-9346.365076,74.020594
4259.433956,4145.153275,-8350.440928,-1258.350101
4259.434280,3478.967927,-10418.898773,296.082377
4259.434605,1258.350101,-8427.050478,-2072.576638
4259.434929,2442.679609,-10418.898773,-814.226536
4259.435254,-1628.453072,-7431.126331,-1554.432478
4259.435578,0.000000,-9269.755526,740.205942
4259.435902,-1110.308913,-7431.126331,-1036.288319
4259.436227,-2220.617826,-9806.022374,0.000000
4259.436551,-2590.720797,-7737.564530,0.000000
4259.436876,-2072.576638,-7890.783629,-370.102971
4259.437200,-962.267725,-8656.879127,74.020594
4259.437524,1924.535449,-8273.831378,74.020594
4259.437849,2368.659014,-8350.440928,-370.102971
4259.438173,5773.606348,-8733.488677,-666.185348
4259.438498,2664.741391,-9116.536426,-962.267725
4259.438822,2516.700203,-9806.022374,-962.267725
4259.439146,962.267725,-8503.660028,-1184.329507
4259.439471,1110.308913,-8810.098227,-222.061783
4259.439795,-1184.329507,-8656.879127,296.082377
4259.440119,0.000000,-7737.564530,0.000000
4259.440444,-1850.514855,-8350.440928,-444.123565
4259.440768,-3034.844362,-9422.974625,444.123565
4259.441093,-2368.659014,-7124.688131,-296.082377
4259.441417,-2146.597232,-9039.926876,296.082377
4259.441741,888.247130,-6894.859482,-962.267725
4259.442066,1998.556043,-9039.926876,-814.226536
4259.442390,3108.864956,-8273.831378,-148.041188
4259.442714,4367.215058,-8503.660028,-296.082377
4259.443039,3478.967927,-9806.022374,0.000000
4259.443363,1332.370696,-9039.926876,-1776.494261
4259.443687,814.226536,-10572.117872,0.000000
4259.444012,-962.267725,-7507.735880,-1184.329507
4259.444336,-1850.514855,-9806.022374,962.267725
4259.444660,-1480.411884,-7354.516781,-888.247130
4259.444985,-1406.391290,-8656.879127,666.185348
4259.445309,-1554.432478,-7507.735880,296.082377
4259.445633,-1406.391290,-8733.488677,222.061783
4259.445958,666.185348,-8427.050478,-814.226536
4259.446282,296.082377,-7814.174080,666.185348
4259.446606,1702.473667,-9193.145976,-518.144159
4259.446931,2368.659014,-8427.050478,-740.205942
4259.447255,1776.494261,-8733.488677,-370.102971
4259.447579,74.020594,-9422.974625,-1184.329507
4259.447904,0.000000,-11414.822920,-2590.720797
4259.448228,-3923.091493,-10112.460574,444.123565
4259.448552,-740.205942,-7890.783629,-3478.967927
4259.448877,1184.329507,-9882.631924,222.061783
4259.449201,-2220.617826,-6741.640382,-740.205942
4259.449525,1924.535449,-9422.974625,296.082377
4259.449850,-370.102971,-8044.002729,-1258.350101
4259.450174,-296.082377,-10342.289223,0.000000
4259.450498,-1036.288319,-7277.907231,-1184.329507
4259.450823,-1406.391290,-8963.317327,444.123565
4259.451147,1702.473667,-9422.974625,222.061783
4259.451471,2368.659014,-6971.469032,-740.205942
4259.451796,3034.844362,-9576.193725,-814.226536
4259.452120,740.205942,-7660.954980,-592.164754
4259.452444,222.061783,-9806.022374,-148.041188
4259.452769,370.102971,-8656.879127,-1776.494261
4259.453093,148.041188,-9959.241474,370.102971
4259.453417,518.144159,-8273.831378,-1110.308913
4259.453742,-1184.329507,-8810.098227,-666.185348
4259.454066,296.082377,-8886.707777,-222.061783
4259.454390,-296.082377,-8427.050478,-1332.370696
4259.454715,-370.102971,-8273.831378,-518.144159
4259.455039,-296.082377,-7967.393179,-592.164754
4259.455363,-592.164754,-8350.440928,-740.205942
4259.455688,1110.308913,-9193.145976,-740.205942
4259.456012,2294.638420,-7890.783629,666.185348
4259.456336,1110.308913,-9499.584175,-814.226536
4259.456661,2590.720797,-8120.612279,-962.267725
4259.456985,1036.288319,-9882.631924,74.020594
4259.457309,74.020594,-8886.707777,-1554.432478
4259.457634,222.061783,-9882.631924,74.020594
4259.457958,962.267725,-8733.488677,-1554.432478
4259.458282,-592.164754,-8963.317327,-222.061783
4259.458607,-370.102971,-7967.393179,-666.185348
4259.458931,-666.185348,-9346.365076,0.000000
4259.459255,-1702.473667,-7584.345430,-666.185348
4259.459580,-1554.432478,-8044.002729,-740.205942
4259.459904,-1924.535449,-7814.174080,296.082377
4259.460228,1258.350101,-8044.002729,74.020594
4259.460552,1036.288319,-8197.221829,814.226536
4259.460877,2146.597232,-9039.926876,592.164754
4259.461201,2368.659014,-7890.783629,-296.082377
4259.461525,2516.700203,-10189.070123,962.267725
4259.461850,1036.288319,-7737.564530,-1258.350101
4259.462174,1258.350101,-10418.898773,148.041188
4259.462498,370.102971,-7507.735880,-1702.473667
4259.462823,444.123565,-9422.974625,-666.185348
4259.463147,0.000000,-7354.516781,-296.082377
4259.463471,-1258.350101,-9652.803275,592.164754
4259.463796,-1258.350101,-8273.831378,-518.144159
4259.464120,-1776.494261,-7890.783629,-296.082377
4259.464444,-1332.370696,-9116.536426,148.041188
4259.464769,0.000000,-8273.831378,-592.164754
4259.465093,1776.494261,-8044.002729,-444.123565
4259.465417,2368.659014,-7814.174080,-296.082377
4259.465742,2590.720797,-8503.660028,0.000000
4259.466066,3256.906145,-9116.536426,-444.123565
4259.466390,2516.700203,-10189.070123,-1628.453072
