#time,accel_x,accel_y,accel_z
5538.607529,592.164754,-8044.002729,-1110.308913
5538.607853,1480.411884,-7967.393179,-1184.329507
5538.608178,1332.370696,-7967.393179,-962.267725
5538.608502,1036.288319,-7967.393179,-962.267725
5538.608827,666.185348,-8044.002729,-740.205942
5538.609151,518.144159,-7890.783629,-666.185348
5538.609475,0.000000,-8810.098227,-1258.350101
5538.609800,-296.082377,-8886.707777,-1036.288319
5538.610124,-518.144159,-9269.755526,-1258.350101
5538.610449,-296.082377,-9499.584175,-888.247130
5538.610773,-518.144159,-8963.317327,-1184.329507
5538.611098,-814.226536,-9039.926876,-1332.370696
5538.611422,-814.226536,-9499.584175,-962.267725
5538.611747,-592.164754,-8656.879127,-888.247130
5538.612071,-962.267725,-9116.536426,-666.185348
5538.612395,-1258.350101,-8273.831378,-666.185348
5538.612720,-1850.514855,-8656.879127,-222.061783
5538.613044,-1850.514855,-8656.879127,-518.144159
5538.613369,-1554.432478,-9039.926876,-962.267725
5538.613693,-1998.556043,-9193.145976,-666.185348
5538.614018,-2294.638420,-9116.536426,-666.185348
5538.614342,-2516.700203,-8886.707777,-888.247130
5538.614667,-3034.844362,-9576.193725,-888.247130
5538.614991,-2664.741391,-9499.584175,-518.144159
5538.615315,-3256.906145,-8733.488677,-592.164754
5538.615640,-3627.009116,-8963.317327,-444.123565
5538.615964,-3552.988522,-8427.050478,0.000000
5538.616289,-3330.926739,-8580.269578,-222.061783
5538.616613,-3182.885551,-8197.221829,0.000000
5538.616938,-2812.782580,-8197.221829,0.000000
5538.617262,-3478.967927,-8427.050478,-74.020594
5538.617587,-2812.782580,-8580.269578,-222.061783
5538.617911,-2664.741391,-8810.098227,-222.061783
5538.618235,-3478.967927,-8733.488677,0.000000
5538.618560,-2812.782580,-8810.098227,222.061783
5538.618884,-2664.741391,-9039.926876,148.041188
5538.619209,-2886.803174,-9346.365076,222.061783
5538.619533,-2072.576638,-9039.926876,296.082377
5538.619858,-1998.556043,-8886.707777,666.185348
5538.620182,-1184.329507,-8580.269578,888.247130
5538.620507,-2442.679609,-8580.269578,444.123565
5538.620831,-1628.453072,-8886.707777,370.102971
5538.621155,-1850.514855,-7890.783629,666.185348
5538.621480,-1998.556043,-8810.098227,148.041188
5538.621804,-1998.556043,-8273.831378,370.102971
5538.622129,-2220.617826,-8656.879127,444.123565
5538.622453,-2516.700203,-8427.050478,444.123565
5538.622778,-2146.597232,-8656.879127,0.000000
5538.623102,-2072.576638,-8963.317327,740.205942
5538.623426,-1850.514855,-8273.831378,296.082377
5538.623751,-1702.473667,-8120.612279,0.000000
5538.624075,-1850.514855,-8120.612279,0.000000
5538.624400,-1776.494261,-7890.783629,0.000000
5538.624724,-1628.453072,-7737.564530,-222.061783
5538.625049,-2664.741391,-7814.174080,-444.123565
5538.625373,-2220.617826,-8044.002729,0.000000
5538.625698,-1850.514855,-7660.954980,-814.226536
5538.626022,-1702.473667,-8273.831378,-370.102971
5538.626346,-1184.329507,-7967.393179,-518.144159
5538.626671,-74.020594,-8273.831378,-444.123565
5538.626995,74.020594,-8427.050478,-1258.350101
5538.627320,962.267725,-8656.879127,-814.226536
5538.627644,1480.411884,-8197.221829,-1332.370696
5538.627969,1332.370696,-8810.098227,-592.164754
5538.628293,1036.288319,-8273.831378,-1406.391290
5538.628618,666.185348,-9039.926876,-1036.288319
5538.628942,296.082377,-8963.317327,-1406.391290
5538.629266,-148.041188,-8886.707777,-962.267725
5538.629591,592.164754,-8810.098227,-1036.288319
5538.629915,962.267725,-8656.879127,-888.247130
5538.630240,1480.411884,-9116.536426,-1110.308913
5538.630564,962.267725,-9576.193725,-1184.329507
5538.630889,962.267725,-9346.365076,-1258.350101
5538.631213,592.164754,-9422.974625,-1628.453072
5538.631538,-296.082377,-9116.536426,-962.267725
5538.631862,-1332.370696,-9652.803275,-814.226536
5538.632186,-2664.741391,-9576.193725,-1628.453072
5538.632511,-3849.070898,-9116.536426,-1480.411884
5538.632835,-4367.215058,-9116.536426,-1406.391290
5538.633160,-4663.297435,-9116.536426,-1184.329507
5538.633484,-4737.318029,-8733.488677,-1110.308913
5538.633809,-4589.276840,-8580.269578,-1110.308913
5538.634133,-3997.112087,-8197.221829,-1036.288319
5538.634458,-2960.823768,-8503.660028,-1184.329507
5538.634782,-2294.638420,-9269.755526,-592.164754
5538.635106,-1998.556043,-8350.440928,-592.164754
5538.635431,-2072.576638,-9193.145976,-370.102971
5538.635755,-1702.473667,-8886.707777,-296.082377
5538.636080,-444.123565,-9499.584175,296.082377
5538.636404,-740.205942,-8963.317327,-518.144159
5538.636729,-1036.288319,-8963.317327,74.020594
5538.637053,-814.226536,-8580.269578,0.000000
5538.637377,-1258.350101,-9039.926876,444.123565
5538.637702,-74.020594,-8503.660028,-740.205942
5538.638026,-1406.391290,-9269.755526,0.000000
5538.638351,-2220.617826,-7660.954980,74.020594
5538.638675,-2294.638420,-8273.831378,370.102971
5538.639000,-2812.782580,-9116.536426,592.164754
5538.639324,-2516.700203,-8656.879127,518.144159
5538.639649,-2368.659014,-8197.221829,1036.288319
5538.639973,-2738.761985,-8656.879127,962.267725
5538.640297,-2368.659014,-8503.660028,1776.494261
5538.640622,-1628.453072,-8733.488677,814.226536
5538.640946,-1110.308913,-8120.612279,962.267725
5538.641271,-1480.411884,-7967.393179,740.205942
5538.641595,-1184.329507,-7967.393179,296.082377
5538.641920,-1554.432478,-8427.050478,1258.350101
5538.642244,-2072.576638,-8273.831378,740.205942
5538.642569,-2516.700203,-8580.269578,518.144159
5538.642893,-2590.720797,-8427.050478,370.102971
5538.643217,-1702.473667,-8350.440928,296.082377
5538.643542,-2886.803174,-8503.660028,148.041188
5538.643866,-2886.803174,-8503.660028,0.000000
5538.644191,-3256.906145,-8197.221829,-74.020594
5538.644515,-3182.885551,-8044.002729,-222.061783
5538.644840,-2442.679609,-8273.831378,0.000000
5538.645164,-1480.411884,-7507.735880,-370.102971
5538.645489,74.020594,-7737.564530,0.000000
5538.645813,1628.453072,-7737.564530,-666.185348
5538.646137,3256.906145,-7890.783629,0.000000
5538.646462,4145.153275,-8197.221829,-148.041188
5538.646786,3775.050304,-8503.660028,-592.164754
5538.647111,3627.009116,-8656.879127,0.000000
5538.647435,888.247130,-9806.022374,-1036.288319
5538.647760,-222.061783,-9499.584175,-1628.453072
5538.648084,-2368.659014,-9193.145976,-1924.535449
5538.648409,-3701.029710,-9729.412825,-1332.370696
5538.648733,-3627.009116,-8733.488677,-1258.350101
5538.649057,-3108.864956,-8886.707777,-1258.350101
5538.649382,-1924.535449,-8656.879127,-1332.370696
5538.649706,740.205942,-8350.440928,-1406.391290
5538.650031,2368.659014,-8503.660028,-888.247130
5538.650355,3034.844362,-8963.317327,-518.144159
5538.650680,3775.050304,-9806.022374,-888.247130
5538.651004,1406.391290,-10265.679673,-1036.288319
5538.651328,-592.164754,-10648.727422,-592.164754
5538.651653,-3256.906145,-10648.727422,-1332.370696
5538.651977,-7402.059420,-10112.460574,-1184.329507
5538.652302,-8734.430116,-8810.098227,-962.267725
5538.652626,-8956.491898,-8580.269578,-1036.288319
5538.652951,-9326.594869,-8503.660028,-1406.391290
5538.653275,-4959.379811,-7124.688131,-1036.288319
5538.653600,-1776.494261,-7354.516781,-444.123565
5538.653924,2442.679609,-6971.469032,-1184.329507
5538.654248,5033.400406,-8197.221829,-1332.370696
5538.654573,6291.750507,-9269.755526,0.000000
5538.654897,4737.318029,-9422.974625,-518.144159
5538.655222,2294.638420,-9882.631924,-740.205942
5538.655546,-2368.659014,-10418.898773,0.000000
5538.655871,-4515.256246,-10112.460574,0.000000
5538.656195,-7698.141797,-10265.679673,-370.102971
5538.656520,-9844.739029,-8580.269578,0.000000
5538.656844,-6439.791695,-7890.783629,666.185348
5538.657168,-2442.679609,-6894.859482,0.000000
5538.657493,2516.700203,-6281.983084,-666.185348
5538.657817,6735.874072,-6128.763984,592.164754
5538.658142,9104.533087,-6052.154434,962.267725
5538.658466,8734.430116,-8350.440928,1258.350101
5538.658791,7031.956449,-8427.050478,0.000000
5538.659115,740.205942,-10189.070123,1554.432478
5538.659440,-5329.482782,-9576.193725,222.061783
5538.659764,-7994.224174,-12334.137518,1628.453072
5538.660088,-10140.821405,-9806.022374,740.205942
5538.660413,-9696.697840,-10035.851024,518.144159
5538.660737,-5995.668130,-7737.564530,444.123565
5538.661062,-2738.761985,-5898.935335,0.000000
5538.661386,2590.720797,-5286.058936,0.000000
5538.661711,7105.977043,-5822.325785,370.102971
5538.662035,8956.491898,-6281.983084,74.020594
5538.662360,9326.594869,-7201.297681,74.020594
5538.662684,5773.606348,-8273.831378,-518.144159
5538.663008,2294.638420,-10035.851024,0.000000
5538.663333,-592.164754,-10342.289223,-296.082377
5538.663657,-4737.318029,-11108.384721,370.102971
5538.663982,-4441.235652,-9499.584175,0.000000
5538.664306,74.020594,-8656.879127,0.000000
5538.664631,3552.988522,-7890.783629,-1628.453072
5538.664955,6587.832884,-7277.907231,-1480.411884
5538.665280,8882.471304,-6741.640382,-1480.411884
5538.665604,9548.656652,-6741.640382,-1036.288319
5538.665928,8808.450710,-6818.249932,-666.185348
5538.666253,5773.606348,-7737.564530,-296.082377
5538.666577,2294.638420,-8656.879127,74.020594
5538.666902,-2516.700203,-9729.412825,-740.205942
5538.667226,-2294.638420,-11721.261119,-888.247130
5538.667551,-3997.112087,-9576.193725,-2812.782580
5538.667875,-2368.659014,-12257.527968,-1184.329507
5538.668199,74.020594,-8427.050478,-2664.741391
5538.668524,2516.700203,-10342.289223,-666.185348
5538.668848,4589.276840,-7048.078582,-1924.535449
5538.669173,4663.297435,-7967.393179,-1110.308913
5538.669497,3775.050304,-8044.002729,-1036.288319
5538.669822,1480.411884,-7584.345430,0.000000
5538.670146,-666.185348,-9193.145976,740.205942
5538.670471,-3627.009116,-9729.412825,0.000000
5538.670795,-4071.132681,-10265.679673,-370.102971
5538.671119,-3923.091493,-9729.412825,-1406.391290
5538.671444,-1258.350101,-11031.775171,-1702.473667
5538.671768,1184.329507,-9576.193725,-2220.617826
5538.672093,2516.700203,-9422.974625,-1702.473667
5538.672417,3552.988522,-8273.831378,-888.247130
5538.672742,3034.844362,-8656.879127,-740.205942
5538.673066,1702.473667,-8197.221829,-296.082377
5538.673391,-370.102971,-7967.393179,518.144159
5538.673715,-2516.700203,-8044.002729,1036.288319
5538.674039,-4367.215058,-8197.221829,1110.308913
5538.674364,-3775.050304,-8350.440928,888.247130
5538.674688,-2516.700203,-8197.221829,148.041188
5538.675013,-592.164754,-7890.783629,-444.123565
5538.675337,1110.308913,-8044.002729,-1258.350101
5538.675662,4071.132681,-9959.241474,-1110.308913
5538.675986,2664.741391,-8580.269578,-962.267725
5538.676311,1036.288319,-9116.536426,-370.102971
5538.676635,-1998.556043,-8273.831378,1554.432478
5538.676959,-4663.297435,-9116.536426,2072.576638
5538.677284,-5921.647536,-8810.098227,1776.494261
5538.677608,-5551.544565,-8810.098227,2072.576638
5538.677933,-5033.400406,-8120.612279,1406.391290
5538.678257,-1184.329507,-7660.954980,1406.391290
5538.678582,1554.432478,-6894.859482,-444.123565
5538.678906,4071.132681,-7890.783629,-444.123565
5538.679231,4219.173869,-7277.907231,-888.247130
5538.679555,4145.153275,-9269.755526,-1776.494261
5538.679879,592.164754,-9422.974625,592.164754
5538.680204,-1554.432478,-7814.174080,666.185348
5538.680528,-2886.803174,-10189.070123,592.164754
5538.680853,-4441.235652,-8580.269578,1924.535449
5538.681177,-5477.523971,-7967.393179,962.267725
5538.681502,-2738.761985,-8120.612279,592.164754
5538.681826,1480.411884,-6665.030833,-1110.308913
5538.682150,5403.503377,-7354.516781,-1850.514855
5538.682475,7476.080014,-7124.688131,-1924.535449
5538.682799,8512.368333,-6971.469032,-2368.659014
5538.683124,5773.606348,-8120.612279,-2812.782580
5538.683448,4071.132681,-9422.974625,-962.267725
5538.683773,-148.041188,-9882.631924,-370.102971
5538.684097,-2960.823768,-10955.165621,296.082377
5538.684422,-3701.029710,-10418.898773,666.185348
5538.684746,-3330.926739,-10265.679673,74.020594
5538.685070,-1184.329507,-9729.412825,0.000000
5538.685395,2886.803174,-7507.735880,-1554.432478
5538.685719,6143.709319,-8580.269578,-1628.453072
5538.686044,7624.121203,-6665.030833,-3404.947333
5538.686368,8290.306550,-7890.783629,-2664.741391
5538.686693,5403.503377,-8273.831378,-2368.659014
5538.687017,2146.597232,-9193.145976,-370.102971
5538.687342,-1924.535449,-9806.022374,-518.144159
5538.687666,-4737.318029,-10572.117872,-148.041188
5538.687990,-5773.606348,-11184.994271,444.123565
5538.688315,-4441.235652,-10648.727422,-296.082377
5538.688639,-2146.597232,-10342.289223,-666.185348
5538.688964,2368.659014,-7967.393179,-1924.535449
5538.689288,5403.503377,-8580.269578,-1924.535449
5538.689613,9104.533087,-7201.297681,-2664.741391
5538.689937,7254.018232,-7737.564530,-3256.906145
5538.690262,5107.421000,-8273.831378,-2664.741391
5538.690586,1702.473667,-9576.193725,0.000000
5538.690910,-1850.514855,-9422.974625,-666.185348
5538.691235,-5255.462188,-9806.022374,2442.679609
5538.691559,-5625.565159,-9422.974625,666.185348
5538.691884,-5255.462188,-10648.727422,444.123565
5538.692208,-2442.679609,-8886.707777,-148.041188
5538.692533,1628.453072,-8656.879127,-1036.288319
5538.692857,4811.338623,-7660.954980,-1258.350101
5538.693182,5403.503377,-7048.078582,-2294.638420
5538.693506,4737.318029,-8197.221829,-1184.329507
5538.693830,2294.638420,-6971.469032,-666.185348
5538.694155,-666.185348,-8273.831378,518.144159
5538.694479,-4589.276840,-8580.269578,1406.391290
5538.694804,-6809.894666,-8886.707777,2368.659014
5538.695128,-7254.018232,-9193.145976,2072.576638
5538.695452,-6143.709319,-8656.879127,1554.432478
5538.695777,-2368.659014,-8503.660028,740.205942
5538.696101,74.020594,-7967.393179,-740.205942
5538.696425,2960.823768,-8044.002729,-444.123565
5538.696750,4663.297435,-7660.954980,-1554.432478
5538.697074,3256.906145,-7660.954980,-296.082377
5538.697398,2220.617826,-7354.516781,518.144159
5538.697723,-962.267725,-7814.174080,1480.411884
5538.698047,-3997.112087,-8503.660028,2368.659014
5538.698371,-5995.668130,-8197.221829,2368.659014
5538.698696,-5403.503377,-9346.365076,2368.659014
5538.699020,-4515.256246,-7967.393179,1332.370696
5538.699344,-1258.350101,-7354.516781,0.000000
5538.699669,2738.761985,-7737.564530,444.123565
5538.699993,5033.400406,-7660.954980,-1480.411884
5538.700318,6365.771101,-8503.660028,-1776.494261
5538.700642,4663.297435,-7584.345430,-1480.411884
5538.700966,2294.638420,-8733.488677,222.061783
5538.701291,-1036.288319,-8197.221829,814.226536
5538.701615,-3478.967927,-9499.584175,1406.391290
5538.701939,-5107.421000,-9193.145976,1332.370696
5538.702264,-3701.029710,-8886.707777,444.123565
5538.702588,-1776.494261,-9193.145976,-222.061783
5538.702912,1628.453072,-8197.221829,-962.267725
5538.703237,4293.194464,-7431.126331,-1850.514855
5538.703561,6883.915261,-8350.440928,-2516.700203
5538.703885,6587.832884,-8580.269578,-2368.659014
5538.704210,4811.338623,-9269.755526,-1776.494261
5538.704534,1702.473667,-8963.317327,-2072.576638
5538.704858,-1776.494261,-9652.803275,370.102971
5538.705183,-3552.988522,-9652.803275,0.000000
5538.705507,-2812.782580,-10495.508323,666.185348
5538.705831,-2294.638420,-9039.926876,-518.144159
5538.706156,888.247130,-9346.365076,-1110.308913
5538.706480,3552.988522,-7584.345430,-2294.638420
5538.706804,6587.832884,-8120.612279,-2220.617826
5538.707129,6883.915261,-7660.954980,-2664.741391
5538.707453,6587.832884,-7967.393179,-2146.597232
5538.707777,4663.297435,-8656.879127,-1924.535449
5538.708102,-592.164754,-9422.974625,-1332.370696
5538.708426,-2146.597232,-9806.022374,-148.041188
5538.708750,-6957.935855,-9959.241474,-148.041188
5538.709075,-5477.523971,-10418.898773,740.205942
5538.709399,-3330.926739,-8197.221829,74.020594
5538.709723,444.123565,-9422.974625,-1110.308913
5538.710048,3256.906145,-7354.516781,-1184.329507
5538.710372,6513.812290,-7737.564530,-1628.453072
5538.710696,7105.977043,-7890.783629,-2516.700203
5538.711021,5477.523971,-7737.564530,-1406.391290
5538.711345,2886.803174,-8733.488677,-1036.288319
5538.711669,-1184.329507,-8656.879127,0.000000
5538.711994,-3923.091493,-9729.412825,1258.350101
5538.712318,-5181.441594,-10112.460574,1480.411884
5538.712642,-5699.585753,-10112.460574,1258.350101
5538.712967,-2886.803174,-8886.707777,962.267725
5538.713291,518.144159,-7967.393179,0.000000
5538.713615,3478.967927,-6894.859482,0.000000
5538.713940,6143.709319,-6588.421283,-1184.329507
5538.714264,5107.421000,-7124.688131,-814.226536
5538.714589,1998.556043,-7277.907231,-888.247130
5538.714913,-222.061783,-8503.660028,74.020594
5538.715237,-4367.215058,-8963.317327,666.185348
5538.715562,-6513.812290,-7890.783629,1628.453072
5538.715886,-6365.771101,-9806.022374,1332.370696
5538.716210,-5847.626942,-9346.365076,1184.329507
5538.716535,-2886.803174,-8503.660028,666.185348
5538.716859,518.144159,-8044.002729,148.041188
5538.717183,3849.070898,-7354.516781,-222.061783
5538.717508,5625.565159,-7890.783629,-740.205942
5538.717832,5625.565159,-7277.907231,-888.247130
5538.718156,3404.947333,-7354.516781,-74.020594
5538.718481,-296.082377,-8427.050478,222.061783
5538.718805,-3478.967927,-9652.803275,962.267725
5538.719129,-6217.729913,-8963.317327,962.267725
5538.719454,-5773.606348,-9499.584175,2072.576638
5538.719778,-5403.503377,-8120.612279,1258.350101
5538.720102,-1776.494261,-8963.317327,222.061783
5538.720427,1776.494261,-7584.345430,-518.144159
5538.720751,4589.276840,-8044.002729,0.000000
5538.721075,6587.832884,-7124.688131,-1554.432478
5538.721400,5847.626942,-8350.440928,-1184.329507
5538.721724,2368.659014,-7584.345430,-1332.370696
5538.722048,-888.247130,-9576.193725,296.082377
5538.722373,-3256.906145,-8963.317327,222.061783
5538.722697,-4959.379811,-9652.803275,1110.308913
5538.723021,-5625.565159,-8580.269578,518.144159
5538.723346,-3034.844362,-8427.050478,-518.144159
5538.723670,370.102971,-9269.755526,-1036.288319
5538.723994,3997.112087,-7890.783629,-1924.535449
5538.724319,7179.997637,-8580.269578,-2146.597232
5538.724643,7254.018232,-8427.050478,-1924.535449
5538.724967,5921.647536,-8273.831378,-1406.391290
5538.725292,4071.132681,-8886.707777,-1554.432478
5538.725616,1110.308913,-9499.584175,-666.185348
5538.725940,-1702.473667,-9499.584175,370.102971
5538.726265,-2886.803174,-10418.898773,888.247130
5538.726589,-2368.659014,-9346.365076,74.020594
5538.726913,0.000000,-8656.879127,-370.102971
5538.727238,2664.741391,-8580.269578,-1480.411884
5538.727562,4811.338623,-8273.831378,-2294.638420
5538.727886,6661.853478,-8503.660028,-2294.638420
5538.728211,6143.709319,-8273.831378,-2146.597232
5538.728535,4885.359217,-8120.612279,-1184.329507
5538.728860,1110.308913,-8810.098227,-1110.308913
5538.729184,-2220.617826,-9576.193725,222.061783
5538.729508,-4959.379811,-8580.269578,-74.020594
5538.729833,-5847.626942,-9806.022374,296.082377
5538.730157,-3997.112087,-9499.584175,0.000000
5538.730481,-1776.494261,-7814.174080,518.144159
5538.730806,2738.761985,-7201.297681,-2516.700203
5538.731130,4959.379811,-8350.440928,-1480.411884
5538.731454,6439.791695,-7737.564530,-2294.638420
5538.731779,7105.977043,-8350.440928,-1480.411884
5538.732103,3108.864956,-8044.002729,-1184.329507
5538.732427,74.020594,-8963.317327,592.164754
5538.732752,-2960.823768,-8350.440928,814.226536
5538.733076,-5847.626942,-9652.803275,814.226536
5538.733400,-4885.359217,-9882.631924,1998.556043
5538.733725,-3627.009116,-8197.221829,148.041188
5538.734049,-814.226536,-8580.269578,148.041188
5538.734373,1850.514855,-7201.297681,-962.267725
5538.734698,5477.523971,-7660.954980,-444.123565
5538.735022,6069.688724,-7967.393179,-962.267725
5538.735346,4737.318029,-8197.221829,-666.185348
5538.735671,2220.617826,-8197.221829,-592.164754
5538.735995,-1554.432478,-9039.926876,518.144159
5538.736319,-5107.421000,-9346.365076,1184.329507
5538.736644,-6587.832884,-9959.241474,2146.597232
5538.736968,-6439.791695,-8810.098227,1406.391290
5538.737292,-4293.194464,-8427.050478,370.102971
5538.737617,-740.205942,-8120.612279,-222.061783
5538.737941,2146.597232,-7967.393179,-222.061783
5538.738265,4737.318029,-8044.002729,-1332.370696
5538.738590,4293.194464,-7660.954980,-1110.308913
5538.738914,3552.988522,-7048.078582,0.000000
5538.739238,740.205942,-7967.393179,0.000000
5538.739563,-1628.453072,-9806.022374,1036.288319
5538.739887,-4737.318029,-9039.926876,444.123565
5538.740211,-5847.626942,-9806.022374,1332.370696
5538.740536,-5699.585753,-9422.974625,222.061783
5538.740860,-2442.679609,-9576.193725,518.144159
5538.741184,74.020594,-7890.783629,-1184.329507
5538.741509,3775.050304,-8044.002729,-666.185348
5538.741833,5403.503377,-7431.126331,-1998.556043
5538.742157,6217.729913,-8273.831378,-1924.535449
5538.742482,4441.235652,-7201.297681,-1110.308913
5538.742806,1036.288319,-9193.145976,296.082377
5538.743131,-2294.638420,-8580.269578,148.041188
5538.743455,-4811.338623,-9193.145976,1332.370696
5538.743779,-4367.215058,-9652.803275,888.247130
5538.744104,-4293.194464,-8963.317327,-148.041188
5538.744428,-1776.494261,-7890.783629,-740.205942
5538.744752,2442.679609,-8427.050478,-1480.411884
5538.745077,5255.462188,-8273.831378,-1776.494261
5538.745401,6661.853478,-8197.221829,-2294.638420
5538.745725,7920.203579,-9193.145976,-1332.370696
5538.746050,4441.235652,-8120.612279,-1850.514855
5538.746374,1332.370696,-9499.584175,0.000000
5538.746698,-1776.494261,-9346.365076,888.247130
5538.747023,-3182.885551,-9499.584175,814.226536
5538.747347,-3034.844362,-10035.851024,592.164754
5538.747671,-2072.576638,-8273.831378,0.000000
5538.747996,1554.432478,-8580.269578,-666.185348
5538.748320,3849.070898,-7431.126331,-2590.720797
5538.748644,6365.771101,-8963.317327,-1406.391290
5538.748969,7254.018232,-6971.469032,-2886.803174
5538.749293,5033.400406,-8197.221829,-222.061783
5538.749617,2886.803174,-7967.393179,-1184.329507
5538.749942,-888.247130,-9729.412825,592.164754
5538.750266,-4071.132681,-8427.050478,0.000000
5538.750590,-4959.379811,-10495.508323,1628.453072
5538.750915,-4663.297435,-8886.707777,592.164754
5538.751239,-2072.576638,-8886.707777,-666.185348
5538.751563,444.123565,-7814.174080,-1258.350101
5538.751888,4145.153275,-8120.612279,-1258.350101
5538.752212,6587.832884,-7737.564530,-1776.494261
5538.752536,6735.874072,-8350.440928,-2590.720797
5538.752861,5181.441594,-8273.831378,-1258.350101
5538.753185,1332.370696,-8273.831378,296.082377
5538.753509,-1332.370696,-9346.365076,1036.288319
5538.753834,-3997.112087,-9499.584175,1258.350101
5538.754158,-5181.441594,-9882.631924,1998.556043
5538.754482,-3330.926739,-8963.317327,370.102971
5538.754807,-1702.473667,-9116.536426,370.102971
5538.755131,592.164754,-7814.174080,-370.102971
5538.755455,4071.132681,-7660.954980,-888.247130
5538.755780,5551.544565,-7814.174080,-1480.411884
5538.756104,5107.421000,-8350.440928,-1036.288319
5538.756428,2442.679609,-7354.516781,-518.144159
5538.756753,-962.267725,-9116.536426,444.123565
5538.757077,-4441.235652,-9422.974625,740.205942
5538.757402,-6365.771101,-9422.974625,2146.597232
5538.757726,-7105.977043,-9346.365076,1554.432478
5538.758050,-5551.544565,-9346.365076,296.082377
5538.758375,-2664.741391,-8886.707777,0.000000
5538.758699,1110.308913,-7660.954980,-1184.329507
5538.759023,3701.029710,-7967.393179,-814.226536
5538.759348,5477.523971,-7584.345430,-1702.473667
5538.759672,5255.462188,-7737.564530,-592.164754
5538.759996,2442.679609,-7890.783629,-148.041188
5538.760321,-444.123565,-9116.536426,370.102971
5538.760645,-3108.864956,-9422.974625,1480.411884
5538.760969,-4737.318029,-8963.317327,1776.494261
5538.761294,-5033.400406,-10189.070123,1110.308913
5538.761618,-3256.906145,-8733.488677,148.041188
5538.761942,-592.164754,-8503.660028,-444.123565
5538.762267,3182.885551,-8120.612279,-888.247130
5538.762591,5403.503377,-7660.954980,-1184.329507
5538.762915,5699.585753,-7507.735880,-2146.597232
5538.763240,4515.256246,-7737.564530,-1036.288319
5538.763564,1998.556043,-7967.393179,-296.082377
5538.763888,-1110.308913,-9346.365076,148.041188
5538.764213,-4367.215058,-8886.707777,518.144159
5538.764537,-4811.338623,-10035.851024,1332.370696
5538.764861,-4885.359217,-8886.707777,-370.102971
5538.765186,-2294.638420,-9269.755526,74.020594
5538.765510,1184.329507,-7890.783629,-1480.411884
5538.765834,3627.009116,-8810.098227,-1406.391290
5538.766159,5773.606348,-7354.516781,-2368.659014
5538.766483,7105.977043,-8656.879127,-1554.432478
5538.766807,5403.503377,-7431.126331,-1406.391290
5538.767132,2590.720797,-8580.269578,-444.123565
5538.767456,666.185348,-9039.926876,444.123565
5538.767780,-2146.597232,-9422.974625,370.102971
5538.768105,-3849.070898,-10112.460574,740.205942
5538.768429,-2738.761985,-9039.926876,-444.123565
5538.768753,-592.164754,-9806.022374,-888.247130
5538.769078,2220.617826,-8733.488677,-2664.741391
5538.769402,4589.276840,-8120.612279,-2294.638420
5538.769726,6069.688724,-8503.660028,-2146.597232
5538.770051,4515.256246,-7507.735880,-2294.638420
5538.770375,2368.659014,-8810.098227,-666.185348
5538.770699,370.102971,-9193.145976,-1036.288319
5538.771024,-2886.803174,-9269.755526,222.061783
5538.771348,-4145.153275,-9269.755526,370.102971
5538.771673,-4515.256246,-9729.412825,1184.329507
5538.771997,-2960.823768,-8044.002729,-370.102971
5538.772321,888.247130,-8427.050478,-962.267725
5538.772646,2886.803174,-7737.564530,-1406.391290
5538.772970,5107.421000,-8503.660028,-1480.411884
5538.773294,6069.688724,-6971.469032,-1998.556043
5538.773619,4367.215058,-7967.393179,-1110.308913
5538.773943,1406.391290,-8733.488677,-370.102971
5538.774267,-1480.411884,-8810.098227,74.020594
5538.774592,-3923.091493,-9729.412825,1258.350101
5538.774916,-4737.318029,-9269.755526,1110.308913
5538.775240,-3923.091493,-9499.584175,1628.453072
5538.775565,-2294.638420,-8350.440928,0.000000
5538.775889,888.247130,-7660.954980,-296.082377
5538.776213,4367.215058,-7890.783629,-740.205942
5538.776538,6809.894666,-7507.735880,-1480.411884
5538.776862,5181.441594,-8044.002729,-962.267725
5538.777186,3552.988522,-7814.174080,-1184.329507
5538.777511,-518.144159,-8656.879127,814.226536
5538.777835,-3923.091493,-9269.755526,518.144159
5538.778159,-5773.606348,-9729.412825,1480.411884
5538.778484,-6439.791695,-9193.145976,1406.391290
5538.778808,-5921.647536,-9422.974625,962.267725
5538.779132,-1776.494261,-8503.660028,0.000000
5538.779457,1036.288319,-7890.783629,-814.226536
5538.779781,4811.338623,-7737.564530,-370.102971
5538.780105,5847.626942,-7354.516781,-1110.308913
5538.780430,6365.771101,-8733.488677,-814.226536
5538.780754,4737.318029,-7584.345430,-148.041188
5538.781078,1406.391290,-8963.317327,222.061783
5538.781403,-1554.432478,-9499.584175,666.185348
5538.781727,-5477.523971,-9422.974625,1110.308913
5538.782051,-6291.750507,-9806.022374,1258.350101
5538.782376,-4959.379811,-9193.145976,888.247130
5538.782700,-740.205942,-8810.098227,-592.164754
5538.783024,2072.576638,-8350.440928,-444.123565
5538.783349,3552.988522,-7354.516781,-1554.432478
5538.783673,6069.688724,-8656.879127,-2220.617826
5538.783997,4589.276840,-7277.907231,-2072.576638
5538.784322,3182.885551,-9193.145976,0.000000
5538.784646,74.020594,-7277.907231,-370.102971
5538.784970,-2886.803174,-10112.460574,1036.288319
5538.785295,-5329.482782,-9422.974625,592.164754
5538.785619,-4293.194464,-9806.022374,74.020594
5538.785944,-3478.967927,-8886.707777,-296.082377
5538.786268,222.061783,-7967.393179,-1332.370696
5538.786592,3849.070898,-8733.488677,-1036.288319
5538.786917,5921.647536,-7354.516781,-2886.803174
5538.787241,6883.915261,-9039.926876,-1258.350101
5538.787565,4959.379811,-7814.174080,-1776.494261
5538.787890,2368.659014,-9039.926876,-962.267725
5538.788214,-444.123565,-8810.098227,-296.082377
5538.788538,-2664.741391,-9882.631924,814.226536
5538.788863,-3775.050304,-9269.755526,296.082377
5538.789187,-3552.988522,-10189.070123,148.041188
5538.789511,-1184.329507,-8733.488677,-518.144159
5538.789836,1702.473667,-7660.954980,-1776.494261
5538.790160,4071.132681,-8656.879127,-1258.350101
5538.790484,6365.771101,-8197.221829,-2220.617826
5538.790809,6587.832884,-8120.612279,-1480.411884
5538.791133,4219.173869,-8120.612279,-1406.391290
5538.791457,1110.308913,-8886.707777,-888.247130
5538.791782,-2146.597232,-9039.926876,74.020594
5538.792106,-4885.359217,-8350.440928,222.061783
5538.792430,-4663.297435,-9806.022374,1258.350101
5538.792755,-3997.112087,-8503.660028,518.144159
5538.793079,-1628.453072,-9039.926876,-148.041188
5538.793403,2664.741391,-7354.516781,-2072.576638
5538.793727,5107.421000,-8273.831378,-1480.411884
5538.794052,6809.894666,-7890.783629,-2072.576638
5538.794376,5773.606348,-8580.269578,-1480.411884
5538.794700,3182.885551,-8427.050478,-370.102971
5538.795024,-148.041188,-8886.707777,296.082377
5538.795349,-2886.803174,-8886.707777,518.144159
5538.795673,-4737.318029,-9576.193725,1258.350101
5538.795997,-4515.256246,-8963.317327,1184.329507
5538.796321,-3404.947333,-8656.879127,444.123565
5538.796646,-592.164754,-8197.221829,-592.164754
5538.796970,1924.535449,-7584.345430,-1036.288319
5538.797294,5699.585753,-8120.612279,-1628.453072
5538.797619,5847.626942,-7431.126331,-1406.391290
5538.797943,4737.318029,-8044.002729,-370.102971
5538.798267,1628.453072,-8120.612279,0.000000
5538.798591,-1332.370696,-8963.317327,444.123565
5538.798916,-4737.318029,-8963.317327,1036.288319
5538.799240,-5477.523971,-9039.926876,1554.432478
5538.799564,-5773.606348,-9346.365076,1036.288319
5538.799888,-3552.988522,-8580.269578,0.000000
5538.800213,-592.164754,-7814.174080,-222.061783
5538.800537,3256.906145,-7277.907231,-1110.308913
5538.800861,3775.050304,-8197.221829,-1628.453072
5538.801185,6217.729913,-8197.221829,-740.205942
5538.801510,3775.050304,-7584.345430,-370.102971
5538.801834,1480.411884,-9346.365076,-296.082377
5538.802158,-518.144159,-8963.317327,296.082377
5538.802483,-2812.782580,-9806.022374,740.205942
5538.802807,-4737.318029,-9806.022374,1036.288319
5538.803131,-2960.823768,-8656.879127,74.020594
5538.803455,-1702.473667,-9422.974625,666.185348
5538.803780,814.226536,-7507.735880,-1184.329507
5538.804104,4589.276840,-7431.126331,-1258.350101
5538.804428,6143.709319,-7584.345430,-1258.350101
5538.804752,4959.379811,-7431.126331,-1554.432478
5538.805077,3923.091493,-8656.879127,-148.041188
5538.805401,0.000000,-8580.269578,-592.164754
5538.805725,-2812.782580,-9346.365076,814.226536
5538.806049,-4959.379811,-8886.707777,148.041188
5538.806374,-4811.338623,-10112.460574,1110.308913
5538.806698,-3997.112087,-8580.269578,370.102971
5538.807022,-814.226536,-9422.974625,0.000000
5538.807347,1332.370696,-8120.612279,-1776.494261
5538.807671,4071.132681,-7737.564530,-1924.535449
5538.807995,6809.894666,-8273.831378,-1406.391290
5538.808319,6143.709319,-8273.831378,-1554.432478
5538.808644,4293.194464,-9193.145976,-1406.391290
5538.808968,296.082377,-8963.317327,148.041188
5538.809292,-2516.700203,-9193.145976,962.267725
5538.809616,-4145.153275,-9269.755526,962.267725
5538.809941,-3627.009116,-10418.898773,1110.308913
5538.810265,-2664.741391,-9039.926876,370.102971
5538.810589,1184.329507,-8580.269578,-1258.350101
5538.810913,3627.009116,-8427.050478,-1332.370696
5538.811238,6143.709319,-8120.612279,-2072.576638
5538.811562,6587.832884,-8273.831378,-1776.494261
5538.811886,4737.318029,-7660.954980,-888.247130
5538.812211,1776.494261,-7890.783629,-666.185348
5538.812535,-1332.370696,-8427.050478,-296.082377
5538.812859,-3849.070898,-9116.536426,666.185348
5538.813183,-5181.441594,-9499.584175,1036.288319
5538.813508,-4811.338623,-8733.488677,518.144159
5538.813832,-2220.617826,-8656.879127,-148.041188
5538.814156,370.102971,-8733.488677,-518.144159
5538.814480,3627.009116,-7737.564530,-1480.411884
5538.814805,5181.441594,-8273.831378,-1628.453072
5538.815129,6217.729913,-7814.174080,-1998.556043
5538.815453,4515.256246,-8273.831378,-740.205942
5538.815778,888.247130,-7507.735880,-296.082377
5538.816102,-740.205942,-9499.584175,1036.288319
5538.816426,-3997.112087,-9116.536426,1332.370696
5538.816750,-4515.256246,-10112.460574,740.205942
5538.817075,-4589.276840,-8427.050478,-222.061783
5538.817399,-1776.494261,-8427.050478,-444.123565
5538.817723,1258.350101,-8427.050478,-592.164754
5538.818047,4515.256246,-7584.345430,-1628.453072
5538.818372,6809.894666,-7967.393179,-1184.329507
5538.818696,6069.688724,-7890.783629,-1184.329507
5538.819020,3330.926739,-7967.393179,-814.226536
5538.819344,518.144159,-8503.660028,-740.205942
5538.819669,-2812.782580,-9193.145976,888.247130
5538.819993,-4589.276840,-9499.584175,740.205942
5538.820317,-5551.544565,-9652.803275,1184.329507
5538.820642,-4663.297435,-8580.269578,148.041188
5538.820966,-1184.329507,-9116.536426,-444.123565
5538.821290,1776.494261,-8810.098227,-2368.659014
5538.821614,4219.173869,-8580.269578,-1258.350101
5538.821939,5477.523971,-7814.174080,-1480.411884
5538.822263,5181.441594,-8273.831378,-888.247130
5538.822587,2294.638420,-7660.954980,-740.205942
5538.822911,370.102971,-9346.365076,-148.041188
5538.823236,-3256.906145,-8963.317327,518.144159
5538.823560,-4515.256246,-10265.679673,740.205942
5538.823884,-5033.400406,-9729.412825,666.185348
5538.824208,-3552.988522,-9346.365076,74.020594
5538.824533,-962.267725,-8886.707777,-370.102971
5538.824857,2960.823768,-7660.954980,-1850.514855
5538.825181,5773.606348,-8886.707777,-1110.308913
5538.825506,5995.668130,-8044.002729,-1776.494261
5538.825830,4293.194464,-8427.050478,-740.205942
5538.826154,1480.411884,-7814.174080,-1110.308913
5538.826478,-1554.432478,-9193.145976,370.102971
5538.826803,-4737.318029,-8810.098227,814.226536
5538.827127,-5329.482782,-9959.241474,814.226536
5538.827451,-4811.338623,-8963.317327,740.205942
5538.827775,-3404.947333,-8810.098227,-518.144159
5538.828100,444.123565,-8503.660028,-592.164754
5538.828424,3330.926739,-8044.002729,-1480.411884
5538.828748,5329.482782,-8886.707777,-1406.391290
5538.829072,5255.462188,-7737.564530,-1480.411884
5538.829397,3701.029710,-8350.440928,0.000000
5538.829721,1332.370696,-7890.783629,-444.123565
5538.830045,-888.247130,-9193.145976,962.267725
5538.830370,-2960.823768,-8963.317327,962.267725
5538.830694,-4811.338623,-9806.022374,1258.350101
5538.831018,-3330.926739,-8886.707777,740.205942
5538.831342,-592.164754,-8733.488677,74.020594
5538.831667,2738.761985,-8197.221829,-740.205942
5538.831991,4959.379811,-7814.174080,-1628.453072
5538.832315,5995.668130,-7737.564530,-222.061783
5538.832639,4885.359217,-7890.783629,-1332.370696
5538.832964,3108.864956,-8656.879127,-518.144159
5538.833288,148.041188,-8350.440928,0.000000
5538.833612,-3404.947333,-9116.536426,1184.329507
5538.833936,-4811.338623,-9269.755526,740.205942
5538.834261,-4441.235652,-9806.022374,888.247130
5538.834585,-2294.638420,-8733.488677,222.061783
5538.834909,-222.061783,-8580.269578,-222.061783
5538.835234,3478.967927,-7660.954980,-1332.370696
5538.835558,5625.565159,-8197.221829,-1406.391290
5538.835882,6809.894666,-8350.440928,-1628.453072
5538.836206,5181.441594,-8044.002729,-888.247130
5538.836531,2072.576638,-8810.098227,-888.247130
5538.836855,-1036.288319,-8503.660028,74.020594
5538.837179,-2664.741391,-9346.365076,740.205942
5538.837503,-5255.462188,-9269.755526,740.205942
5538.837828,-5107.421000,-9499.584175,814.226536
5538.838152,-1184.329507,-8656.879127,296.082377
5538.838476,1480.411884,-8886.707777,-592.164754
5538.838800,3182.885551,-6894.859482,-2294.638420
5538.839125,6439.791695,-8733.488677,0.000000
5538.839449,5625.565159,-6894.859482,-2442.679609
5538.839773,4293.194464,-8350.440928,0.000000
5538.840098,1110.308913,-7890.783629,-1184.329507
5538.840422,-2738.761985,-9269.755526,148.041188
5538.840746,-4663.297435,-8733.488677,592.164754
5538.841070,-5477.523971,-10572.117872,1184.329507
5538.841395,-5477.523971,-9193.145976,444.123565
5538.841719,-2368.659014,-8656.879127,-740.205942
5538.842043,518.144159,-8044.002729,-962.267725
5538.842367,4145.153275,-7660.954980,-2072.576638
5538.842692,5773.606348,-8197.221829,-666.185348
5538.843016,6661.853478,-8044.002729,-1850.514855
5538.843340,4367.215058,-8503.660028,-1110.308913
5538.843664,1184.329507,-8273.831378,-592.164754
5538.843989,-1258.350101,-9882.631924,1554.432478
5538.844313,-4515.256246,-9652.803275,370.102971
5538.844637,-5107.421000,-9959.241474,1110.308913
5538.844962,-4145.153275,-9039.926876,0.000000
5538.845286,-1998.556043,-9039.926876,-296.082377
5538.845610,296.082377,-7048.078582,-1406.391290
5538.845934,4663.297435,-7737.564530,-962.267725
5538.846259,5995.668130,-7660.954980,-1480.411884
5538.846583,5699.585753,-8197.221829,-1924.535449
5538.846907,3256.906145,-8350.440928,-444.123565
5538.847231,-370.102971,-8503.660028,-296.082377
5538.847556,-3701.029710,-8963.317327,1184.329507
5538.847880,-4811.338623,-9499.584175,1110.308913
5538.848204,-5403.503377,-9499.584175,592.164754
5538.848528,-3552.988522,-9039.926876,518.144159
5538.848853,-1258.350101,-7814.174080,-888.247130
5538.849177,2368.659014,-8273.831378,-444.123565
5538.849501,4885.359217,-7431.126331,-1480.411884
5538.849826,5847.626942,-8197.221829,-740.205942
5538.850150,5255.462188,-7814.174080,-1554.432478
5538.850474,2664.741391,-9116.536426,-370.102971
5538.850798,0.000000,-8273.831378,296.082377
5538.851123,-3404.947333,-9039.926876,1110.308913
5538.851447,-4515.256246,-9576.193725,444.123565
5538.851771,-4293.194464,-9576.193725,666.185348
5538.852095,-2368.659014,-9039.926876,0.000000
5538.852420,888.247130,-8427.050478,-518.144159
5538.852744,3552.988522,-7967.393179,-1036.288319
5538.853068,6217.729913,-7660.954980,-1480.411884
5538.853392,6513.812290,-8427.050478,-814.226536
5538.853717,4737.318029,-8044.002729,-1036.288319
5538.854041,518.144159,-8810.098227,-296.082377
5538.854365,-1554.432478,-8810.098227,370.102971
5538.854690,-4737.318029,-8810.098227,592.164754
5538.855014,-5699.585753,-9959.241474,1406.391290
5538.855338,-3330.926739,-8963.317327,0.000000
5538.855662,-2368.659014,-8733.488677,0.000000
5538.855987,1036.288319,-7584.345430,-1110.308913
5538.856311,4145.153275,-7890.783629,-1332.370696
5538.856635,5329.482782,-7737.564530,-1110.308913
5538.856959,6217.729913,-8197.221829,-1184.329507
5538.857284,4737.318029,-8733.488677,-888.247130
5538.857608,1850.514855,-9576.193725,-222.061783
5538.857932,-1480.411884,-9346.365076,74.020594
5538.858257,-5329.482782,-9729.412825,1110.308913
5538.858581,-4663.297435,-9806.022374,1110.308913
5538.858905,-4145.153275,-9193.145976,74.020594
5538.859229,-814.226536,-8733.488677,0.000000
5538.859554,1776.494261,-7354.516781,-1184.329507
5538.859878,4737.318029,-7737.564530,-962.267725
5538.860202,6513.812290,-7814.174080,-1480.411884
5538.860526,5107.421000,-8350.440928,-1702.473667
5538.860851,2590.720797,-9116.536426,-296.082377
5538.861175,222.061783,-7967.393179,0.000000
5538.861499,-3330.926739,-9499.584175,740.205942
5538.861823,-4737.318029,-9193.145976,1184.329507
5538.862148,-4589.276840,-9193.145976,666.185348
5538.862472,-3256.906145,-9116.536426,0.000000
5538.862796,-148.041188,-7890.783629,-148.041188
5538.863121,3034.844362,-7507.735880,-1036.288319
5538.863445,5033.400406,-8427.050478,-1258.350101
5538.863769,5921.647536,-7507.735880,-1480.411884
5538.864093,3997.112087,-8580.269578,-962.267725
5538.864418,1628.453072,-8273.831378,-666.185348
5538.864742,-814.226536,-8886.707777,814.226536
5538.865066,-3330.926739,-9346.365076,1258.350101
5538.865390,-4663.297435,-9269.755526,1332.370696
5538.865715,-4367.215058,-9116.536426,740.205942
5538.866039,-2664.741391,-8810.098227,-814.226536
5538.866363,666.185348,-8273.831378,-888.247130
5538.866687,3330.926739,-7277.907231,-1110.308913
5538.867012,5995.668130,-7890.783629,-666.185348
5538.867336,5847.626942,-7967.393179,-814.226536
5538.867660,2738.761985,-7890.783629,-1628.453072
5538.867985,740.205942,-8580.269578,148.041188
5538.868309,-2516.700203,-8656.879127,148.041188
5538.868633,-4071.132681,-9729.412825,740.205942
5538.868957,-5181.441594,-8580.269578,888.247130
5538.869282,-5033.400406,-8963.317327,74.020594
5538.869606,-2220.617826,-8503.660028,0.000000
5538.869930,1850.514855,-7507.735880,-1110.308913
5538.870254,4071.132681,-8197.221829,-1110.308913
5538.870579,6513.812290,-7584.345430,-1332.370696
5538.870903,5255.462188,-7890.783629,-2442.679609
5538.871227,3849.070898,-8810.098227,-814.226536
5538.871551,1036.288319,-8427.050478,148.041188
5538.871876,-2220.617826,-9499.584175,444.123565
5538.872200,-4219.173869,-9882.631924,1110.308913
5538.872524,-4515.256246,-9269.755526,444.123565
5538.872849,-2738.761985,-8886.707777,-296.082377
5538.873173,0.000000,-8350.440928,-222.061783
5538.873497,2886.803174,-7967.393179,-1332.370696
5538.873821,5699.585753,-7660.954980,-740.205942
5538.874146,6365.771101,-7660.954980,-2072.576638
5538.874470,4589.276840,-8810.098227,-2146.597232
5538.874794,1480.411884,-8503.660028,-1332.370696
5538.875118,-1036.288319,-9959.241474,888.247130
5538.875443,-3849.070898,-8963.317327,0.000000
5538.875767,-5477.523971,-9806.022374,888.247130
5538.876091,-5255.462188,-8580.269578,74.020594
5538.876415,-3256.906145,-8886.707777,-148.041188
5538.876740,-296.082377,-8044.002729,-814.226536
5538.877064,4071.132681,-8427.050478,-888.247130
5538.877388,6735.874072,-7354.516781,-1628.453072
5538.877713,5995.668130,-8427.050478,-1332.370696
5538.878037,5033.400406,-8350.440928,-1702.473667
5538.878361,1406.391290,-8886.707777,-444.123565
5538.878685,-1406.391290,-9499.584175,370.102971
5538.879010,-3923.091493,-9576.193725,370.102971
5538.879334,-4515.256246,-8886.707777,1332.370696
5538.879658,-4589.276840,-8963.317327,74.020594
5538.879982,-814.226536,-8963.317327,0.000000
5538.880307,1110.308913,-7890.783629,-888.247130
5538.880631,3701.029710,-8197.221829,-1258.350101
5538.880955,5255.462188,-7354.516781,-1480.411884
5538.881279,5107.421000,-8197.221829,-592.164754
5538.881604,3108.864956,-8350.440928,-1332.370696
5538.881928,592.164754,-8503.660028,74.020594
5538.882252,-2220.617826,-9422.974625,444.123565
5538.882577,-4737.318029,-9422.974625,296.082377
5538.882901,-4293.194464,-9806.022374,1258.350101
5538.883225,-3552.988522,-8656.879127,296.082377
5538.883549,-1036.288319,-7814.174080,-222.061783
5538.883874,2442.679609,-7354.516781,-592.164754
5538.884198,5551.544565,-8733.488677,-296.082377
5538.884522,5847.626942,-7201.297681,-1480.411884
5538.884846,5699.585753,-8427.050478,-518.144159
5538.885171,2664.741391,-8350.440928,-666.185348
5538.885495,444.123565,-9193.145976,666.185348
5538.885819,-1924.535449,-9269.755526,592.164754
5538.886143,-4219.173869,-9269.755526,1332.370696
5538.886468,-4737.318029,-9039.926876,1332.370696
5538.886792,-3849.070898,-8963.317327,296.082377
5538.887116,74.020594,-8503.660028,0.000000
5538.887441,2294.638420,-7890.783629,-1406.391290
5538.887765,5847.626942,-8580.269578,-814.226536
5538.888089,5329.482782,-7277.907231,-1036.288319
5538.888413,4145.153275,-8197.221829,-1110.308913
5538.888738,2072.576638,-8810.098227,-222.061783
5538.889062,-1406.391290,-8427.050478,0.000000
5538.889386,-3923.091493,-9959.241474,962.267725
5538.889710,-5329.482782,-8733.488677,518.144159
5538.890035,-4219.173869,-9193.145976,888.247130
5538.890359,-2590.720797,-8273.831378,-592.164754
5538.890683,888.247130,-7967.393179,-148.041188
5538.891007,2812.782580,-8120.612279,-1036.288319
5538.891332,5921.647536,-7737.564530,-962.267725
5538.891656,5033.400406,-8044.002729,-1184.329507
5538.891980,3923.091493,-8044.002729,-1776.494261
5538.892305,1480.411884,-9039.926876,0.000000
5538.892629,-1110.308913,-8580.269578,-592.164754
5538.892953,-3552.988522,-9882.631924,518.144159
5538.893277,-4811.338623,-9039.926876,74.020594
5538.893602,-3552.988522,-9806.022374,0.000000
5538.893926,-1702.473667,-8580.269578,-888.247130
5538.894250,1110.308913,-8580.269578,-1776.494261
5538.894574,3552.988522,-7660.954980,-740.205942
5538.894898,4293.194464,-8656.879127,-518.144159
5538.895223,4663.297435,-8733.488677,-1924.535449
5538.895547,2664.741391,-8503.660028,-1554.432478
5538.895871,1110.308913,-9346.365076,-666.185348
5538.896195,-2368.659014,-9729.412825,0.000000
5538.896520,-4293.194464,-9346.365076,592.164754
5538.896844,-4737.318029,-9576.193725,148.041188
5538.897168,-4293.194464,-8580.269578,0.000000
5538.897492,-370.102971,-8503.660028,-1036.288319
5538.897817,2664.741391,-7507.735880,-1554.432478
5538.898141,4737.318029,-8273.831378,-1036.288319
5538.898465,6365.771101,-8044.002729,-1406.391290
5538.898789,4959.379811,-8810.098227,-1406.391290
5538.899113,1924.535449,-8197.221829,-888.247130
5538.899438,-814.226536,-9039.926876,222.061783
5538.899762,-2738.761985,-9499.584175,222.061783
5538.900086,-3256.906145,-9652.803275,740.205942
5538.900410,-3701.029710,-9039.926876,0.000000
5538.900735,-2664.741391,-8427.050478,-222.061783
5538.901059,-370.102971,-7584.345430,-592.164754
5538.901383,2738.761985,-7814.174080,-1110.308913
5538.901707,4959.379811,-7967.393179,-666.185348
5538.902031,5699.585753,-7967.393179,-1406.391290
5538.902356,4811.338623,-8350.440928,-370.102971
5538.902680,1850.514855,-7814.174080,-1184.329507
5538.903004,-666.185348,-9959.241474,222.061783
5538.903328,-3552.988522,-8580.269578,370.102971
5538.903653,-4515.256246,-9116.536426,1406.391290
5538.903977,-4663.297435,-8503.660028,518.144159
5538.904301,-1702.473667,-8350.440928,518.144159
5538.904625,518.144159,-6894.859482,-370.102971
5538.904950,4145.153275,-7814.174080,-518.144159
5538.905274,5921.647536,-7277.907231,-814.226536
5538.905598,5847.626942,-8580.269578,-1332.370696
5538.905922,4367.215058,-9193.145976,-962.267725
5538.906246,2294.638420,-8120.612279,-518.144159
5538.906571,-1998.556043,-9499.584175,1036.288319
5538.906895,-3849.070898,-8963.317327,962.267725
5538.907219,-4737.318029,-9422.974625,1628.453072
5538.907543,-3627.009116,-9576.193725,74.020594
5538.907868,-1184.329507,-8273.831378,296.082377
5538.908192,1406.391290,-7431.126331,-444.123565
5538.908516,4367.215058,-7890.783629,0.000000
5538.908840,5477.523971,-7507.735880,-1554.432478
5538.909165,4663.297435,-8503.660028,-370.102971
5538.909489,3627.009116,-8273.831378,-1036.288319
5538.909813,1036.288319,-9576.193725,-518.144159
5538.910137,-2442.679609,-9039.926876,0.000000
5538.910461,-5181.441594,-8810.098227,740.205942
5538.910786,-4071.132681,-9729.412825,1258.350101
5538.911110,-3775.050304,-7967.393179,0.000000
5538.911434,-222.061783,-9039.926876,-222.061783
5538.911758,1702.473667,-8044.002729,-222.061783
5538.912083,3627.009116,-7967.393179,-888.247130
5538.912407,4737.318029,-8273.831378,-1702.473667
5538.912731,4663.297435,-8427.050478,-1184.329507
5538.913055,2072.576638,-8810.098227,-962.267725
5538.913380,148.041188,-8886.707777,0.000000
5538.913704,-2368.659014,-9346.365076,296.082377
5538.914028,-3849.070898,-9729.412825,888.247130
5538.914352,-4959.379811,-9039.926876,0.000000
5538.914676,-2516.700203,-9193.145976,814.226536
5538.915001,-592.164754,-7737.564530,-1184.329507
5538.915325,2590.720797,-8197.221829,-444.123565
5538.915649,5403.503377,-7814.174080,-518.144159
5538.915973,4589.276840,-8503.660028,-1406.391290
5538.916298,3997.112087,-9039.926876,-1554.432478
5538.916622,1184.329507,-8273.831378,-1110.308913
5538.916946,-1554.432478,-9039.926876,-370.102971
5538.917270,-4367.215058,-8503.660028,296.082377
5538.917595,-4959.379811,-8580.269578,814.226536
5538.917919,-4293.194464,-9116.536426,296.082377
5538.918243,-1924.535449,-8503.660028,0.000000
5538.918567,666.185348,-8044.002729,-740.205942
5538.918891,4219.173869,-7354.516781,-740.205942
5538.919216,5625.565159,-7967.393179,-962.267725
5538.919540,5329.482782,-8580.269578,-1702.473667
5538.919864,4367.215058,-8733.488677,-1258.350101
5538.920188,1554.432478,-8656.879127,-962.267725
5538.920513,-2072.576638,-9039.926876,0.000000
5538.920837,-3775.050304,-9039.926876,592.164754
5538.921161,-4071.132681,-9116.536426,592.164754
5538.921485,-3034.844362,-9193.145976,370.102971
5538.921810,-962.267725,-7431.126331,-592.164754
5538.922134,1110.308913,-8273.831378,-222.061783
5538.922458,3478.967927,-7737.564530,-1554.432478
5538.922782,5329.482782,-8120.612279,-740.205942
5538.923106,4959.379811,-7354.516781,-1258.350101
5538.923431,4071.132681,-8810.098227,-1036.288319
5538.923755,666.185348,-8656.879127,-296.082377
5538.924079,-2220.617826,-9269.755526,0.000000
5538.924403,-3775.050304,-9269.755526,814.226536
5538.924728,-4663.297435,-8427.050478,518.144159
5538.925052,-2590.720797,-8427.050478,148.041188
5538.925376,1332.370696,-8427.050478,-518.144159
5538.925700,2886.803174,-7890.783629,-1184.329507
5538.926025,5847.626942,-7814.174080,-814.226536
5538.926349,5773.606348,-8197.221829,-1628.453072
5538.926673,4219.173869,-9116.536426,-962.267725
5538.926997,1628.453072,-8197.221829,-1332.370696
5538.927321,-592.164754,-9729.412825,0.000000
5538.927646,-3256.906145,-9039.926876,296.082377
5538.927970,-4959.379811,-9039.926876,888.247130
5538.928294,-4145.153275,-9422.974625,-148.041188
5538.928618,-1998.556043,-9346.365076,296.082377
5538.928943,0.000000,-7584.345430,-1332.370696
5538.929267,3108.864956,-8427.050478,-444.123565
5538.929591,5625.565159,-8120.612279,-666.185348
5538.929915,5921.647536,-8427.050478,-1184.329507
5538.930240,4589.276840,-9346.365076,-1036.288319
5538.930564,1110.308913,-8886.707777,-592.164754
5538.930888,-2146.597232,-9346.365076,0.000000
5538.931212,-3775.050304,-9116.536426,518.144159
5538.931536,-4811.338623,-9346.365076,814.226536
5538.931861,-4959.379811,-8580.269578,592.164754
5538.932185,-2368.659014,-8350.440928,-444.123565
5538.932509,592.164754,-8427.050478,-740.205942
5538.932833,4293.194464,-7967.393179,-592.164754
5538.933158,4589.276840,-8044.002729,-1406.391290
5538.933482,4811.338623,-8886.707777,-1110.308913
5538.933806,3034.844362,-8120.612279,-1332.370696
5538.934130,740.205942,-9039.926876,-444.123565
5538.934455,-1258.350101,-8733.488677,444.123565
5538.934779,-3923.091493,-9422.974625,1036.288319
5538.935103,-5181.441594,-9116.536426,0.000000
5538.935427,-4071.132681,-9193.145976,296.082377
5538.935751,-962.267725,-8503.660028,0.000000
5538.936076,1554.432478,-7967.393179,-592.164754
5538.936400,4071.132681,-7354.516781,-222.061783
5538.936724,5255.462188,-8427.050478,-592.164754
5538.937048,4441.235652,-8580.269578,-1258.350101
5538.937373,3256.906145,-8427.050478,-1258.350101
5538.937697,-666.185348,-8503.660028,0.000000
5538.938021,-3330.926739,-8886.707777,1184.329507
5538.938345,-5033.400406,-8810.098227,814.226536
5538.938670,-4219.173869,-9959.241474,962.267725
5538.938994,-3849.070898,-7890.783629,148.041188
5538.939318,74.020594,-9193.145976,0.000000
5538.939642,1850.514855,-7967.393179,-1332.370696
5538.939966,4663.297435,-8580.269578,-888.247130
5538.940291,4959.379811,-8273.831378,-1332.370696
5538.940615,4737.318029,-8503.660028,-740.205942
5538.940939,2516.700203,-8580.269578,-444.123565
5538.941263,518.144159,-8810.098227,74.020594
5538.941588,-3034.844362,-8656.879127,592.164754
5538.941912,-3108.864956,-8963.317327,740.205942
5538.942236,-3478.967927,-8503.660028,666.185348
5538.942560,-1406.391290,-8273.831378,296.082377
5538.942884,814.226536,-8580.269578,-1332.370696
5538.943209,3034.844362,-8044.002729,-296.082377
5538.943533,4737.318029,-7814.174080,-740.205942
5538.943857,4293.194464,-8273.831378,-1036.288319
5538.944181,3552.988522,-8273.831378,-1702.473667
5538.944506,1406.391290,-8963.317327,-370.102971
5538.944830,-2146.597232,-8810.098227,0.000000
5538.945154,-3701.029710,-8580.269578,0.000000
5538.945478,-4145.153275,-9269.755526,740.205942
5538.945803,-3034.844362,-8503.660028,-592.164754
5538.946127,-1554.432478,-8503.660028,-444.123565
5538.946451,1850.514855,-7890.783629,-1258.350101
5538.946775,4293.194464,-8197.221829,-740.205942
5538.947099,5033.400406,-8197.221829,-1554.432478
5538.947424,5255.462188,-8427.050478,-1702.473667
5538.947748,3552.988522,-8580.269578,-1184.329507
5538.948072,1110.308913,-8963.317327,-1480.411884
5538.948396,-1258.350101,-9422.974625,-222.061783
5538.948721,-3627.009116,-8963.317327,666.185348
5538.949045,-3775.050304,-9652.803275,666.185348
5538.949369,-2146.597232,-8427.050478,0.000000
5538.949693,0.000000,-8273.831378,-518.144159
5538.950018,2220.617826,-7967.393179,-444.123565
5538.950342,4441.235652,-8273.831378,-888.247130
5538.950666,5403.503377,-8273.831378,-1702.473667
5538.950990,3923.091493,-9039.926876,-1184.329507
5538.951314,1924.535449,-8197.221829,-1554.432478
5538.951639,-1480.411884,-9729.412825,-222.061783
5538.951963,-3330.926739,-9193.145976,-148.041188
5538.952287,-5477.523971,-9116.536426,518.144159
5538.952611,-4959.379811,-9269.755526,74.020594
5538.952936,-2368.659014,-8733.488677,0.000000
5538.953260,592.164754,-8044.002729,-444.123565
5538.953584,3330.926739,-7890.783629,-666.185348
5538.953908,6069.688724,-8503.660028,-1036.288319
5538.954233,4071.132681,-8273.831378,-740.205942
5538.954557,4737.318029,-9116.536426,-740.205942
5538.954881,370.102971,-8273.831378,-888.247130
5538.955205,-1480.411884,-9422.974625,0.000000
5538.955529,-3627.009116,-9422.974625,666.185348
5538.955854,-3923.091493,-9499.584175,888.247130
5538.956178,-4367.215058,-8886.707777,518.144159
5538.956502,-2220.617826,-8273.831378,222.061783
5538.956826,1554.432478,-7737.564530,0.000000
5538.957151,4737.318029,-7354.516781,-666.185348
5538.957475,5847.626942,-8350.440928,0.000000
5538.957799,5329.482782,-8120.612279,-666.185348
5538.958123,1850.514855,-8733.488677,-962.267725
5538.958448,296.082377,-9116.536426,-1036.288319
5538.958772,-3182.885551,-9193.145976,444.123565
5538.959096,-4885.359217,-9269.755526,962.267725
5538.959420,-5107.421000,-9116.536426,814.226536
5538.959744,-4219.173869,-8580.269578,962.267725
5538.960069,-1258.350101,-8427.050478,222.061783
5538.960393,2812.782580,-7354.516781,-740.205942
5538.960717,3108.864956,-8350.440928,0.000000
5538.961041,7698.141797,-8503.660028,-1184.329507
5538.961366,4071.132681,-6894.859482,-1184.329507
5538.961690,3182.885551,-9499.584175,-592.164754
5538.962014,1184.329507,-8350.440928,-370.102971
5538.962338,-1850.514855,-9116.536426,962.267725
5538.962663,-4219.173869,-9729.412825,740.205942
5538.962987,-3404.947333,-9193.145976,518.144159
5538.963311,-3404.947333,-9729.412825,1702.473667
5538.963635,0.000000,-8427.050478,-1258.350101
5538.963959,3552.988522,-8503.660028,222.061783
5538.964284,4145.153275,-6665.030833,-1332.370696
5538.964608,5847.626942,-9116.536426,-518.144159
5538.964932,5477.523971,-7814.174080,-1702.473667
5538.965256,3478.967927,-8733.488677,-1036.288319
5538.965581,-962.267725,-7737.564530,296.082377
5538.965905,-3923.091493,-9116.536426,0.000000
5538.966229,-4515.256246,-9806.022374,518.144159
5538.966553,-4219.173869,-8580.269578,148.041188
5538.966878,-2886.803174,-8963.317327,-148.041188
5538.967202,-370.102971,-8503.660028,-1332.370696
5538.967526,2738.761985,-8503.660028,-740.205942
5538.967850,4737.318029,-7967.393179,-1554.432478
5538.968174,5921.647536,-9116.536426,-1480.411884
5538.968499,4737.318029,-7967.393179,-1924.535449
5538.968823,2220.617826,-9116.536426,-962.267725
5538.969147,0.000000,-8810.098227,-444.123565
5538.969471,-2886.803174,-9346.365076,-148.041188
5538.969796,-3701.029710,-9806.022374,888.247130
5538.970120,-3627.009116,-8197.221829,-370.102971
5538.970444,-1258.350101,-9422.974625,-148.041188
5538.970768,592.164754,-7354.516781,-1332.370696
5538.971093,3256.906145,-8733.488677,-148.041188
5538.971417,4811.338623,-7660.954980,-1406.391290
5538.971741,5625.565159,-8656.879127,-1332.370696
5538.972065,3552.988522,-8273.831378,-1776.494261
5538.972389,888.247130,-9346.365076,-888.247130
5538.972714,-2590.720797,-8427.050478,-888.247130
5538.973038,-3552.988522,-9346.365076,222.061783
5538.973362,-4663.297435,-8963.317327,1036.288319
5538.973686,-4441.235652,-8656.879127,0.000000
5538.974011,-1850.514855,-7277.907231,-296.082377
5538.974335,1924.535449,-8580.269578,-592.164754
5538.974659,3775.050304,-8350.440928,-1110.308913
5538.974983,5181.441594,-8733.488677,-1406.391290
5538.975308,4515.256246,-8733.488677,-1184.329507
5538.975632,1554.432478,-8350.440928,-962.267725
5538.975956,-592.164754,-8810.098227,-148.041188
5538.976280,-2368.659014,-9422.974625,592.164754
5538.976604,-2664.741391,-9116.536426,814.226536
5538.976929,-3330.926739,-8273.831378,888.247130
5538.977253,-2220.617826,-8733.488677,370.102971
5538.977577,296.082377,-7814.174080,-222.061783
5538.977901,2590.720797,-7584.345430,-148.041188
5538.978226,4737.318029,-8427.050478,-518.144159
5538.978550,5181.441594,-8427.050478,-1036.288319
5538.978874,2664.741391,-8197.221829,-1332.370696
5538.979198,666.185348,-9193.145976,-518.144159
5538.979523,-2664.741391,-8503.660028,-444.123565
5538.979847,-4663.297435,-9193.145976,666.185348
5538.980171,-5921.647536,-8963.317327,888.247130
5538.980495,-4959.379811,-8120.612279,222.061783
5538.980819,-2220.617826,-8273.831378,962.267725
5538.981144,1110.308913,-7967.393179,-518.144159
5538.981468,4515.256246,-7814.174080,-592.164754
5538.981792,6217.729913,-7890.783629,-1332.370696
5538.982116,6217.729913,-8810.098227,-962.267725
5538.982441,4219.173869,-8580.269578,-962.267725
5538.982765,1702.473667,-9422.974625,74.020594
5538.983089,-1110.308913,-9039.926876,74.020594
5538.983413,-3627.009116,-9576.193725,296.082377
5538.983737,-4293.194464,-8886.707777,1036.288319
5538.984062,-3182.885551,-7660.954980,296.082377
5538.984386,-740.205942,-8350.440928,0.000000
5538.984710,2220.617826,-7814.174080,-370.102971
5538.985034,4145.153275,-7354.516781,-740.205942
5538.985359,5699.585753,-8197.221829,-1776.494261
5538.985683,5477.523971,-8427.050478,-1480.411884
5538.986007,2664.741391,-9116.536426,-1554.432478
5538.986331,666.185348,-9882.631924,-888.247130
5538.986656,-2664.741391,-9269.755526,0.000000
5538.986980,-4071.132681,-9806.022374,1184.329507
5538.987304,-5107.421000,-9269.755526,444.123565
5538.987628,-3552.988522,-8886.707777,518.144159
5538.987952,-518.144159,-7814.174080,-222.061783
5538.988277,3478.967927,-7814.174080,-888.247130
5538.988601,5181.441594,-8273.831378,-1184.329507
5538.988925,5921.647536,-7890.783629,-1480.411884
5538.989249,5033.400406,-8427.050478,-370.102971
5538.989574,2220.617826,-9039.926876,-1184.329507
5538.989898,74.020594,-9729.412825,148.041188
5538.990222,-1258.350101,-9576.193725,0.000000
5538.990546,-3923.091493,-9959.241474,518.144159
5538.990871,-3775.050304,-9116.536426,-222.061783
5538.991195,-2886.803174,-8810.098227,0.000000
5538.991519,814.226536,-8503.660028,0.000000
5538.991843,2664.741391,-7354.516781,-444.123565
5538.992167,5181.441594,-8197.221829,-1036.288319
5538.992492,3775.050304,-8120.612279,-814.226536
5538.992816,3552.988522,-8733.488677,-1184.329507
5538.993140,1480.411884,-8810.098227,-1110.308913
5538.993465,-1406.391290,-9806.022374,-148.041188
5538.993789,-3627.009116,-9422.974625,0.000000
5538.994113,-4811.338623,-9806.022374,74.020594
5538.994438,-4145.153275,-8580.269578,444.123565
5538.994762,-1924.535449,-8120.612279,222.061783
5538.995087,888.247130,-7354.516781,-370.102971
5538.995411,4367.215058,-8350.440928,-1036.288319
5538.995736,4811.338623,-7354.516781,-1554.432478
5538.996060,5403.503377,-7967.393179,-1406.391290
5538.996384,3404.947333,-8810.098227,-1332.370696
5538.996709,592.164754,-9346.365076,0.000000
5538.997033,-2368.659014,-9346.365076,444.123565
5538.997358,-4071.132681,-9576.193725,-296.082377
5538.997682,-4367.215058,-9806.022374,444.123565
5538.998007,-4811.338623,-8963.317327,444.123565
5538.998331,-1036.288319,-8580.269578,0.000000
5538.998656,814.226536,-7354.516781,-592.164754
5538.998980,4293.194464,-8120.612279,148.041188
5538.999304,5329.482782,-7660.954980,-1480.411884
5538.999629,4959.379811,-8427.050478,-1110.308913
5538.999953,2442.679609,-9116.536426,-1184.329507
5539.000278,-222.061783,-9193.145976,-444.123565
5539.000602,-2960.823768,-9499.584175,222.061783
5539.000927,-5551.544565,-9729.412825,296.082377
5539.001251,-4885.359217,-9576.193725,814.226536
5539.001575,-4293.194464,-8044.002729,444.123565
5539.001900,-592.164754,-8273.831378,74.020594
5539.002224,1924.535449,-6741.640382,-592.164754
5539.002549,4737.318029,-7584.345430,-666.185348
5539.002873,5329.482782,-7584.345430,-1702.473667
5539.003198,4589.276840,-8580.269578,-1480.411884
5539.003522,2220.617826,-8963.317327,-962.267725
5539.003846,-222.061783,-9346.365076,-518.144159
5539.004171,-2886.803174,-10342.289223,444.123565
5539.004495,-4737.318029,-9652.803275,0.000000
5539.004820,-4145.153275,-9346.365076,222.061783
5539.005144,-2516.700203,-8350.440928,0.000000
5539.005469,-296.082377,-8197.221829,814.226536
5539.005793,3404.947333,-6665.030833,-148.041188
5539.006117,5033.400406,-7737.564530,-740.205942
5539.006442,5699.585753,-8120.612279,-1554.432478
5539.006766,4885.359217,-8733.488677,-1480.411884
5539.007091,2516.700203,-8810.098227,-740.205942
5539.007415,-296.082377,-9346.365076,-370.102971
5539.007740,-2664.741391,-10112.460574,592.164754
5539.008064,-4663.297435,-9576.193725,1036.288319
5539.008388,-4589.276840,-8810.098227,148.041188
5539.008713,-2812.782580,-8350.440928,-296.082377
5539.009037,518.144159,-7737.564530,74.020594
5539.009362,3330.926739,-7584.345430,0.000000
5539.009686,3923.091493,-7814.174080,-1480.411884
5539.010011,4885.359217,-7967.393179,-2294.638420
5539.010335,4071.132681,-8197.221829,-1924.535449
5539.010660,1554.432478,-9729.412825,-666.185348
5539.010984,-148.041188,-10035.851024,-666.185348
5539.011308,-2516.700203,-9499.584175,740.205942
5539.011633,-3034.844362,-10035.851024,888.247130
5539.011957,-3034.844362,-8273.831378,0.000000
5539.012282,-740.205942,-7737.564530,592.164754
5539.012606,1924.535449,-7201.297681,222.061783
5539.012931,5329.482782,-7584.345430,-592.164754
5539.013255,5995.668130,-7967.393179,-1628.453072
5539.013579,4663.297435,-8120.612279,-592.164754
5539.013904,2072.576638,-8350.440928,-1702.473667
5539.014228,-518.144159,-9422.974625,-592.164754
5539.014553,-2812.782580,-9806.022374,666.185348
5539.014877,-4589.276840,-9806.022374,0.000000
5539.015202,-4811.338623,-9193.145976,444.123565
5539.015526,-3404.947333,-9422.974625,148.041188
5539.015850,0.000000,-7967.393179,-222.061783
5539.016175,1702.473667,-6894.859482,-296.082377
5539.016499,5847.626942,-8120.612279,-666.185348
5539.016824,3997.112087,-7431.126331,-1776.494261
5539.017148,3997.112087,-8273.831378,-1258.350101
5539.017473,1554.432478,-8733.488677,-962.267725
5539.017797,-740.205942,-9499.584175,-666.185348
5539.018121,-2664.741391,-10112.460574,0.000000
5539.018446,-3552.988522,-9193.145976,74.020594
5539.018770,-4219.173869,-9193.145976,740.205942
5539.019095,-2516.700203,-8810.098227,0.000000
5539.019419,222.061783,-7660.954980,370.102971
5539.019744,2590.720797,-7354.516781,-222.061783
5539.020068,4959.379811,-7737.564530,-1036.288319
5539.020393,4959.379811,-7584.345430,-1850.514855
5539.020717,3627.009116,-9039.926876,-1258.350101
5539.021041,1184.329507,-9269.755526,-740.205942
5539.021366,-1924.535449,-9422.974625,-296.082377
5539.021690,-4145.153275,-9576.193725,370.102971
5539.022015,-4663.297435,-9729.412825,666.185348
5539.022339,-4589.276840,-9193.145976,0.000000
5539.022664,-1480.411884,-8503.660028,222.061783
5539.022988,592.164754,-7431.126331,370.102971
5539.023312,4219.173869,-7584.345430,-444.123565
5539.023637,4367.215058,-7507.735880,-1184.329507
5539.023961,4959.379811,-8197.221829,-1258.350101
5539.024286,3330.926739,-8350.440928,-1702.473667
5539.024610,74.020594,-9499.584175,-740.205942
5539.024935,-1924.535449,-9806.022374,-444.123565
5539.025259,-3997.112087,-9882.631924,1184.329507
5539.025583,-4515.256246,-9959.241474,518.144159
5539.025908,-3849.070898,-8886.707777,296.082377
5539.026232,-740.205942,-8044.002729,74.020594
5539.026557,2294.638420,-7431.126331,518.144159
5539.026881,4515.256246,-7737.564530,-740.205942
5539.027206,5847.626942,-7660.954980,-1480.411884
5539.027530,5329.482782,-7890.783629,-1480.411884
5539.027854,3034.844362,-8886.707777,-1184.329507
5539.028179,0.000000,-9422.974625,-296.082377
5539.028503,-3034.844362,-9806.022374,0.000000
5539.028828,-4293.194464,-9346.365076,1036.288319
5539.029152,-3404.947333,-8963.317327,-222.061783
5539.029477,-2072.576638,-8963.317327,370.102971
5539.029801,666.185348,-7507.735880,222.061783
5539.030125,3775.050304,-7507.735880,-444.123565
5539.030450,5773.606348,-7890.783629,-1184.329507
5539.030774,5625.565159,-7737.564530,-1480.411884
5539.031099,4293.194464,-8197.221829,-1702.473667
5539.031423,2368.659014,-8656.879127,-1110.308913
5539.031748,-222.061783,-9422.974625,-444.123565
5539.032072,-2294.638420,-9882.631924,-444.123565
5539.032397,-3997.112087,-10342.289223,74.020594
5539.032721,-4737.318029,-9269.755526,-296.082377
5539.033045,0.000000,-8656.879127,518.144159
5539.033370,888.247130,-7507.735880,0.000000
5539.033694,4145.153275,-7584.345430,-592.164754
5539.034019,5255.462188,-8580.269578,-1480.411884
5539.034343,3182.885551,-8120.612279,-1036.288319
5539.034668,4071.132681,-8273.831378,-1924.535449
5539.034992,1332.370696,-10418.898773,-666.185348
5539.035316,-3108.864956,-9959.241474,-444.123565
5539.035641,-4589.276840,-9422.974625,444.123565
5539.035965,-5477.523971,-9729.412825,370.102971
5539.036290,-4071.132681,-8580.269578,592.164754
5539.036614,-1184.329507,-8120.612279,148.041188
5539.036939,1036.288319,-7431.126331,0.000000
5539.037263,4367.215058,-7584.345430,0.000000
5539.037587,5181.441594,-7354.516781,-2294.638420
5539.037912,4885.359217,-8427.050478,-1036.288319
5539.038236,3256.906145,-7967.393179,-1554.432478
5539.038561,1406.391290,-10189.070123,-518.144159
5539.038885,-2146.597232,-10112.460574,0.000000
5539.039210,-3775.050304,-9882.631924,444.123565
5539.039534,-4737.318029,-9346.365076,222.061783
5539.039858,-4219.173869,-8656.879127,444.123565
5539.040183,-222.061783,-8120.612279,518.144159
5539.040507,1998.556043,-7201.297681,296.082377
5539.040832,4293.194464,-7737.564530,74.020594
5539.041156,4737.318029,-7507.735880,-1110.308913
5539.041481,4367.215058,-8273.831378,-1110.308913
5539.041805,1406.391290,-8197.221829,-666.185348
5539.042129,0.000000,-9193.145976,444.123565
5539.042454,-2886.803174,-9346.365076,518.144159
5539.042778,-4071.132681,-9652.803275,814.226536
5539.043103,-4663.297435,-9499.584175,-296.082377
5539.043427,-3108.864956,-9039.926876,-222.061783
5539.043752,-444.123565,-7584.345430,296.082377
5539.044076,1850.514855,-7277.907231,296.082377
5539.044401,3627.009116,-7737.564530,-888.247130
5539.044725,3627.009116,-8044.002729,-444.123565
5539.045049,4071.132681,-7967.393179,-2146.597232
5539.045374,1776.494261,-9193.145976,-740.205942
5539.045698,-370.102971,-9576.193725,-222.061783
5539.046023,-2812.782580,-9806.022374,370.102971
5539.046347,-3552.988522,-9422.974625,888.247130
5539.046672,-3923.091493,-8733.488677,222.061783
5539.046996,-1480.411884,-8733.488677,740.205942
5539.047320,370.102971,-6818.249932,296.082377
5539.047645,3404.947333,-8120.612279,740.205942
5539.047969,4737.318029,-7277.907231,-1554.432478
5539.048294,5699.585753,-8273.831378,-1036.288319
5539.048618,3256.906145,-8120.612279,-1628.453072
5539.048943,1406.391290,-9499.584175,74.020594
5539.049267,-1628.453072,-9193.145976,296.082377
5539.049591,-2590.720797,-10189.070123,0.000000
5539.049916,-5625.565159,-9346.365076,-222.061783
5539.050240,-2368.659014,-9346.365076,-148.041188
5539.050565,-2072.576638,-7660.954980,148.041188
5539.050889,2146.597232,-7890.783629,0.000000
5539.051214,5107.421000,-8197.221829,-1554.432478
5539.051538,4515.256246,-8427.050478,-1480.411884
5539.051862,4219.173869,-8580.269578,-1776.494261
5539.052187,3627.009116,-8810.098227,-2220.617826
5539.052511,1036.288319,-9652.803275,-296.082377
5539.052836,-814.226536,-9806.022374,-518.144159
5539.053160,-3182.885551,-9729.412825,0.000000
5539.053485,-4663.297435,-9346.365076,74.020594
5539.053809,-2664.741391,-9116.536426,-222.061783
5539.054134,222.061783,-7890.783629,0.000000
5539.054458,3478.967927,-7737.564530,0.000000
5539.054782,5107.421000,-7660.954980,-1554.432478
5539.055107,5181.441594,-7967.393179,-1554.432478
5539.055431,4071.132681,-8503.660028,-1628.453072
5539.055756,2368.659014,-9422.974625,-962.267725
5539.056080,-592.164754,-10035.851024,148.041188
5539.056405,-2886.803174,-9576.193725,0.000000
5539.056729,-4589.276840,-9882.631924,74.020594
5539.057053,-5107.421000,-8963.317327,-148.041188
5539.057378,-1998.556043,-9193.145976,444.123565
5539.057702,74.020594,-7201.297681,74.020594
5539.058027,2442.679609,-7890.783629,-296.082377
5539.058351,4441.235652,-8044.002729,-814.226536
5539.058676,4737.318029,-7814.174080,-1702.473667
5539.059000,4145.153275,-8810.098227,-1554.432478
5539.059324,1924.535449,-8656.879127,-1036.288319
5539.059649,-1036.288319,-9652.803275,296.082377
5539.059973,-3330.926739,-9422.974625,370.102971
5539.060298,-4663.297435,-9806.022374,1258.350101
5539.060622,-4293.194464,-8580.269578,0.000000
5539.060947,-962.267725,-8656.879127,962.267725
5539.061271,1036.288319,-6894.859482,296.082377
5539.061595,4071.132681,-7507.735880,0.000000
5539.061920,3997.112087,-7507.735880,-518.144159
5539.062244,4441.235652,-8197.221829,-1406.391290
5539.062569,2072.576638,-8427.050478,-814.226536
5539.062893,0.000000,-9039.926876,-148.041188
5539.063218,-2368.659014,-9729.412825,296.082377
5539.063542,-4737.318029,-9346.365076,518.144159
5539.063866,-4737.318029,-9422.974625,1184.329507
5539.064191,-3404.947333,-8350.440928,148.041188
5539.064515,-1554.432478,-8886.707777,1184.329507
5539.064840,1628.453072,-6741.640382,0.000000
5539.065164,3997.112087,-7507.735880,-444.123565
5539.065489,4515.256246,-7354.516781,-1406.391290
5539.065813,4293.194464,-8350.440928,-666.185348
5539.066138,2146.597232,-8963.317327,-814.226536
5539.066462,-222.061783,-9269.755526,74.020594
5539.066786,-1554.432478,-10495.508323,148.041188
5539.067111,-3478.967927,-8963.317327,518.144159
5539.067435,-3404.947333,-9499.584175,370.102971
5539.067760,-1036.288319,-9269.755526,888.247130
5539.068084,518.144159,-7814.174080,962.267725
5539.068409,3330.926739,-6894.859482,-888.247130
5539.068733,5329.482782,-8273.831378,148.041188
5539.069057,4811.338623,-7048.078582,-1332.370696
5539.069382,4367.215058,-9039.926876,-1258.350101
5539.069706,2516.700203,-9499.584175,-814.226536
5539.070031,-962.267725,-9422.974625,-222.061783
5539.070355,-3478.967927,-9652.803275,814.226536
5539.070680,-4737.318029,-9269.755526,-518.144159
5539.071004,-4219.173869,-9882.631924,444.123565
5539.071328,-2146.597232,-8427.050478,148.041188
5539.071653,370.102971,-8273.831378,370.102971
5539.071977,3034.844362,-7124.688131,-1332.370696
5539.072302,5995.668130,-7660.954980,-1406.391290
5539.072626,5329.482782,-8044.002729,-1998.556043
5539.072951,4959.379811,-8733.488677,-2072.576638
5539.073275,1480.411884,-9193.145976,-1998.556043
5539.073599,-1332.370696,-10495.508323,222.061783
5539.073924,-2960.823768,-9652.803275,-888.247130
5539.074248,-3404.947333,-10878.556072,74.020594
5539.074573,-2886.803174,-9116.536426,0.000000
5539.074897,-1036.288319,-8503.660028,296.082377
5539.075222,1628.453072,-7354.516781,-222.061783
5539.075546,4367.215058,-7584.345430,-148.041188
5539.075870,6217.729913,-8044.002729,-1184.329507
5539.076195,4885.359217,-8427.050478,-2072.576638
5539.076519,3330.926739,-8810.098227,-1628.453072
5539.076844,74.020594,-9193.145976,-1258.350101
5539.077168,-2442.679609,-9806.022374,148.041188
5539.077493,-3552.988522,-9499.584175,0.000000
5539.077817,-4589.276840,-10035.851024,296.082377
5539.078142,-3108.864956,-9193.145976,-222.061783
5539.078466,-592.164754,-8044.002729,296.082377
5539.078790,2072.576638,-7967.393179,0.000000
5539.079115,4515.256246,-8044.002729,-814.226536
5539.079439,4145.153275,-7048.078582,-1258.350101
5539.079764,4441.235652,-8656.879127,-962.267725
5539.080088,1406.391290,-7967.393179,-1332.370696
5539.080413,-740.205942,-10112.460574,148.041188
5539.080737,-2960.823768,-9193.145976,-592.164754
5539.081061,-3849.070898,-10495.508323,148.041188
5539.081386,-3330.926739,-8733.488677,0.000000
5539.081710,-1702.473667,-9193.145976,1258.350101
5539.082035,518.144159,-7431.126331,370.102971
5539.082359,2886.803174,-7737.564530,666.185348
5539.082684,4219.173869,-7277.907231,-222.061783
5539.083008,4737.318029,-8273.831378,-1554.432478
5539.083332,2516.700203,-7737.564530,-1258.350101
5539.083657,370.102971,-8963.317327,74.020594
5539.083981,-1258.350101,-9806.022374,222.061783
5539.084306,-4959.379811,-9652.803275,592.164754
5539.084630,-4737.318029,-9652.803275,814.226536
5539.084955,-4145.153275,-8886.707777,0.000000
5539.085279,-962.267725,-8580.269578,666.185348
5539.085603,1036.288319,-7124.688131,148.041188
5539.085928,2886.803174,-7814.174080,0.000000
5539.086252,4367.215058,-7124.688131,-962.267725
5539.086577,4293.194464,-7890.783629,-1258.350101
5539.086901,3256.906145,-8503.660028,-1258.350101
5539.087226,962.267725,-8810.098227,-148.041188
5539.087550,-1924.535449,-9652.803275,-370.102971
5539.087874,-3552.988522,-9882.631924,888.247130
5539.088199,-4071.132681,-9116.536426,518.144159
5539.088523,-2960.823768,-9193.145976,370.102971
5539.088848,-740.205942,-7660.954980,592.164754
5539.089172,3034.844362,-7890.783629,0.000000
5539.089497,4663.297435,-7507.735880,-666.185348
5539.089821,5477.523971,-7584.345430,-444.123565
5539.090146,4811.338623,-8273.831378,-1628.453072
5539.090470,1998.556043,-8810.098227,-1036.288319
5539.090794,-444.123565,-9116.536426,-444.123565
5539.091119,-2812.782580,-9959.241474,0.000000
5539.091443,-4589.276840,-9193.145976,518.144159
5539.091768,-3997.112087,-9576.193725,0.000000
5539.092092,-1702.473667,-9652.803275,148.041188
5539.092417,296.082377,-7737.564530,-444.123565
5539.092741,2886.803174,-7201.297681,-740.205942
5539.093065,5255.462188,-7048.078582,-296.082377
5539.093390,5403.503377,-7737.564530,-2072.576638
5539.093714,4515.256246,-8656.879127,-1998.556043
5539.094039,1628.453072,-8810.098227,-1036.288319
5539.094363,-1036.288319,-9576.193725,-814.226536
5539.094688,-2664.741391,-10342.289223,-444.123565
5539.095012,-4663.297435,-9882.631924,-740.205942
5539.095336,-2886.803174,-10265.679673,-222.061783
5539.095661,-1702.473667,-8273.831378,-222.061783
5539.095985,962.267725,-7890.783629,0.000000
5539.096310,4441.235652,-7660.954980,444.123565
5539.096634,5255.462188,-7354.516781,-1480.411884
5539.096959,5403.503377,-8350.440928,-1702.473667
5539.097281,4293.194464,-8503.660028,-1850.514855
5539.097606,1036.288319,-8886.707777,-518.144159
5539.097930,-1850.514855,-9269.755526,-592.164754
5539.098255,-3108.864956,-9882.631924,0.000000
5539.098579,-4589.276840,-10035.851024,0.000000
5539.098904,-4737.318029,-8963.317327,296.082377
5539.099228,-962.267725,-8044.002729,370.102971
5539.099553,1110.308913,-7354.516781,592.164754
5539.099877,3182.885551,-7354.516781,-592.164754
5539.100201,4885.359217,-6971.469032,-2294.638420
5539.100526,4219.173869,-8963.317327,-1332.370696
5539.100850,2664.741391,-7660.954980,-2146.597232
5539.101175,0.000000,-9882.631924,-444.123565
5539.101499,-1406.391290,-9959.241474,0.000000
5539.101824,-3404.947333,-9346.365076,592.164754
5539.102148,-3701.029710,-9269.755526,0.000000
5539.102473,-3182.885551,-8886.707777,1110.308913
5539.102797,-296.082377,-7967.393179,740.205942
5539.103122,3404.947333,-7584.345430,296.082377
5539.103446,5329.482782,-7584.345430,0.000000
5539.103771,5995.668130,-7507.735880,-666.185348
5539.104095,2886.803174,-8273.831378,-1184.329507
5539.104419,1850.514855,-8886.707777,-518.144159
5539.104744,-1036.288319,-9116.536426,-296.082377
5539.105068,-3034.844362,-10112.460574,518.144159
5539.105393,-4811.338623,-9422.974625,740.205942
5539.105717,-4959.379811,-9499.584175,222.061783
5539.106042,-3849.070898,-9039.926876,666.185348
5539.106366,-666.185348,-8580.269578,296.082377
5539.106691,2220.617826,-7048.078582,-370.102971
5539.107015,4293.194464,-8350.440928,444.123565
5539.107340,4885.359217,-7201.297681,-1850.514855
5539.107664,3478.967927,-8427.050478,-1554.432478
5539.107989,1332.370696,-8733.488677,-1110.308913
5539.108313,-740.205942,-9959.241474,0.000000
5539.108637,-3182.885551,-9422.974625,0.000000
5539.108962,-3108.864956,-9806.022374,888.247130
5539.109286,-2590.720797,-8886.707777,222.061783
5539.109611,-1258.350101,-8273.831378,888.247130
5539.109935,1258.350101,-7584.345430,444.123565
5539.110260,3256.906145,-7431.126331,74.020594
5539.110584,5551.544565,-7507.735880,-444.123565
5539.110909,4367.215058,-8044.002729,-1702.473667
5539.111233,3923.091493,-8503.660028,-1480.411884
5539.111558,0.000000,-8197.221829,-740.205942
5539.111882,-2368.659014,-9882.631924,-296.082377
5539.112207,-3627.009116,-9193.145976,148.041188
5539.112531,-4737.318029,-10112.460574,518.144159
5539.112855,-4737.318029,-8810.098227,-222.061783
5539.113180,-666.185348,-7967.393179,444.123565
5539.113504,1110.308913,-7354.516781,0.000000
5539.113829,4959.379811,-7584.345430,-592.164754
5539.114153,5477.523971,-6741.640382,-2516.700203
5539.114478,5403.503377,-9576.193725,-1554.432478
5539.114802,2220.617826,-8197.221829,-2072.576638
5539.115127,-592.164754,-10189.070123,-592.164754
5539.115451,-2220.617826,-10035.851024,148.041188
5539.115776,-3256.906145,-9882.631924,592.164754
5539.116100,-3108.864956,-9729.412825,0.000000
5539.116425,-1702.473667,-8503.660028,296.082377
5539.116749,1480.411884,-7737.564530,0.000000
5539.117073,3330.926739,-7354.516781,222.061783
5539.117398,5699.585753,-7584.345430,-666.185348
5539.117722,5995.668130,-8044.002729,-888.247130
5539.118047,4293.194464,-8120.612279,-1702.473667
5539.118371,1554.432478,-9193.145976,-888.247130
5539.118696,-1258.350101,-9806.022374,-518.144159
5539.119020,-4293.194464,-9652.803275,296.082377
5539.119345,-4811.338623,-9422.974625,0.000000
5539.119669,-4737.318029,-9806.022374,296.082377
5539.119994,-2072.576638,-8656.879127,0.000000
5539.120318,1258.350101,-7507.735880,0.000000
5539.120643,3552.988522,-7048.078582,-740.205942
5539.120967,5773.606348,-7431.126331,-814.226536
5539.121291,5699.585753,-7660.954980,-2146.597232
5539.121616,3701.029710,-8580.269578,-1554.432478
5539.121940,1998.556043,-9422.974625,-888.247130
5539.122265,-1036.288319,-9576.193725,74.020594
5539.122589,-3330.926739,-10035.851024,222.061783
5539.122914,-3552.988522,-8963.317327,296.082377
5539.123238,-2960.823768,-9959.241474,666.185348
5539.123563,-1776.494261,-7660.954980,296.082377
5539.123887,2072.576638,-7507.735880,740.205942
5539.124212,3330.926739,-6894.859482,-740.205942
5539.124536,5995.668130,-7967.393179,-296.082377
5539.124861,4663.297435,-7584.345430,-1554.432478
5539.125185,2664.741391,-9576.193725,-592.164754
5539.125509,148.041188,-8963.317327,-1184.329507
5539.125834,-3256.906145,-10189.070123,0.000000
5539.126158,-4959.379811,-8580.269578,888.247130
5539.126483,-3923.091493,-9652.803275,740.205942
5539.126807,-3997.112087,-9729.412825,444.123565
5539.127132,-1258.350101,-7890.783629,888.247130
5539.127456,2442.679609,-6665.030833,0.000000
5539.127781,3701.029710,-7354.516781,-666.185348
5539.128105,4737.318029,-7584.345430,-740.205942
5539.128430,4663.297435,-8120.612279,-1036.288319
5539.128754,2664.741391,-8656.879127,-1258.350101
5539.129079,296.082377,-9729.412825,-740.205942
5539.129403,-2072.576638,-9576.193725,0.000000
5539.129727,-3256.906145,-9806.022374,444.123565
5539.130052,-4293.194464,-10189.070123,296.082377
5539.130376,-3256.906145,-9499.584175,518.144159
5539.130701,-1554.432478,-6971.469032,444.123565
5539.131025,2220.617826,-7124.688131,962.267725
5539.131350,4885.359217,-7354.516781,-962.267725
5539.131674,5403.503377,-7814.174080,-1332.370696
5539.131999,4145.153275,-8197.221829,-1406.391290
5539.132323,1480.411884,-8503.660028,-444.123565
5539.132648,-814.226536,-9116.536426,-222.061783
5539.132972,-2516.700203,-9959.241474,74.020594
5539.133297,-3849.070898,-9652.803275,0.000000
5539.133621,-4071.132681,-9652.803275,370.102971
5539.133945,-1924.535449,-8273.831378,370.102971
5539.134270,740.205942,-8580.269578,0.000000
5539.134594,2960.823768,-7584.345430,-740.205942
5539.134919,4293.194464,-7507.735880,-666.185348
5539.135243,4663.297435,-7124.688131,-1332.370696
5539.135568,3330.926739,-8350.440928,-1850.514855
5539.135892,1776.494261,-9576.193725,-1036.288319
5539.136217,-1406.391290,-9729.412825,-518.144159
5539.136541,-3627.009116,-9652.803275,-222.061783
5539.136866,-3478.967927,-9806.022374,0.000000
5539.137190,-3478.967927,-9652.803275,296.082377
5539.137515,-962.267725,-8273.831378,74.020594
5539.137839,2516.700203,-7431.126331,74.020594
5539.138163,4737.318029,-8350.440928,-148.041188
5539.138488,6217.729913,-7814.174080,-1480.411884
5539.138812,4811.338623,-8044.002729,-1406.391290
5539.139137,2590.720797,-9039.926876,-962.267725
5539.139461,0.000000,-8810.098227,-592.164754
5539.139786,-2442.679609,-9729.412825,-222.061783
5539.140110,-4145.153275,-9269.755526,74.020594
5539.140435,-3478.967927,-9729.412825,518.144159
5539.140759,-2812.782580,-8273.831378,0.000000
5539.141084,0.000000,-7890.783629,962.267725
5539.141408,2590.720797,-7354.516781,-592.164754
5539.141733,5107.421000,-8120.612279,-444.123565
5539.142057,4441.235652,-6665.030833,-2146.597232
5539.142381,5403.503377,-8580.269578,-592.164754
5539.142706,2590.720797,-8044.002729,-1850.514855
5539.143030,592.164754,-10495.508323,-518.144159
5539.143355,-3182.885551,-9193.145976,-296.082377
5539.143679,-4293.194464,-10035.851024,1184.329507
5539.144004,-4293.194464,-9116.536426,-518.144159
5539.144328,-962.267725,-8886.707777,1480.411884
5539.144653,1184.329507,-7201.297681,-370.102971
5539.144977,3849.070898,-7660.954980,0.000000
5539.145302,5181.441594,-6818.249932,-1554.432478
5539.145626,6439.791695,-8350.440928,-666.185348
5539.145951,3330.926739,-8044.002729,-1184.329507
5539.146275,1110.308913,-9422.974625,-296.082377
5539.146599,-2664.741391,-8733.488677,-444.123565
5539.146924,-4441.235652,-10112.460574,592.164754
5539.147248,-4737.318029,-9116.536426,-740.205942
5539.147573,-4145.153275,-10035.851024,518.144159
5539.147897,-3034.844362,-7584.345430,444.123565
5539.148222,222.061783,-8273.831378,148.041188
5539.148546,2220.617826,-7354.516781,-962.267725
5539.148871,4885.359217,-8350.440928,-1258.350101
5539.149195,4959.379811,-8044.002729,-1258.350101
5539.149520,2664.741391,-8656.879127,-888.247130
5539.149844,222.061783,-9039.926876,296.082377
5539.150169,-2516.700203,-9576.193725,0.000000
5539.150493,-4589.276840,-10189.070123,-518.144159
5539.150817,-4515.256246,-10955.165621,370.102971
5539.151142,-3627.009116,-8656.879127,296.082377
5539.151466,-1480.411884,-8197.221829,296.082377
5539.151791,2146.597232,-7201.297681,296.082377
5539.152115,4441.235652,-7354.516781,444.123565
5539.152440,5181.441594,-7431.126331,-666.185348
5539.152764,5329.482782,-8044.002729,-1258.350101
5539.153089,3182.885551,-8886.707777,-1258.350101
5539.153413,0.000000,-9193.145976,-222.061783
5539.153738,-3034.844362,-9652.803275,-666.185348
5539.154062,-4737.318029,-10265.679673,370.102971
5539.154387,-5329.482782,-9576.193725,518.144159
5539.154711,-3849.070898,-8886.707777,0.000000
5539.155035,-1406.391290,-8580.269578,74.020594
5539.155360,1480.411884,-7354.516781,-296.082377
5539.155684,4663.297435,-8120.612279,-740.205942
5539.156009,4145.153275,-7507.735880,-1406.391290
5539.156333,3997.112087,-8350.440928,-814.226536
5539.156658,1332.370696,-7737.564530,-1110.308913
5539.156982,148.041188,-9806.022374,-296.082377
5539.157307,-1776.494261,-9806.022374,-1258.350101
5539.157631,-2294.638420,-9959.241474,-148.041188
5539.157956,-2368.659014,-9116.536426,518.144159
5539.158280,-518.144159,-8733.488677,888.247130
5539.158605,1258.350101,-7660.954980,296.082377
5539.158929,3330.926739,-7660.954980,0.000000
5539.159253,4959.379811,-7507.735880,-1110.308913
5539.159578,5181.441594,-8273.831378,-1628.453072
5539.159902,4071.132681,-8273.831378,-1258.350101
5539.160227,1480.411884,-8733.488677,-222.061783
5539.160551,-1480.411884,-9346.365076,-962.267725
5539.160876,-3997.112087,-10265.679673,0.000000
5539.161200,-4589.276840,-10112.460574,0.000000
5539.161525,-3923.091493,-9729.412825,0.000000
5539.161849,-1702.473667,-8197.221829,296.082377
5539.162174,1332.370696,-7814.174080,-296.082377
5539.162498,3478.967927,-7737.564530,-1036.288319
5539.162823,5181.441594,-7814.174080,-1406.391290
5539.163147,4885.359217,-8044.002729,-1406.391290
5539.163471,2590.720797,-8656.879127,-1184.329507
5539.163796,222.061783,-8886.707777,-148.041188
5539.164120,-1110.308913,-8810.098227,-518.144159
5539.164445,-3256.906145,-9806.022374,-370.102971
5539.164769,-3108.864956,-9499.584175,-148.041188
5539.165094,-1480.411884,-8427.050478,518.144159
5539.165418,444.123565,-7507.735880,222.061783
5539.165743,2368.659014,-7967.393179,222.061783
5539.166067,4885.359217,-7354.516781,0.000000
5539.166392,5551.544565,-7890.783629,-1110.308913
5539.166716,4441.235652,-9193.145976,-1184.329507
5539.167041,1776.494261,-8273.831378,-518.144159
5539.167365,-1332.370696,-9269.755526,0.000000
5539.167689,-3775.050304,-9576.193725,-666.185348
5539.168014,-4737.318029,-10035.851024,666.185348
5539.168338,-3997.112087,-9116.536426,-148.041188
5539.168663,-2738.761985,-8580.269578,814.226536
5539.168987,0.000000,-8273.831378,148.041188
5539.169312,3182.885551,-8197.221829,-888.247130
5539.169636,3997.112087,-7277.907231,-1480.411884
5539.169961,4737.318029,-7737.564530,-740.205942
5539.170285,3404.947333,-7890.783629,-1110.308913
5539.170610,1184.329507,-9193.145976,0.000000
5539.170934,-1110.308913,-9806.022374,-148.041188
5539.171259,-3552.988522,-9576.193725,0.000000
5539.171583,-3775.050304,-9576.193725,0.000000
5539.171907,-3404.947333,-9116.536426,1110.308913
5539.172232,-370.102971,-7890.783629,370.102971
5539.172556,1332.370696,-7584.345430,370.102971
5539.172881,3849.070898,-7507.735880,-148.041188
5539.173205,5181.441594,-7967.393179,-518.144159
5539.173530,4145.153275,-7431.126331,-1110.308913
5539.173854,2590.720797,-8810.098227,0.000000
5539.174179,-814.226536,-8503.660028,-592.164754
5539.174503,-3478.967927,-9959.241474,0.000000
5539.174828,-4885.359217,-9422.974625,-296.082377
5539.175152,-4441.235652,-9499.584175,0.000000
5539.175477,-2886.803174,-8963.317327,296.082377
5539.175801,0.000000,-7737.564530,148.041188
5539.176125,2664.741391,-7507.735880,296.082377
5539.176450,5107.421000,-7277.907231,-518.144159
5539.176774,4737.318029,-7354.516781,-1036.288319
5539.177099,4441.235652,-8120.612279,-666.185348
5539.177423,2220.617826,-8120.612279,-962.267725
5539.177748,666.185348,-9729.412825,-592.164754
5539.178072,-1628.453072,-9499.584175,-592.164754
5539.178397,-3775.050304,-9729.412825,518.144159
5539.178721,-4589.276840,-9193.145976,0.000000
5539.179046,-3256.906145,-8656.879127,888.247130
5539.179370,148.041188,-8273.831378,-296.082377
5539.179695,2960.823768,-7660.954980,148.041188
5539.180019,5033.400406,-7584.345430,-814.226536
5539.180343,5551.544565,-8503.660028,-592.164754
5539.180668,4885.359217,-8273.831378,-1406.391290
5539.180992,2294.638420,-8886.707777,-444.123565
5539.181317,-666.185348,-9116.536426,-888.247130
5539.181641,-3034.844362,-9652.803275,-222.061783
5539.181966,-3849.070898,-8503.660028,-222.061783
5539.182290,-3404.947333,-9039.926876,74.020594
5539.182615,-1628.453072,-8197.221829,148.041188
5539.182939,1184.329507,-8044.002729,444.123565
5539.183264,3182.885551,-7124.688131,-962.267725
5539.183588,5107.421000,-8350.440928,-962.267725
5539.183912,5995.668130,-7814.174080,-1332.370696
5539.184237,4737.318029,-8350.440928,-740.205942
5539.184561,1776.494261,-8580.269578,-1480.411884
5539.184886,74.020594,-10342.289223,0.000000
5539.185210,-2738.761985,-9193.145976,0.000000
5539.185535,-2738.761985,-9729.412825,-666.185348
5539.185859,-3552.988522,-9806.022374,370.102971
5539.186184,-814.226536,-7967.393179,0.000000
5539.186508,1332.370696,-7354.516781,-296.082377
5539.186833,3552.988522,-7967.393179,-296.082377
5539.187157,4737.318029,-8273.831378,-740.205942
5539.187482,4145.153275,-7967.393179,-666.185348
5539.187806,2812.782580,-9039.926876,-740.205942
5539.188130,-148.041188,-9346.365076,-814.226536
5539.188455,-2146.597232,-9269.755526,-518.144159
5539.188779,-3997.112087,-9499.584175,-444.123565
5539.189104,-3849.070898,-9729.412825,148.041188
5539.189428,-4293.194464,-8656.879127,222.061783
5539.189753,-814.226536,-8120.612279,518.144159
5539.190077,1628.453072,-7354.516781,-148.041188
5539.190402,3552.988522,-7584.345430,-740.205942
5539.190726,4663.297435,-7201.297681,-1258.350101
5539.191051,4441.235652,-8197.221829,-1110.308913
5539.191375,2664.741391,-8656.879127,-1110.308913
5539.191700,1406.391290,-8656.879127,-592.164754
5539.192024,-2442.679609,-9729.412825,-518.144159
5539.192348,-3997.112087,-9729.412825,74.020594
5539.192673,-3923.091493,-8810.098227,0.000000
5539.192997,-2072.576638,-9039.926876,740.205942
5539.193322,518.144159,-8656.879127,74.020594
5539.193646,1480.411884,-6511.811733,74.020594
5539.193971,4959.379811,-7584.345430,-666.185348
5539.194295,5329.482782,-7431.126331,-888.247130
5539.194620,4071.132681,-9269.755526,-592.164754
5539.194944,1628.453072,-8733.488677,-740.205942
5539.195269,-814.226536,-9499.584175,-296.082377
5539.195593,-3627.009116,-9422.974625,-444.123565
5539.195918,-3923.091493,-9806.022374,-222.061783
5539.196242,-3997.112087,-8733.488677,888.247130
5539.196566,-2516.700203,-8886.707777,814.226536
5539.196891,0.000000,-7814.174080,0.000000
5539.197215,2812.782580,-7354.516781,-814.226536
5539.197540,4441.235652,-8197.221829,-1036.288319
5539.197864,4663.297435,-7507.735880,-1480.411884
5539.198189,3330.926739,-8810.098227,-1110.308913
5539.198513,666.185348,-8810.098227,-444.123565
5539.198837,-1702.473667,-9882.631924,-148.041188
5539.199162,-3034.844362,-9116.536426,-666.185348
5539.199486,-3923.091493,-10725.336972,592.164754
5539.199811,-2590.720797,-8503.660028,222.061783
5539.200135,814.226536,-8656.879127,740.205942
5539.200459,1332.370696,-6971.469032,-814.226536
5539.200784,3034.844362,-8197.221829,0.000000
5539.201108,4219.173869,-7201.297681,-888.247130
5539.201433,3923.091493,-8503.660028,-370.102971
5539.201757,1924.535449,-8503.660028,-1628.453072
5539.202081,-518.144159,-9193.145976,-222.061783
5539.202406,-2960.823768,-9116.536426,-370.102971
5539.202730,-3404.947333,-9499.584175,-370.102971
5539.203055,-2664.741391,-9422.974625,-370.102971
5539.203379,-1110.308913,-8963.317327,1258.350101
5539.203703,444.123565,-7737.564530,-518.144159
5539.204028,2664.741391,-7890.783629,-296.082377
5539.204352,4293.194464,-7048.078582,-1480.411884
5539.204677,4663.297435,-8886.707777,-518.144159
5539.205001,3034.844362,-7967.393179,-1998.556043
5539.205325,1702.473667,-8963.317327,-592.164754
5539.205650,-518.144159,-9116.536426,-444.123565
5539.205974,-2960.823768,-9806.022374,-444.123565
5539.206299,-3330.926739,-9882.631924,-518.144159
5539.206623,-1702.473667,-9269.755526,-370.102971
5539.206947,-1554.432478,-7967.393179,518.144159
5539.207272,1406.391290,-7814.174080,222.061783
5539.207596,4663.297435,-7737.564530,148.041188
5539.207921,6143.709319,-7967.393179,-370.102971
5539.208245,5477.523971,-8197.221829,-962.267725
5539.208569,3182.885551,-8886.707777,-814.226536
5539.208894,-222.061783,-8963.317327,-592.164754
5539.209218,-2516.700203,-9729.412825,-666.185348
5539.209543,-4959.379811,-9652.803275,-296.082377
5539.209867,-4441.235652,-9576.193725,148.041188
5539.210191,-4145.153275,-8580.269578,814.226536
5539.210516,-1036.288319,-8733.488677,222.061783
5539.210840,1036.288319,-7967.393179,-444.123565
5539.211165,4071.132681,-7354.516781,-444.123565
5539.211489,5255.462188,-7431.126331,-888.247130
5539.211813,5921.647536,-8503.660028,-962.267725
5539.212138,3330.926739,-8580.269578,-962.267725
5539.212462,222.061783,-8810.098227,74.020594
5539.212787,-2368.659014,-9499.584175,-740.205942
5539.213111,-4367.215058,-10648.727422,-666.185348
5539.213435,-3997.112087,-9729.412825,74.020594
5539.213760,-3627.009116,-8350.440928,1110.308913
5539.214084,-814.226536,-8197.221829,740.205942
5539.214408,1998.556043,-6741.640382,-148.041188
5539.214733,4737.318029,-7737.564530,-296.082377
5539.215057,5477.523971,-7354.516781,-1110.308913
5539.215382,4885.359217,-8733.488677,-222.061783
5539.215706,2442.679609,-8120.612279,-814.226536
5539.216030,444.123565,-9346.365076,-592.164754
5539.216355,-3627.009116,-9346.365076,-1258.350101
5539.216679,-4737.318029,-9959.241474,-148.041188
5539.217004,-5921.647536,-9346.365076,74.020594
5539.217328,-2590.720797,-9576.193725,814.226536
5539.217652,-814.226536,-8273.831378,0.000000
5539.217977,1998.556043,-7354.516781,74.020594
5539.218301,3627.009116,-7124.688131,-370.102971
5539.218626,5033.400406,-6818.249932,-1554.432478
5539.218950,5181.441594,-8656.879127,-666.185348
5539.219274,2812.782580,-8273.831378,-1406.391290
5539.219599,0.000000,-9576.193725,370.102971
5539.219923,-2220.617826,-9806.022374,-740.205942
5539.220248,-3552.988522,-9576.193725,-296.082377
5539.220572,-4219.173869,-8963.317327,592.164754
5539.220896,-2220.617826,-8350.440928,222.061783
5539.221221,370.102971,-7814.174080,444.123565
5539.221545,2516.700203,-7584.345430,-296.082377
5539.221870,4663.297435,-8350.440928,-888.247130
5539.222194,4145.153275,-7660.954980,-740.205942
5539.222518,4071.132681,-8503.660028,-666.185348
5539.222843,1702.473667,-8886.707777,-666.185348
5539.223167,-1554.432478,-9729.412825,-592.164754
5539.223492,-2812.782580,-9499.584175,-296.082377
5539.223816,-3182.885551,-9882.631924,-370.102971
5539.224140,-2738.761985,-9499.584175,518.144159
5539.224465,-1406.391290,-8044.002729,814.226536
5539.224789,666.185348,-7814.174080,370.102971
5539.225114,2146.597232,-7354.516781,-592.164754
5539.225438,3923.091493,-8120.612279,-888.247130
5539.225762,4663.297435,-8044.002729,-1554.432478
5539.226087,3182.885551,-8810.098227,-1110.308913
5539.226411,222.061783,-8580.269578,-1480.411884
5539.226736,-1850.514855,-9422.974625,-666.185348
5539.227060,-2738.761985,-9729.412825,-370.102971
5539.227384,-3552.988522,-8886.707777,296.082377
5539.227709,-1258.350101,-9193.145976,222.061783
5539.228033,0.000000,-8197.221829,0.000000
5539.228358,2812.782580,-7967.393179,222.061783
5539.228682,5625.565159,-7201.297681,-1332.370696
5539.229006,5477.523971,-8580.269578,-592.164754
5539.229331,3923.091493,-7890.783629,-962.267725
5539.229655,2368.659014,-9116.536426,-888.247130
5539.229980,-666.185348,-9116.536426,-814.226536
5539.230304,-3330.926739,-9959.241474,0.000000
5539.230628,-4737.318029,-9422.974625,-444.123565
5539.230953,-3849.070898,-9116.536426,370.102971
5539.231277,-1924.535449,-8656.879127,0.000000
5539.231602,-888.247130,-7814.174080,222.061783
5539.231926,2368.659014,-7814.174080,-444.123565
5539.232250,3701.029710,-8120.612279,-222.061783
5539.232575,4367.215058,-8120.612279,-1406.391290
5539.232899,3478.967927,-7660.954980,-888.247130
5539.233224,1110.308913,-8963.317327,-888.247130
5539.233548,-666.185348,-9269.755526,-592.164754
5539.233872,-2516.700203,-9652.803275,-518.144159
5539.234197,-3849.070898,-9806.022374,-296.082377
5539.234521,-3108.864956,-8044.002729,370.102971
5539.234845,-1184.329507,-8197.221829,592.164754
5539.235170,1924.535449,-7967.393179,666.185348
5539.235494,3552.988522,-6665.030833,148.041188
5539.235819,5033.400406,-7431.126331,-296.082377
5539.236143,4441.235652,-7814.174080,-814.226536
5539.236467,2664.741391,-8886.707777,-592.164754
5539.236792,0.000000,-9116.536426,-740.205942
5539.237116,-2220.617826,-9499.584175,370.102971
5539.237441,-3849.070898,-9499.584175,0.000000
5539.237765,-4219.173869,-9269.755526,222.061783
5539.238089,-4293.194464,-7890.783629,222.061783
5539.238414,-1924.535449,-8427.050478,666.185348
5539.238738,740.205942,-7048.078582,-444.123565
5539.239063,5033.400406,-7584.345430,-296.082377
5539.239387,4663.297435,-7048.078582,-1332.370696
5539.239711,5107.421000,-8044.002729,-592.164754
5539.240036,2516.700203,-8656.879127,-592.164754
5539.240360,-296.082377,-9499.584175,666.185348
5539.240685,-1480.411884,-8580.269578,-1406.391290
5539.241009,-4515.256246,-10572.117872,0.000000
5539.241333,-3997.112087,-8350.440928,0.000000
5539.241658,-2664.741391,-7737.564530,814.226536
5539.241982,444.123565,-8273.831378,592.164754
5539.242307,3182.885551,-7277.907231,-74.020594
5539.242631,4959.379811,-7660.954980,0.000000
5539.242955,4885.359217,-8044.002729,-1332.370696
5539.243280,4367.215058,-8886.707777,-222.061783
5539.243604,2072.576638,-8350.440928,-962.267725
5539.243929,-814.226536,-9882.631924,0.000000
5539.244253,-2960.823768,-9039.926876,-666.185348
5539.244577,-4071.132681,-9652.803275,-222.061783
5539.244902,-4293.194464,-9039.926876,-296.082377
5539.245226,-2590.720797,-8963.317327,296.082377
5539.245551,0.000000,-7890.783629,-148.041188
5539.245875,2664.741391,-7201.297681,296.082377
5539.246199,4959.379811,-7584.345430,-1258.350101
5539.246524,5255.462188,-7890.783629,-1406.391290
5539.246848,5329.482782,-8886.707777,-814.226536
5539.247173,2368.659014,-8886.707777,-1850.514855
5539.247497,0.000000,-10265.679673,-888.247130
5539.247821,-2146.597232,-9729.412825,-370.102971
5539.248146,-2368.659014,-10189.070123,222.061783
5539.248470,-3404.947333,-9422.974625,0.000000
5539.248795,-1036.288319,-9116.536426,666.185348
5539.249119,962.267725,-7507.735880,-222.061783
5539.249443,4737.318029,-7737.564530,-740.205942
5539.249768,5403.503377,-7354.516781,-1554.432478
5539.250092,4737.318029,-8810.098227,-888.247130
5539.250417,3182.885551,-8427.050478,-888.247130
5539.250741,-518.144159,-9269.755526,-740.205942
5539.251065,-2812.782580,-9806.022374,-666.185348
5539.251390,-3627.009116,-9422.974625,-148.041188
5539.251714,-3849.070898,-9806.022374,0.000000
5539.252039,-2886.803174,-8810.098227,222.061783
5539.252363,0.000000,-8350.440928,296.082377
5539.252687,2146.597232,-8427.050478,-148.041188
5539.253012,3034.844362,-8044.002729,-962.267725
5539.253336,3627.009116,-7660.954980,-1776.494261
5539.253660,3182.885551,-8580.269578,-296.082377
5539.253985,1776.494261,-8120.612279,-888.247130
5539.254309,-222.061783,-9576.193725,222.061783
5539.254634,-2812.782580,-8427.050478,-1184.329507
5539.254958,-3701.029710,-9959.241474,74.020594
5539.255282,-3256.906145,-8503.660028,-222.061783
5539.255607,-1998.556043,-8503.660028,1036.288319
5539.255931,222.061783,-7584.345430,0.000000
5539.256256,2886.803174,-7584.345430,0.000000
5539.256580,3997.112087,-7814.174080,-370.102971
5539.256904,4663.297435,-8580.269578,-592.164754
5539.257229,3849.070898,-7814.174080,0.000000
5539.257553,592.164754,-8810.098227,-222.061783
5539.257878,-1554.432478,-9499.584175,-148.041188
5539.258202,-3701.029710,-9193.145976,-518.144159
5539.258526,-4219.173869,-9116.536426,74.020594
5539.258851,-2368.659014,-8886.707777,740.205942
5539.259175,-2368.659014,-8197.221829,-296.082377
5539.259500,444.123565,-8273.831378,370.102971
5539.259824,2738.761985,-7354.516781,-592.164754
5539.260148,3997.112087,-8044.002729,74.020594
5539.260473,4441.235652,-7660.954980,-1258.350101
5539.260797,3849.070898,-9576.193725,-666.185348
5539.261122,518.144159,-8810.098227,-1332.370696
5539.261446,-1776.494261,-9882.631924,296.082377
5539.261770,-2886.803174,-9576.193725,-814.226536
5539.262095,-4441.235652,-9806.022374,296.082377
5539.262419,-2960.823768,-8656.879127,0.000000
5539.262744,-444.123565,-8503.660028,1110.308913
5539.263068,1702.473667,-7507.735880,-222.061783
5539.263392,3923.091493,-7660.954980,-444.123565
5539.263717,5255.462188,-8044.002729,-1332.370696
5539.264041,4663.297435,-8350.440928,-666.185348
5539.264366,2072.576638,-8580.269578,-666.185348
5539.264690,0.000000,-9729.412825,-296.082377
5539.265014,-2812.782580,-9882.631924,-666.185348
5539.265339,-4589.276840,-10112.460574,-814.226536
5539.265663,-4737.318029,-9116.536426,444.123565
5539.265988,-2590.720797,-8886.707777,296.082377
5539.266312,-370.102971,-8197.221829,-148.041188
5539.266636,3034.844362,-7660.954980,-518.144159
5539.266961,3404.947333,-7277.907231,-814.226536
5539.267285,4441.235652,-7814.174080,-1480.411884
5539.267610,4219.173869,-8273.831378,-1258.350101
5539.267934,2664.741391,-9039.926876,-1258.350101
5539.268258,0.000000,-9882.631924,-518.144159
5539.268583,-2146.597232,-9806.022374,-518.144159
5539.268907,-3404.947333,-9499.584175,-370.102971
5539.269232,-2738.761985,-9193.145976,222.061783
5539.269556,-1554.432478,-8886.707777,518.144159
5539.269880,370.102971,-7890.783629,148.041188
5539.270205,2812.782580,-7354.516781,-370.102971
5539.270529,5181.441594,-8580.269578,-592.164754
5539.270854,4737.318029,-7890.783629,-1036.288319
5539.271178,3923.091493,-7814.174080,-296.082377
5539.271502,1184.329507,-8503.660028,-1332.370696
5539.271827,-814.226536,-9882.631924,-592.164754
5539.272151,-2664.741391,-9652.803275,-740.205942
5539.272476,-4071.132681,-10495.508323,444.123565
5539.272800,-4293.194464,-8273.831378,370.102971
5539.273124,-1554.432478,-8810.098227,1036.288319
5539.273449,814.226536,-6818.249932,-370.102971
5539.273773,3627.009116,-7201.297681,74.020594
5539.274097,4293.194464,-7124.688131,-1702.473667
5539.274422,4959.379811,-8580.269578,-814.226536
5539.274746,3404.947333,-8273.831378,-1258.350101
5539.275071,3034.844362,-9422.974625,0.000000
5539.275395,-1554.432478,-9346.365076,-666.185348
5539.275719,-2886.803174,-9499.584175,0.000000
5539.276044,-4219.173869,-9882.631924,666.185348
5539.276368,-3701.029710,-7737.564530,666.185348
5539.276693,74.020594,-8886.707777,1036.288319
5539.277017,2442.679609,-6894.859482,-444.123565
5539.277341,4293.194464,-8427.050478,0.000000
5539.277666,4959.379811,-6818.249932,-1480.411884
5539.277990,4959.379811,-9193.145976,148.041188
5539.278315,2590.720797,-7584.345430,-1110.308913
5539.278639,444.123565,-10035.851024,-222.061783
5539.278963,-2516.700203,-8886.707777,-962.267725
5539.279288,-5033.400406,-9882.631924,666.185348
5539.279612,-4737.318029,-8656.879127,296.082377
5539.279937,-2368.659014,-9269.755526,888.247130
5539.280261,370.102971,-8044.002729,296.082377
5539.280585,592.164754,-7507.735880,-592.164754
5539.280910,2960.823768,-7354.516781,-1554.432478
5539.281234,3404.947333,-8197.221829,0.000000
5539.281559,3627.009116,-7431.126331,-1110.308913
5539.281883,2590.720797,-9422.974625,-74.020594
5539.282207,-296.082377,-8886.707777,-1258.350101
5539.282532,-2072.576638,-10189.070123,-222.061783
5539.282856,-2960.823768,-9116.536426,-740.205942
5539.283181,-3701.029710,-9576.193725,1258.350101
5539.283505,-2146.597232,-8197.221829,444.123565
5539.283829,148.041188,-7354.516781,0.000000
5539.284154,2960.823768,-7431.126331,-740.205942
5539.284478,4441.235652,-7890.783629,-222.061783
5539.284803,5477.523971,-8044.002729,-1554.432478
5539.285127,3478.967927,-8886.707777,-740.205942
5539.285451,1184.329507,-9346.365076,-444.123565
5539.285776,-1406.391290,-9652.803275,-444.123565
5539.286100,-3849.070898,-9806.022374,0.000000
5539.286425,-4663.297435,-9039.926876,0.000000
5539.286749,-3923.091493,-8350.440928,1110.308913
5539.287073,-2368.659014,-7660.954980,74.020594
5539.287398,444.123565,-7890.783629,-148.041188
5539.287722,2590.720797,-7201.297681,-1184.329507
5539.288047,4737.318029,-8503.660028,-222.061783
5539.288371,4959.379811,-7201.297681,-1554.432478
5539.288695,3330.926739,-9116.536426,-962.267725
5539.289020,1406.391290,-8810.098227,-1184.329507
5539.289344,-1406.391290,-9269.755526,-518.144159
5539.289669,-2960.823768,-9806.022374,0.000000
5539.289993,-3256.906145,-9882.631924,222.061783
5539.290317,-2960.823768,-8503.660028,0.000000
5539.290642,-888.247130,-8503.660028,0.000000
5539.290966,2146.597232,-7124.688131,222.061783
5539.291291,3552.988522,-8503.660028,-666.185348
5539.291615,4441.235652,-7354.516781,-666.185348
5539.291939,5033.400406,-8427.050478,-444.123565
5539.292264,2220.617826,-8733.488677,-814.226536
5539.292588,370.102971,-9499.584175,-666.185348
5539.292912,-1998.556043,-9346.365076,-296.082377
5539.293237,-3108.864956,-10035.851024,-74.020594
5539.293561,-3775.050304,-8886.707777,148.041188
5539.293886,-1702.473667,-8580.269578,888.247130
5539.294210,296.082377,-7660.954980,-222.061783
5539.294534,2146.597232,-7584.345430,-296.082377
5539.294859,4219.173869,-8197.221829,-1258.350101
5539.295183,4145.153275,-7507.735880,0.000000
5539.295508,4219.173869,-7814.174080,-1554.432478
5539.295832,1776.494261,-9576.193725,-592.164754
5539.296156,1258.350101,-8656.879127,0.000000
5539.296481,-2146.597232,-9346.365076,-444.123565
5539.296805,-2960.823768,-9806.022374,0.000000
5539.297130,-2812.782580,-9269.755526,148.041188
5539.297454,-1628.453072,-8350.440928,222.061783
5539.297778,222.061783,-7890.783629,74.020594
5539.298103,3627.009116,-7354.516781,-444.123565
5539.298427,4219.173869,-7814.174080,-148.041188
5539.298752,4737.318029,-8197.221829,-1184.329507
5539.299076,3182.885551,-8886.707777,-814.226536
5539.299400,1110.308913,-8656.879127,-370.102971
5539.299725,-1480.411884,-9422.974625,0.000000
5539.300049,-3478.967927,-9959.241474,0.000000
5539.300374,-3627.009116,-8810.098227,0.000000
5539.300698,-3182.885551,-8120.612279,370.102971
5539.301022,-1332.370696,-8580.269578,592.164754
5539.301347,518.144159,-7737.564530,-296.082377
5539.301671,3256.906145,-7814.174080,0.000000
5539.301996,4663.297435,-7584.345430,-1258.350101
5539.302320,5033.400406,-8733.488677,-592.164754
5539.302644,1998.556043,-8273.831378,-1110.308913
5539.302969,2368.659014,-9499.584175,-518.144159
5539.303293,-888.247130,-9652.803275,-814.226536
5539.303618,-3627.009116,-9729.412825,0.000000
5539.303942,-3256.906145,-9652.803275,518.144159
5539.304266,-3034.844362,-8733.488677,444.123565
5539.304591,-1184.329507,-7737.564530,518.144159
5539.304915,2368.659014,-7124.688131,296.082377
5539.305240,3997.112087,-8427.050478,-148.041188
5539.305564,3849.070898,-8350.440928,-2220.617826
5539.305888,4293.194464,-9269.755526,-1258.350101
5539.306213,1850.514855,-9193.145976,-814.226536
5539.306537,-1258.350101,-9269.755526,-962.267725
5539.306862,-3478.967927,-9652.803275,0.000000
5539.307186,-4441.235652,-8963.317327,-296.082377
5539.307510,-4293.194464,-9422.974625,518.144159
5539.307835,-2738.761985,-7814.174080,-222.061783
5539.308159,148.041188,-8427.050478,666.185348
5539.308484,1850.514855,-6665.030833,-888.247130
5539.308808,3627.009116,-8044.002729,-296.082377
5539.309132,4589.276840,-7507.735880,-1628.453072
5539.309457,2960.823768,-8886.707777,-962.267725
5539.309781,1850.514855,-8656.879127,-1332.370696
5539.310106,-888.247130,-9652.803275,-518.144159
5539.310430,-3108.864956,-9729.412825,-740.205942
5539.310754,-3627.009116,-10035.851024,444.123565
5539.311079,-2146.597232,-8044.002729,444.123565
5539.311403,-444.123565,-8656.879127,0.000000
5539.311728,666.185348,-7660.954980,74.020594
5539.312052,3849.070898,-7737.564530,-296.082377
5539.312376,4367.215058,-8120.612279,-370.102971
5539.312701,4663.297435,-8427.050478,-814.226536
5539.313025,3627.009116,-9346.365076,-888.247130
5539.313349,0.000000,-8656.879127,-444.123565
5539.313674,-2294.638420,-9882.631924,0.000000
5539.313998,-2738.761985,-9346.365076,0.000000
5539.314323,-2368.659014,-9346.365076,518.144159
5539.314647,-3404.947333,-7967.393179,0.000000
5539.314971,0.000000,-8273.831378,444.123565
5539.315296,1850.514855,-7124.688131,-148.041188
5539.315620,4737.318029,-8350.440928,-444.123565
5539.315945,4885.359217,-7124.688131,-1850.514855
5539.316269,4589.276840,-8503.660028,-592.164754
5539.316593,2368.659014,-8197.221829,-1258.350101
5539.316918,148.041188,-9806.022374,-518.144159
5539.317242,-2294.638420,-9806.022374,-666.185348
5539.317567,-2664.741391,-10035.851024,-444.123565
5539.317891,-2368.659014,-9346.365076,0.000000
5539.318215,-1924.535449,-8963.317327,148.041188
5539.318540,1110.308913,-7584.345430,0.000000
5539.318864,2590.720797,-7048.078582,0.000000
5539.319189,4737.318029,-8273.831378,0.000000
5539.319513,4959.379811,-7814.174080,-962.267725
5539.319837,3701.029710,-8886.707777,-962.267725
5539.320162,1702.473667,-8963.317327,-888.247130
5539.320486,-1554.432478,-9346.365076,-592.164754
5539.320811,-3256.906145,-9882.631924,0.000000
5539.321135,-4811.338623,-8963.317327,-370.102971
5539.321459,-3997.112087,-9116.536426,962.267725
5539.321784,-2442.679609,-7967.393179,296.082377
5539.322108,0.000000,-7201.297681,74.020594
5539.322433,2812.782580,-7431.126331,-592.164754
5539.322757,4071.132681,-7507.735880,-1110.308913
5539.323081,4367.215058,-8427.050478,-1110.308913
5539.323406,3552.988522,-7814.174080,-888.247130
5539.323730,1850.514855,-9422.974625,-740.205942
5539.324055,-1332.370696,-9806.022374,-444.123565
5539.324379,-4663.297435,-9882.631924,-666.185348
5539.324703,-3923.091493,-9576.193725,370.102971
5539.325028,-3849.070898,-8733.488677,148.041188
5539.325352,-1332.370696,-8350.440928,0.000000
5539.325677,1110.308913,-7354.516781,148.041188
5539.326001,3775.050304,-7048.078582,-444.123565
5539.326325,5255.462188,-7967.393179,0.000000
5539.326650,5329.482782,-7814.174080,-962.267725
5539.326974,2294.638420,-9422.974625,-296.082377
5539.327299,-296.082377,-8427.050478,-962.267725
5539.327623,-2812.782580,-10725.336972,-148.041188
5539.327947,-4737.318029,-9422.974625,-814.226536
5539.328272,-5921.647536,-9039.926876,888.247130
5539.328596,-4145.153275,-7967.393179,592.164754
5539.328921,-2590.720797,-8197.221829,1258.350101
5539.329245,2368.659014,-7507.735880,-222.061783
5539.329569,3923.091493,-7507.735880,-1184.329507
5539.329894,3849.070898,-8120.612279,-1184.329507
5539.330218,4293.194464,-8273.831378,-1480.411884
5539.330543,2886.803174,-8273.831378,-1554.432478
5539.330867,666.185348,-9576.193725,-370.102971
5539.331191,-1850.514855,-9269.755526,-518.144159
5539.331516,-3627.009116,-9959.241474,74.020594
5539.331840,-3108.864956,-9039.926876,0.000000
5539.332165,-1776.494261,-8963.317327,1036.288319
5539.332489,518.144159,-8044.002729,-148.041188
5539.332813,2812.782580,-7277.907231,0.000000
5539.333138,4885.359217,-8044.002729,-888.247130
5539.333462,5033.400406,-7890.783629,-1110.308913
5539.333786,4663.297435,-8427.050478,-962.267725
5539.334111,1332.370696,-9039.926876,-740.205942
5539.334435,-296.082377,-9806.022374,-592.164754
5539.334760,-2516.700203,-10035.851024,-370.102971
5539.335084,-4219.173869,-9346.365076,296.082377
5539.335408,-3478.967927,-8580.269578,444.123565
5539.335733,-1332.370696,-8273.831378,296.082377
5539.336057,1406.391290,-7660.954980,148.041188
5539.336382,3108.864956,-7124.688131,-740.205942
5539.336706,4145.153275,-8120.612279,-1332.370696
5539.337030,4219.173869,-8273.831378,-1480.411884
5539.337355,3034.844362,-8963.317327,-444.123565
5539.337679,1628.453072,-8580.269578,-296.082377
5539.338004,-888.247130,-9959.241474,-296.082377
5539.338328,-2368.659014,-9652.803275,-1110.308913
5539.338652,-2738.761985,-9729.412825,-148.041188
5539.338977,-2812.782580,-8656.879127,74.020594
5539.339301,370.102971,-8580.269578,1406.391290
5539.339626,2072.576638,-7124.688131,-222.061783
5539.339950,4811.338623,-7967.393179,-1480.411884
5539.340274,5847.626942,-8273.831378,-962.267725
5539.340599,4219.173869,-7277.907231,-1110.308913
5539.340923,3108.864956,-9193.145976,-1184.329507
5539.341248,-740.205942,-9346.365076,-666.185348
5539.341572,-2960.823768,-10418.898773,-222.061783
5539.341896,-4145.153275,-9652.803275,74.020594
5539.342221,-4589.276840,-9499.584175,666.185348
5539.342545,-2516.700203,-8656.879127,296.082377
5539.342870,-370.102971,-7584.345430,296.082377
5539.343194,2072.576638,-7814.174080,-518.144159
5539.343518,4959.379811,-8120.612279,-1110.308913
5539.343843,4811.338623,-7354.516781,-1776.494261
5539.344167,3701.029710,-8810.098227,0.000000
5539.344492,2294.638420,-8656.879127,-1258.350101
5539.344816,296.082377,-10265.679673,-370.102971
5539.345140,-2516.700203,-9882.631924,-1184.329507
5539.345465,-3701.029710,-9576.193725,0.000000
5539.345789,-4737.318029,-9116.536426,370.102971
5539.346114,-2738.761985,-8427.050478,814.226536
5539.346438,-222.061783,-7584.345430,0.000000
5539.346762,2368.659014,-7584.345430,0.000000
5539.347087,4145.153275,-7890.783629,-1110.308913
5539.347411,4441.235652,-7507.735880,-148.041188
5539.347736,3552.988522,-8350.440928,-666.185348
5539.348060,1110.308913,-9193.145976,-592.164754
5539.348384,-962.267725,-9882.631924,74.020594
5539.348709,-3923.091493,-9499.584175,-962.267725
5539.349033,-4515.256246,-10035.851024,814.226536
5539.349358,-4145.153275,-8044.002729,0.000000
5539.349682,-2664.741391,-8503.660028,1258.350101
5539.350006,518.144159,-6665.030833,74.020594
5539.350331,3182.885551,-7814.174080,0.000000
5539.350655,3923.091493,-7354.516781,-666.185348
5539.350980,4737.318029,-7354.516781,-370.102971
5539.351304,3997.112087,-8503.660028,-1036.288319
5539.351628,1480.411884,-9652.803275,-518.144159
5539.351953,-1110.308913,-9806.022374,-1110.308913
5539.352277,-3775.050304,-10035.851024,-370.102971
5539.352602,-3997.112087,-9806.022374,814.226536
5539.352926,-3478.967927,-8197.221829,296.082377
5539.353250,-1184.329507,-8197.221829,592.164754
5539.353575,2368.659014,-7354.516781,296.082377
5539.353899,4145.153275,-7584.345430,-740.205942
5539.354223,3849.070898,-6971.469032,-740.205942
5539.354548,3923.091493,-8044.002729,666.185348
5539.354872,2516.700203,-8427.050478,-740.205942
5539.355197,0.000000,-9959.241474,-296.082377
5539.355521,-2294.638420,-9422.974625,-592.164754
5539.355845,-3330.926739,-9806.022374,296.082377
5539.356170,-2590.720797,-8580.269578,-222.061783
5539.356494,-814.226536,-8427.050478,444.123565
5539.356819,444.123565,-7507.735880,444.123565
5539.357143,2590.720797,-8273.831378,-444.123565
5539.357467,3923.091493,-7277.907231,-1628.453072
5539.357792,3849.070898,-8350.440928,-740.205942
5539.358116,2220.617826,-8120.612279,-1850.514855
5539.358441,518.144159,-8886.707777,-1332.370696
5539.358765,-74.020594,-9806.022374,-666.185348
5539.359089,-2664.741391,-9806.022374,-740.205942
5539.359414,-3404.947333,-9959.241474,-666.185348
5539.359738,-2590.720797,-9116.536426,-518.144159
5539.360063,-148.041188,-9116.536426,740.205942
5539.360387,1628.453072,-7814.174080,-518.144159
5539.360711,4589.276840,-8120.612279,-518.144159
5539.361036,4367.215058,-7048.078582,-962.267725
5539.361360,4737.318029,-8886.707777,-888.247130
5539.361685,2960.823768,-8963.317327,-1406.391290
5539.362009,-222.061783,-9193.145976,-740.205942
5539.362333,-1702.473667,-9346.365076,0.000000
5539.362658,-2738.761985,-9039.926876,-1036.288319
5539.362982,-3849.070898,-9729.412825,592.164754
5539.363307,-2886.803174,-7814.174080,74.020594
5539.363631,-1258.350101,-7890.783629,74.020594
5539.363955,1776.494261,-7737.564530,0.000000
5539.364280,4737.318029,-7584.345430,-148.041188
5539.364604,5477.523971,-7660.954980,-888.247130
5539.364929,3997.112087,-8886.707777,-1110.308913
5539.365253,2294.638420,-9346.365076,-1332.370696
5539.365577,-592.164754,-9729.412825,-444.123565
5539.365902,-2812.782580,-10878.556072,-222.061783
5539.366226,-3552.988522,-9806.022374,148.041188
5539.366551,-3330.926739,-8810.098227,222.061783
5539.366875,-2072.576638,-8886.707777,592.164754
5539.367199,814.226536,-7354.516781,0.000000
5539.367524,2294.638420,-7277.907231,1628.453072
5539.367848,5403.503377,-7277.907231,-592.164754
5539.368173,4219.173869,-7967.393179,-666.185348
5539.368497,4145.153275,-8656.879127,-666.185348
5539.368821,1036.288319,-7890.783629,148.041188
5539.369146,0.000000,-9193.145976,0.000000
5539.369470,-4071.132681,-9039.926876,-370.102971
5539.369795,-4959.379811,-9576.193725,0.000000
5539.370119,-4737.318029,-8810.098227,74.020594
5539.370443,-3182.885551,-8197.221829,592.164754
5539.370768,296.082377,-7354.516781,888.247130
5539.371092,2072.576638,-7048.078582,0.000000
5539.371417,4219.173869,-7967.393179,-740.205942
5539.371741,4145.153275,-7890.783629,-962.267725
5539.372065,3627.009116,-8580.269578,-1480.411884
5539.372390,740.205942,-9729.412825,-740.205942
5539.372714,-1850.514855,-9576.193725,-814.226536
5539.373039,-3552.988522,-10495.508323,444.123565
5539.373363,-3849.070898,-9193.145976,-74.020594
5539.373687,-3182.885551,-8733.488677,0.000000
5539.374012,-1702.473667,-7584.345430,296.082377
5539.374336,1776.494261,-7584.345430,370.102971
5539.374660,3701.029710,-7584.345430,148.041188
5539.374985,4737.318029,-7431.126331,-518.144159
5539.375309,4071.132681,-7967.393179,-962.267725
5539.375634,2886.803174,-8503.660028,-888.247130
5539.375958,0.000000,-8886.707777,-666.185348
5539.376282,-2516.700203,-9882.631924,-1332.370696
5539.376607,-3404.947333,-10112.460574,148.041188
5539.376931,-4589.276840,-9039.926876,-370.102971
5539.377256,-3034.844362,-9499.584175,0.000000
5539.377580,-740.205942,-7967.393179,592.164754
5539.377904,814.226536,-7507.735880,-148.041188
5539.378229,4071.132681,-7814.174080,-444.123565
5539.378553,4441.235652,-7507.735880,-1406.391290
5539.378878,3404.947333,-8580.269578,-1628.453072
5539.379202,2738.761985,-9039.926876,-1554.432478
5539.379526,1258.350101,-8963.317327,-1184.329507
5539.379851,-2294.638420,-9882.631924,-740.205942
5539.380175,-2072.576638,-9576.193725,0.000000
5539.380500,-2368.659014,-9269.755526,-148.041188
5539.380824,-1258.350101,-9269.755526,518.144159
5539.381148,1924.535449,-7354.516781,-222.061783
5539.381473,3701.029710,-6511.811733,666.185348
5539.381797,5625.565159,-8273.831378,-666.185348
5539.382122,5403.503377,-7814.174080,-1776.494261
5539.382446,3404.947333,-8810.098227,-814.226536
5539.382770,222.061783,-8044.002729,-740.205942
5539.383095,-1850.514855,-9729.412825,-222.061783
5539.383419,-2442.679609,-9959.241474,-962.267725
5539.383744,-3997.112087,-9652.803275,-444.123565
5539.384068,-3627.009116,-8733.488677,0.000000
5539.384392,-1998.556043,-8273.831378,518.144159
5539.384717,814.226536,-7354.516781,0.000000
5539.385041,3923.091493,-8120.612279,-296.082377
5539.385366,4663.297435,-7584.345430,-814.226536
5539.385690,4737.318029,-8044.002729,0.000000
5539.386014,3182.885551,-8120.612279,-1406.391290
5539.386339,1628.453072,-9806.022374,0.000000
5539.386663,-740.205942,-9346.365076,-814.226536
5539.386988,-3478.967927,-9882.631924,-444.123565
5539.387312,-3108.864956,-8886.707777,-370.102971
5539.387636,-2812.782580,-8503.660028,222.061783
5539.387961,-444.123565,-7737.564530,592.164754
5539.388285,1036.288319,-7277.907231,296.082377
5539.388610,4441.235652,-8044.002729,-518.144159
5539.388934,5551.544565,-7967.393179,-666.185348
5539.389258,4885.359217,-8427.050478,-814.226536
5539.389583,3404.947333,-9652.803275,-666.185348
5539.389907,-222.061783,-9499.584175,-592.164754
5539.390232,-3108.864956,-9882.631924,-296.082377
5539.390556,-5181.441594,-9346.365076,0.000000
5539.390880,-5921.647536,-9269.755526,666.185348
5539.391205,-4737.318029,-7660.954980,296.082377
5539.391529,-1998.556043,-7967.393179,370.102971
5539.391854,962.267725,-6665.030833,-592.164754
5539.392178,4663.297435,-7890.783629,0.000000
5539.392502,5847.626942,-7124.688131,-1258.350101
5539.392827,5921.647536,-8963.317327,-222.061783
5539.393151,2812.782580,-8963.317327,-1332.370696
5539.393476,444.123565,-9806.022374,-222.061783
5539.393800,-3034.844362,-9729.412825,-666.185348
5539.394124,-3701.029710,-10035.851024,666.185348
5539.394449,-4737.318029,-8963.317327,222.061783
5539.394773,-3330.926739,-8273.831378,962.267725
5539.395098,-2368.659014,-8197.221829,-370.102971
5539.395422,2368.659014,-7507.735880,-740.205942
5539.395746,4811.338623,-8273.831378,666.185348
5539.396071,5847.626942,-7048.078582,-1554.432478
5539.396395,5403.503377,-9729.412825,0.000000
5539.396719,2738.761985,-8503.660028,-814.226536
5539.397044,0.000000,-10725.336972,0.000000
5539.397368,-3182.885551,-9269.755526,-1110.308913
5539.397693,-5181.441594,-9882.631924,740.205942
5539.398017,-5477.523971,-8503.660028,666.185348
5539.398341,-3404.947333,-7890.783629,-148.041188
5539.398666,0.000000,-8273.831378,-296.082377
5539.398990,2368.659014,-7354.516781,-518.144159
5539.399315,4589.276840,-7354.516781,-1184.329507
5539.399639,4811.338623,-7814.174080,-1258.350101
5539.399963,4293.194464,-8580.269578,-222.061783
5539.400288,1998.556043,-8886.707777,-1332.370696
5539.400612,-222.061783,-10572.117872,-666.185348
5539.400936,-2738.761985,-9652.803275,-740.205942
5539.401261,-3404.947333,-9039.926876,370.102971
5539.401585,-2886.803174,-8656.879127,74.020594
