#time,accel_x,accel_y,accel_z
4194.843035,518.144159,-9039.926876,-666.185348
4194.843359,444.123565,-8503.660028,-222.061783
4194.843683,370.102971,-8810.098227,-444.123565
4194.844007,370.102971,-8580.269578,-296.082377
4194.844331,444.123565,-8656.879127,-296.082377
4194.844656,518.144159,-8810.098227,-592.164754
4194.844980,518.144159,-8656.879127,-370.102971
4194.845304,370.102971,-8503.660028,-370.102971
4194.845628,370.102971,-8733.488677,-444.123565
4194.845952,888.247130,-9116.536426,-740.205942
4194.846276,666.185348,-8273.831378,-222.061783
4194.846600,296.082377,-8963.317327,-666.185348
4194.846925,444.123565,-8503.660028,-518.144159
4194.847249,444.123565,-9806.022374,0.000000
4194.847573,888.247130,-8580.269578,-518.144159
4194.847897,222.061783,-8656.879127,0.000000
4194.848221,518.144159,-8120.612279,-370.102971
4194.848545,370.102971,-8580.269578,-444.123565
4194.848869,444.123565,-8503.660028,-518.144159
4194.849193,444.123565,-8810.098227,-370.102971
4194.849518,444.123565,-8656.879127,-222.061783
4194.849842,370.102971,-8580.269578,0.000000
4194.850166,740.205942,-9116.536426,-592.164754
4194.850490,592.164754,-8810.098227,-592.164754
4194.850814,444.123565,-8733.488677,-370.102971
4194.851138,222.061783,-8580.269578,0.000000
4194.851462,518.144159,-9193.145976,-148.041188
4194.851787,296.082377,-8733.488677,-148.041188
4194.852111,518.144159,-8580.269578,-148.041188
4194.852435,296.082377,-8427.050478,-296.082377
4194.852759,444.123565,-8733.488677,-444.123565
4194.853083,222.061783,-8427.050478,-444.123565
4194.853407,296.082377,-8810.098227,-370.102971
4194.853731,296.082377,-8427.050478,-592.164754
4194.854056,296.082377,-8580.269578,-592.164754
4194.854380,296.082377,-8656.879127,0.000000
4194.854704,74.020594,-8656.879127,-296.082377
4194.855028,370.102971,-8273.831378,0.000000
4194.855352,370.102971,-8656.879127,-296.082377
4194.855676,296.082377,-8810.098227,-296.082377
4194.856000,370.102971,-8350.440928,-444.123565
4194.856324,296.082377,-8733.488677,-592.164754
4194.856649,370.102971,-8580.269578,-74.020594
4194.856973,222.061783,-8886.707777,-296.082377
4194.857297,148.041188,-8580.269578,0.000000
4194.857621,148.041188,-8503.660028,-370.102971
4194.857945,-592.164754,-8656.879127,-296.082377
4194.858269,-592.164754,-8810.098227,0.000000
4194.858593,-1406.391290,-9039.926876,-962.267725
4194.858918,-1628.453072,-9116.536426,-666.185348
4194.859242,-1850.514855,-7967.393179,-222.061783
4194.859566,-1924.535449,-8656.879127,-148.041188
4194.859890,-962.267725,-8503.660028,-518.144159
4194.860214,-592.164754,-8350.440928,0.000000
4194.860538,-666.185348,-8427.050478,-370.102971
4194.860862,-1480.411884,-8580.269578,-518.144159
4194.861186,-1776.494261,-8733.488677,-296.082377
4194.861511,-2442.679609,-9269.755526,-666.185348
4194.861835,-2960.823768,-8656.879127,-296.082377
4194.862159,-3404.947333,-8656.879127,-370.102971
4194.862483,-3627.009116,-8733.488677,-370.102971
4194.862807,-3701.029710,-9346.365076,-296.082377
4194.863131,-2812.782580,-8963.317327,-592.164754
4194.863455,-2294.638420,-8503.660028,-888.247130
4194.863780,-1776.494261,-8580.269578,-592.164754
4194.864104,-1850.514855,-8733.488677,-370.102971
4194.864428,-1924.535449,-8810.098227,-444.123565
4194.864752,-2664.741391,-8886.707777,-592.164754
4194.865076,-3034.844362,-8886.707777,-592.164754
4194.865400,-3256.906145,-9116.536426,-148.041188
4194.865724,-3330.926739,-9269.755526,0.000000
4194.866048,-3849.070898,-9116.536426,-148.041188
4194.866373,-3552.988522,-8886.707777,0.000000
4194.866697,-2738.761985,-8580.269578,-148.041188
4194.867021,-2146.597232,-9116.536426,-592.164754
4194.867345,-1554.432478,-8350.440928,-296.082377
4194.867669,-1924.535449,-8580.269578,0.000000
4194.867993,-1258.350101,-8580.269578,-740.205942
4194.868317,-2146.597232,-9116.536426,-444.123565
4194.868642,-2516.700203,-8580.269578,0.000000
4194.868966,-3108.864956,-8580.269578,74.020594
4194.869290,-3034.844362,-8656.879127,-222.061783
4194.869614,-1480.411884,-8963.317327,0.000000
4194.869938,-2220.617826,-8963.317327,-1184.329507
4194.870262,-1924.535449,-8810.098227,-888.247130
4194.870586,-2146.597232,-8120.612279,0.000000
4194.870911,-1924.535449,-8273.831378,-518.144159
4194.871235,-1406.391290,-7890.783629,-296.082377
4194.871559,-1776.494261,-7737.564530,-740.205942
4194.871883,-2368.659014,-8197.221829,-370.102971
4194.872207,-2442.679609,-7967.393179,-592.164754
4194.872531,-2664.741391,-8503.660028,74.020594
4194.872855,-1628.453072,-8503.660028,-296.082377
4194.873179,-1850.514855,-7814.174080,-444.123565
4194.873504,-888.247130,-8427.050478,-296.082377
4194.873828,-222.061783,-7890.783629,-666.185348
4194.874152,370.102971,-8580.269578,222.061783
4194.874476,814.226536,-8733.488677,-1110.308913
4194.874800,888.247130,-8350.440928,0.000000
4194.875124,0.000000,-8273.831378,-444.123565
4194.875448,-296.082377,-8886.707777,-296.082377
4194.875773,-148.041188,-8273.831378,-370.102971
4194.876097,0.000000,-8656.879127,-296.082377
4194.876421,444.123565,-8733.488677,-296.082377
4194.876745,740.205942,-8427.050478,-518.144159
4194.877069,740.205942,-9193.145976,74.020594
4194.877393,1702.473667,-8273.831378,-666.185348
4194.877717,1998.556043,-8810.098227,-518.144159
4194.878041,1406.391290,-9193.145976,-888.247130
4194.878366,0.000000,-9346.365076,0.000000
4194.878690,-814.226536,-9116.536426,-518.144159
4194.879014,-2294.638420,-9576.193725,-148.041188
4194.879338,-3256.906145,-8733.488677,-296.082377
4194.879662,-3627.009116,-9269.755526,-148.041188
4194.879986,-4441.235652,-8197.221829,-518.144159
4194.880310,-3627.009116,-8197.221829,-740.205942
4194.880635,-2146.597232,-8963.317327,-296.082377
4194.880959,-1776.494261,-7890.783629,-592.164754
4194.881283,-1258.350101,-8733.488677,0.000000
4194.881607,-962.267725,-8350.440928,-962.267725
4194.881931,-666.185348,-8886.707777,-222.061783
4194.882255,-1258.350101,-9039.926876,-518.144159
4194.882579,-2442.679609,-9116.536426,-592.164754
4194.882904,-2368.659014,-8580.269578,74.020594
4194.883228,-2294.638420,-8963.317327,-444.123565
4194.883552,-2368.659014,-9499.584175,-518.144159
4194.883876,-1184.329507,-8503.660028,-666.185348
4194.884200,-740.205942,-8580.269578,-296.082377
4194.884524,0.000000,-8350.440928,-666.185348
4194.884848,74.020594,-8656.879127,-814.226536
4194.885172,-592.164754,-8886.707777,-370.102971
4194.885497,-2146.597232,-7890.783629,-962.267725
4194.885821,-2960.823768,-9116.536426,0.000000
4194.886145,-3849.070898,-8427.050478,0.000000
4194.886469,-4589.276840,-9039.926876,222.061783
4194.886793,-4811.338623,-8427.050478,0.000000
4194.887117,-4737.318029,-8810.098227,296.082377
4194.887441,-3552.988522,-8733.488677,-444.123565
4194.887766,-1628.453072,-8810.098227,148.041188
4194.888090,-888.247130,-7814.174080,0.000000
4194.888414,0.000000,-8963.317327,444.123565
4194.888738,-888.247130,-7507.735880,-962.267725
4194.889062,-1480.411884,-9652.803275,740.205942
4194.889386,-1554.432478,-8580.269578,0.000000
4194.889710,-2590.720797,-10035.851024,1036.288319
4194.890034,-3997.112087,-8733.488677,0.000000
4194.890359,-4959.379811,-9269.755526,148.041188
4194.890683,-4959.379811,-8963.317327,-666.185348
4194.891007,-4589.276840,-9346.365076,-592.164754
4194.891331,-2516.700203,-7967.393179,-592.164754
4194.891655,-1850.514855,-7737.564530,-666.185348
4194.891979,-888.247130,-7277.907231,-370.102971
4194.892303,814.226536,-7507.735880,148.041188
4194.892628,2960.823768,-8197.221829,-222.061783
4194.892952,3256.906145,-8044.002729,-148.041188
4194.893276,4293.194464,-7967.393179,74.020594
4194.893600,2590.720797,-8580.269578,74.020594
4194.893924,888.247130,-8810.098227,-518.144159
4194.894248,-222.061783,-9116.536426,-222.061783
4194.894572,-2442.679609,-8580.269578,-1406.391290
4194.894897,-4441.235652,-9193.145976,-1554.432478
4194.895221,-6365.771101,-8273.831378,-2146.597232
4194.895545,-5551.544565,-8963.317327,-888.247130
4194.895869,-5477.523971,-7584.345430,-2146.597232
4194.896193,-2960.823768,-8733.488677,-592.164754
4194.896517,-296.082377,-7124.688131,-814.226536
4194.896841,1850.514855,-8197.221829,222.061783
4194.897165,5181.441594,-8427.050478,-222.061783
4194.897490,5329.482782,-9269.755526,222.061783
4194.897814,4441.235652,-9959.241474,-888.247130
4194.898138,1776.494261,-10265.679673,-814.226536
4194.898462,-1332.370696,-10265.679673,-888.247130
4194.898786,-5699.585753,-9959.241474,-592.164754
4194.899110,-6809.894666,-9652.803275,-962.267725
4194.899434,-7698.141797,-8963.317327,-1110.308913
4194.899759,-7105.977043,-8044.002729,-888.247130
4194.900083,-4145.153275,-7507.735880,-444.123565
4194.900407,592.164754,-7431.126331,-888.247130
4194.900731,4663.297435,-7431.126331,-444.123565
4194.901055,7328.038826,-7354.516781,0.000000
4194.901379,7772.162391,-8810.098227,-666.185348
4194.901703,5403.503377,-9422.974625,-1036.288319
4194.902027,1406.391290,-10648.727422,-666.185348
4194.902352,-2738.761985,-10801.946522,-1110.308913
4194.902676,-9104.533087,-11797.870669,-962.267725
4194.903000,-13397.727550,-10189.070123,-814.226536
4194.903324,-13175.665768,-9116.536426,-666.185348
4194.903648,-11473.192101,-8197.221829,0.000000
4194.903972,-6439.791695,-6894.859482,444.123565
4194.904296,-222.061783,-6588.421283,-518.144159
4194.904621,4885.359217,-5975.544884,-1628.453072
4194.904945,9104.533087,-7814.174080,518.144159
4194.905269,9104.533087,-5439.278036,1110.308913
4194.905593,7920.203579,-9652.803275,-518.144159
4194.905917,0.000000,-10112.460574,444.123565
4194.906241,-3775.050304,-12257.527968,888.247130
4194.906566,-8438.347739,-11644.651570,148.041188
4194.906890,-12509.480420,-11184.994271,222.061783
4194.907214,-11621.233289,-10418.898773,296.082377
4194.907538,-8068.244768,-7354.516781,-148.041188
4194.907862,-4071.132681,-7890.783629,-814.226536
4194.908186,-518.144159,-6205.373534,-888.247130
4194.908511,4219.173869,-6665.030833,-518.144159
4194.908835,5773.606348,-5515.887586,-962.267725
4194.909159,4219.173869,-6665.030833,148.041188
4194.909483,3034.844362,-7201.297681,518.144159
4194.909807,-222.061783,-9806.022374,1776.494261
4194.910131,-3330.926739,-9729.412825,666.185348
4194.910456,-3478.967927,-10955.165621,740.205942
4194.910780,-4441.235652,-9729.412825,592.164754
4194.911104,-2220.617826,-11568.042020,592.164754
4194.911428,-1184.329507,-8810.098227,-1702.473667
4194.911752,296.082377,-9039.926876,-740.205942
4194.912076,2146.597232,-7048.078582,-666.185348
4194.912401,2072.576638,-6665.030833,-296.082377
4194.912725,2664.741391,-6741.640382,592.164754
4194.913049,3108.864956,-5822.325785,518.144159
4194.913373,3478.967927,-8580.269578,1036.288319
4194.913697,3849.070898,-7431.126331,222.061783
4194.914021,2812.782580,-10648.727422,296.082377
4194.914345,1406.391290,-10035.851024,-1850.514855
4194.914670,592.164754,-10648.727422,-1406.391290
4194.914994,-888.247130,-10189.070123,-1406.391290
4194.915318,-962.267725,-9806.022374,-1258.350101
4194.915642,-1850.514855,-7967.393179,-1406.391290
4194.915966,-814.226536,-7660.954980,-518.144159
4194.916290,518.144159,-6665.030833,0.000000
4194.916615,3849.070898,-6281.983084,518.144159
4194.916939,5255.462188,-6205.373534,370.102971
4194.917263,7550.100608,-6741.640382,-148.041188
4194.917587,7179.997637,-7967.393179,-592.164754
4194.917911,6809.894666,-8656.879127,-2072.576638
4194.918235,3182.885551,-9806.022374,-2294.638420
4194.918560,518.144159,-10418.898773,-2368.659014
4194.918884,-1554.432478,-11568.042020,-2146.597232
4194.919208,-3404.947333,-10189.070123,-1628.453072
4194.919532,-1110.308913,-9422.974625,-148.041188
4194.919856,444.123565,-8580.269578,-444.123565
4194.920180,3330.926739,-8656.879127,0.000000
4194.920505,5181.441594,-7967.393179,-370.102971
4194.920829,5255.462188,-6741.640382,0.000000
4194.921153,4367.215058,-6741.640382,-1258.350101
4194.921477,2368.659014,-7814.174080,-962.267725
4194.921801,222.061783,-7967.393179,-1036.288319
4194.922125,-2072.576638,-8810.098227,0.000000
4194.922450,-2812.782580,-9576.193725,-740.205942
4194.922774,-2220.617826,-10418.898773,-296.082377
4194.923098,-1628.453072,-10801.946522,296.082377
4194.923422,0.000000,-9729.412825,0.000000
4194.923746,222.061783,-9346.365076,370.102971
4194.924070,1480.411884,-8963.317327,296.082377
4194.924395,1110.308913,-8197.221829,74.020594
4194.924719,370.102971,-7507.735880,-370.102971
4194.925043,-1924.535449,-6818.249932,0.000000
4194.925367,-1554.432478,-8503.660028,-370.102971
4194.925691,-2368.659014,-8580.269578,-296.082377
4194.926015,-3552.988522,-7814.174080,-370.102971
4194.926340,-1554.432478,-9499.584175,370.102971
4194.926664,-1258.350101,-9346.365076,-740.205942
4194.926988,-962.267725,-10342.289223,0.000000
4194.927312,-1480.411884,-9269.755526,0.000000
4194.927636,-3256.906145,-9422.974625,1110.308913
4194.927960,-3552.988522,-7584.345430,-148.041188
4194.928285,-1998.556043,-8350.440928,962.267725
4194.928609,-1850.514855,-6665.030833,1110.308913
4194.928933,296.082377,-7201.297681,0.000000
4194.929257,1850.514855,-7354.516781,-148.041188
4194.929581,1998.556043,-7584.345430,74.020594
4194.929905,2664.741391,-8273.831378,0.000000
4194.930229,1776.494261,-8810.098227,-1184.329507
4194.930554,-296.082377,-9576.193725,0.000000
4194.930878,-3034.844362,-9729.412825,370.102971
4194.931202,-2368.659014,-9499.584175,444.123565
4194.931526,-3849.070898,-9346.365076,666.185348
4194.931850,-1258.350101,-9422.974625,1258.350101
4194.932174,1110.308913,-7814.174080,-444.123565
4194.932499,1702.473667,-9116.536426,0.000000
4194.932823,2664.741391,-6588.421283,-370.102971
4194.933147,3701.029710,-7124.688131,-814.226536
4194.933471,4293.194464,-7890.783629,-444.123565
4194.933795,888.247130,-7048.078582,-814.226536
4194.934119,-222.061783,-8886.707777,-370.102971
4194.934444,-2738.761985,-7814.174080,-962.267725
4194.934768,-2072.576638,-9499.584175,592.164754
4194.935092,-592.164754,-9346.365076,518.144159
4194.935416,666.185348,-9193.145976,444.123565
4194.935740,3997.112087,-9269.755526,0.000000
4194.936064,4959.379811,-8503.660028,-1110.308913
4194.936389,6883.915261,-8580.269578,-1702.473667
4194.936713,5773.606348,-7967.393179,-2368.659014
4194.937037,3849.070898,-7967.393179,-1406.391290
4194.937361,2590.720797,-7354.516781,-740.205942
4194.937685,148.041188,-9039.926876,-1776.494261
4194.938009,-592.164754,-8733.488677,-444.123565
4194.938334,0.000000,-8427.050478,74.020594
4194.938658,296.082377,-10035.851024,-518.144159
4194.938982,1776.494261,-9652.803275,-1998.556043
4194.939306,2664.741391,-9806.022374,-740.205942
4194.939630,2738.761985,-8810.098227,-1406.391290
4194.939954,3182.885551,-8733.488677,-1184.329507
4194.940279,2368.659014,-8273.831378,-1554.432478
4194.940603,2368.659014,-8656.879127,-592.164754
4194.940927,444.123565,-7354.516781,-888.247130
4194.941251,740.205942,-8350.440928,-740.205942
4194.941575,1184.329507,-8580.269578,296.082377
4194.941899,1406.391290,-9116.536426,222.061783
4194.942224,1036.288319,-9116.536426,-814.226536
4194.942548,74.020594,-9269.755526,-962.267725
4194.942872,-592.164754,-9269.755526,-1480.411884
4194.943196,-1258.350101,-9729.412825,-1036.288319
4194.943520,-1628.453072,-8733.488677,-888.247130
4194.943844,0.000000,-9806.022374,-296.082377
4194.944169,592.164754,-8120.612279,-148.041188
4194.944493,74.020594,-8886.707777,74.020594
4194.944817,2516.700203,-8580.269578,0.000000
4194.945141,2072.576638,-8273.831378,-592.164754
4194.945465,888.247130,-9193.145976,-222.061783
4194.945789,-444.123565,-8197.221829,-666.185348
4194.946113,-3256.906145,-8810.098227,962.267725
4194.946438,-4441.235652,-8044.002729,0.000000
4194.946762,-2590.720797,-8503.660028,1258.350101
4194.947086,-6069.688724,-9116.536426,-370.102971
4194.947410,-3108.864956,-8197.221829,0.000000
4194.947734,-1406.391290,-9193.145976,2368.659014
4194.948058,2590.720797,-8580.269578,-592.164754
4194.948383,2960.823768,-8810.098227,1258.350101
4194.948707,3330.926739,-8427.050478,-370.102971
4194.949031,1110.308913,-8197.221829,444.123565
4194.949355,-148.041188,-7354.516781,296.082377
4194.949679,-1258.350101,-8886.707777,962.267725
4194.950003,-1258.350101,-8963.317327,518.144159
4194.950328,-1702.473667,-8197.221829,444.123565
4194.950652,-4367.215058,-7507.735880,740.205942
4194.950976,-1036.288319,-7967.393179,740.205942
4194.951300,1776.494261,-9116.536426,-222.061783
4194.951624,2738.761985,-8733.488677,-518.144159
4194.951948,1036.288319,-7354.516781,-1184.329507
4194.952273,518.144159,-8656.879127,74.020594
4194.952597,222.061783,-8197.221829,592.164754
4194.952921,-1332.370696,-7890.783629,296.082377
4194.953245,-1036.288319,-7584.345430,222.061783
4194.953569,-1480.411884,-6971.469032,0.000000
4194.953893,1406.391290,-8503.660028,1258.350101
4194.954218,1554.432478,-7890.783629,-518.144159
4194.954542,3256.906145,-9193.145976,-74.020594
4194.954866,3478.967927,-7814.174080,-1850.514855
4194.955190,2738.761985,-8886.707777,-1184.329507
4194.955514,2442.679609,-8427.050478,-666.185348
4194.955838,1924.535449,-8810.098227,-814.226536
4194.956163,962.267725,-8656.879127,-148.041188
4194.956487,2072.576638,-8580.269578,-740.205942
4194.956811,3775.050304,-10265.679673,-444.123565
4194.957135,3034.844362,-7507.735880,-1776.494261
4194.957459,2812.782580,-10725.336972,-296.082377
4194.957783,2886.803174,-8120.612279,-2294.638420
4194.958108,1554.432478,-9499.584175,-962.267725
4194.958432,222.061783,-6741.640382,-1628.453072
4194.958756,-740.205942,-8273.831378,-888.247130
4194.959080,-962.267725,-9269.755526,-1184.329507
4194.959404,370.102971,-8503.660028,-1406.391290
4194.959728,1554.432478,-8197.221829,444.123565
4194.960053,3701.029710,-8273.831378,-1036.288319
4194.960377,4589.276840,-9346.365076,148.041188
4194.960701,5107.421000,-8810.098227,-1036.288319
4194.961025,4367.215058,-9959.241474,-814.226536
4194.961349,888.247130,-8120.612279,-2072.576638
4194.961673,0.000000,-10112.460574,-1184.329507
4194.961997,-2294.638420,-8120.612279,-1184.329507
4194.962322,-2960.823768,-9116.536426,-1110.308913
4194.962646,-2220.617826,-8427.050478,-592.164754
4194.962970,-518.144159,-8120.612279,-814.226536
4194.963294,1776.494261,-9499.584175,-666.185348
4194.963618,1258.350101,-8427.050478,-1332.370696
4194.963942,1776.494261,-9346.365076,-148.041188
4194.964267,1406.391290,-8273.831378,-740.205942
4194.964591,0.000000,-8733.488677,-370.102971
4194.964915,-2294.638420,-8350.440928,370.102971
4194.965239,-2738.761985,-8503.660028,222.061783
4194.965563,-3552.988522,-8120.612279,74.020594
4194.965887,-2220.617826,-8350.440928,592.164754
4194.966212,-296.082377,-8503.660028,444.123565
4194.966536,-296.082377,-8427.050478,962.267725
4194.966860,222.061783,-7660.954980,592.164754
4194.967184,1776.494261,-8503.660028,1036.288319
4194.967508,1628.453072,-7890.783629,-1036.288319
4194.967832,-444.123565,-9422.974625,0.000000
4194.968157,-888.247130,-9193.145976,0.000000
4194.968481,-1480.411884,-9422.974625,666.185348
4194.968805,-2368.659014,-7967.393179,666.185348
4194.969129,-1480.411884,-8656.879127,888.247130
4194.969453,-1332.370696,-9346.365076,0.000000
4194.969777,-222.061783,-8733.488677,222.061783
4194.970102,74.020594,-8120.612279,-518.144159
4194.970426,-1110.308913,-7967.393179,222.061783
4194.970750,-1702.473667,-7201.297681,-370.102971
4194.971074,-2590.720797,-7890.783629,962.267725
4194.971398,-1924.535449,-7890.783629,444.123565
4194.971722,-962.267725,-7354.516781,1554.432478
4194.972047,1628.453072,-7660.954980,444.123565
4194.972371,2516.700203,-9269.755526,888.247130
4194.972695,3108.864956,-8427.050478,-666.185348
4194.973019,3330.926739,-9116.536426,-666.185348
4194.973343,2220.617826,-8350.440928,-592.164754
4194.973667,1554.432478,-8810.098227,-888.247130
4194.973992,-148.041188,-9039.926876,-962.267725
4194.974316,-2220.617826,-8810.098227,-1036.288319
4194.974640,-2220.617826,-8427.050478,-592.164754
4194.974964,-814.226536,-9039.926876,-592.164754
4194.975288,1332.370696,-8656.879127,-814.226536
4194.975612,3923.091493,-8197.221829,-888.247130
4194.975937,4589.276840,-9346.365076,-1702.473667
4194.976261,3849.070898,-9116.536426,-1776.494261
4194.976585,3923.091493,-9193.145976,-1036.288319
4194.976909,1702.473667,-8350.440928,-1850.514855
4194.977233,-296.082377,-8963.317327,-444.123565
4194.977557,-1850.514855,-8197.221829,-666.185348
4194.977881,-444.123565,-9193.145976,0.000000
4194.978206,1406.391290,-7660.954980,-888.247130
4194.978530,2368.659014,-8733.488677,-148.041188
4194.978854,5477.523971,-8044.002729,-518.144159
4194.979178,4885.359217,-8120.612279,-1998.556043
4194.979502,4515.256246,-9806.022374,-1332.370696
4194.979826,4071.132681,-8656.879127,-1924.535449
4194.980151,1258.350101,-8427.050478,-962.267725
4194.980475,-2220.617826,-9422.974625,-1258.350101
4194.980799,-1332.370696,-9959.241474,-962.267725
4194.981123,-1258.350101,-9652.803275,-1480.411884
4194.981447,-666.185348,-10342.289223,-518.144159
4194.981771,1554.432478,-9729.412825,-1332.370696
4194.982096,1110.308913,-9269.755526,-814.226536
4194.982420,1332.370696,-8656.879127,-1184.329507
4194.982744,1406.391290,-7737.564530,-666.185348
4194.983068,518.144159,-8044.002729,-222.061783
4194.983392,-1110.308913,-7431.126331,-962.267725
4194.983716,-1702.473667,-7890.783629,74.020594
4194.984041,-2294.638420,-7584.345430,-148.041188
4194.984365,-814.226536,-8656.879127,1480.411884
4194.984689,0.000000,-7354.516781,0.000000
4194.985013,1554.432478,-9269.755526,1850.514855
4194.985337,2220.617826,-8580.269578,-1110.308913
4194.985661,1554.432478,-9882.631924,-370.102971
4194.985986,-74.020594,-7354.516781,-1258.350101
4194.986310,-814.226536,-8886.707777,222.061783
4194.986634,-2738.761985,-7814.174080,0.000000
4194.986958,-3108.864956,-8120.612279,222.061783
4194.987282,-2072.576638,-7967.393179,0.000000
4194.987606,-1554.432478,-7814.174080,0.000000
4194.987931,-222.061783,-8810.098227,74.020594
4194.988255,1184.329507,-8886.707777,-962.267725
4194.988579,814.226536,-8273.831378,888.247130
4194.988903,-666.185348,-7814.174080,296.082377
4194.989227,-1258.350101,-8120.612279,296.082377
4194.989551,-1332.370696,-9346.365076,740.205942
4194.989876,-2590.720797,-7814.174080,518.144159
4194.990200,-2294.638420,-8810.098227,592.164754
4194.990524,-592.164754,-8350.440928,1110.308913
4194.990848,1036.288319,-7354.516781,1480.411884
4194.991172,2220.617826,-7507.735880,0.000000
4194.991496,3923.091493,-8044.002729,444.123565
4194.991821,2886.803174,-7814.174080,-222.061783
4194.992145,1480.411884,-8733.488677,-444.123565
4194.992469,-296.082377,-9193.145976,-888.247130
4194.992793,-2072.576638,-9116.536426,-222.061783
4194.993117,-2738.761985,-9806.022374,-740.205942
4194.993441,-1702.473667,-9039.926876,-370.102971
4194.993765,740.205942,-9806.022374,0.000000
4194.994090,1110.308913,-8963.317327,-740.205942
4194.994414,2368.659014,-8656.879127,-888.247130
4194.994738,2516.700203,-7890.783629,-1480.411884
4194.995062,1332.370696,-8427.050478,-740.205942
4194.995386,1258.350101,-7277.907231,-740.205942
4194.995710,518.144159,-7431.126331,-962.267725
4194.996035,-666.185348,-8044.002729,-666.185348
4194.996359,370.102971,-7507.735880,-148.041188
4194.996683,2220.617826,-8963.317327,-444.123565
4194.997007,2738.761985,-9193.145976,-444.123565
4194.997331,3627.009116,-9422.974625,-370.102971
4194.997655,3108.864956,-10648.727422,-148.041188
4194.997980,2368.659014,-8886.707777,-1924.535449
4194.998304,1850.514855,-9269.755526,-1036.288319
4194.998628,814.226536,-9193.145976,-1184.329507
4194.998952,444.123565,-8963.317327,-1184.329507
4194.999276,592.164754,-8580.269578,-1554.432478
4194.999600,74.020594,-8733.488677,-592.164754
4194.999925,2368.659014,-8350.440928,-1184.329507
4195.000249,2886.803174,-9346.365076,-740.205942
4195.000573,2664.741391,-8810.098227,-814.226536
4195.000897,2516.700203,-8427.050478,-1110.308913
4195.001221,1480.411884,-8963.317327,-666.185348
4195.001545,-814.226536,-8273.831378,-962.267725
4195.001870,-1628.453072,-9959.241474,148.041188
4195.002194,-2368.659014,-8044.002729,-888.247130
4195.002518,-2220.617826,-8580.269578,666.185348
4195.002843,-740.205942,-7584.345430,-222.061783
4195.003167,1480.411884,-8503.660028,518.144159
4195.003492,1184.329507,-7660.954980,-592.164754
4195.003816,3256.906145,-8886.707777,0.000000
4195.004140,2442.679609,-7737.564530,-518.144159
4195.004465,1110.308913,-8810.098227,-740.205942
4195.004789,0.000000,-8656.879127,-148.041188
4195.005113,-2294.638420,-8120.612279,0.000000
4195.005438,-3034.844362,-9806.022374,444.123565
4195.005762,-3478.967927,-8273.831378,0.000000
4195.006086,-444.123565,-9576.193725,518.144159
4195.006411,-962.267725,-8120.612279,-370.102971
4195.006735,1702.473667,-8886.707777,-740.205942
4195.007059,962.267725,-8197.221829,-222.061783
4195.007384,666.185348,-7584.345430,-592.164754
4195.007708,-370.102971,-7660.954980,518.144159
4195.008033,-1998.556043,-6741.640382,444.123565
4195.008357,-2590.720797,-8580.269578,1406.391290
4195.008681,-2442.679609,-7584.345430,0.000000
4195.009006,-1998.556043,-9499.584175,1036.288319
4195.009330,0.000000,-8427.050478,296.082377
4195.009654,1628.453072,-9499.584175,444.123565
4195.009979,1702.473667,-8427.050478,-888.247130
4195.010303,1776.494261,-8886.707777,592.164754
4195.010627,962.267725,-7584.345430,-814.226536
4195.010952,-1258.350101,-9422.974625,-148.041188
4195.011276,-1110.308913,-8810.098227,-740.205942
4195.011600,-2368.659014,-7967.393179,-444.123565
4195.011925,-1924.535449,-8886.707777,370.102971
4195.012249,888.247130,-8427.050478,0.000000
4195.012574,1850.514855,-8503.660028,-222.061783
4195.012898,1480.411884,-8963.317327,-1110.308913
4195.013222,2220.617826,-9193.145976,-296.082377
4195.013547,444.123565,-7967.393179,-1184.329507
4195.013871,444.123565,-8810.098227,-666.185348
4195.014195,148.041188,-7814.174080,-518.144159
4195.014520,-1702.473667,-8810.098227,0.000000
4195.014844,-370.102971,-8427.050478,0.000000
4195.015168,1036.288319,-8810.098227,0.000000
4195.015493,2516.700203,-9193.145976,148.041188
4195.015817,4071.132681,-8656.879127,-518.144159
4195.016141,3627.009116,-8963.317327,-1184.329507
4195.016466,2146.597232,-8580.269578,-740.205942
4195.016790,2368.659014,-9193.145976,-666.185348
4195.017115,444.123565,-8963.317327,-2146.597232
4195.017439,814.226536,-9882.631924,-962.267725
4195.017763,0.000000,-8810.098227,-1036.288319
4195.018088,666.185348,-9193.145976,-888.247130
4195.018412,1258.350101,-9806.022374,-222.061783
4195.018736,2664.741391,-9116.536426,-370.102971
4195.019061,2812.782580,-8427.050478,-888.247130
4195.019385,2294.638420,-8503.660028,-1258.350101
4195.019709,2590.720797,-9193.145976,-740.205942
4195.020034,962.267725,-7660.954980,-1184.329507
4195.020358,-296.082377,-8733.488677,-666.185348
4195.020682,-1702.473667,-7507.735880,-592.164754
4195.021007,-1776.494261,-8580.269578,-296.082377
4195.021331,0.000000,-8503.660028,-444.123565
4195.021656,1480.411884,-8427.050478,0.000000
4195.021980,2146.597232,-8580.269578,0.000000
4195.022304,2812.782580,-8580.269578,-370.102971
4195.022629,2368.659014,-9422.974625,-666.185348
4195.022953,1628.453072,-8810.098227,-740.205942
4195.023277,0.000000,-9193.145976,-222.061783
4195.023602,-2368.659014,-8120.612279,-518.144159
4195.023926,-3034.844362,-9346.365076,222.061783
4195.024250,-1554.432478,-8120.612279,-296.082377
4195.024575,74.020594,-8886.707777,296.082377
4195.024899,1406.391290,-7814.174080,-444.123565
4195.025223,1554.432478,-9039.926876,0.000000
4195.025548,814.226536,-8273.831378,0.000000
4195.025872,1036.288319,-8350.440928,0.000000
4195.026197,-370.102971,-8503.660028,-222.061783
4195.026521,-2072.576638,-7890.783629,0.000000
4195.026845,-3478.967927,-8580.269578,222.061783
4195.027170,-4071.132681,-9193.145976,740.205942
4195.027494,-1184.329507,-8273.831378,740.205942
4195.027818,-444.123565,-7814.174080,888.247130
4195.028143,1036.288319,-9116.536426,518.144159
4195.028467,814.226536,-7737.564530,-444.123565
4195.028791,888.247130,-8197.221829,148.041188
4195.029116,888.247130,-8120.612279,0.000000
4195.029440,-1406.391290,-8273.831378,-592.164754
4195.029764,-444.123565,-9422.974625,370.102971
4195.030089,-2516.700203,-7737.564530,222.061783
4195.030413,0.000000,-9346.365076,814.226536
4195.030738,74.020594,-7737.564530,-814.226536
4195.031062,1776.494261,-10112.460574,1110.308913
4195.031386,2072.576638,-7354.516781,-1554.432478
4195.031711,1702.473667,-9346.365076,148.041188
4195.032035,592.164754,-7660.954980,-1110.308913
4195.032359,444.123565,-8427.050478,0.000000
4195.032684,-2368.659014,-7431.126331,-592.164754
4195.033008,-2368.659014,-8197.221829,148.041188
4195.033332,-666.185348,-8044.002729,148.041188
4195.033657,148.041188,-8120.612279,-148.041188
4195.033981,2368.659014,-8656.879127,296.082377
4195.034305,3034.844362,-7967.393179,-592.164754
4195.034630,4737.318029,-9422.974625,222.061783
4195.034954,2738.761985,-8503.660028,-1628.453072
4195.035279,2812.782580,-8963.317327,-1036.288319
4195.035603,888.247130,-9039.926876,-1406.391290
4195.035927,0.000000,-9346.365076,-444.123565
4195.036252,-962.267725,-8963.317327,-1110.308913
4195.036576,-518.144159,-8273.831378,-814.226536
4195.036900,592.164754,-8963.317327,0.000000
4195.037225,2590.720797,-8120.612279,-1258.350101
4195.037549,2368.659014,-9729.412825,-740.205942
4195.037873,3256.906145,-8273.831378,-1332.370696
4195.038198,2442.679609,-9882.631924,-1036.288319
4195.038522,814.226536,-8044.002729,-1850.514855
4195.038846,0.000000,-9193.145976,0.000000
4195.039171,-888.247130,-8427.050478,-518.144159
4195.039495,-1184.329507,-9499.584175,0.000000
4195.039820,1258.350101,-7584.345430,-370.102971
4195.040144,1998.556043,-8810.098227,296.082377
4195.040468,3478.967927,-8580.269578,-1406.391290
4195.040793,2590.720797,-9116.536426,-1036.288319
4195.041117,1554.432478,-8580.269578,-814.226536
4195.041441,1332.370696,-8580.269578,-962.267725
4195.041766,-740.205942,-8810.098227,-814.226536
4195.042090,-1406.391290,-9499.584175,-1036.288319
4195.042414,-1998.556043,-8810.098227,444.123565
4195.042739,-740.205942,-8810.098227,-370.102971
4195.043063,1184.329507,-9269.755526,0.000000
4195.043387,1406.391290,-8810.098227,-370.102971
4195.043712,962.267725,-9116.536426,-444.123565
4195.044036,740.205942,-8427.050478,-222.061783
4195.044361,74.020594,-8733.488677,-814.226536
4195.044685,-2442.679609,-7814.174080,-814.226536
4195.045009,-2368.659014,-8503.660028,592.164754
4195.045334,-3256.906145,-7507.735880,74.020594
4195.045658,-2294.638420,-7967.393179,518.144159
4195.045982,74.020594,-7814.174080,1184.329507
4195.046307,1702.473667,-8580.269578,740.205942
4195.046631,2146.597232,-7737.564530,666.185348
4195.046955,3034.844362,-9116.536426,222.061783
4195.047280,1554.432478,-8197.221829,-814.226536
4195.047604,0.000000,-8963.317327,0.000000
4195.047928,-2146.597232,-8350.440928,-888.247130
4195.048253,-2294.638420,-9269.755526,1184.329507
4195.048577,-2590.720797,-7890.783629,0.000000
4195.048902,-2072.576638,-8886.707777,592.164754
4195.049226,222.061783,-8350.440928,-296.082377
4195.049550,1184.329507,-7890.783629,1036.288319
4195.049875,1110.308913,-8810.098227,74.020594
4195.050199,1110.308913,-8350.440928,-592.164754
4195.050523,74.020594,-7967.393179,370.102971
4195.050848,-1258.350101,-7890.783629,-148.041188
4195.051172,-1702.473667,-8350.440928,888.247130
4195.051496,-2960.823768,-7890.783629,74.020594
4195.051821,-962.267725,-8733.488677,592.164754
4195.052145,1628.453072,-7890.783629,666.185348
4195.052469,2220.617826,-8656.879127,74.020594
4195.052794,2886.803174,-8580.269578,444.123565
4195.053118,3849.070898,-8427.050478,-222.061783
4195.053443,3034.844362,-8810.098227,-1406.391290
4195.053767,3108.864956,-7967.393179,-592.164754
4195.054091,0.000000,-8963.317327,0.000000
4195.054416,-1406.391290,-8427.050478,-1184.329507
4195.054740,-296.082377,-9422.974625,74.020594
4195.055064,0.000000,-8810.098227,-1554.432478
4195.055389,962.267725,-8656.879127,-518.144159
4195.055713,2664.741391,-9576.193725,-1036.288319
4195.056037,2072.576638,-8886.707777,-1110.308913
4195.056362,2442.679609,-8503.660028,-1480.411884
4195.056686,2664.741391,-8350.440928,-1480.411884
4195.057010,0.000000,-8120.612279,-1554.432478
4195.057335,-592.164754,-8656.879127,-296.082377
4195.057659,-962.267725,-8120.612279,-296.082377
4195.057984,-1332.370696,-8503.660028,-370.102971
4195.058308,444.123565,-8273.831378,-740.205942
4195.058632,1850.514855,-9806.022374,-148.041188
4195.058957,2886.803174,-7814.174080,-592.164754
4195.059281,4737.318029,-8503.660028,-1184.329507
4195.059605,3034.844362,-8886.707777,-1406.391290
4195.059930,1628.453072,-8963.317327,-1480.411884
4195.060254,1258.350101,-8886.707777,-888.247130
4195.060578,-888.247130,-9729.412825,-1258.350101
4195.060903,-2294.638420,-9729.412825,-1036.288319
4195.061227,-1184.329507,-8503.660028,-1258.350101
4195.061551,518.144159,-10189.070123,0.000000
4195.061876,518.144159,-9193.145976,-1110.308913
4195.062200,370.102971,-7890.783629,-666.185348
4195.062525,222.061783,-8963.317327,-666.185348
4195.062849,518.144159,-8350.440928,-740.205942
4195.063173,-74.020594,-8273.831378,-1258.350101
4195.063498,-1702.473667,-8963.317327,74.020594
4195.063822,-3627.009116,-7431.126331,518.144159
4195.064146,-1924.535449,-8197.221829,148.041188
4195.064471,444.123565,-8503.660028,962.267725
4195.064795,1776.494261,-8120.612279,148.041188
4195.065119,2220.617826,-8580.269578,370.102971
4195.065444,2516.700203,-8120.612279,-518.144159
4195.065768,2590.720797,-9346.365076,0.000000
4195.066092,740.205942,-8273.831378,-666.185348
4195.066417,-962.267725,-8350.440928,-370.102971
4195.066741,-2960.823768,-8886.707777,222.061783
4195.067066,-2960.823768,-9116.536426,-296.082377
4195.067390,-2368.659014,-8273.831378,-296.082377
4195.067714,-370.102971,-8810.098227,370.102971
4195.068039,-296.082377,-8656.879127,296.082377
4195.068363,-444.123565,-8120.612279,-888.247130
4195.068687,666.185348,-8810.098227,0.000000
4195.069012,-296.082377,-7354.516781,-444.123565
4195.069336,-740.205942,-7431.126331,0.000000
4195.069660,-1480.411884,-7967.393179,-370.102971
4195.069985,-1776.494261,-8580.269578,592.164754
4195.070309,-1184.329507,-7890.783629,0.000000
4195.070633,0.000000,-8656.879127,1184.329507
4195.070958,1184.329507,-7584.345430,592.164754
4195.071282,2442.679609,-8810.098227,740.205942
4195.071607,3849.070898,-7584.345430,0.000000
4195.071931,3034.844362,-8810.098227,0.000000
4195.072255,1924.535449,-8273.831378,-1110.308913
4195.072580,222.061783,-8197.221829,0.000000
4195.072904,-1258.350101,-9116.536426,-592.164754
4195.073228,-1406.391290,-9039.926876,-666.185348
4195.073553,-962.267725,-8733.488677,-592.164754
4195.073877,962.267725,-9806.022374,-296.082377
4195.074201,1110.308913,-8580.269578,-962.267725
4195.074526,1110.308913,-9652.803275,-296.082377
4195.074850,1406.391290,-8580.269578,-1184.329507
4195.075174,518.144159,-8733.488677,-888.247130
4195.075499,-296.082377,-7890.783629,-666.185348
4195.075823,-222.061783,-8350.440928,0.000000
4195.076148,-222.061783,-8044.002729,74.020594
4195.076472,1036.288319,-8120.612279,-962.267725
4195.076796,2664.741391,-8503.660028,444.123565
4195.077121,3108.864956,-8656.879127,-296.082377
4195.077445,4663.297435,-9269.755526,-740.205942
4195.077769,3775.050304,-8733.488677,296.082377
4195.078094,2664.741391,-8197.221829,-1924.535449
4195.078418,1554.432478,-8810.098227,-296.082377
4195.078742,296.082377,-8503.660028,-1480.411884
4195.079067,-740.205942,-9882.631924,-740.205942
4195.079391,-2072.576638,-7814.174080,-1258.350101
4195.079715,-888.247130,-9269.755526,-296.082377
4195.080040,74.020594,-8427.050478,-592.164754
4195.080364,2368.659014,-9039.926876,-1184.329507
4195.080689,1628.453072,-8120.612279,-1258.350101
4195.081013,1332.370696,-9116.536426,-1184.329507
4195.081337,1036.288319,-8503.660028,-888.247130
4195.081662,-1110.308913,-8733.488677,-962.267725
4195.081986,-814.226536,-8273.831378,0.000000
4195.082310,-2516.700203,-8120.612279,0.000000
4195.082635,-1184.329507,-8503.660028,518.144159
4195.082959,148.041188,-7660.954980,0.000000
4195.083283,2146.597232,-9039.926876,74.020594
4195.083608,3404.947333,-8733.488677,-370.102971
4195.083932,3404.947333,-8580.269578,-740.205942
4195.084256,1628.453072,-9039.926876,-592.164754
4195.084581,666.185348,-8580.269578,-740.205942
4195.084905,-1332.370696,-9882.631924,-888.247130
4195.085230,-1924.535449,-9499.584175,-518.144159
4195.085554,-2368.659014,-8886.707777,296.082377
4195.085878,-1406.391290,-8963.317327,-370.102971
4195.086203,0.000000,-9806.022374,0.000000
4195.086527,296.082377,-8350.440928,-222.061783
4195.086851,592.164754,-9652.803275,74.020594
4195.087176,-666.185348,-7967.393179,-1258.350101
4195.087500,-814.226536,-8886.707777,0.000000
4195.087824,-1554.432478,-7584.345430,666.185348
4195.088149,-3182.885551,-7890.783629,296.082377
4195.088473,-1702.473667,-8427.050478,222.061783
4195.088797,-1110.308913,-7354.516781,222.061783
4195.089122,1406.391290,-9422.974625,1480.411884
4195.089446,2368.659014,-7737.564530,444.123565
4195.089771,3034.844362,-8427.050478,518.144159
4195.090095,3182.885551,-7814.174080,0.000000
4195.090419,2220.617826,-8197.221829,0.000000
4195.090744,1406.391290,-8963.317327,0.000000
4195.091068,-888.247130,-8350.440928,-666.185348
4195.091392,-2368.659014,-8733.488677,-444.123565
4195.091717,-2738.761985,-8810.098227,0.000000
4195.092041,-1554.432478,-7890.783629,-148.041188
4195.092365,740.205942,-8273.831378,370.102971
4195.092690,2072.576638,-8273.831378,222.061783
4195.093014,2442.679609,-8733.488677,-740.205942
4195.093338,2072.576638,-8120.612279,-1110.308913
4195.093663,962.267725,-8273.831378,-1628.453072
4195.093987,370.102971,-8427.050478,-666.185348
4195.094312,-666.185348,-8197.221829,0.000000
4195.094636,-1110.308913,-9499.584175,370.102971
4195.094960,-814.226536,-7584.345430,-370.102971
4195.095285,-148.041188,-8886.707777,666.185348
4195.095609,1850.514855,-8273.831378,-518.144159
4195.095933,4219.173869,-8580.269578,-296.082377
4195.096258,4441.235652,-8810.098227,0.000000
4195.096582,3552.988522,-8350.440928,-1406.391290
4195.096906,2738.761985,-8503.660028,-962.267725
4195.097231,888.247130,-9806.022374,-1554.432478
4195.097555,148.041188,-9193.145976,-1258.350101
4195.097879,-1998.556043,-9193.145976,-1258.350101
4195.098204,-1850.514855,-9193.145976,-888.247130
4195.098528,-370.102971,-9499.584175,0.000000
4195.098853,370.102971,-9346.365076,-1110.308913
4195.099177,1406.391290,-9882.631924,-518.144159
4195.099501,2146.597232,-8273.831378,-1702.473667
4195.099826,888.247130,-8580.269578,-1702.473667
4195.100150,-518.144159,-7737.564530,-1406.391290
4195.100474,222.061783,-8733.488677,0.000000
4195.100799,-1480.411884,-8273.831378,-222.061783
4195.101123,370.102971,-8273.831378,148.041188
4195.101447,1406.391290,-8656.879127,888.247130
4195.101772,2442.679609,-7584.345430,-444.123565
4195.102096,3627.009116,-8810.098227,-518.144159
4195.102420,3627.009116,-8427.050478,-370.102971
4195.102745,1628.453072,-8733.488677,-592.164754
4195.103069,222.061783,-8350.440928,-592.164754
4195.103394,-888.247130,-9652.803275,-518.144159
4195.103718,-2442.679609,-8656.879127,-962.267725
4195.104042,-2812.782580,-8810.098227,-222.061783
4195.104367,-592.164754,-8503.660028,-444.123565
4195.104691,222.061783,-9499.584175,444.123565
4195.105015,888.247130,-8656.879127,-296.082377
4195.105340,444.123565,-9346.365076,222.061783
4195.105664,518.144159,-8273.831378,-518.144159
4195.105989,-666.185348,-8197.221829,-666.185348
4195.106313,-1036.288319,-8427.050478,444.123565
4195.106637,-2960.823768,-7354.516781,518.144159
4195.106962,-3034.844362,-8580.269578,962.267725
4195.107286,-1628.453072,-7354.516781,740.205942
4195.107610,222.061783,-7890.783629,888.247130
4195.107935,2738.761985,-7814.174080,592.164754
4195.108259,3182.885551,-8273.831378,518.144159
4195.108584,2812.782580,-8810.098227,148.041188
4195.108908,1850.514855,-8350.440928,-1036.288319
4195.109232,-370.102971,-8503.660028,-148.041188
4195.109557,-296.082377,-9576.193725,0.000000
4195.109881,-814.226536,-9269.755526,-1036.288319
4195.110205,-1702.473667,-9729.412825,-592.164754
4195.110530,-2590.720797,-7890.783629,0.000000
4195.110854,-1628.453072,-8656.879127,74.020594
4195.111179,222.061783,-8120.612279,0.000000
4195.111503,1332.370696,-8656.879127,-296.082377
4195.111827,2590.720797,-8273.831378,-518.144159
4195.112152,1258.350101,-6971.469032,-518.144159
4195.112476,592.164754,-8656.879127,-296.082377
4195.112800,0.000000,-8120.612279,-1110.308913
4195.113125,-518.144159,-10418.898773,148.041188
4195.113449,-1332.370696,-7277.907231,0.000000
4195.113774,1850.514855,-8197.221829,370.102971
4195.114098,1110.308913,-8886.707777,148.041188
4195.114422,2072.576638,-8350.440928,-1332.370696
4195.114747,3552.988522,-8886.707777,-518.144159
4195.115071,1480.411884,-8656.879127,-2072.576638
4195.115395,888.247130,-9576.193725,-740.205942
4195.115720,518.144159,-7890.783629,-1554.432478
4195.116044,888.247130,-9729.412825,-814.226536
4195.116369,296.082377,-8886.707777,-1110.308913
4195.116693,-1258.350101,-7814.174080,-1480.411884
4195.117017,1702.473667,-10035.851024,0.000000
4195.117342,1332.370696,-10035.851024,-1406.391290
4195.117666,1184.329507,-8963.317327,-1480.411884
4195.117990,2294.638420,-9193.145976,-1110.308913
4195.118315,-518.144159,-8350.440928,-1480.411884
4195.118639,-888.247130,-8810.098227,-666.185348
4195.118963,-518.144159,-7890.783629,74.020594
4195.119288,-1850.514855,-7660.954980,0.000000
4195.119612,-1036.288319,-8044.002729,0.000000
4195.119937,2072.576638,-7967.393179,370.102971
4195.120261,3552.988522,-9422.974625,-296.082377
4195.120585,3923.091493,-8350.440928,-888.247130
4195.120910,3552.988522,-8580.269578,-296.082377
4195.121234,2442.679609,-8273.831378,-962.267725
4195.121558,592.164754,-10035.851024,-296.082377
4195.121883,-888.247130,-9039.926876,-1258.350101
4195.122207,-2886.803174,-9959.241474,-74.020594
4195.122532,-4219.173869,-8197.221829,-740.205942
4195.122856,-2294.638420,-9422.974625,148.041188
4195.123180,-814.226536,-8580.269578,0.000000
4195.123505,518.144159,-8580.269578,-444.123565
4195.123829,1184.329507,-8580.269578,222.061783
4195.124153,1258.350101,-7660.954980,-370.102971
4195.124478,1924.535449,-8886.707777,0.000000
4195.124802,888.247130,-6741.640382,370.102971
4195.125127,-814.226536,-8427.050478,148.041188
4195.125451,-444.123565,-7967.393179,814.226536
4195.125775,-2886.803174,-8273.831378,1184.329507
4195.126100,1258.350101,-8810.098227,740.205942
4195.126424,888.247130,-7890.783629,296.082377
4195.126748,1036.288319,-8656.879127,296.082377
4195.127073,1924.535449,-7660.954980,-518.144159
4195.127397,296.082377,-8197.221829,888.247130
4195.127722,740.205942,-8273.831378,-296.082377
4195.128046,-370.102971,-8886.707777,-962.267725
4195.128370,-1628.453072,-8197.221829,74.020594
4195.128695,-962.267725,-8656.879127,-222.061783
4195.129019,-888.247130,-7890.783629,-370.102971
4195.129343,740.205942,-9269.755526,74.020594
4195.129668,2072.576638,-9116.536426,-222.061783
4195.129992,592.164754,-9039.926876,0.000000
4195.130317,666.185348,-9269.755526,0.000000
4195.130641,296.082377,-8197.221829,-592.164754
4195.130965,-1924.535449,-7814.174080,-444.123565
4195.131290,-2442.679609,-7890.783629,148.041188
4195.131614,-2146.597232,-7660.954980,1036.288319
4195.131938,0.000000,-7890.783629,518.144159
4195.132263,296.082377,-7967.393179,74.020594
4195.132587,1850.514855,-8350.440928,444.123565
4195.132912,3478.967927,-8120.612279,-888.247130
4195.133236,3552.988522,-9499.584175,-370.102971
4195.133560,2738.761985,-7967.393179,-370.102971
4195.133885,962.267725,-9193.145976,-1554.432478
4195.134209,0.000000,-10265.679673,-666.185348
4195.134533,-2072.576638,-9422.974625,-962.267725
4195.134858,-2220.617826,-9193.145976,-1036.288319
4195.135182,-1628.453072,-8580.269578,-518.144159
4195.135506,222.061783,-8656.879127,-592.164754
4195.135831,1184.329507,-8656.879127,-592.164754
4195.136155,518.144159,-7890.783629,-962.267725
4195.136480,1480.411884,-8273.831378,-1406.391290
4195.136804,1628.453072,-8197.221829,-1036.288319
4195.137128,888.247130,-8350.440928,-370.102971
4195.137453,148.041188,-8886.707777,-740.205942
4195.137777,0.000000,-8503.660028,222.061783
4195.138101,296.082377,-8963.317327,-666.185348
4195.138426,2294.638420,-8886.707777,0.000000
4195.138750,2442.679609,-9193.145976,-74.020594
4195.139075,2664.741391,-8963.317327,-1184.329507
4195.139399,592.164754,-9422.974625,0.000000
4195.139723,814.226536,-7967.393179,-1110.308913
4195.140048,666.185348,-8810.098227,-888.247130
4195.140372,-296.082377,-8733.488677,-1332.370696
4195.140696,-1110.308913,-8044.002729,-1036.288319
4195.141021,-1332.370696,-8044.002729,-666.185348
4195.141345,0.000000,-9039.926876,0.000000
4195.141670,2220.617826,-9806.022374,0.000000
4195.141994,1998.556043,-8810.098227,-370.102971
4195.142318,1406.391290,-9422.974625,-1554.432478
4195.142643,518.144159,-8350.440928,-962.267725
4195.142967,-740.205942,-8810.098227,-222.061783
4195.143291,-1480.411884,-9116.536426,74.020594
4195.143616,-2886.803174,-7814.174080,148.041188
4195.143940,-2960.823768,-7737.564530,592.164754
4195.144265,-444.123565,-7584.345430,370.102971
4195.144589,1776.494261,-7354.516781,740.205942
4195.144913,3552.988522,-7890.783629,222.061783
4195.145238,4071.132681,-8273.831378,-296.082377
4195.145562,4885.359217,-8350.440928,222.061783
4195.145886,2072.576638,-8273.831378,-1036.288319
4195.146211,1702.473667,-9499.584175,-296.082377
4195.146535,-1406.391290,-8503.660028,0.000000
4195.146860,-3182.885551,-9959.241474,148.041188
4195.147184,-2294.638420,-8120.612279,0.000000
4195.147508,-1628.453072,-8656.879127,-222.061783
4195.147833,-296.082377,-8886.707777,814.226536
4195.148157,888.247130,-7277.907231,-444.123565
4195.148481,1184.329507,-8120.612279,74.020594
4195.148806,2072.576638,-7431.126331,-296.082377
4195.149130,1850.514855,-7431.126331,-814.226536
4195.149455,370.102971,-8580.269578,-444.123565
4195.149779,-296.082377,-8503.660028,740.205942
4195.150103,-888.247130,-8197.221829,0.000000
4195.150428,0.000000,-9116.536426,814.226536
4195.150752,296.082377,-7967.393179,740.205942
4195.151076,-222.061783,-8503.660028,-148.041188
4195.151401,2960.823768,-9652.803275,962.267725
4195.151725,1702.473667,-7048.078582,-518.144159
4195.152049,666.185348,-8427.050478,-1258.350101
4195.152374,0.000000,-8656.879127,-740.205942
4195.152698,814.226536,-7890.783629,-962.267725
4195.153023,666.185348,-9193.145976,-222.061783
4195.153347,0.000000,-7660.954980,-296.082377
4195.153671,444.123565,-9806.022374,-444.123565
4195.153996,296.082377,-8810.098227,-296.082377
4195.154320,666.185348,-8810.098227,-518.144159
4195.154644,1258.350101,-10418.898773,-1480.411884
4195.154969,296.082377,-9576.193725,-666.185348
4195.155293,-1184.329507,-8273.831378,-1110.308913
4195.155618,-1184.329507,-9116.536426,-814.226536
4195.155942,-1998.556043,-7737.564530,-1184.329507
4195.156266,-1110.308913,-8197.221829,74.020594
4195.156591,370.102971,-7431.126331,0.000000
4195.156915,2442.679609,-7967.393179,370.102971
4195.157239,3997.112087,-7814.174080,74.020594
4195.157564,4441.235652,-8580.269578,-370.102971
4195.157888,4367.215058,-8963.317327,-814.226536
4195.158213,3182.885551,-8886.707777,-1258.350101
4195.158537,2072.576638,-10035.851024,-1184.329507
4195.158861,-814.226536,-9576.193725,-1554.432478
4195.159186,-3627.009116,-9806.022374,-666.185348
4195.159510,-3256.906145,-8656.879127,0.000000
4195.159834,-2072.576638,-8580.269578,-370.102971
4195.160159,-518.144159,-9116.536426,-1258.350101
4195.160483,-296.082377,-8733.488677,-518.144159
4195.160808,296.082377,-8273.831378,-740.205942
4195.161132,1184.329507,-8427.050478,-1184.329507
4195.161456,814.226536,-8580.269578,-1110.308913
4195.161781,-296.082377,-8197.221829,-814.226536
4195.162105,-1036.288319,-7967.393179,370.102971
4195.162429,-1406.391290,-9193.145976,74.020594
4195.162754,814.226536,-8503.660028,888.247130
4195.163078,1702.473667,-7890.783629,592.164754
4195.163403,2294.638420,-9116.536426,666.185348
4195.163727,2886.803174,-8273.831378,-296.082377
4195.164051,3627.009116,-7814.174080,-370.102971
4195.164376,1480.411884,-8656.879127,-666.185348
4195.164700,74.020594,-8197.221829,-518.144159
4195.165024,-296.082377,-8810.098227,-740.205942
4195.165349,-1406.391290,-7967.393179,-740.205942
4195.165673,-1776.494261,-8350.440928,0.000000
4195.165998,-518.144159,-8273.831378,-592.164754
4195.166322,666.185348,-8886.707777,296.082377
4195.166646,1036.288319,-9039.926876,-666.185348
4195.166971,740.205942,-9269.755526,-1554.432478
4195.167295,518.144159,-9422.974625,-814.226536
4195.167619,-888.247130,-8810.098227,-296.082377
4195.167944,-1776.494261,-8197.221829,-740.205942
4195.168268,-2960.823768,-7584.345430,-296.082377
4195.168592,-1480.411884,-7967.393179,370.102971
4195.168917,0.000000,-7354.516781,1184.329507
4195.169241,962.267725,-7354.516781,148.041188
4195.169566,3775.050304,-8273.831378,222.061783
4195.169890,4145.153275,-7890.783629,0.000000
4195.170214,3775.050304,-8273.831378,-444.123565
4195.170539,3404.947333,-8733.488677,-1184.329507
4195.170863,1776.494261,-9269.755526,-1184.329507
4195.171187,-592.164754,-9193.145976,-296.082377
4195.171512,-1850.514855,-8810.098227,-740.205942
4195.171836,-3256.906145,-9499.584175,-370.102971
4195.172161,-2516.700203,-8503.660028,-296.082377
4195.172485,-1110.308913,-8580.269578,-74.020594
4195.172809,148.041188,-8656.879127,-814.226536
4195.173134,2072.576638,-8503.660028,-74.020594
4195.173458,1184.329507,-8197.221829,-1332.370696
4195.173782,2072.576638,-8886.707777,-1110.308913
4195.174107,370.102971,-8044.002729,-296.082377
4195.174431,-1258.350101,-8810.098227,-148.041188
4195.174756,-296.082377,-8810.098227,666.185348
4195.175080,-592.164754,-8120.612279,444.123565
4195.175404,1850.514855,-10035.851024,592.164754
4195.175729,3552.988522,-8656.879127,0.000000
4195.176053,2886.803174,-9269.755526,-666.185348
4195.176377,2368.659014,-9039.926876,-962.267725
4195.176702,1850.514855,-8427.050478,-1406.391290
4195.177026,74.020594,-9039.926876,-888.247130
4195.177351,-888.247130,-8580.269578,0.000000
4195.177675,-1554.432478,-8427.050478,-1258.350101
4195.177999,-2072.576638,-8886.707777,-518.144159
4195.178324,-1924.535449,-8427.050478,0.000000
4195.178648,666.185348,-9269.755526,-1110.308913
4195.178972,1480.411884,-9806.022374,-888.247130
4195.179297,740.205942,-9269.755526,-518.144159
4195.179621,1036.288319,-10495.508323,-1036.288319
4195.179946,-814.226536,-8427.050478,-1184.329507
4195.180270,-1480.411884,-8886.707777,0.000000
4195.180594,-2664.741391,-8503.660028,518.144159
4195.180919,-2220.617826,-7660.954980,0.000000
4195.181243,-592.164754,-7890.783629,444.123565
4195.181567,1776.494261,-7737.564530,370.102971
4195.181892,3701.029710,-7737.564530,0.000000
4195.182216,3849.070898,-8580.269578,-296.082377
4195.182541,3775.050304,-9346.365076,0.000000
4195.182865,2590.720797,-8580.269578,-814.226536
4195.183189,1110.308913,-9422.974625,-814.226536
4195.183514,-666.185348,-9576.193725,-370.102971
4195.183838,-1036.288319,-9806.022374,-888.247130
4195.184162,-2368.659014,-9422.974625,0.000000
4195.184487,-2294.638420,-8580.269578,-370.102971
4195.184811,-1110.308913,-8810.098227,74.020594
4195.185136,-962.267725,-8273.831378,-962.267725
4195.185460,1036.288319,-9193.145976,-592.164754
4195.185784,592.164754,-7431.126331,-740.205942
4195.186109,-296.082377,-7967.393179,-518.144159
4195.186433,0.000000,-7507.735880,-444.123565
4195.186757,-740.205942,-8733.488677,148.041188
4195.187082,1110.308913,-9193.145976,666.185348
4195.187406,1776.494261,-7967.393179,444.123565
4195.187730,2146.597232,-8886.707777,1036.288319
4195.188055,3108.864956,-9576.193725,74.020594
4195.188379,2886.803174,-8580.269578,-444.123565
4195.188704,2368.659014,-8886.707777,-518.144159
4195.189028,1850.514855,-8350.440928,-518.144159
4195.189352,222.061783,-7814.174080,-740.205942
4195.189677,-2146.597232,-8580.269578,-1036.288319
4195.190001,-1998.556043,-8733.488677,0.000000
4195.190325,-1258.350101,-7737.564530,-1554.432478
4195.190650,518.144159,-8810.098227,-444.123565
4195.190974,1480.411884,-9116.536426,0.000000
4195.191299,1332.370696,-9652.803275,-222.061783
4195.191623,592.164754,-9116.536426,-1036.288319
4195.191947,370.102971,-9269.755526,-296.082377
4195.192272,0.000000,-8120.612279,-1258.350101
4195.192596,-1554.432478,-8963.317327,-148.041188
4195.192920,-1776.494261,-8427.050478,-296.082377
4195.193245,-1480.411884,-8197.221829,740.205942
4195.193569,592.164754,-7507.735880,0.000000
4195.193894,2072.576638,-8044.002729,-148.041188
4195.194218,3330.926739,-8120.612279,148.041188
4195.194542,4145.153275,-8580.269578,-148.041188
4195.194867,7105.977043,-8963.317327,0.000000
4195.195191,962.267725,-9422.974625,-1628.453072
4195.195515,2516.700203,-9806.022374,-814.226536
4195.195840,-1850.514855,-9806.022374,-222.061783
4195.196164,-1702.473667,-9193.145976,-1036.288319
4195.196489,-2146.597232,-9193.145976,0.000000
4195.196813,-2812.782580,-8197.221829,-814.226536
4195.197137,-2146.597232,-9116.536426,0.000000
4195.197462,444.123565,-8044.002729,-1850.514855
4195.197786,222.061783,-9652.803275,370.102971
4195.198110,1184.329507,-7814.174080,-1110.308913
4195.198435,1110.308913,-8197.221829,-1332.370696
4195.198759,-592.164754,-8120.612279,-814.226536
4195.199084,148.041188,-8810.098227,148.041188
4195.199408,-592.164754,-8427.050478,148.041188
4195.199732,814.226536,-9116.536426,1332.370696
4195.200057,1628.453072,-8427.050478,444.123565
4195.200381,2220.617826,-8810.098227,-148.041188
4195.200705,2072.576638,-9422.974625,-148.041188
4195.201030,2368.659014,-8580.269578,-666.185348
4195.201354,740.205942,-8656.879127,-296.082377
4195.201679,-888.247130,-8503.660028,-1332.370696
4195.202003,-1554.432478,-9576.193725,74.020594
4195.202327,-2220.617826,-7201.297681,-1628.453072
4195.202652,-148.041188,-9269.755526,148.041188
4195.202976,888.247130,-7890.783629,-592.164754
4195.203300,2072.576638,-9422.974625,1036.288319
4195.203624,1628.453072,-9039.926876,-814.226536
4195.203949,1850.514855,-9269.755526,-666.185348
4195.204273,740.205942,-9039.926876,-518.144159
4195.204597,-518.144159,-8656.879127,0.000000
4195.204922,-1554.432478,-8733.488677,0.000000
4195.205246,-3182.885551,-8120.612279,0.000000
4195.205570,-1184.329507,-8350.440928,592.164754
4195.205895,-962.267725,-7354.516781,0.000000
4195.206219,1332.370696,-7737.564530,888.247130
4195.206543,3404.947333,-8580.269578,1184.329507
4195.206867,4293.194464,-8656.879127,-148.041188
4195.207192,3627.009116,-8656.879127,-222.061783
4195.207516,2738.761985,-8427.050478,-1480.411884
4195.207840,1110.308913,-9806.022374,-296.082377
4195.208165,-444.123565,-8810.098227,-592.164754
4195.208489,-1850.514855,-9499.584175,-666.185348
4195.208813,-2590.720797,-8273.831378,-444.123565
4195.209137,-2664.741391,-8503.660028,444.123565
4195.209462,-1110.308913,-8733.488677,-222.061783
4195.209786,1332.370696,-8427.050478,-666.185348
4195.210110,1480.411884,-8350.440928,-592.164754
4195.210435,1776.494261,-7507.735880,-1480.411884
4195.210759,1776.494261,-8580.269578,-1554.432478
4195.211083,-370.102971,-8197.221829,-296.082377
4195.211407,2072.576638,-8886.707777,0.000000
4195.211732,-370.102971,-8350.440928,-296.082377
4195.212056,222.061783,-8120.612279,444.123565
4195.212380,222.061783,-9346.365076,666.185348
4195.212705,518.144159,-8886.707777,74.020594
4195.213029,1554.432478,-7890.783629,-1110.308913
4195.213353,2220.617826,-9729.412825,0.000000
4195.213677,592.164754,-7201.297681,-1776.494261
4195.214002,1406.391290,-9422.974625,-888.247130
4195.214326,-666.185348,-8580.269578,-888.247130
4195.214650,-370.102971,-8580.269578,-592.164754
4195.214975,-370.102971,-8656.879127,-222.061783
4195.215299,518.144159,-9576.193725,148.041188
4195.215623,666.185348,-8733.488677,-296.082377
4195.215947,740.205942,-9422.974625,-666.185348
4195.216272,-962.267725,-9882.631924,-1628.453072
4195.216596,1702.473667,-9576.193725,-1110.308913
4195.216920,-1480.411884,-8810.098227,-1406.391290
4195.217245,-1850.514855,-8733.488677,0.000000
4195.217569,-3552.988522,-7737.564530,518.144159
4195.217893,-2072.576638,-8273.831378,148.041188
4195.218218,-444.123565,-8044.002729,666.185348
4195.218542,2368.659014,-8273.831378,0.000000
4195.218866,4219.173869,-8120.612279,592.164754
4195.219190,4145.153275,-7584.345430,-888.247130
4195.219515,3997.112087,-9576.193725,-814.226536
4195.219839,1776.494261,-8733.488677,-1406.391290
4195.220163,148.041188,-9346.365076,0.000000
4195.220488,-1702.473667,-8963.317327,-962.267725
4195.220812,-2220.617826,-8350.440928,-296.082377
4195.221136,-2368.659014,-8810.098227,444.123565
4195.221460,-740.205942,-7890.783629,-740.205942
4195.221785,1776.494261,-9499.584175,148.041188
4195.222109,1332.370696,-8886.707777,-518.144159
4195.222433,-370.102971,-7277.907231,74.020594
4195.222758,1554.432478,-8886.707777,-666.185348
4195.223082,666.185348,-8656.879127,-1332.370696
4195.223406,370.102971,-8656.879127,1110.308913
4195.223730,370.102971,-7431.126331,-74.020594
4195.224055,-740.205942,-8427.050478,666.185348
4195.224379,1184.329507,-8580.269578,1258.350101
4195.224703,1850.514855,-8120.612279,-222.061783
4195.225028,2294.638420,-8886.707777,518.144159
4195.225352,1850.514855,-8350.440928,-888.247130
4195.225676,2664.741391,-8656.879127,0.000000
4195.226000,2294.638420,-8503.660028,0.000000
4195.226325,296.082377,-8273.831378,-814.226536
4195.226649,-1332.370696,-9116.536426,-592.164754
4195.226973,-2146.597232,-8427.050478,-518.144159
4195.227298,-592.164754,-9193.145976,0.000000
4195.227622,0.000000,-7890.783629,296.082377
4195.227946,1702.473667,-8580.269578,0.000000
4195.228270,2220.617826,-9576.193725,-592.164754
4195.228595,2072.576638,-8963.317327,-1184.329507
4195.228919,1406.391290,-8810.098227,-814.226536
4195.229243,370.102971,-8733.488677,-296.082377
4195.229568,-1036.288319,-8886.707777,74.020594
4195.229892,-1702.473667,-7737.564530,148.041188
4195.230216,-1184.329507,-8273.831378,592.164754
4195.230541,-592.164754,-8273.831378,1036.288319
4195.230865,1998.556043,-8350.440928,1036.288319
4195.231189,2960.823768,-7660.954980,-444.123565
4195.231513,3182.885551,-9269.755526,0.000000
4195.231838,3256.906145,-8427.050478,-1480.411884
4195.232162,2590.720797,-8503.660028,-888.247130
4195.232486,444.123565,-8963.317327,-518.144159
4195.232811,-370.102971,-9422.974625,-1110.308913
4195.233135,-1702.473667,-9116.536426,-1702.473667
4195.233459,-2220.617826,-9959.241474,814.226536
4195.233783,-1924.535449,-8197.221829,-740.205942
4195.234108,-370.102971,-8656.879127,-148.041188
4195.234432,0.000000,-8733.488677,-814.226536
4195.234756,888.247130,-8733.488677,-296.082377
4195.235081,-222.061783,-7967.393179,-1776.494261
4195.235405,74.020594,-8810.098227,-1184.329507
4195.235729,-1036.288319,-8197.221829,-370.102971
4195.236053,-962.267725,-9269.755526,296.082377
4195.236378,-592.164754,-9039.926876,370.102971
4195.236702,296.082377,-8044.002729,0.000000
4195.237026,2072.576638,-8733.488677,740.205942
4195.237351,1850.514855,-7967.393179,-666.185348
4195.237675,2590.720797,-9193.145976,-518.144159
4195.237999,2368.659014,-7660.954980,-740.205942
4195.238323,1628.453072,-8273.831378,-592.164754
4195.238648,-666.185348,-8197.221829,-1036.288319
4195.238972,-1554.432478,-8273.831378,-666.185348
4195.239296,-1554.432478,-8886.707777,-1036.288319
4195.239621,-814.226536,-8503.660028,-592.164754
4195.239945,666.185348,-9193.145976,0.000000
4195.240269,1628.453072,-9269.755526,0.000000
4195.240593,592.164754,-8886.707777,0.000000
4195.240918,592.164754,-8886.707777,-740.205942
4195.241242,1406.391290,-9193.145976,-740.205942
4195.241566,-888.247130,-7507.735880,-962.267725
4195.241891,-1036.288319,-9116.536426,222.061783
4195.242215,-1554.432478,-7354.516781,-518.144159
4195.242539,-1110.308913,-8656.879127,592.164754
4195.242864,-148.041188,-7660.954980,-296.082377
4195.243188,2368.659014,-8810.098227,1110.308913
4195.243512,2294.638420,-7890.783629,0.000000
4195.243836,3108.864956,-8963.317327,148.041188
4195.244161,2886.803174,-8197.221829,-1258.350101
4195.244485,3034.844362,-9193.145976,-518.144159
4195.244809,962.267725,-8503.660028,-666.185348
4195.245134,-1332.370696,-8810.098227,-296.082377
4195.245458,-1480.411884,-8886.707777,-148.041188
4195.245782,-2368.659014,-8044.002729,-444.123565
4195.246106,-148.041188,-8886.707777,-222.061783
4195.246431,666.185348,-7967.393179,-296.082377
4195.246755,1628.453072,-8580.269578,74.020594
4195.247079,1258.350101,-8120.612279,-962.267725
4195.247404,1850.514855,-8886.707777,-962.267725
4195.247728,74.020594,-7890.783629,-1110.308913
4195.248052,74.020594,-8580.269578,0.000000
4195.248376,-592.164754,-8733.488677,0.000000
4195.248701,-888.247130,-8503.660028,222.061783
4195.249025,444.123565,-8273.831378,518.144159
4195.249349,1036.288319,-8733.488677,296.082377
4195.249674,2146.597232,-8963.317327,-666.185348
4195.249998,2146.597232,-8886.707777,-296.082377
4195.250322,2368.659014,-9116.536426,-1110.308913
4195.250646,1110.308913,-8120.612279,-888.247130
4195.250971,666.185348,-8197.221829,-1036.288319
4195.251295,-148.041188,-8963.317327,-888.247130
4195.251619,-1258.350101,-8656.879127,-1258.350101
4195.251944,-740.205942,-9116.536426,74.020594
4195.252268,444.123565,-8656.879127,0.000000
4195.252592,888.247130,-9499.584175,0.000000
4195.252916,296.082377,-9499.584175,-518.144159
4195.253241,444.123565,-9422.974625,-222.061783
4195.253565,-814.226536,-8427.050478,-148.041188
4195.253889,-592.164754,-8427.050478,-148.041188
4195.254214,-2368.659014,-8350.440928,-666.185348
4195.254538,-2368.659014,-8963.317327,-370.102971
4195.254862,-1776.494261,-8656.879127,444.123565
4195.255187,-370.102971,-7967.393179,370.102971
4195.255511,2590.720797,-8044.002729,74.020594
4195.255835,3108.864956,-8350.440928,296.082377
4195.256159,3552.988522,-8733.488677,-148.041188
4195.256484,4071.132681,-8273.831378,-1110.308913
4195.256808,1998.556043,-8963.317327,0.000000
4195.257132,740.205942,-8427.050478,-1332.370696
4195.257457,-1406.391290,-9116.536426,-370.102971
4195.257781,-2738.761985,-8733.488677,-666.185348
4195.258105,-2442.679609,-8733.488677,-592.164754
4195.258429,-1554.432478,-8273.831378,-296.082377
4195.258754,-962.267725,-8580.269578,0.000000
4195.259078,1332.370696,-8656.879127,-888.247130
4195.259402,740.205942,-8656.879127,-592.164754
4195.259727,1480.411884,-7814.174080,-962.267725
4195.260051,1258.350101,-8427.050478,-666.185348
4195.260375,370.102971,-8810.098227,296.082377
4195.260699,-888.247130,-8273.831378,814.226536
4195.261024,-592.164754,-8733.488677,148.041188
4195.261348,518.144159,-8197.221829,0.000000
4195.261672,1998.556043,-9346.365076,666.185348
4195.261997,2368.659014,-8120.612279,-370.102971
4195.262321,1924.535449,-8120.612279,296.082377
4195.262645,1406.391290,-7354.516781,-222.061783
4195.262969,1406.391290,-8044.002729,0.000000
4195.263294,740.205942,-8427.050478,-740.205942
4195.263618,444.123565,-8580.269578,-666.185348
4195.263942,0.000000,-8733.488677,-1184.329507
4195.264267,0.000000,-9193.145976,-518.144159
4195.264591,1554.432478,-8963.317327,0.000000
4195.264915,1628.453072,-8580.269578,148.041188
4195.265239,1924.535449,-8733.488677,-666.185348
4195.265564,1702.473667,-9269.755526,-518.144159
4195.265888,-370.102971,-7814.174080,-1110.308913
4195.266212,666.185348,-8503.660028,0.000000
4195.266537,-1480.411884,-8273.831378,-962.267725
4195.266861,-1110.308913,-8656.879127,0.000000
4195.267185,148.041188,-7584.345430,0.000000
4195.267510,2220.617826,-7967.393179,666.185348
4195.267834,2442.679609,-8044.002729,74.020594
4195.268158,3034.844362,-8656.879127,0.000000
4195.268482,2146.597232,-8886.707777,-814.226536
4195.268807,1776.494261,-9806.022374,-1110.308913
4195.269131,444.123565,-9039.926876,-962.267725
4195.269455,74.020594,-8427.050478,-1332.370696
4195.269780,-2516.700203,-9116.536426,-1110.308913
4195.270104,-2664.741391,-9116.536426,-814.226536
4195.270428,-1998.556043,-8656.879127,-666.185348
4195.270752,-370.102971,-8810.098227,74.020594
4195.271077,666.185348,-8350.440928,0.000000
4195.271401,2368.659014,-9346.365076,-740.205942
4195.271725,2294.638420,-8810.098227,-1036.288319
4195.272050,2072.576638,-8197.221829,-888.247130
4195.272374,1628.453072,-8810.098227,-814.226536
4195.272698,0.000000,-9729.412825,0.000000
4195.273022,-1850.514855,-8503.660028,666.185348
4195.273347,-1924.535449,-9116.536426,444.123565
4195.273671,-1628.453072,-7660.954980,0.000000
4195.273995,1554.432478,-8810.098227,1036.288319
4195.274320,1850.514855,-7584.345430,148.041188
4195.274644,1776.494261,-9193.145976,-370.102971
4195.274968,1776.494261,-9039.926876,-888.247130
4195.275292,1702.473667,-8963.317327,-888.247130
4195.275617,962.267725,-8580.269578,-666.185348
4195.275941,-222.061783,-7967.393179,-592.164754
4195.276265,-1258.350101,-8733.488677,74.020594
4195.276590,-518.144159,-8963.317327,-1036.288319
4195.276914,0.000000,-9193.145976,148.041188
4195.277238,-814.226536,-8886.707777,-666.185348
4195.277562,0.000000,-9193.145976,-148.041188
4195.277887,740.205942,-8580.269578,0.000000
4195.278211,-444.123565,-8044.002729,-518.144159
4195.278535,296.082377,-8044.002729,-740.205942
4195.278860,-1036.288319,-7814.174080,222.061783
4195.279184,-518.144159,-8427.050478,296.082377
4195.279508,0.000000,-7814.174080,74.020594
4195.279833,2368.659014,-8886.707777,1258.350101
4195.280157,2590.720797,-7890.783629,74.020594
4195.280481,3182.885551,-8886.707777,666.185348
4195.280805,1850.514855,-8273.831378,-592.164754
4195.281130,2072.576638,-9269.755526,-962.267725
4195.281454,444.123565,-8273.831378,-592.164754
4195.281778,-518.144159,-8886.707777,-518.144159
4195.282103,-1628.453072,-8427.050478,-814.226536
4195.282427,-1850.514855,-7967.393179,370.102971
4195.282751,-592.164754,-8120.612279,-370.102971
4195.283075,1332.370696,-8120.612279,0.000000
4195.283400,2368.659014,-8580.269578,148.041188
4195.283724,2220.617826,-9039.926876,-666.185348
4195.284048,1702.473667,-8810.098227,-814.226536
4195.284373,962.267725,-8044.002729,-1110.308913
4195.284697,222.061783,-8503.660028,-592.164754
4195.285021,-296.082377,-9193.145976,0.000000
4195.285345,-1258.350101,-8733.488677,0.000000
4195.285670,-1332.370696,-8427.050478,592.164754
4195.285994,-444.123565,-7814.174080,-148.041188
4195.286318,1406.391290,-9039.926876,296.082377
4195.286643,3034.844362,-7660.954980,-888.247130
4195.286967,3182.885551,-8044.002729,-370.102971
4195.287291,2516.700203,-8733.488677,-962.267725
4195.287615,1998.556043,-8810.098227,-1036.288319
4195.287940,444.123565,-8963.317327,-888.247130
4195.288264,-740.205942,-9652.803275,-1184.329507
4195.288588,-1184.329507,-8963.317327,-1924.535449
4195.288913,-1628.453072,-9652.803275,-740.205942
4195.289237,-1110.308913,-8963.317327,222.061783
4195.289561,-296.082377,-8733.488677,-592.164754
4195.289885,592.164754,-8886.707777,0.000000
4195.290210,1110.308913,-8120.612279,-1036.288319
4195.290534,222.061783,-8580.269578,-1924.535449
4195.290858,0.000000,-8273.831378,-1554.432478
4195.291183,-222.061783,-8963.317327,740.205942
4195.291507,-1776.494261,-6741.640382,-296.082377
4195.291831,2072.576638,-9269.755526,222.061783
4195.292156,222.061783,-8810.098227,148.041188
4195.292480,1110.308913,-8656.879127,370.102971
4195.292804,2664.741391,-8044.002729,-740.205942
4195.293128,1036.288319,-9729.412825,-740.205942
4195.293453,1924.535449,-8580.269578,-962.267725
4195.293777,-444.123565,-7737.564530,-296.082377
4195.294101,-2294.638420,-9959.241474,-296.082377
4195.294426,-2738.761985,-7890.783629,-814.226536
4195.294750,-1776.494261,-8810.098227,-148.041188
4195.295074,-1702.473667,-8273.831378,-1036.288319
4195.295398,666.185348,-8656.879127,222.061783
4195.295723,666.185348,-8044.002729,-814.226536
4195.296047,1776.494261,-9116.536426,0.000000
4195.296371,2220.617826,-7967.393179,-444.123565
4195.296696,1332.370696,-8427.050478,-1110.308913
4195.297020,74.020594,-8503.660028,-888.247130
4195.297344,-1184.329507,-8580.269578,444.123565
4195.297668,-2368.659014,-8580.269578,0.000000
4195.297993,-2368.659014,-8273.831378,518.144159
4195.298317,-814.226536,-7890.783629,1702.473667
4195.298641,814.226536,-7660.954980,148.041188
4195.298966,2146.597232,-7890.783629,0.000000
4195.299290,4071.132681,-8427.050478,370.102971
4195.299614,2960.823768,-8427.050478,-1036.288319
4195.299938,2368.659014,-8580.269578,-1036.288319
4195.300263,1406.391290,-9039.926876,-148.041188
4195.300587,148.041188,-8427.050478,222.061783
4195.300911,-1480.411884,-8503.660028,0.000000
4195.301236,-666.185348,-10112.460574,222.061783
4195.301560,-888.247130,-8427.050478,148.041188
4195.301884,518.144159,-8427.050478,74.020594
4195.302209,1036.288319,-8503.660028,-74.020594
4195.302533,1702.473667,-8656.879127,-444.123565
4195.302857,962.267725,-8427.050478,-740.205942
4195.303181,444.123565,-8120.612279,-592.164754
4195.303506,148.041188,-8197.221829,0.000000
4195.303830,0.000000,-8810.098227,592.164754
4195.304154,-518.144159,-8733.488677,222.061783
4195.304479,1184.329507,-8886.707777,296.082377
4195.304803,1184.329507,-8273.831378,-296.082377
4195.305127,1776.494261,-8350.440928,-444.123565
4195.305452,1998.556043,-9116.536426,-962.267725
4195.305776,3330.926739,-8733.488677,-740.205942
4195.306100,962.267725,-7737.564530,-1332.370696
4195.306424,0.000000,-8810.098227,-666.185348
4195.306749,-1036.288319,-8503.660028,-592.164754
4195.307073,-1258.350101,-7890.783629,-1184.329507
4195.307397,0.000000,-9116.536426,-740.205942
4195.307722,1184.329507,-8656.879127,-888.247130
4195.308046,2294.638420,-9729.412825,-370.102971
4195.308370,296.082377,-8350.440928,-1776.494261
4195.308695,1332.370696,-9729.412825,-222.061783
4195.309019,0.000000,-8197.221829,-814.226536
4195.309343,-740.205942,-9039.926876,-518.144159
4195.309667,-1406.391290,-8580.269578,-296.082377
4195.309992,-3404.947333,-8886.707777,-370.102971
4195.310316,-2220.617826,-9193.145976,-148.041188
4195.310640,-1406.391290,-8197.221829,-370.102971
4195.310965,962.267725,-8886.707777,444.123565
4195.311289,1776.494261,-7814.174080,-1332.370696
4195.311613,4515.256246,-9039.926876,370.102971
4195.311938,2146.597232,-7660.954980,-2146.597232
4195.312262,3034.844362,-9422.974625,-592.164754
4195.312586,-518.144159,-7660.954980,-1258.350101
4195.312911,-814.226536,-9882.631924,814.226536
4195.313235,-814.226536,-8044.002729,-1480.411884
4195.313559,-444.123565,-9346.365076,74.020594
4195.313883,74.020594,-7967.393179,-740.205942
4195.314208,0.000000,-8656.879127,296.082377
4195.314532,740.205942,-8273.831378,-962.267725
4195.314856,0.000000,-8503.660028,-296.082377
4195.315181,444.123565,-7737.564530,-1184.329507
4195.315505,-740.205942,-8580.269578,-740.205942
4195.315829,0.000000,-9039.926876,296.082377
4195.316154,0.000000,-8733.488677,148.041188
4195.316478,-888.247130,-8656.879127,-370.102971
4195.316802,1258.350101,-8963.317327,666.185348
4195.317126,962.267725,-8044.002729,592.164754
4195.317451,1702.473667,-9422.974625,-444.123565
4195.317775,1998.556043,-8503.660028,0.000000
4195.318099,814.226536,-8273.831378,-444.123565
4195.318424,888.247130,-8503.660028,-444.123565
4195.318748,0.000000,-7967.393179,-518.144159
4195.319072,-518.144159,-9116.536426,-444.123565
4195.319397,-740.205942,-7660.954980,74.020594
4195.319721,888.247130,-8503.660028,740.205942
4195.320045,148.041188,-8350.440928,148.041188
4195.320370,2368.659014,-8810.098227,-222.061783
4195.320694,2368.659014,-8503.660028,-1184.329507
4195.321018,2442.679609,-9116.536426,-148.041188
4195.321342,1184.329507,-7814.174080,-1184.329507
4195.321667,-518.144159,-9039.926876,0.000000
4195.321991,-2516.700203,-8580.269578,740.205942
4195.322315,-3034.844362,-8963.317327,518.144159
4195.322640,-1702.473667,-7737.564530,74.020594
4195.322964,222.061783,-8197.221829,814.226536
4195.323288,2516.700203,-7737.564530,370.102971
4195.323613,3478.967927,-7890.783629,-148.041188
4195.323937,3775.050304,-8044.002729,-1110.308913
4195.324261,3478.967927,-9193.145976,-962.267725
4195.324586,1702.473667,-8350.440928,-1258.350101
4195.324910,1924.535449,-9422.974625,-148.041188
4195.325234,148.041188,-8197.221829,-296.082377
4195.325558,-2220.617826,-9193.145976,-1258.350101
4195.325883,-592.164754,-9116.536426,-222.061783
4195.326207,-962.267725,-8656.879127,-222.061783
4195.326531,-296.082377,-9576.193725,0.000000
4195.326856,370.102971,-8197.221829,-888.247130
4195.327180,962.267725,-9039.926876,-444.123565
4195.327504,-222.061783,-7814.174080,-1702.473667
4195.327829,1110.308913,-8733.488677,-962.267725
4195.328153,-148.041188,-7431.126331,-370.102971
4195.328477,-962.267725,-9039.926876,0.000000
4195.328801,-1110.308913,-8427.050478,-222.061783
4195.329126,222.061783,-9806.022374,1036.288319
4195.329450,962.267725,-8044.002729,-666.185348
4195.329774,2146.597232,-8886.707777,370.102971
4195.330099,1258.350101,-8273.831378,-888.247130
4195.330423,1036.288319,-9039.926876,-814.226536
4195.330747,-296.082377,-8580.269578,-1702.473667
4195.331072,-962.267725,-9039.926876,-962.267725
4195.331396,-1702.473667,-8656.879127,-888.247130
4195.331720,-2072.576638,-8427.050478,74.020594
4195.332045,-592.164754,-8580.269578,-444.123565
4195.332369,444.123565,-9039.926876,74.020594
4195.332693,2368.659014,-9652.803275,-1036.288319
4195.333017,962.267725,-8733.488677,-1110.308913
4195.333342,1406.391290,-9039.926876,-444.123565
4195.333666,-518.144159,-7354.516781,-1184.329507
4195.333990,592.164754,-9193.145976,370.102971
4195.334315,-1998.556043,-8197.221829,0.000000
4195.334639,-2664.741391,-9116.536426,148.041188
4195.334963,-1850.514855,-7584.345430,0.000000
4195.335288,296.082377,-8733.488677,1036.288319
4195.335612,2294.638420,-7967.393179,-148.041188
4195.335936,1924.535449,-7737.564530,148.041188
4195.336261,2812.782580,-7967.393179,370.102971
4195.336585,2812.782580,-8503.660028,-666.185348
4195.336909,2294.638420,-8733.488677,-1110.308913
4195.337233,888.247130,-8810.098227,74.020594
4195.337558,-888.247130,-8656.879127,-148.041188
4195.337882,-2368.659014,-8580.269578,-740.205942
4195.338206,-1332.370696,-8810.098227,74.020594
4195.338531,0.000000,-8273.831378,518.144159
4195.338855,888.247130,-8656.879127,0.000000
4195.339179,222.061783,-8120.612279,-222.061783
4195.339504,2664.741391,-8427.050478,370.102971
4195.339828,1776.494261,-7814.174080,-888.247130
4195.340152,148.041188,-8273.831378,0.000000
4195.340476,0.000000,-6971.469032,518.144159
4195.340801,1998.556043,-9422.974625,962.267725
4195.341125,-666.185348,-8197.221829,74.020594
4195.341449,1776.494261,-8273.831378,740.205942
4195.341774,1850.514855,-7277.907231,0.000000
4195.342098,1258.350101,-8656.879127,148.041188
4195.342422,2220.617826,-8427.050478,-222.061783
4195.342747,2368.659014,-7737.564530,-1258.350101
4195.343071,444.123565,-9346.365076,-962.267725
4195.343395,0.000000,-8427.050478,-1036.288319
4195.343720,0.000000,-8886.707777,-148.041188
4195.344044,-1036.288319,-8044.002729,-1184.329507
4195.344368,-296.082377,-9806.022374,222.061783
4195.344692,222.061783,-8197.221829,-814.226536
4195.345017,1184.329507,-9422.974625,-444.123565
4195.345341,1184.329507,-7660.954980,-148.041188
4195.345665,1702.473667,-8886.707777,-814.226536
4195.345990,740.205942,-8656.879127,-1184.329507
4195.346314,-444.123565,-8963.317327,-666.185348
4195.346638,-1036.288319,-8044.002729,-740.205942
4195.346963,-740.205942,-9269.755526,-222.061783
4195.347287,-740.205942,-8580.269578,74.020594
4195.347611,518.144159,-8886.707777,296.082377
4195.347935,1480.411884,-7737.564530,74.020594
4195.348260,1332.370696,-8886.707777,-444.123565
4195.348584,1480.411884,-7967.393179,-1406.391290
4195.348908,2368.659014,-8963.317327,-592.164754
4195.349233,814.226536,-8733.488677,-962.267725
4195.349557,370.102971,-9729.412825,-1258.350101
4195.349881,-1998.556043,-9039.926876,-814.226536
4195.350206,-962.267725,-9269.755526,-1110.308913
4195.350530,-1036.288319,-8963.317327,-518.144159
4195.350854,-740.205942,-8886.707777,-296.082377
4195.351179,148.041188,-9499.584175,148.041188
4195.351503,148.041188,-7890.783629,-962.267725
4195.351827,-148.041188,-9039.926876,0.000000
4195.352151,1036.288319,-7814.174080,-1184.329507
4195.352476,-518.144159,-8044.002729,-518.144159
4195.352800,-666.185348,-8427.050478,-518.144159
4195.353124,-592.164754,-8350.440928,518.144159
4195.353449,-666.185348,-7890.783629,-148.041188
4195.353773,1258.350101,-8810.098227,370.102971
4195.354097,1258.350101,-7890.783629,0.000000
4195.354422,2072.576638,-8427.050478,148.041188
4195.354746,1702.473667,-8273.831378,-1110.308913
4195.355070,1184.329507,-9346.365076,-1036.288319
4195.355395,-518.144159,-8197.221829,-962.267725
4195.355719,-1628.453072,-8733.488677,592.164754
4195.356043,-1184.329507,-8197.221829,0.000000
4195.356367,-2072.576638,-9193.145976,0.000000
4195.356692,666.185348,-8886.707777,740.205942
4195.357016,1628.453072,-7814.174080,74.020594
4195.357340,2812.782580,-9039.926876,444.123565
4195.357665,2294.638420,-7967.393179,-370.102971
4195.357989,1258.350101,-8810.098227,-74.020594
4195.358313,370.102971,-8580.269578,-814.226536
4195.358638,-1776.494261,-8427.050478,0.000000
4195.358962,-2146.597232,-8350.440928,518.144159
4195.359286,-1702.473667,-9193.145976,740.205942
4195.359610,-1184.329507,-7737.564530,444.123565
4195.359935,-444.123565,-8273.831378,0.000000
4195.360259,2738.761985,-8810.098227,148.041188
4195.360583,2294.638420,-7124.688131,-666.185348
4195.360908,3849.070898,-9499.584175,0.000000
4195.361232,4441.235652,-7660.954980,-1554.432478
4195.361556,1850.514855,-9346.365076,-592.164754
4195.361881,962.267725,-8197.221829,-814.226536
4195.362205,444.123565,-9652.803275,-370.102971
4195.362529,-1406.391290,-8886.707777,-1110.308913
4195.362854,-444.123565,-8963.317327,222.061783
4195.363178,518.144159,-7890.783629,-592.164754
4195.363502,1554.432478,-9499.584175,74.020594
4195.363826,1850.514855,-8197.221829,-1406.391290
4195.364151,2072.576638,-8656.879127,-296.082377
4195.364475,0.000000,-8120.612279,-1702.473667
4195.364799,-592.164754,-9499.584175,-296.082377
4195.365124,-1406.391290,-8580.269578,-444.123565
4195.365448,-2220.617826,-9193.145976,-592.164754
4195.365772,-1184.329507,-8886.707777,0.000000
4195.366097,666.185348,-8886.707777,-296.082377
4195.366421,2664.741391,-9193.145976,-444.123565
4195.366745,2072.576638,-8427.050478,-666.185348
4195.367069,1924.535449,-8427.050478,-1554.432478
4195.367394,1480.411884,-8810.098227,-814.226536
4195.367718,370.102971,-8350.440928,-1184.329507
4195.368042,0.000000,-8963.317327,-1258.350101
4195.368367,-1480.411884,-9039.926876,-814.226536
4195.368691,-1036.288319,-9193.145976,-444.123565
4195.369015,-592.164754,-8963.317327,-1554.432478
4195.369340,1258.350101,-9039.926876,-370.102971
4195.369664,962.267725,-8886.707777,-296.082377
4195.369988,814.226536,-8273.831378,-592.164754
4195.370313,1184.329507,-8886.707777,-148.041188
4195.370637,814.226536,-8427.050478,-1036.288319
4195.370961,296.082377,-9422.974625,-370.102971
4195.371285,-1554.432478,-7967.393179,-888.247130
4195.371610,-1924.535449,-9422.974625,74.020594
4195.371934,-2664.741391,-8503.660028,74.020594
4195.372258,-296.082377,-8427.050478,666.185348
4195.372583,1776.494261,-8120.612279,444.123565
4195.372907,1258.350101,-8197.221829,-222.061783
4195.373231,2368.659014,-8733.488677,-444.123565
4195.373556,1480.411884,-8044.002729,-1480.411884
4195.373880,1554.432478,-10265.679673,-888.247130
4195.374204,0.000000,-8197.221829,-740.205942
4195.374529,-962.267725,-8656.879127,222.061783
4195.374853,-1628.453072,-8886.707777,222.061783
4195.375177,0.000000,-9193.145976,0.000000
4195.375501,962.267725,-8427.050478,444.123565
4195.375826,1554.432478,-8656.879127,148.041188
4195.376150,666.185348,-7814.174080,-814.226536
4195.376474,1480.411884,-8197.221829,-222.061783
4195.376799,222.061783,-7584.345430,148.041188
4195.377123,0.000000,-8656.879127,592.164754
4195.377447,-1850.514855,-8120.612279,0.000000
4195.377772,-1480.411884,-9193.145976,888.247130
4195.378096,-370.102971,-7660.954980,74.020594
4195.378420,1480.411884,-9193.145976,74.020594
4195.378744,2886.803174,-7737.564530,592.164754
4195.379069,2442.679609,-8273.831378,518.144159
4195.379393,2072.576638,-8197.221829,-740.205942
4195.379717,1998.556043,-8503.660028,-370.102971
4195.380042,888.247130,-8350.440928,-740.205942
4195.380366,518.144159,-8810.098227,-222.061783
4195.380690,0.000000,-7890.783629,-592.164754
4195.381015,-222.061783,-9346.365076,0.000000
4195.381339,-370.102971,-7737.564530,-962.267725
4195.381663,2812.782580,-9269.755526,370.102971
4195.381988,-4811.338623,-8044.002729,-1554.432478
4195.382312,2960.823768,-9806.022374,740.205942
4195.382636,-1998.556043,-6894.859482,-2146.597232
4195.382960,1184.329507,-11261.603821,370.102971
4195.383285,-814.226536,-8120.612279,-1776.494261
4195.383609,-1406.391290,-9193.145976,-296.082377
4195.383933,-1850.514855,-8427.050478,296.082377
4195.384258,-296.082377,-8044.002729,-1184.329507
4195.384582,1110.308913,-9576.193725,1110.308913
4195.384906,2812.782580,-6971.469032,-740.205942
4195.385231,3627.009116,-9652.803275,0.000000
4195.385555,1850.514855,-7737.564530,-2368.659014
4195.385879,3552.988522,-9576.193725,-518.144159
4195.386204,0.000000,-8350.440928,-1258.350101
4195.386528,-740.205942,-9959.241474,-740.205942
4195.386852,-2368.659014,-9039.926876,-1036.288319
4195.387176,-2220.617826,-9193.145976,-888.247130
4195.387501,-1036.288319,-7967.393179,-222.061783
4195.387825,0.000000,-8810.098227,-592.164754
4195.388149,740.205942,-8503.660028,-148.041188
4195.388474,1036.288319,-7814.174080,-1332.370696
4195.388798,1998.556043,-8963.317327,-740.205942
4195.389122,444.123565,-8273.831378,-1480.411884
4195.389447,-592.164754,-8580.269578,-148.041188
4195.389771,-1850.514855,-8656.879127,-444.123565
4195.390095,-1776.494261,-8963.317327,-296.082377
4195.390419,-1184.329507,-8580.269578,740.205942
4195.390744,222.061783,-8350.440928,0.000000
4195.391068,1924.535449,-8963.317327,148.041188
4195.391392,814.226536,-8044.002729,-888.247130
4195.391717,1480.411884,-8963.317327,222.061783
4195.392041,1628.453072,-8503.660028,-518.144159
4195.392365,1110.308913,-8580.269578,-740.205942
4195.392690,592.164754,-8656.879127,-222.061783
4195.393014,-888.247130,-7890.783629,-592.164754
4195.393338,-740.205942,-9346.365076,-518.144159
4195.393663,-1554.432478,-8273.831378,-592.164754
4195.393987,1110.308913,-9652.803275,962.267725
4195.394311,666.185348,-8044.002729,-444.123565
4195.394635,1554.432478,-9729.412825,222.061783
4195.394960,518.144159,-7354.516781,-370.102971
4195.395284,74.020594,-8044.002729,0.000000
4195.395608,-814.226536,-8044.002729,0.000000
4195.395933,-518.144159,-8273.831378,814.226536
4195.396257,-1258.350101,-8350.440928,1110.308913
4195.396581,0.000000,-7737.564530,518.144159
4195.396906,962.267725,-8044.002729,592.164754
4195.397230,1850.514855,-8580.269578,-518.144159
4195.397554,3775.050304,-8350.440928,-518.144159
4195.397878,2812.782580,-8427.050478,-370.102971
4195.398203,1998.556043,-8503.660028,-296.082377
4195.398527,1258.350101,-8656.879127,-592.164754
4195.398851,0.000000,-9576.193725,148.041188
4195.399176,-518.144159,-8503.660028,-1184.329507
4195.399500,-1184.329507,-9193.145976,0.000000
4195.399824,-148.041188,-8580.269578,-592.164754
4195.400149,-370.102971,-8580.269578,-148.041188
4195.400473,888.247130,-7814.174080,0.000000
4195.400797,1406.391290,-9039.926876,148.041188
4195.401122,1776.494261,-7814.174080,-1776.494261
4195.401446,1406.391290,-10801.946522,814.226536
4195.401770,-1628.453072,-6511.811733,-370.102971
4195.402094,444.123565,-9269.755526,-592.164754
4195.402419,-1332.370696,-9729.412825,-1628.453072
4195.402743,-740.205942,-8810.098227,148.041188
4195.403067,518.144159,-8197.221829,296.082377
4195.403392,444.123565,-9193.145976,-296.082377
4195.403716,1628.453072,-8810.098227,222.061783
4195.404040,1480.411884,-7660.954980,-888.247130
4195.404365,1776.494261,-9499.584175,-1406.391290
4195.404689,370.102971,-8120.612279,-1036.288319
4195.405013,-740.205942,-9269.755526,-1036.288319
4195.405338,-518.144159,-9346.365076,-1184.329507
4195.405662,518.144159,-9652.803275,-962.267725
4195.405986,444.123565,-9269.755526,-1406.391290
4195.406310,888.247130,-8886.707777,-518.144159
4195.406635,1480.411884,-8810.098227,-1036.288319
4195.406959,814.226536,-8963.317327,-1258.350101
4195.407283,518.144159,-8886.707777,-1110.308913
4195.407608,-1110.308913,-8733.488677,-962.267725
4195.407932,-2220.617826,-8580.269578,-740.205942
4195.408257,-2368.659014,-8580.269578,370.102971
4195.408581,-814.226536,-8503.660028,0.000000
4195.408905,-592.164754,-8197.221829,-296.082377
4195.409230,1406.391290,-7890.783629,-888.247130
4195.409554,2368.659014,-8503.660028,-148.041188
4195.409879,2664.741391,-8963.317327,0.000000
4195.410203,2516.700203,-9039.926876,-740.205942
4195.410527,2146.597232,-9269.755526,-222.061783
4195.410852,-814.226536,-8350.440928,-1184.329507
4195.411176,-1554.432478,-9806.022374,-370.102971
4195.411500,-1406.391290,-9269.755526,0.000000
4195.411825,-2886.803174,-9116.536426,-444.123565
4195.412149,-1702.473667,-8963.317327,-592.164754
4195.412474,-148.041188,-8427.050478,444.123565
4195.412798,2368.659014,-8580.269578,0.000000
4195.413122,1406.391290,-7814.174080,-592.164754
4195.413447,1998.556043,-8580.269578,592.164754
4195.413771,1184.329507,-7431.126331,-1036.288319
4195.414096,-222.061783,-8656.879127,444.123565
4195.414420,-814.226536,-8273.831378,740.205942
4195.414744,-1110.308913,-8427.050478,74.020594
4195.415069,-592.164754,-8350.440928,666.185348
4195.415393,1850.514855,-7584.345430,962.267725
4195.415717,1776.494261,-7967.393179,0.000000
4195.416042,2516.700203,-7814.174080,0.000000
4195.416366,1184.329507,-7967.393179,-74.020594
4195.416691,1998.556043,-7354.516781,370.102971
4195.417015,1110.308913,-8810.098227,-444.123565
4195.417339,666.185348,-9039.926876,0.000000
4195.417664,-444.123565,-8503.660028,-592.164754
4195.417988,-888.247130,-9039.926876,-370.102971
4195.418313,518.144159,-8886.707777,-222.061783
4195.418637,-74.020594,-8580.269578,518.144159
4195.418961,1924.535449,-9576.193725,-296.082377
4195.419286,1406.391290,-7737.564530,-888.247130
4195.419610,740.205942,-8656.879127,-370.102971
4195.419935,666.185348,-7814.174080,-814.226536
4195.420259,-666.185348,-8963.317327,222.061783
4195.420583,-1850.514855,-7814.174080,-296.082377
4195.420908,-296.082377,-8733.488677,74.020594
4195.421232,74.020594,-7890.783629,-444.123565
4195.421556,1998.556043,-9269.755526,222.061783
4195.421881,3182.885551,-7507.735880,-592.164754
4195.422205,2664.741391,-9422.974625,-296.082377
4195.422530,1628.453072,-8503.660028,-1184.329507
4195.422854,1332.370696,-9806.022374,0.000000
4195.423178,-1184.329507,-8503.660028,-1406.391290
4195.423503,-1332.370696,-9882.631924,-666.185348
4195.423827,-1480.411884,-8810.098227,-1332.370696
4195.424152,-1184.329507,-9882.631924,-888.247130
4195.424476,-1184.329507,-7967.393179,-1258.350101
4195.424800,1110.308913,-9039.926876,148.041188
4195.425125,1702.473667,-8580.269578,-666.185348
4195.425449,2738.761985,-8503.660028,-518.144159
4195.425774,2294.638420,-8427.050478,-962.267725
4195.426098,1258.350101,-9346.365076,-1036.288319
4195.426422,-666.185348,-8120.612279,-222.061783
4195.426747,-2146.597232,-9269.755526,222.061783
4195.427071,-2368.659014,-8350.440928,-444.123565
4195.427395,-1332.370696,-9193.145976,444.123565
4195.427720,-444.123565,-8044.002729,-296.082377
4195.428044,1258.350101,-7967.393179,-222.061783
4195.428369,2442.679609,-8197.221829,-1258.350101
4195.428693,1850.514855,-8886.707777,-296.082377
4195.429017,1406.391290,-8273.831378,-1554.432478
4195.429342,888.247130,-9269.755526,-296.082377
4195.429666,-740.205942,-8963.317327,-666.185348
4195.429991,-1480.411884,-9116.536426,-666.185348
4195.430315,-1184.329507,-9729.412825,-814.226536
4195.430639,-1628.453072,-8810.098227,0.000000
4195.430964,-296.082377,-8886.707777,-222.061783
4195.431288,444.123565,-8580.269578,-296.082377
4195.431612,3330.926739,-9039.926876,1258.350101
4195.431937,-814.226536,-7201.297681,-1776.494261
4195.432261,2220.617826,-8427.050478,370.102971
4195.432586,148.041188,-6818.249932,-148.041188
4195.432910,-740.205942,-9346.365076,592.164754
4195.433234,-148.041188,-7814.174080,0.000000
4195.433559,-148.041188,-8733.488677,962.267725
4195.433883,222.061783,-7967.393179,814.226536
4195.434208,1998.556043,-8350.440928,0.000000
4195.434532,2590.720797,-9652.803275,74.020594
4195.434856,666.185348,-7354.516781,-222.061783
4195.435181,2368.659014,-8503.660028,-666.185348
4195.435505,-222.061783,-8427.050478,-296.082377
4195.435830,-444.123565,-9039.926876,444.123565
4195.436154,-666.185348,-8044.002729,222.061783
4195.436478,-1110.308913,-8963.317327,-518.144159
4195.436803,1628.453072,-8810.098227,0.000000
4195.437127,1776.494261,-7890.783629,0.000000
4195.437451,1554.432478,-8886.707777,-148.041188
4195.437776,888.247130,-8810.098227,222.061783
4195.438100,666.185348,-8427.050478,0.000000
4195.438425,-296.082377,-8580.269578,-518.144159
4195.438749,-222.061783,-8350.440928,-518.144159
4195.439073,-666.185348,-8273.831378,740.205942
4195.439398,-1036.288319,-8197.221829,-370.102971
4195.439722,740.205942,-8580.269578,0.000000
4195.440047,1258.350101,-8427.050478,148.041188
4195.440371,2738.761985,-8273.831378,-888.247130
4195.440695,3330.926739,-8273.831378,-222.061783
4195.441020,2664.741391,-8427.050478,-1628.453072
4195.441344,2368.659014,-9039.926876,-1184.329507
4195.441668,592.164754,-8656.879127,-1258.350101
4195.441993,-1184.329507,-10035.851024,0.000000
4195.442317,-1850.514855,-9039.926876,-962.267725
4195.442642,-1554.432478,-9346.365076,-444.123565
4195.442966,-518.144159,-8963.317327,-740.205942
4195.443290,1702.473667,-8886.707777,-518.144159
4195.443615,1406.391290,-8886.707777,-1628.453072
4195.443939,1406.391290,-9039.926876,-814.226536
4195.444264,666.185348,-7507.735880,-1480.411884
4195.444588,296.082377,-9039.926876,-222.061783
4195.444912,-1036.288319,-9116.536426,-518.144159
4195.445237,-1998.556043,-9269.755526,-148.041188
4195.445561,-666.185348,-9039.926876,-740.205942
4195.445886,-962.267725,-9116.536426,-370.102971
4195.446210,296.082377,-8580.269578,-518.144159
4195.446534,1332.370696,-8503.660028,-222.061783
4195.446859,1406.391290,-8503.660028,-666.185348
4195.447183,814.226536,-8810.098227,-296.082377
4195.447507,74.020594,-8656.879127,-1184.329507
4195.447832,222.061783,-9193.145976,-592.164754
4195.448156,-592.164754,-8886.707777,-962.267725
4195.448481,-1184.329507,-8810.098227,-222.061783
4195.448805,-1776.494261,-8580.269578,-888.247130
4195.449129,-222.061783,-7967.393179,518.144159
4195.449454,1776.494261,-8886.707777,444.123565
4195.449778,1702.473667,-7507.735880,222.061783
4195.450103,1110.308913,-9039.926876,74.020594
4195.450427,888.247130,-7737.564530,0.000000
4195.450751,518.144159,-8197.221829,-148.041188
4195.451076,-666.185348,-8503.660028,0.000000
4195.451400,-962.267725,-8120.612279,888.247130
4195.451724,-888.247130,-8273.831378,814.226536
4195.452049,-666.185348,-8044.002729,0.000000
4195.452373,1110.308913,-8427.050478,888.247130
4195.452698,3034.844362,-8350.440928,-592.164754
4195.453022,2516.700203,-8656.879127,296.082377
4195.453346,2294.638420,-7737.564530,-296.082377
4195.453671,1184.329507,-8656.879127,148.041188
4195.453995,1036.288319,-9346.365076,-962.267725
4195.454320,-518.144159,-9193.145976,-296.082377
4195.454644,222.061783,-8810.098227,0.000000
4195.454968,-1480.411884,-8120.612279,0.000000
4195.455293,1332.370696,-8350.440928,-592.164754
4195.455617,1776.494261,-9039.926876,740.205942
4195.455942,2886.803174,-7431.126331,-740.205942
4195.456266,666.185348,-8886.707777,222.061783
4195.456590,592.164754,-7277.907231,-1776.494261
4195.456915,1036.288319,-8886.707777,1480.411884
4195.457239,-1110.308913,-8963.317327,-888.247130
4195.457563,-1776.494261,-8656.879127,74.020594
4195.457888,-148.041188,-8350.440928,-296.082377
4195.458212,-518.144159,-8733.488677,370.102971
4195.458537,1110.308913,-8656.879127,-740.205942
4195.458861,2072.576638,-8350.440928,-962.267725
4195.459185,2442.679609,-9346.365076,0.000000
4195.459510,3108.864956,-8503.660028,-1702.473667
4195.459834,1998.556043,-9346.365076,-296.082377
4195.460159,1184.329507,-8350.440928,-666.185348
4195.460483,-1406.391290,-9576.193725,-740.205942
4195.460807,-1702.473667,-9729.412825,-1480.411884
4195.461132,-888.247130,-9039.926876,-962.267725
4195.461456,962.267725,-8963.317327,-148.041188
4195.461781,148.041188,-8197.221829,-518.144159
4195.462105,1776.494261,-9193.145976,-148.041188
4195.462429,1036.288319,-7890.783629,-1332.370696
4195.462754,2368.659014,-9422.974625,-740.205942
4195.463078,296.082377,-8197.221829,-1998.556043
4195.463402,1184.329507,-9193.145976,0.000000
4195.463727,-2442.679609,-8273.831378,-814.226536
4195.464051,-740.205942,-10342.289223,296.082377
4195.464376,-1480.411884,-7584.345430,-1184.329507
4195.464700,1184.329507,-9729.412825,666.185348
4195.465024,740.205942,-7584.345430,-1702.473667
4195.465349,1554.432478,-9652.803275,148.041188
4195.465673,1184.329507,-7507.735880,-1480.411884
4195.465998,148.041188,-8656.879127,0.000000
4195.466322,-592.164754,-8886.707777,-1184.329507
4195.466646,-1332.370696,-8580.269578,-296.082377
4195.466971,-370.102971,-9193.145976,-296.082377
4195.467295,0.000000,-8580.269578,-888.247130
4195.467619,1184.329507,-9576.193725,-518.144159
4195.467944,1406.391290,-7660.954980,-814.226536
4195.468268,1554.432478,-9806.022374,370.102971
4195.468593,-296.082377,-8197.221829,-518.144159
4195.468917,-1628.453072,-9193.145976,-148.041188
4195.469241,-1406.391290,-7890.783629,-962.267725
4195.469566,-3034.844362,-9806.022374,888.247130
4195.469890,-3775.050304,-6281.983084,-666.185348
4195.470215,518.144159,-9193.145976,296.082377
4195.470539,-814.226536,-8044.002729,518.144159
4195.470863,2442.679609,-7967.393179,666.185348
4195.471188,3627.009116,-7354.516781,0.000000
4195.471512,2072.576638,-9422.974625,0.000000
4195.471837,3256.906145,-8580.269578,-222.061783
4195.472161,1110.308913,-7660.954980,148.041188
4195.472485,1110.308913,-9806.022374,370.102971
4195.472810,-2516.700203,-7737.564530,-666.185348
4195.473134,-2516.700203,-9193.145976,666.185348
4195.473458,-2146.597232,-8503.660028,222.061783
4195.473783,1036.288319,-8427.050478,962.267725
4195.474107,666.185348,-7354.516781,-370.102971
4195.474432,2664.741391,-7814.174080,444.123565
4195.474756,3701.029710,-7814.174080,-666.185348
4195.475080,2442.679609,-8503.660028,-296.082377
4195.475405,1184.329507,-8197.221829,-370.102971
4195.475729,-1036.288319,-8733.488677,666.185348
4195.476054,-1332.370696,-8886.707777,148.041188
4195.476378,-1184.329507,-8044.002729,592.164754
4195.476702,-666.185348,-8273.831378,148.041188
4195.477027,1036.288319,-8656.879127,-592.164754
4195.477351,1628.453072,-8120.612279,0.000000
4195.477675,2516.700203,-7890.783629,-296.082377
4195.478000,2664.741391,-8350.440928,-370.102971
4195.478324,1036.288319,-8580.269578,-592.164754
4195.478649,1702.473667,-9422.974625,-1480.411884
4195.478973,370.102971,-8810.098227,-1406.391290
4195.479297,296.082377,-9193.145976,-814.226536
4195.479622,-222.061783,-9576.193725,-666.185348
4195.479946,666.185348,-8886.707777,-962.267725
4195.480271,740.205942,-9039.926876,0.000000
4195.480595,592.164754,-9422.974625,-1036.288319
4195.480919,740.205942,-7967.393179,74.020594
4195.481244,222.061783,-8044.002729,-1110.308913
4195.481568,74.020594,-8810.098227,-1110.308913
4195.481893,-1036.288319,-8197.221829,-962.267725
4195.482217,-1850.514855,-9039.926876,-148.041188
4195.482541,-740.205942,-8350.440928,-888.247130
4195.482866,-370.102971,-9652.803275,740.205942
4195.483190,2072.576638,-8350.440928,-370.102971
4195.483514,2368.659014,-8810.098227,-1110.308913
4195.483839,1850.514855,-9116.536426,-1258.350101
4195.484163,2368.659014,-9499.584175,-666.185348
4195.484488,1998.556043,-8044.002729,-2072.576638
4195.484812,-888.247130,-9882.631924,-592.164754
4195.485136,-1110.308913,-8810.098227,-74.020594
4195.485461,-2590.720797,-9422.974625,-888.247130
4195.485785,-1628.453072,-8886.707777,-1184.329507
4195.486110,74.020594,-9499.584175,-222.061783
4195.486434,0.000000,-7584.345430,-814.226536
4195.486758,1554.432478,-9346.365076,0.000000
4195.487083,2220.617826,-7890.783629,-370.102971
4195.487407,1184.329507,-8810.098227,-962.267725
4195.487731,0.000000,-8273.831378,-74.020594
4195.488056,-444.123565,-8503.660028,-296.082377
4195.488380,-2146.597232,-9039.926876,74.020594
4195.488705,-2220.617826,-8427.050478,148.041188
4195.489029,-296.082377,-8273.831378,518.144159
4195.489353,1554.432478,-8044.002729,296.082377
4195.489678,740.205942,-8273.831378,0.000000
4195.490002,1998.556043,-8120.612279,296.082377
4195.490327,1110.308913,-7737.564530,-592.164754
4195.490651,666.185348,-8810.098227,0.000000
4195.490975,592.164754,-8733.488677,-740.205942
4195.491300,-1184.329507,-8810.098227,148.041188
4195.491624,-1628.453072,-8503.660028,148.041188
4195.491949,-666.185348,-8580.269578,0.000000
4195.492273,0.000000,-8350.440928,-296.082377
4195.492597,1628.453072,-7890.783629,666.185348
4195.492922,1258.350101,-8197.221829,0.000000
4195.493246,1258.350101,-8044.002729,-222.061783
4195.493570,1628.453072,-8886.707777,74.020594
4195.493895,0.000000,-8197.221829,148.041188
4195.494219,-1332.370696,-8273.831378,-666.185348
4195.494544,-666.185348,-7967.393179,148.041188
4195.494868,222.061783,-8350.440928,1110.308913
4195.495192,222.061783,-8120.612279,518.144159
4195.495517,1850.514855,-8120.612279,370.102971
4195.495841,2368.659014,-7584.345430,0.000000
4195.496166,3256.906145,-8810.098227,-888.247130
4195.496490,3034.844362,-9116.536426,-1554.432478
4195.496814,1776.494261,-9346.365076,-518.144159
4195.497139,74.020594,-8580.269578,-814.226536
4195.497463,-888.247130,-9499.584175,-888.247130
4195.497788,-1406.391290,-9116.536426,-666.185348
4195.498112,-518.144159,-9193.145976,370.102971
4195.498436,-814.226536,-7890.783629,-370.102971
4195.498761,1554.432478,-8733.488677,-222.061783
4195.499085,814.226536,-7967.393179,-666.185348
4195.499409,2146.597232,-9422.974625,-1184.329507
4195.499734,1110.308913,-8197.221829,-1406.391290
4195.500058,444.123565,-8810.098227,-592.164754
4195.500383,0.000000,-7967.393179,-962.267725
4195.500707,-370.102971,-10112.460574,-814.226536
4195.501031,-666.185348,-9116.536426,-370.102971
4195.501356,0.000000,-8963.317327,-666.185348
4195.501680,1332.370696,-8580.269578,-592.164754
4195.502005,1258.350101,-9193.145976,-592.164754
4195.502329,1628.453072,-8580.269578,-888.247130
4195.502653,1406.391290,-8503.660028,-1110.308913
4195.502978,888.247130,-8810.098227,-1258.350101
4195.503302,0.000000,-8810.098227,-1332.370696
4195.503626,-1480.411884,-8886.707777,-814.226536
4195.503951,0.000000,-9499.584175,-370.102971
4195.504275,0.000000,-8656.879127,-1184.329507
4195.504600,1776.494261,-9499.584175,-1036.288319
4195.504924,1850.514855,-9499.584175,-814.226536
4195.505248,2368.659014,-8503.660028,-592.164754
4195.505572,1776.494261,-8810.098227,-814.226536
4195.505897,-1036.288319,-8580.269578,-518.144159
4195.506221,-814.226536,-8733.488677,222.061783
4195.506545,-2960.823768,-8886.707777,-444.123565
4195.506870,-2516.700203,-8656.879127,666.185348
4195.507194,-1776.494261,-8120.612279,0.000000
4195.507518,-296.082377,-7890.783629,222.061783
4195.507843,1628.453072,-8197.221829,148.041188
4195.508167,2368.659014,-8044.002729,-148.041188
4195.508491,2812.782580,-9039.926876,-296.082377
4195.508816,2664.741391,-8733.488677,-370.102971
4195.509140,1998.556043,-9193.145976,-370.102971
4195.509464,518.144159,-8580.269578,0.000000
4195.509789,-962.267725,-8427.050478,-444.123565
4195.510113,-1628.453072,-8886.707777,518.144159
4195.510437,-2072.576638,-8044.002729,74.020594
4195.510761,-592.164754,-9116.536426,888.247130
4195.511086,370.102971,-7584.345430,0.000000
4195.511410,740.205942,-7967.393179,518.144159
4195.511734,1702.473667,-8427.050478,0.000000
4195.512059,1628.453072,-7967.393179,0.000000
4195.512383,1628.453072,-8810.098227,444.123565
4195.512707,370.102971,-7967.393179,0.000000
4195.513032,370.102971,-8733.488677,592.164754
4195.513356,-814.226536,-8427.050478,518.144159
4195.513680,740.205942,-8350.440928,814.226536
4195.514005,1332.370696,-7660.954980,370.102971
4195.514329,1036.288319,-8197.221829,1036.288319
4195.514653,1480.411884,-7660.954980,-444.123565
4195.514977,814.226536,-8273.831378,-740.205942
4195.515302,1258.350101,-8350.440928,0.000000
4195.515626,222.061783,-7814.174080,-1110.308913
4195.515950,-222.061783,-9422.974625,-370.102971
4195.516275,-1702.473667,-8044.002729,-222.061783
4195.516599,1036.288319,-9193.145976,-296.082377
4195.516923,1776.494261,-8350.440928,-1036.288319
4195.517248,2146.597232,-9116.536426,222.061783
4195.517572,2294.638420,-8503.660028,-370.102971
4195.517896,222.061783,-8886.707777,-1036.288319
4195.518221,740.205942,-8580.269578,-888.247130
4195.518545,-666.185348,-8810.098227,-888.247130
4195.518869,-1628.453072,-8810.098227,-814.226536
4195.519194,-1850.514855,-9039.926876,0.000000
4195.519518,-444.123565,-7890.783629,-592.164754
4195.519842,0.000000,-8656.879127,0.000000
4195.520166,1702.473667,-8810.098227,-1036.288319
4195.520491,2442.679609,-8886.707777,-592.164754
4195.520815,3108.864956,-8350.440928,-962.267725
4195.521139,3701.029710,-9499.584175,-1110.308913
4195.521464,1998.556043,-8656.879127,-1850.514855
4195.521788,-222.061783,-9346.365076,-592.164754
4195.522112,-1776.494261,-9422.974625,-1332.370696
4195.522437,-2368.659014,-9346.365076,-1406.391290
4195.522761,-1776.494261,-8886.707777,0.000000
4195.523085,-518.144159,-8810.098227,-1036.288319
4195.523410,1702.473667,-9499.584175,-1110.308913
4195.523734,1258.350101,-8580.269578,-740.205942
4195.524058,1554.432478,-8810.098227,-1628.453072
4195.524382,1332.370696,-8656.879127,-962.267725
4195.524707,148.041188,-9039.926876,-592.164754
4195.525031,-370.102971,-9269.755526,0.000000
4195.525355,-1332.370696,-8886.707777,-222.061783
4195.525680,-1406.391290,-9116.536426,-370.102971
4195.526004,74.020594,-9193.145976,148.041188
4195.526328,814.226536,-7660.954980,0.000000
4195.526653,1332.370696,-8886.707777,-518.144159
4195.526977,1554.432478,-7277.907231,-370.102971
4195.527301,962.267725,-9039.926876,0.000000
4195.527626,1184.329507,-7814.174080,-1332.370696
4195.527950,666.185348,-9422.974625,0.000000
4195.528274,-1184.329507,-8350.440928,-962.267725
4195.528599,-370.102971,-9269.755526,296.082377
4195.528923,148.041188,-7890.783629,-592.164754
4195.529247,814.226536,-9652.803275,962.267725
4195.529571,2442.679609,-7201.297681,222.061783
4195.529896,1036.288319,-8886.707777,74.020594
4195.530220,1036.288319,-8350.440928,0.000000
4195.530544,0.000000,-8350.440928,0.000000
4195.530869,0.000000,-8733.488677,740.205942
4195.531193,-2220.617826,-8197.221829,666.185348
4195.531517,-2516.700203,-7814.174080,444.123565
4195.531842,-518.144159,-8656.879127,0.000000
4195.532166,-148.041188,-7277.907231,666.185348
4195.532490,2220.617826,-8810.098227,444.123565
4195.532815,3108.864956,-7814.174080,370.102971
4195.533139,3923.091493,-8427.050478,592.164754
4195.533463,2960.823768,-7890.783629,-592.164754
4195.533787,1776.494261,-8273.831378,-666.185348
4195.534112,-740.205942,-8427.050478,-148.041188
4195.534436,-1406.391290,-9193.145976,0.000000
4195.534760,-1332.370696,-8886.707777,-666.185348
4195.535085,-518.144159,-9269.755526,148.041188
4195.535409,296.082377,-7890.783629,-370.102971
4195.535733,1850.514855,-8503.660028,148.041188
4195.536058,1628.453072,-7660.954980,-740.205942
4195.536382,2516.700203,-8886.707777,74.020594
4195.536706,814.226536,-8044.002729,-1554.432478
4195.537031,370.102971,-9806.022374,0.000000
4195.537355,-666.185348,-8197.221829,-592.164754
4195.537679,-1110.308913,-9346.365076,-444.123565
4195.538004,-444.123565,-8963.317327,-962.267725
4195.538328,74.020594,-8963.317327,74.020594
4195.538652,740.205942,-9039.926876,0.000000
4195.538976,666.185348,-7660.954980,0.000000
4195.539301,1924.535449,-8656.879127,-518.144159
4195.539625,1554.432478,-8273.831378,-1036.288319
4195.539949,1480.411884,-8350.440928,-1776.494261
4195.540274,740.205942,-9116.536426,-1184.329507
4195.540598,222.061783,-8733.488677,-1776.494261
4195.540922,-962.267725,-9039.926876,-962.267725
4195.541247,-370.102971,-9039.926876,-518.144159
4195.541571,148.041188,-8503.660028,74.020594
4195.541895,1036.288319,-9116.536426,-518.144159
4195.542220,1406.391290,-9116.536426,-1184.329507
4195.542544,1554.432478,-9499.584175,-1480.411884
4195.542868,296.082377,-8350.440928,-2368.659014
4195.543192,-666.185348,-9269.755526,-444.123565
4195.543517,-1702.473667,-8044.002729,0.000000
4195.543841,-2072.576638,-8963.317327,148.041188
4195.544165,-2072.576638,-8273.831378,-592.164754
4195.544490,-148.041188,-9039.926876,0.000000
4195.544814,1554.432478,-7967.393179,-1184.329507
4195.545138,2516.700203,-8963.317327,148.041188
4195.545463,2146.597232,-7890.783629,-888.247130
4195.545787,1776.494261,-8963.317327,-222.061783
4195.546111,1850.514855,-8886.707777,-1110.308913
4195.546436,0.000000,-8656.879127,-592.164754
4195.546760,74.020594,-8810.098227,-296.082377
4195.547084,-2220.617826,-7890.783629,-814.226536
4195.547409,0.000000,-8963.317327,148.041188
4195.547733,148.041188,-7354.516781,-444.123565
4195.548057,1036.288319,-7967.393179,740.205942
4195.548381,1628.453072,-7737.564530,0.000000
4195.548706,814.226536,-8810.098227,0.000000
4195.549030,814.226536,-8733.488677,-222.061783
4195.549354,444.123565,-8350.440928,148.041188
4195.549679,-1036.288319,-8810.098227,740.205942
4195.550003,-1258.350101,-8350.440928,222.061783
4195.550327,-962.267725,-8120.612279,888.247130
4195.550652,0.000000,-8044.002729,444.123565
4195.550976,1554.432478,-9116.536426,222.061783
4195.551300,2294.638420,-7660.954980,0.000000
4195.551625,2294.638420,-7967.393179,888.247130
4195.551949,3404.947333,-7507.735880,-814.226536
4195.552273,1850.514855,-8886.707777,-296.082377
4195.552597,74.020594,-7814.174080,-148.041188
4195.552922,-1628.453072,-8810.098227,370.102971
4195.553246,-666.185348,-7737.564530,-444.123565
4195.553570,888.247130,-9729.412825,148.041188
4195.553895,1628.453072,-7660.954980,-370.102971
4195.554219,1110.308913,-8503.660028,370.102971
4195.554543,1702.473667,-7967.393179,-1480.411884
4195.554868,2072.576638,-9039.926876,296.082377
4195.555192,518.144159,-8044.002729,-814.226536
4195.555516,-222.061783,-9269.755526,0.000000
4195.555841,-814.226536,-8273.831378,148.041188
4195.556165,-1110.308913,-9039.926876,148.041188
4195.556489,592.164754,-8580.269578,-444.123565
4195.556814,0.000000,-8580.269578,-518.144159
4195.557138,814.226536,-9346.365076,-296.082377
4195.557462,1850.514855,-8044.002729,-592.164754
4195.557786,2516.700203,-9346.365076,-296.082377
4195.558111,2072.576638,-8427.050478,-1258.350101
4195.558435,74.020594,-9193.145976,-1258.350101
4195.558759,222.061783,-8886.707777,-1110.308913
4195.559084,-962.267725,-9422.974625,-370.102971
4195.559408,-370.102971,-8810.098227,-888.247130
4195.559732,-888.247130,-8733.488677,-888.247130
4195.560057,1110.308913,-9039.926876,0.000000
4195.560381,1258.350101,-8580.269578,-1258.350101
4195.560705,1924.535449,-8963.317327,-1110.308913
4195.561030,1924.535449,-9269.755526,-1406.391290
4195.561354,-444.123565,-8273.831378,-1184.329507
4195.561678,-962.267725,-9806.022374,-740.205942
4195.562002,-1850.514855,-9116.536426,-888.247130
4195.562327,-2072.576638,-9576.193725,74.020594
4195.562651,-3478.967927,-7660.954980,0.000000
4195.562975,1332.370696,-9346.365076,-666.185348
4195.563300,1998.556043,-8427.050478,0.000000
4195.563624,2294.638420,-6818.249932,-296.082377
4195.563948,4367.215058,-8656.879127,0.000000
4195.564273,3256.906145,-8197.221829,-1036.288319
4195.564597,3034.844362,-8886.707777,-148.041188
4195.564921,-296.082377,-7814.174080,-1184.329507
4195.565246,-1184.329507,-9806.022374,74.020594
4195.565570,-1554.432478,-8503.660028,-592.164754
4195.565894,-1332.370696,-8886.707777,0.000000
4195.566219,222.061783,-8810.098227,0.000000
4195.566543,-370.102971,-8044.002729,370.102971
4195.566867,592.164754,-8120.612279,222.061783
4195.567191,888.247130,-7814.174080,-814.226536
4195.567516,1776.494261,-9116.536426,0.000000
4195.567840,1258.350101,-8197.221829,-740.205942
4195.568164,1184.329507,-9116.536426,370.102971
4195.568489,-1110.308913,-7660.954980,0.000000
4195.568813,-444.123565,-8503.660028,1332.370696
4195.569137,-296.082377,-8120.612279,148.041188
4195.569462,666.185348,-9193.145976,444.123565
4195.569786,1332.370696,-7737.564530,0.000000
4195.570110,1554.432478,-8350.440928,370.102971
4195.570435,1406.391290,-7584.345430,-592.164754
4195.570759,1406.391290,-8350.440928,222.061783
4195.571083,1036.288319,-7890.783629,0.000000
4195.571407,-296.082377,-9346.365076,0.000000
4195.571732,74.020594,-8580.269578,-370.102971
4195.572056,814.226536,-7814.174080,-222.061783
4195.572380,2368.659014,-8656.879127,-370.102971
4195.572705,1998.556043,-8810.098227,148.041188
4195.573029,1998.556043,-8044.002729,-592.164754
4195.573353,1480.411884,-8656.879127,-444.123565
4195.573678,444.123565,-8503.660028,-370.102971
4195.574002,-296.082377,-8733.488677,222.061783
4195.574326,-1406.391290,-8273.831378,-222.061783
4195.574651,-1850.514855,-8503.660028,-888.247130
4195.574975,-1258.350101,-8350.440928,74.020594
4195.575299,518.144159,-7967.393179,0.000000
4195.575624,1332.370696,-9116.536426,-1110.308913
4195.575948,2220.617826,-8350.440928,-962.267725
4195.576272,2442.679609,-8886.707777,-518.144159
4195.576596,1332.370696,-8580.269578,-1702.473667
4195.576921,1924.535449,-9576.193725,-962.267725
4195.577245,0.000000,-8580.269578,-888.247130
4195.577569,-888.247130,-9422.974625,-1036.288319
4195.577894,-1258.350101,-8350.440928,-1036.288319
4195.578218,-1332.370696,-8580.269578,-148.041188
4195.578542,-518.144159,-8120.612279,-888.247130
4195.578867,814.226536,-8963.317327,-592.164754
4195.579191,962.267725,-9116.536426,-666.185348
4195.579515,1702.473667,-9116.536426,-1480.411884
4195.579840,1184.329507,-9269.755526,-1036.288319
4195.580164,2146.597232,-8656.879127,-370.102971
4195.580488,74.020594,-8886.707777,-148.041188
4195.580812,-1702.473667,-8886.707777,-666.185348
4195.581137,-2146.597232,-9039.926876,1110.308913
4195.581461,148.041188,-8120.612279,-888.247130
4195.581785,1036.288319,-8810.098227,370.102971
4195.582110,1850.514855,-7890.783629,-1628.453072
4195.582434,1776.494261,-9116.536426,-222.061783
4195.582758,1258.350101,-8427.050478,-1850.514855
4195.583083,0.000000,-9576.193725,-444.123565
4195.583407,-666.185348,-8273.831378,-444.123565
4195.583731,0.000000,-9652.803275,0.000000
4195.584056,-1332.370696,-7890.783629,-666.185348
4195.584380,518.144159,-9116.536426,0.000000
4195.584704,1258.350101,-8273.831378,-444.123565
4195.585028,1702.473667,-9422.974625,296.082377
4195.585353,1258.350101,-7584.345430,-740.205942
4195.585677,1480.411884,-9806.022374,0.000000
4195.586001,-962.267725,-8427.050478,-1258.350101
4195.586326,-740.205942,-9193.145976,888.247130
4195.586650,-2146.597232,-7507.735880,592.164754
4195.586974,-2220.617826,-8886.707777,1702.473667
4195.587299,-592.164754,-7277.907231,296.082377
4195.587623,1406.391290,-8273.831378,1406.391290
4195.587947,2590.720797,-7967.393179,-814.226536
4195.588272,3478.967927,-7967.393179,0.000000
4195.588596,3552.988522,-8197.221829,0.000000
4195.588920,2664.741391,-7660.954980,-370.102971
4195.589245,1850.514855,-8656.879127,-814.226536
4195.589569,-740.205942,-8120.612279,666.185348
4195.589893,-2368.659014,-8810.098227,74.020594
4195.590217,-2516.700203,-8810.098227,-148.041188
4195.590542,-1036.288319,-8580.269578,1258.350101
4195.590866,222.061783,-8120.612279,0.000000
4195.591190,1110.308913,-8810.098227,-740.205942
4195.591515,2516.700203,-8350.440928,296.082377
4195.591839,2442.679609,-7814.174080,-666.185348
4195.592163,2368.659014,-8580.269578,-814.226536
4195.592488,1036.288319,-8273.831378,-666.185348
4195.592812,74.020594,-8886.707777,0.000000
4195.593136,-370.102971,-8733.488677,-740.205942
4195.593461,-518.144159,-9269.755526,296.082377
4195.593785,-370.102971,-8197.221829,444.123565
4195.594109,148.041188,-8427.050478,0.000000
4195.594433,518.144159,-8580.269578,-814.226536
4195.594758,1850.514855,-7890.783629,-814.226536
4195.595082,814.226536,-8120.612279,-1776.494261
4195.595406,1554.432478,-8120.612279,-1480.411884
4195.595731,592.164754,-8580.269578,-666.185348
4195.596055,-444.123565,-8810.098227,-592.164754
4195.596379,0.000000,-9116.536426,-1110.308913
4195.596704,1776.494261,-8656.879127,-444.123565
4195.597028,1036.288319,-9882.631924,-1184.329507
4195.597352,1258.350101,-8656.879127,-814.226536
4195.597677,592.164754,-9806.022374,-296.082377
4195.598001,296.082377,-8044.002729,-1554.432478
4195.598325,0.000000,-10189.070123,-518.144159
4195.598650,-1480.411884,-8503.660028,-1258.350101
4195.598974,-2146.597232,-9346.365076,0.000000
4195.599298,-370.102971,-8580.269578,-518.144159
4195.599622,-1332.370696,-8963.317327,-1036.288319
4195.599947,-592.164754,-8427.050478,222.061783
4195.600271,2146.597232,-7660.954980,-1110.308913
4195.600595,2368.659014,-8273.831378,-296.082377
4195.600920,4219.173869,-9882.631924,-592.164754
4195.601244,962.267725,-8656.879127,-1406.391290
4195.601568,1998.556043,-9882.631924,-222.061783
4195.601893,-1406.391290,-9039.926876,-1480.411884
4195.602217,-296.082377,-9193.145976,0.000000
4195.602541,-1406.391290,-8197.221829,-1110.308913
4195.602866,-2220.617826,-8886.707777,74.020594
4195.603190,-518.144159,-8733.488677,0.000000
4195.603514,740.205942,-7660.954980,0.000000
4195.603839,2516.700203,-8810.098227,-148.041188
4195.604163,2738.761985,-8273.831378,-444.123565
4195.604488,592.164754,-9269.755526,-814.226536
4195.604812,74.020594,-9039.926876,0.000000
4195.605136,-1258.350101,-8503.660028,74.020594
4195.605461,-1258.350101,-9576.193725,1036.288319
4195.605785,-1554.432478,-8273.831378,518.144159
4195.606109,-222.061783,-8427.050478,148.041188
4195.606434,814.226536,-8273.831378,74.020594
4195.606758,1258.350101,-7814.174080,222.061783
4195.607082,1776.494261,-7660.954980,-222.061783
4195.607407,1406.391290,-7890.783629,-444.123565
4195.607731,0.000000,-8044.002729,-592.164754
4195.608055,-296.082377,-8733.488677,444.123565
4195.608380,-444.123565,-8503.660028,0.000000
4195.608704,-518.144159,-8503.660028,-296.082377
4195.609029,0.000000,-9116.536426,148.041188
4195.609353,888.247130,-7814.174080,0.000000
4195.609677,1036.288319,-9116.536426,-592.164754
4195.610002,1702.473667,-8810.098227,-518.144159
4195.610326,1776.494261,-8810.098227,222.061783
4195.610650,0.000000,-7967.393179,-888.247130
4195.610975,-444.123565,-9269.755526,222.061783
4195.611299,-1924.535449,-7507.735880,-518.144159
4195.611623,-1406.391290,-8963.317327,296.082377
4195.611948,-518.144159,-7814.174080,0.000000
4195.612272,1850.514855,-8350.440928,0.000000
4195.612596,1924.535449,-8810.098227,-888.247130
4195.612921,2886.803174,-8273.831378,0.000000
4195.613245,2738.761985,-8656.879127,-962.267725
4195.613570,2294.638420,-8886.707777,-2072.576638
4195.613894,2368.659014,-9576.193725,-1036.288319
4195.614218,74.020594,-9039.926876,-962.267725
4195.614543,-740.205942,-9422.974625,-814.226536
4195.614867,-444.123565,-8503.660028,-962.267725
4195.615191,148.041188,-9193.145976,0.000000
4195.615516,-666.185348,-8197.221829,-1184.329507
4195.615840,888.247130,-8963.317327,-296.082377
4195.616164,2516.700203,-8886.707777,-592.164754
4195.616489,1998.556043,-8503.660028,-1702.473667
4195.616813,1184.329507,-9346.365076,-592.164754
4195.617137,-666.185348,-8197.221829,-592.164754
4195.617462,-1036.288319,-9729.412825,-518.144159
4195.617786,-1554.432478,-9346.365076,-666.185348
4195.618111,-1332.370696,-9806.022374,814.226536
4195.618435,-296.082377,-7967.393179,-666.185348
4195.618759,444.123565,-9116.536426,-740.205942
4195.619084,1702.473667,-8197.221829,-1258.350101
4195.619408,518.144159,-8580.269578,-740.205942
4195.619732,2220.617826,-9039.926876,-1036.288319
4195.620057,962.267725,-7890.783629,-888.247130
4195.620381,-666.185348,-8733.488677,-518.144159
4195.620705,-888.247130,-8503.660028,-296.082377
4195.621030,0.000000,-9039.926876,0.000000
4195.621354,444.123565,-8656.879127,-666.185348
4195.621678,666.185348,-8733.488677,222.061783
4195.622003,1998.556043,-8197.221829,222.061783
4195.622327,1332.370696,-8886.707777,-370.102971
4195.622651,2294.638420,-9193.145976,-666.185348
4195.622976,814.226536,-8120.612279,-1406.391290
4195.623300,-888.247130,-9116.536426,592.164754
4195.623625,-2738.761985,-8197.221829,74.020594
4195.623949,-1258.350101,-8580.269578,518.144159
4195.624273,-740.205942,-7967.393179,592.164754
4195.624598,-740.205942,-8886.707777,1258.350101
4195.624922,1702.473667,-8580.269578,-814.226536
4195.625246,2072.576638,-7890.783629,814.226536
4195.625571,2368.659014,-8120.612279,-518.144159
4195.625895,2738.761985,-8350.440928,-666.185348
4195.626219,1924.535449,-9116.536426,0.000000
4195.626544,-1628.453072,-8810.098227,0.000000
4195.626868,-814.226536,-8886.707777,296.082377
4195.627192,-1184.329507,-8427.050478,222.061783
4195.627517,-888.247130,-8810.098227,592.164754
4195.627841,962.267725,-8044.002729,-296.082377
4195.628166,0.000000,-8503.660028,666.185348
4195.628490,1702.473667,-7890.783629,0.000000
4195.628814,1850.514855,-7660.954980,-888.247130
4195.629139,1998.556043,-9269.755526,296.082377
4195.629463,518.144159,-8120.612279,0.000000
4195.629787,-1406.391290,-9116.536426,-296.082377
4195.630112,-1036.288319,-8427.050478,444.123565
4195.630436,296.082377,-8350.440928,444.123565
4195.630760,518.144159,-8503.660028,-148.041188
4195.631085,1554.432478,-8427.050478,0.000000
4195.631409,1850.514855,-8273.831378,-666.185348
4195.631733,1702.473667,-8197.221829,-518.144159
4195.632058,1776.494261,-8503.660028,-1110.308913
4195.632382,2442.679609,-9039.926876,-740.205942
4195.632707,296.082377,-8963.317327,-1332.370696
4195.633031,0.000000,-8810.098227,-222.061783
4195.633355,592.164754,-8733.488677,-1036.288319
4195.633680,518.144159,-8886.707777,-814.226536
4195.634004,74.020594,-9422.974625,-296.082377
4195.634328,1184.329507,-8503.660028,-1036.288319
4195.634653,1036.288319,-9959.241474,-1184.329507
4195.634977,592.164754,-9269.755526,-1850.514855
4195.635301,0.000000,-9269.755526,-888.247130
4195.635626,-888.247130,-8733.488677,-444.123565
4195.635950,-1702.473667,-9193.145976,-1258.350101
4195.636274,-2886.803174,-9193.145976,-814.226536
4195.636599,-1702.473667,-8197.221829,0.000000
4195.636923,-740.205942,-8886.707777,0.000000
4195.637248,1332.370696,-9116.536426,-962.267725
4195.637572,1258.350101,-8656.879127,-444.123565
4195.637896,2072.576638,-8886.707777,-74.020594
4195.638221,1184.329507,-8120.612279,-1332.370696
4195.638545,1776.494261,-9576.193725,-1036.288319
4195.638869,-296.082377,-9039.926876,-1036.288319
4195.639194,-1998.556043,-9193.145976,-444.123565
4195.639518,-1110.308913,-8886.707777,-370.102971
4195.639842,-592.164754,-7967.393179,0.000000
4195.640167,-296.082377,-8197.221829,-370.102971
4195.640491,1776.494261,-8656.879127,-296.082377
4195.640815,1406.391290,-7890.783629,148.041188
4195.641140,888.247130,-8120.612279,-518.144159
4195.641464,1036.288319,-8733.488677,-444.123565
4195.641789,518.144159,-8733.488677,296.082377
4195.642113,-444.123565,-7967.393179,666.185348
4195.642437,-1406.391290,-8197.221829,740.205942
4195.642762,-592.164754,-8503.660028,518.144159
4195.643086,0.000000,-7584.345430,148.041188
4195.643410,1480.411884,-8273.831378,370.102971
4195.643735,1406.391290,-7354.516781,-222.061783
4195.644059,1110.308913,-7814.174080,592.164754
4195.644383,1036.288319,-7354.516781,-592.164754
4195.644708,2960.823768,-9193.145976,296.082377
4195.645032,-740.205942,-8044.002729,-148.041188
4195.645356,-1258.350101,-8273.831378,370.102971
4195.645681,-1554.432478,-7967.393179,444.123565
