#time,accel_x,accel_y,accel_z
4070.058243,666.185348,-8580.269578,-888.247130
4070.058567,740.205942,-8656.879127,-1110.308913
4070.058892,370.102971,-9116.536426,-962.267725
4070.059216,-370.102971,-9116.536426,-1036.288319
4070.059540,-814.226536,-9499.584175,-1406.391290
4070.059865,-1110.308913,-9346.365076,-1776.494261
4070.060189,-1406.391290,-9039.926876,-1702.473667
4070.060514,-1258.350101,-8886.707777,-1850.514855
4070.060838,-962.267725,-8963.317327,-1480.411884
4070.061163,-370.102971,-8810.098227,-1406.391290
4070.061487,148.041188,-8886.707777,-1628.453072
4070.061811,-148.041188,-7814.174080,-1332.370696
4070.062136,0.000000,-9269.755526,-1036.288319
4070.062460,0.000000,-9346.365076,-1554.432478
4070.062785,-1110.308913,-9576.193725,-1406.391290
4070.063109,-1998.556043,-9806.022374,-1110.308913
4070.063433,-2812.782580,-9499.584175,-666.185348
4070.063758,-2886.803174,-9422.974625,-444.123565
4070.064082,-2886.803174,-9576.193725,-148.041188
4070.064407,-2368.659014,-9422.974625,-222.061783
4070.064731,-2664.741391,-8656.879127,-296.082377
4070.065056,-2442.679609,-9039.926876,0.000000
4070.065380,-2664.741391,-8197.221829,-370.102971
4070.065704,-2738.761985,-8810.098227,-148.041188
4070.066029,-2812.782580,-7890.783629,0.000000
4070.066353,-3775.050304,-8733.488677,74.020594
4070.066678,-4441.235652,-8656.879127,-222.061783
4070.067002,-4589.276840,-8810.098227,0.000000
4070.067326,-4515.256246,-8656.879127,-370.102971
4070.067651,-4441.235652,-8886.707777,0.000000
4070.067975,-4071.132681,-8350.440928,0.000000
4070.068300,-3775.050304,-8427.050478,370.102971
4070.068624,-3034.844362,-8273.831378,296.082377
4070.068948,-2442.679609,-8350.440928,444.123565
4070.069273,-2146.597232,-8044.002729,666.185348
4070.069597,-1406.391290,-7584.345430,592.164754
4070.069921,-1036.288319,-7431.126331,740.205942
4070.070246,-1406.391290,-7660.954980,444.123565
4070.070570,-1036.288319,-7890.783629,888.247130
4070.070894,-1776.494261,-8120.612279,592.164754
4070.071219,-1258.350101,-8656.879127,814.226536
4070.071543,-2220.617826,-8197.221829,592.164754
4070.071867,-1776.494261,-8503.660028,444.123565
4070.072192,-3182.885551,-7814.174080,148.041188
4070.072516,-2590.720797,-8427.050478,444.123565
4070.072840,-2516.700203,-8044.002729,518.144159
4070.073165,-2664.741391,-8580.269578,222.061783
4070.073489,-1480.411884,-8350.440928,518.144159
4070.073813,-1924.535449,-7967.393179,0.000000
4070.074138,-1258.350101,-8503.660028,0.000000
4070.074462,-1480.411884,-8044.002729,-370.102971
4070.074786,-1184.329507,-8810.098227,222.061783
4070.075111,-1554.432478,-8197.221829,-370.102971
4070.075435,-1406.391290,-8886.707777,-148.041188
4070.075759,-1702.473667,-8580.269578,-518.144159
4070.076084,-2146.597232,-9193.145976,-444.123565
4070.076408,-2072.576638,-8580.269578,-962.267725
4070.076732,-1554.432478,-8656.879127,-962.267725
4070.077057,-1184.329507,-8733.488677,-1110.308913
4070.077381,-592.164754,-8963.317327,-1406.391290
4070.077705,74.020594,-8197.221829,-1110.308913
4070.078030,888.247130,-8810.098227,-1332.370696
4070.078354,1702.473667,-8886.707777,-1776.494261
4070.078679,2072.576638,-8810.098227,-1110.308913
4070.079003,2072.576638,-9269.755526,-1184.329507
4070.079327,1480.411884,-8963.317327,-1850.514855
4070.079652,1332.370696,-9882.631924,-1184.329507
4070.079976,592.164754,-9346.365076,-1258.350101
4070.080300,-888.247130,-9729.412825,-1258.350101
4070.080625,-1554.432478,-9269.755526,-1480.411884
4070.080949,-1998.556043,-8963.317327,-1628.453072
4070.081273,-2738.761985,-9116.536426,-1924.535449
4070.081598,-2368.659014,-9193.145976,-1036.288319
4070.081922,-2886.803174,-8733.488677,-1850.514855
4070.082246,-2886.803174,-9193.145976,-1554.432478
4070.082571,-2368.659014,-8733.488677,-1480.411884
4070.082895,-2220.617826,-9346.365076,-1036.288319
4070.083219,-1850.514855,-9193.145976,-888.247130
4070.083544,-666.185348,-9193.145976,-592.164754
4070.083868,-518.144159,-9729.412825,-666.185348
4070.084192,-518.144159,-8963.317327,-814.226536
4070.084517,-148.041188,-8503.660028,-666.185348
4070.084841,-296.082377,-8886.707777,-592.164754
4070.085165,0.000000,-8350.440928,-148.041188
4070.085490,518.144159,-8120.612279,-222.061783
4070.085814,740.205942,-8273.831378,-370.102971
4070.086138,666.185348,-8044.002729,0.000000
4070.086463,1184.329507,-8273.831378,-148.041188
4070.086787,1924.535449,-8580.269578,0.000000
4070.087111,1258.350101,-8580.269578,74.020594
4070.087436,1406.391290,-8963.317327,222.061783
4070.087760,666.185348,-8656.879127,222.061783
4070.088084,222.061783,-9346.365076,74.020594
4070.088409,-518.144159,-8963.317327,518.144159
4070.088733,-814.226536,-8656.879127,1184.329507
4070.089057,-1258.350101,-7660.954980,962.267725
4070.089382,-1036.288319,-7890.783629,1332.370696
4070.089706,-666.185348,-7431.126331,1628.453072
4070.090031,740.205942,-7431.126331,1406.391290
4070.090355,888.247130,-6665.030833,1036.288319
4070.090679,2220.617826,-7354.516781,1480.411884
4070.091004,1850.514855,-7660.954980,592.164754
4070.091328,2294.638420,-7660.954980,740.205942
4070.091652,1850.514855,-7967.393179,518.144159
4070.091977,1332.370696,-8197.221829,592.164754
4070.092301,296.082377,-8427.050478,814.226536
4070.092625,666.185348,-7967.393179,518.144159
4070.092950,518.144159,-8273.831378,222.061783
4070.093274,1184.329507,-7737.564530,-148.041188
4070.093598,2072.576638,-7890.783629,-444.123565
4070.093923,2368.659014,-7354.516781,-592.164754
4070.094247,2738.761985,-7967.393179,-740.205942
4070.094571,2738.761985,-7890.783629,-666.185348
4070.094896,2368.659014,-8273.831378,-888.247130
4070.095220,1776.494261,-8733.488677,-888.247130
4070.095544,666.185348,-8733.488677,-666.185348
4070.095869,0.000000,-8656.879127,-444.123565
4070.096193,-296.082377,-8963.317327,-666.185348
4070.096517,-148.041188,-9116.536426,-666.185348
4070.096842,148.041188,-8810.098227,-1110.308913
4070.097166,1184.329507,-8886.707777,-814.226536
4070.097490,1184.329507,-8503.660028,-1258.350101
4070.097815,1776.494261,-8963.317327,-1332.370696
4070.098139,1776.494261,-8963.317327,-1480.411884
4070.098463,1628.453072,-9193.145976,-1480.411884
4070.098788,1332.370696,-9576.193725,-1554.432478
4070.099112,74.020594,-9652.803275,-1332.370696
4070.099436,-740.205942,-9882.631924,-1480.411884
4070.099761,-888.247130,-9882.631924,-1702.473667
4070.100085,-740.205942,-9652.803275,-1628.453072
4070.100409,-888.247130,-9882.631924,-1850.514855
4070.100734,-592.164754,-9193.145976,-1776.494261
4070.101058,-296.082377,-9346.365076,-1628.453072
4070.101382,74.020594,-9576.193725,-1776.494261
4070.101707,666.185348,-9116.536426,-1924.535449
4070.102031,370.102971,-8963.317327,-1332.370696
4070.102356,0.000000,-8886.707777,-1110.308913
4070.102680,-814.226536,-8580.269578,-1036.288319
4070.103004,-962.267725,-9346.365076,-296.082377
4070.103329,-1110.308913,-8580.269578,-592.164754
4070.103653,-1036.288319,-8580.269578,-296.082377
4070.103977,-444.123565,-8810.098227,-740.205942
4070.104302,0.000000,-9039.926876,0.000000
4070.104626,222.061783,-8350.440928,-740.205942
4070.104950,-148.041188,-8580.269578,-370.102971
4070.105275,74.020594,-8273.831378,0.000000
4070.105599,148.041188,-8503.660028,-222.061783
4070.105923,0.000000,-8350.440928,0.000000
4070.106248,-148.041188,-8273.831378,296.082377
4070.106572,0.000000,-8197.221829,666.185348
4070.106896,-444.123565,-8120.612279,740.205942
4070.107221,1110.308913,-8427.050478,666.185348
4070.107545,888.247130,-8350.440928,962.267725
4070.107869,1332.370696,-7890.783629,444.123565
4070.108194,2072.576638,-7890.783629,888.247130
4070.108518,2220.617826,-8273.831378,962.267725
4070.108842,1628.453072,-7890.783629,814.226536
4070.109167,666.185348,-7737.564530,962.267725
4070.109491,-148.041188,-7890.783629,1332.370696
4070.109815,-592.164754,-7354.516781,740.205942
4070.110140,-962.267725,-7584.345430,1036.288319
4070.110464,-518.144159,-7124.688131,740.205942
4070.110788,0.000000,-7737.564530,518.144159
4070.111113,222.061783,-7431.126331,592.164754
4070.111437,1332.370696,-7737.564530,222.061783
4070.111761,1406.391290,-7967.393179,296.082377
4070.112086,1628.453072,-8197.221829,0.000000
4070.112410,1628.453072,-8886.707777,0.000000
4070.112734,1702.473667,-8656.879127,148.041188
4070.113059,1036.288319,-9039.926876,296.082377
4070.113383,444.123565,-8503.660028,222.061783
4070.113708,444.123565,-8963.317327,222.061783
4070.114032,518.144159,-8503.660028,74.020594
4070.114356,1110.308913,-8503.660028,-296.082377
4070.114681,2146.597232,-8580.269578,-370.102971
4070.115005,2220.617826,-8350.440928,-666.185348
4070.115329,1998.556043,-8810.098227,-888.247130
4070.115654,2368.659014,-9576.193725,-666.185348
4070.115978,888.247130,-9193.145976,-592.164754
4070.116302,222.061783,-9729.412825,-518.144159
4070.116627,0.000000,-9576.193725,-740.205942
4070.116951,74.020594,-9959.241474,0.000000
4070.117275,-444.123565,-8656.879127,-1258.350101
4070.117600,222.061783,-9729.412825,-962.267725
4070.117924,148.041188,-8656.879127,-1628.453072
4070.118248,814.226536,-8810.098227,-1480.411884
4070.118573,888.247130,-8656.879127,-2072.576638
4070.118897,814.226536,-9039.926876,-1850.514855
4070.119221,444.123565,-8810.098227,-2072.576638
4070.119546,222.061783,-9193.145976,-1998.556043
4070.119870,-74.020594,-9806.022374,-1628.453072
4070.120194,-1110.308913,-9652.803275,-740.205942
4070.120519,-444.123565,-9422.974625,-1332.370696
4070.120843,-222.061783,-9499.584175,-1332.370696
4070.121167,222.061783,-9422.974625,-1184.329507
4070.121492,1554.432478,-8886.707777,-1258.350101
4070.121816,2368.659014,-8810.098227,-1036.288319
4070.122140,2294.638420,-8656.879127,-1036.288319
4070.122465,2294.638420,-8886.707777,-1110.308913
4070.122789,1702.473667,-8963.317327,-962.267725
4070.123113,370.102971,-9039.926876,-370.102971
4070.123438,-740.205942,-8503.660028,-222.061783
4070.123762,-1628.453072,-8886.707777,518.144159
4070.124086,-1554.432478,-8810.098227,222.061783
4070.124411,-1850.514855,-8810.098227,296.082377
4070.124735,-1332.370696,-8580.269578,-222.061783
4070.125059,74.020594,-8580.269578,222.061783
4070.125384,814.226536,-7814.174080,-370.102971
4070.125708,1406.391290,-8120.612279,0.000000
4070.126033,1258.350101,-7967.393179,-148.041188
4070.126357,814.226536,-8120.612279,296.082377
4070.126681,888.247130,-8120.612279,0.000000
4070.127006,444.123565,-8656.879127,740.205942
4070.127330,-296.082377,-8273.831378,888.247130
4070.127654,-518.144159,-8580.269578,962.267725
4070.127979,-814.226536,-8580.269578,518.144159
4070.128303,0.000000,-8044.002729,740.205942
4070.128627,740.205942,-7737.564530,296.082377
4070.128952,1480.411884,-7814.174080,222.061783
4070.129276,1776.494261,-7814.174080,148.041188
4070.129600,1850.514855,-7507.735880,222.061783
4070.129925,1924.535449,-7967.393179,518.144159
4070.130249,1184.329507,-7890.783629,370.102971
4070.130573,-148.041188,-8044.002729,740.205942
4070.130898,0.000000,-7890.783629,740.205942
4070.131222,0.000000,-8503.660028,888.247130
4070.131546,74.020594,-8580.269578,444.123565
4070.131871,888.247130,-8580.269578,370.102971
4070.132195,814.226536,-8120.612279,0.000000
4070.132519,1036.288319,-8044.002729,-222.061783
4070.132844,1480.411884,-8044.002729,-296.082377
4070.133168,1258.350101,-8427.050478,-148.041188
4070.133492,814.226536,-8350.440928,0.000000
4070.133817,222.061783,-8427.050478,-518.144159
4070.134141,0.000000,-9193.145976,-296.082377
4070.134465,296.082377,-8656.879127,-740.205942
4070.134790,666.185348,-9039.926876,-370.102971
4070.135114,1258.350101,-8886.707777,-1110.308913
4070.135438,1702.473667,-9576.193725,-666.185348
4070.135763,2294.638420,-8580.269578,-962.267725
4070.136087,2442.679609,-9039.926876,-1110.308913
4070.136411,2072.576638,-9039.926876,-1702.473667
4070.136736,1332.370696,-9729.412825,-1628.453072
4070.137060,444.123565,-9269.755526,-1184.329507
4070.137385,-888.247130,-9269.755526,-1110.308913
4070.137709,-1332.370696,-8963.317327,-1036.288319
4070.138033,-1480.411884,-8963.317327,-1184.329507
4070.138358,-1998.556043,-8886.707777,-1110.308913
4070.138682,-518.144159,-8733.488677,-1554.432478
4070.139006,518.144159,-8656.879127,-1406.391290
4070.139331,962.267725,-8963.317327,-1554.432478
4070.139655,1258.350101,-9959.241474,-1554.432478
4070.139979,1258.350101,-9193.145976,-1702.473667
4070.140304,1406.391290,-9652.803275,-1332.370696
4070.140628,814.226536,-9346.365076,-1110.308913
4070.140952,592.164754,-9806.022374,-518.144159
4070.141277,0.000000,-9346.365076,-666.185348
4070.141601,-222.061783,-9729.412825,-222.061783
4070.141925,-222.061783,-8886.707777,-592.164754
4070.142250,444.123565,-9039.926876,-148.041188
4070.142574,296.082377,-7737.564530,-592.164754
4070.142898,1036.288319,-8503.660028,-370.102971
4070.143223,1332.370696,-8503.660028,-740.205942
4070.143547,1776.494261,-8427.050478,-222.061783
4070.143871,1480.411884,-8503.660028,-592.164754
4070.144196,740.205942,-8427.050478,0.000000
4070.144520,-296.082377,-8733.488677,148.041188
4070.144844,-962.267725,-8886.707777,444.123565
4070.145169,-1258.350101,-8580.269578,592.164754
4070.145493,-814.226536,-8120.612279,518.144159
4070.145817,-518.144159,-8273.831378,518.144159
4070.146142,0.000000,-7814.174080,0.000000
4070.146466,814.226536,-7967.393179,0.000000
4070.146790,518.144159,-7201.297681,370.102971
4070.147115,888.247130,-7431.126331,296.082377
4070.147439,370.102971,-7660.954980,148.041188
4070.147763,0.000000,-8120.612279,296.082377
4070.148088,0.000000,-8733.488677,296.082377
4070.148412,-370.102971,-8503.660028,814.226536
4070.148736,-370.102971,-8273.831378,296.082377
4070.149061,370.102971,-8963.317327,888.247130
4070.149385,888.247130,-8197.221829,444.123565
4070.149710,2072.576638,-8503.660028,518.144159
4070.150034,1850.514855,-7890.783629,0.000000
4070.150358,1924.535449,-8273.831378,222.061783
4070.150683,1924.535449,-8044.002729,0.000000
4070.151007,1184.329507,-8503.660028,0.000000
4070.151331,222.061783,-8120.612279,148.041188
4070.151656,-370.102971,-8427.050478,148.041188
4070.151980,-962.267725,-8273.831378,0.000000
4070.152304,-1258.350101,-9193.145976,0.000000
4070.152629,-814.226536,-8503.660028,-296.082377
4070.152953,0.000000,-8503.660028,0.000000
4070.153277,296.082377,-8427.050478,-518.144159
4070.153602,888.247130,-8503.660028,-888.247130
4070.153926,1258.350101,-8580.269578,-1332.370696
4070.154250,962.267725,-8810.098227,-1406.391290
4070.154575,888.247130,-8580.269578,-1480.411884
4070.154899,74.020594,-9269.755526,-740.205942
4070.155223,0.000000,-9806.022374,-962.267725
4070.155548,-666.185348,-9576.193725,-666.185348
4070.155872,-444.123565,-9422.974625,-1406.391290
4070.156196,0.000000,-9499.584175,-592.164754
4070.156521,74.020594,-8350.440928,-814.226536
4070.156845,1480.411884,-9039.926876,-1258.350101
4070.157169,1332.370696,-9116.536426,-1554.432478
4070.157494,1628.453072,-9269.755526,-1332.370696
4070.157818,1702.473667,-8733.488677,-1332.370696
4070.158142,148.041188,-9346.365076,-962.267725
4070.158467,0.000000,-9116.536426,-1184.329507
4070.158791,-222.061783,-8810.098227,-518.144159
4070.159115,-740.205942,-8810.098227,-888.247130
4070.159440,0.000000,-9652.803275,-666.185348
4070.159764,0.000000,-9116.536426,-740.205942
4070.160088,518.144159,-9193.145976,-592.164754
4070.160413,814.226536,-8810.098227,-1480.411884
4070.160737,1036.288319,-8733.488677,-1332.370696
4070.161062,444.123565,-8656.879127,-1258.350101
4070.161386,666.185348,-8733.488677,-1036.288319
4070.161710,222.061783,-8733.488677,-888.247130
4070.162035,0.000000,-8886.707777,-370.102971
4070.162359,-518.144159,-8197.221829,-814.226536
4070.162683,0.000000,-8810.098227,-148.041188
4070.163008,444.123565,-8580.269578,-296.082377
4070.163332,1332.370696,-8580.269578,222.061783
4070.163656,1702.473667,-8197.221829,-370.102971
4070.163981,1480.411884,-8120.612279,-74.020594
4070.164305,1850.514855,-8273.831378,-222.061783
4070.164629,1406.391290,-8427.050478,0.000000
4070.164954,370.102971,-8350.440928,74.020594
4070.165278,-370.102971,-8273.831378,148.041188
4070.165602,-962.267725,-8197.221829,370.102971
4070.165927,-1850.514855,-8044.002729,444.123565
4070.166251,-1554.432478,-8120.612279,518.144159
4070.166575,-740.205942,-7431.126331,0.000000
4070.166900,296.082377,-7890.783629,444.123565
4070.167224,592.164754,-7814.174080,0.000000
4070.167548,1332.370696,-8120.612279,74.020594
4070.167873,1776.494261,-8120.612279,-148.041188
4070.168197,1480.411884,-8733.488677,0.000000
4070.168522,1184.329507,-8350.440928,-222.061783
4070.168846,74.020594,-8963.317327,518.144159
4070.169170,0.000000,-8656.879127,296.082377
4070.169495,-444.123565,-8656.879127,592.164754
4070.169819,0.000000,-8427.050478,444.123565
4070.170144,74.020594,-8810.098227,296.082377
4070.170468,296.082377,-8044.002729,370.102971
4070.170793,1036.288319,-8963.317327,0.000000
4070.171117,1036.288319,-8044.002729,-222.061783
4070.171442,1258.350101,-8427.050478,-148.041188
4070.171766,592.164754,-8120.612279,-518.144159
4070.172091,1924.535449,-9499.584175,0.000000
4070.172415,-962.267725,-8273.831378,296.082377
4070.172740,-1036.288319,-9039.926876,-222.061783
4070.173064,-814.226536,-8350.440928,0.000000
4070.173388,-888.247130,-9269.755526,0.000000
4070.173713,888.247130,-8656.879127,-1036.288319
4070.174037,296.082377,-8580.269578,-592.164754
4070.174362,518.144159,-8427.050478,-1036.288319
4070.174686,740.205942,-8733.488677,-518.144159
4070.175011,1110.308913,-8427.050478,-1480.411884
4070.175335,74.020594,-9039.926876,-1036.288319
4070.175660,0.000000,-8427.050478,-1110.308913
4070.175984,0.000000,-9269.755526,-888.247130
4070.176309,-148.041188,-8656.879127,-888.247130
4070.176633,666.185348,-9193.145976,-592.164754
4070.176958,518.144159,-9116.536426,-1110.308913
4070.177282,814.226536,-9116.536426,-592.164754
4070.177606,1924.535449,-8656.879127,-888.247130
4070.177931,2368.659014,-9193.145976,-962.267725
4070.178255,1924.535449,-8503.660028,-1036.288319
4070.178580,1554.432478,-9269.755526,-1036.288319
4070.178904,592.164754,-8580.269578,-1406.391290
4070.179229,-444.123565,-9116.536426,-222.061783
4070.179553,-666.185348,-8503.660028,-592.164754
4070.179878,-888.247130,-8427.050478,-592.164754
4070.180202,-1036.288319,-8656.879127,-740.205942
4070.180527,-74.020594,-8810.098227,-740.205942
4070.180851,518.144159,-8963.317327,-444.123565
4070.181176,814.226536,-8733.488677,-1110.308913
4070.181500,1110.308913,-8963.317327,-888.247130
4070.181824,1332.370696,-8810.098227,-1110.308913
4070.182149,814.226536,-8963.317327,-370.102971
4070.182473,370.102971,-8350.440928,-666.185348
4070.182798,518.144159,-9039.926876,74.020594
4070.183122,0.000000,-8580.269578,-592.164754
4070.183447,296.082377,-9422.974625,296.082377
4070.183771,296.082377,-8197.221829,-518.144159
4070.184096,814.226536,-8656.879127,74.020594
4070.184420,1036.288319,-8044.002729,0.000000
4070.184745,1776.494261,-8656.879127,-148.041188
4070.185069,1776.494261,-8350.440928,-444.123565
4070.185394,1628.453072,-8273.831378,222.061783
4070.185718,592.164754,-8273.831378,0.000000
4070.186042,296.082377,-8044.002729,370.102971
4070.186367,0.000000,-8886.707777,740.205942
4070.186691,-370.102971,-8273.831378,444.123565
4070.187016,0.000000,-8120.612279,370.102971
4070.187340,296.082377,-8427.050478,370.102971
4070.187665,1036.288319,-7890.783629,222.061783
4070.187989,1480.411884,-8197.221829,-222.061783
4070.188314,1406.391290,-8197.221829,-296.082377
4070.188638,592.164754,-8197.221829,0.000000
4070.188963,666.185348,-8273.831378,0.000000
4070.189287,0.000000,-8810.098227,0.000000
4070.189612,-1332.370696,-8656.879127,0.000000
4070.189936,-962.267725,-8503.660028,0.000000
4070.190260,-1036.288319,-8656.879127,0.000000
4070.190585,0.000000,-8656.879127,-222.061783
4070.190909,666.185348,-8580.269578,148.041188
4070.191234,1480.411884,-8427.050478,-296.082377
4070.191558,1776.494261,-8273.831378,74.020594
4070.191883,2072.576638,-8503.660028,-370.102971
4070.192207,2072.576638,-8273.831378,-296.082377
4070.192532,1184.329507,-8580.269578,-222.061783
4070.192856,518.144159,-8810.098227,-222.061783
4070.193181,-370.102971,-8733.488677,-296.082377
4070.193505,-1258.350101,-8733.488677,148.041188
4070.193830,-1184.329507,-8963.317327,-296.082377
4070.194154,-1480.411884,-8580.269578,-296.082377
4070.194478,-518.144159,-8733.488677,-444.123565
4070.194803,-592.164754,-7967.393179,-370.102971
4070.195127,444.123565,-8503.660028,-1184.329507
4070.195452,666.185348,-8427.050478,-1184.329507
4070.195776,1184.329507,-8886.707777,-962.267725
4070.196101,740.205942,-9193.145976,-1184.329507
4070.196425,740.205942,-9499.584175,-1036.288319
4070.196750,296.082377,-9346.365076,-666.185348
4070.197074,-296.082377,-9576.193725,-740.205942
4070.197399,-592.164754,-9346.365076,-518.144159
4070.197723,222.061783,-9422.974625,0.000000
4070.198048,148.041188,-8503.660028,-592.164754
4070.198372,222.061783,-8733.488677,-296.082377
4070.198696,1036.288319,-8503.660028,-1036.288319
4070.199021,1480.411884,-8656.879127,-518.144159
4070.199345,1628.453072,-8580.269578,-888.247130
4070.199670,1110.308913,-8733.488677,-296.082377
4070.199994,222.061783,-8733.488677,-370.102971
4070.200319,0.000000,-8886.707777,148.041188
4070.200643,222.061783,-9039.926876,-148.041188
4070.200968,-222.061783,-9116.536426,0.000000
4070.201292,296.082377,-8810.098227,0.000000
4070.201617,74.020594,-8273.831378,0.000000
4070.201941,1406.391290,-9729.412825,0.000000
4070.202266,814.226536,-8197.221829,-888.247130
4070.202590,1406.391290,-8350.440928,-518.144159
4070.202914,740.205942,-7660.954980,-814.226536
4070.203239,888.247130,-9116.536426,-296.082377
4070.203563,296.082377,-8044.002729,-444.123565
4070.203888,74.020594,-8427.050478,222.061783
4070.204212,296.082377,-8197.221829,-222.061783
4070.204537,1110.308913,-8503.660028,-222.061783
4070.204861,1850.514855,-8427.050478,0.000000
4070.205186,1998.556043,-8197.221829,222.061783
4070.205510,2368.659014,-8427.050478,0.000000
4070.205835,2072.576638,-7967.393179,0.000000
4070.206159,1924.535449,-8044.002729,74.020594
4070.206484,1184.329507,-8120.612279,-222.061783
4070.206808,518.144159,-7967.393179,0.000000
4070.207132,-592.164754,-8197.221829,148.041188
4070.207457,-1110.308913,-8273.831378,222.061783
4070.207781,-1036.288319,-7737.564530,0.000000
4070.208106,-296.082377,-8503.660028,0.000000
4070.208430,-370.102971,-8120.612279,0.000000
4070.208755,296.082377,-8580.269578,0.000000
4070.209079,444.123565,-9116.536426,-592.164754
4070.209404,740.205942,-8580.269578,-296.082377
4070.209728,1110.308913,-8656.879127,-666.185348
4070.210053,740.205942,-9269.755526,-444.123565
4070.210377,444.123565,-9499.584175,-666.185348
4070.210702,222.061783,-9269.755526,0.000000
4070.211026,74.020594,-9193.145976,-370.102971
4070.211350,74.020594,-8886.707777,-222.061783
4070.211675,296.082377,-9193.145976,74.020594
4070.211999,518.144159,-8273.831378,-296.082377
4070.212324,1110.308913,-8733.488677,-148.041188
4070.212648,1258.350101,-8810.098227,-814.226536
4070.212973,1406.391290,-8503.660028,-444.123565
4070.213297,1332.370696,-9499.584175,-740.205942
4070.213622,370.102971,-8810.098227,-666.185348
4070.213946,-296.082377,-8886.707777,-370.102971
4070.214271,-814.226536,-8810.098227,-222.061783
4070.214595,-962.267725,-9576.193725,0.000000
4070.214920,-666.185348,-8963.317327,-296.082377
4070.215244,74.020594,-8580.269578,-296.082377
4070.215568,74.020594,-8197.221829,-370.102971
4070.215893,370.102971,-8656.879127,-888.247130
4070.216217,592.164754,-8503.660028,-518.144159
4070.216542,592.164754,-8427.050478,-740.205942
4070.216866,0.000000,-8273.831378,-666.185348
4070.217191,0.000000,-9039.926876,-888.247130
4070.217515,-518.144159,-8273.831378,-518.144159
4070.217840,0.000000,-8733.488677,-296.082377
4070.218164,0.000000,-8503.660028,-592.164754
4070.218489,666.185348,-8963.317327,-370.102971
4070.218813,1776.494261,-9269.755526,-666.185348
4070.219138,2368.659014,-8733.488677,-222.061783
4070.219462,2220.617826,-8350.440928,-444.123565
4070.219786,2442.679609,-8427.050478,-518.144159
4070.220111,2294.638420,-8503.660028,-296.082377
4070.220435,962.267725,-8044.002729,-740.205942
4070.220760,666.185348,-8580.269578,148.041188
4070.221084,-1036.288319,-8273.831378,0.000000
4070.221409,-1406.391290,-8427.050478,222.061783
4070.221733,-1332.370696,-8656.879127,-296.082377
4070.222058,-1110.308913,-8427.050478,0.000000
4070.222382,-296.082377,-8044.002729,0.000000
4070.222707,814.226536,-8503.660028,-444.123565
4070.223031,1776.494261,-8580.269578,-222.061783
4070.223356,1332.370696,-8427.050478,-888.247130
4070.223680,2294.638420,-8580.269578,-444.123565
4070.224004,1628.453072,-8656.879127,-518.144159
4070.224329,1554.432478,-9346.365076,0.000000
4070.224653,1184.329507,-8580.269578,-592.164754
4070.224978,148.041188,-9499.584175,74.020594
4070.225302,-518.144159,-8733.488677,0.000000
4070.225627,148.041188,-8810.098227,0.000000
4070.225951,0.000000,-8427.050478,74.020594
4070.226276,222.061783,-8503.660028,148.041188
4070.226600,666.185348,-8273.831378,-370.102971
4070.226925,814.226536,-8427.050478,-518.144159
4070.227249,1332.370696,-8273.831378,-518.144159
4070.227574,518.144159,-8427.050478,-888.247130
4070.227898,0.000000,-8656.879127,-296.082377
4070.228222,0.000000,-8886.707777,0.000000
4070.228547,-222.061783,-8810.098227,-296.082377
4070.228871,-518.144159,-9346.365076,518.144159
4070.229196,222.061783,-8810.098227,-148.041188
4070.229520,592.164754,-8503.660028,-296.082377
4070.229845,1036.288319,-9116.536426,-740.205942
4070.230169,592.164754,-9039.926876,-370.102971
4070.230494,962.267725,-8580.269578,-666.185348
4070.230818,370.102971,-8273.831378,-518.144159
4070.231143,148.041188,-8886.707777,-740.205942
4070.231467,-222.061783,-8733.488677,-518.144159
4070.231792,296.082377,-8886.707777,-148.041188
4070.232116,-370.102971,-8733.488677,-666.185348
4070.232440,444.123565,-9116.536426,-518.144159
4070.232765,296.082377,-8886.707777,-444.123565
4070.233089,1036.288319,-9729.412825,666.185348
4070.233414,444.123565,-8427.050478,-592.164754
4070.233738,1480.411884,-9269.755526,-592.164754
4070.234063,0.000000,-8810.098227,-592.164754
4070.234387,-444.123565,-8120.612279,-444.123565
4070.234712,-444.123565,-8350.440928,148.041188
4070.235036,-1036.288319,-8350.440928,-592.164754
4070.235361,-1110.308913,-8733.488677,0.000000
4070.235685,-1258.350101,-7660.954980,-666.185348
4070.236010,-370.102971,-8810.098227,-148.041188
4070.236334,74.020594,-8197.221829,0.000000
4070.236658,666.185348,-8503.660028,-592.164754
4070.236983,1628.453072,-8810.098227,-666.185348
4070.237307,1036.288319,-8197.221829,-518.144159
4070.237632,1332.370696,-9193.145976,-444.123565
4070.237956,814.226536,-8963.317327,-666.185348
4070.238281,592.164754,-9039.926876,0.000000
4070.238605,0.000000,-8886.707777,-444.123565
4070.238930,0.000000,-9039.926876,-222.061783
4070.239254,0.000000,-8503.660028,-444.123565
4070.239579,74.020594,-8886.707777,0.000000
4070.239903,222.061783,-8044.002729,-444.123565
4070.240228,666.185348,-8733.488677,-222.061783
4070.240552,888.247130,-8197.221829,-148.041188
4070.240876,814.226536,-8350.440928,-888.247130
4070.241201,1110.308913,-9116.536426,-296.082377
4070.241525,0.000000,-8273.831378,-296.082377
4070.241850,-148.041188,-9269.755526,0.000000
4070.242174,-518.144159,-8197.221829,0.000000
4070.242499,74.020594,-8733.488677,0.000000
4070.242823,0.000000,-8427.050478,-222.061783
4070.243148,814.226536,-8656.879127,74.020594
4070.243472,888.247130,-8273.831378,-444.123565
4070.243797,1480.411884,-8656.879127,-444.123565
4070.244121,1406.391290,-8044.002729,-740.205942
4070.244446,2220.617826,-8656.879127,-148.041188
4070.244770,1110.308913,-8350.440928,-740.205942
4070.245094,74.020594,-8503.660028,-888.247130
4070.245419,0.000000,-8810.098227,-666.185348
4070.245743,-222.061783,-9116.536426,0.000000
4070.246068,0.000000,-8733.488677,-518.144159
4070.246392,592.164754,-8580.269578,-666.185348
4070.246717,888.247130,-8580.269578,0.000000
4070.247041,1554.432478,-8810.098227,-592.164754
4070.247366,1924.535449,-8580.269578,0.000000
4070.247690,2220.617826,-8503.660028,-74.020594
4070.248015,1850.514855,-8656.879127,-370.102971
4070.248339,666.185348,-8503.660028,-370.102971
4070.248664,-222.061783,-8427.050478,0.000000
4070.248988,-370.102971,-8197.221829,-296.082377
4070.249312,-1332.370696,-8427.050478,-370.102971
4070.249637,-1332.370696,-8656.879127,-444.123565
4070.249961,-666.185348,-9269.755526,0.000000
4070.250286,-666.185348,-8120.612279,-518.144159
4070.250610,370.102971,-8656.879127,-370.102971
4070.250935,740.205942,-8733.488677,-814.226536
4070.251259,1258.350101,-8963.317327,-666.185348
4070.251584,1258.350101,-8886.707777,-1184.329507
4070.251908,666.185348,-9422.974625,-666.185348
4070.252233,-296.082377,-8886.707777,-740.205942
4070.252557,-370.102971,-9116.536426,-370.102971
4070.252882,-518.144159,-9346.365076,-148.041188
4070.253206,-740.205942,-9269.755526,-148.041188
4070.253530,-518.144159,-8733.488677,-222.061783
4070.253855,0.000000,-8273.831378,-296.082377
4070.254179,222.061783,-8810.098227,74.020594
4070.254504,518.144159,-7967.393179,-296.082377
4070.254828,1036.288319,-8273.831378,-296.082377
4070.255153,1184.329507,-9039.926876,0.000000
4070.255477,888.247130,-8733.488677,-222.061783
4070.255802,296.082377,-8350.440928,0.000000
4070.256126,-592.164754,-8963.317327,0.000000
4070.256451,-888.247130,-8733.488677,296.082377
4070.256775,-740.205942,-8963.317327,370.102971
4070.257100,74.020594,-8120.612279,222.061783
4070.257424,444.123565,-8197.221829,74.020594
4070.257748,666.185348,-8427.050478,-518.144159
4070.258073,1036.288319,-8044.002729,-518.144159
4070.258397,1406.391290,-8197.221829,-370.102971
4070.258722,740.205942,-8197.221829,-444.123565
4070.259046,1110.308913,-8580.269578,-518.144159
4070.259371,222.061783,-8197.221829,148.041188
4070.259695,148.041188,-8427.050478,0.000000
4070.260020,296.082377,-7890.783629,-222.061783
4070.260344,222.061783,-8580.269578,74.020594
4070.260669,592.164754,-8044.002729,74.020594
4070.260993,1702.473667,-8350.440928,0.000000
4070.261318,1850.514855,-8656.879127,-222.061783
4070.261642,1998.556043,-8120.612279,0.000000
4070.261966,1110.308913,-8273.831378,-370.102971
4070.262291,296.082377,-8580.269578,0.000000
4070.262615,0.000000,-8810.098227,0.000000
4070.262940,-444.123565,-8350.440928,148.041188
4070.263264,-666.185348,-8503.660028,-296.082377
4070.263589,-962.267725,-8350.440928,-296.082377
4070.263913,-296.082377,-8656.879127,0.000000
4070.264238,888.247130,-8273.831378,-222.061783
4070.264562,1036.288319,-8273.831378,-962.267725
4070.264887,1480.411884,-8580.269578,-518.144159
4070.265211,2072.576638,-8427.050478,-888.247130
4070.265536,1850.514855,-9116.536426,-962.267725
4070.265860,1332.370696,-8656.879127,-666.185348
4070.266185,962.267725,-8886.707777,-370.102971
4070.266509,444.123565,-9039.926876,-740.205942
4070.266833,0.000000,-9346.365076,-518.144159
4070.267158,-148.041188,-9346.365076,-518.144159
4070.267482,296.082377,-8963.317327,-518.144159
4070.267807,296.082377,-8427.050478,-666.185348
4070.268131,814.226536,-8963.317327,-962.267725
4070.268456,740.205942,-8733.488677,-592.164754
4070.268780,666.185348,-8886.707777,-666.185348
4070.269105,740.205942,-8963.317327,-666.185348
4070.269429,222.061783,-9116.536426,-370.102971
4070.269753,0.000000,-9499.584175,-148.041188
4070.270078,-592.164754,-9039.926876,0.000000
4070.270402,-296.082377,-9269.755526,-518.144159
4070.270726,-518.144159,-8810.098227,74.020594
4070.271051,74.020594,-8580.269578,0.000000
4070.271375,0.000000,-7967.393179,-518.144159
4070.271699,222.061783,-8120.612279,-592.164754
4070.272024,444.123565,-7660.954980,-962.267725
4070.272348,222.061783,-8580.269578,-518.144159
4070.272673,222.061783,-7814.174080,-444.123565
4070.272997,-296.082377,-8427.050478,-666.185348
4070.273321,-148.041188,-8886.707777,-148.041188
4070.273646,-370.102971,-8350.440928,-666.185348
4070.273970,222.061783,-9116.536426,0.000000
4070.274294,222.061783,-7814.174080,-296.082377
4070.274619,1258.350101,-8656.879127,296.082377
4070.274943,2072.576638,-8273.831378,-444.123565
4070.275267,2590.720797,-8427.050478,74.020594
4070.275592,2368.659014,-8350.440928,0.000000
4070.275916,1850.514855,-8733.488677,0.000000
4070.276241,592.164754,-8733.488677,222.061783
4070.276565,0.000000,-8427.050478,370.102971
4070.276889,-962.267725,-8656.879127,444.123565
4070.277214,-1480.411884,-8120.612279,74.020594
4070.277538,-1258.350101,-8427.050478,518.144159
4070.277862,-962.267725,-7890.783629,74.020594
4070.278187,0.000000,-8197.221829,148.041188
4070.278511,962.267725,-8120.612279,-370.102971
4070.278835,1406.391290,-8120.612279,-518.144159
4070.279160,1702.473667,-8350.440928,-296.082377
4070.279484,962.267725,-8580.269578,0.000000
4070.279808,1628.453072,-8963.317327,0.000000
4070.280133,518.144159,-9039.926876,0.000000
4070.280457,-888.247130,-9269.755526,0.000000
4070.280782,-962.267725,-8733.488677,74.020594
4070.281106,-740.205942,-8503.660028,0.000000
4070.281430,148.041188,-8273.831378,0.000000
4070.281755,814.226536,-8350.440928,-148.041188
4070.282079,1258.350101,-8273.831378,-518.144159
4070.282403,1924.535449,-7737.564530,-296.082377
4070.282728,2516.700203,-8273.831378,-518.144159
4070.283052,1554.432478,-8503.660028,-370.102971
4070.283376,1850.514855,-9499.584175,-222.061783
4070.283701,814.226536,-8810.098227,-370.102971
4070.284025,370.102971,-8810.098227,222.061783
4070.284350,-148.041188,-8733.488677,-370.102971
4070.284674,-296.082377,-9039.926876,0.000000
4070.284998,-222.061783,-8656.879127,-592.164754
4070.285323,0.000000,-8656.879127,-962.267725
4070.285647,518.144159,-8273.831378,-1258.350101
4070.285971,666.185348,-7890.783629,-1258.350101
4070.286296,1184.329507,-8580.269578,-1332.370696
4070.286620,814.226536,-8580.269578,-1258.350101
4070.286944,296.082377,-8656.879127,-1258.350101
4070.287269,74.020594,-8886.707777,-1110.308913
4070.287593,74.020594,-9193.145976,-1184.329507
4070.287918,74.020594,-9039.926876,-1110.308913
4070.288242,666.185348,-8810.098227,-592.164754
4070.288566,1258.350101,-8810.098227,-740.205942
4070.288891,1184.329507,-8963.317327,-370.102971
4070.289215,1924.535449,-8580.269578,-666.185348
4070.289539,1702.473667,-8656.879127,-444.123565
4070.289864,888.247130,-8733.488677,-814.226536
4070.290188,666.185348,-8886.707777,0.000000
4070.290512,0.000000,-8733.488677,-370.102971
4070.290837,-814.226536,-8886.707777,0.000000
4070.291161,-814.226536,-8733.488677,-518.144159
4070.291485,-1110.308913,-9116.536426,0.000000
4070.291810,-1110.308913,-8503.660028,-296.082377
4070.292134,-518.144159,-8503.660028,0.000000
4070.292459,74.020594,-9039.926876,-888.247130
4070.292783,370.102971,-7890.783629,-666.185348
4070.293107,1110.308913,-8810.098227,-518.144159
4070.293432,1036.288319,-8427.050478,-444.123565
4070.293756,888.247130,-9116.536426,-370.102971
4070.294080,518.144159,-8963.317327,0.000000
4070.294405,148.041188,-9193.145976,148.041188
4070.294729,0.000000,-8733.488677,0.000000
4070.295053,296.082377,-8580.269578,222.061783
4070.295378,518.144159,-8656.879127,740.205942
4070.295702,518.144159,-7890.783629,0.000000
4070.296027,814.226536,-8503.660028,0.000000
4070.296351,1110.308913,-7660.954980,222.061783
4070.296675,1406.391290,-8886.707777,0.000000
4070.297000,740.205942,-8656.879127,222.061783
4070.297324,222.061783,-8656.879127,592.164754
4070.297648,-370.102971,-8656.879127,296.082377
4070.297973,-592.164754,-9039.926876,518.144159
4070.298297,-666.185348,-8963.317327,666.185348
4070.298621,0.000000,-8503.660028,518.144159
4070.298946,296.082377,-8350.440928,592.164754
4070.299270,888.247130,-8120.612279,74.020594
4070.299595,1184.329507,-8350.440928,370.102971
4070.299919,1036.288319,-7737.564530,-592.164754
4070.300243,1628.453072,-8197.221829,-592.164754
4070.300568,370.102971,-8120.612279,-518.144159
4070.300892,148.041188,-8580.269578,-296.082377
4070.301216,-296.082377,-8733.488677,0.000000
4070.301541,0.000000,-8503.660028,-518.144159
4070.301865,74.020594,-8810.098227,0.000000
4070.302189,1258.350101,-8350.440928,-444.123565
4070.302514,1702.473667,-8427.050478,-370.102971
4070.302838,2220.617826,-8733.488677,-296.082377
4070.303162,2516.700203,-8427.050478,-592.164754
4070.303487,2590.720797,-8580.269578,-666.185348
4070.303811,1258.350101,-8580.269578,-444.123565
4070.304136,888.247130,-8810.098227,0.000000
4070.304460,0.000000,-8963.317327,-296.082377
4070.304784,-814.226536,-9193.145976,-518.144159
4070.305109,-1258.350101,-9039.926876,-518.144159
4070.305433,-1258.350101,-9193.145976,-888.247130
4070.305757,-518.144159,-8810.098227,-666.185348
4070.306082,74.020594,-8427.050478,-962.267725
4070.306406,814.226536,-9193.145976,-740.205942
4070.306730,962.267725,-8656.879127,-666.185348
4070.307055,1406.391290,-9116.536426,-1110.308913
4070.307379,1554.432478,-8886.707777,-1628.453072
4070.307704,888.247130,-9193.145976,-1110.308913
4070.308028,0.000000,-9806.022374,-222.061783
4070.308352,-592.164754,-9346.365076,-814.226536
4070.308677,0.000000,-9193.145976,-518.144159
4070.309001,-1184.329507,-9193.145976,-888.247130
4070.309325,0.000000,-8656.879127,-592.164754
4070.309650,148.041188,-8503.660028,-592.164754
4070.309974,1110.308913,-8580.269578,-518.144159
4070.310298,1258.350101,-7737.564530,-740.205942
4070.310623,2220.617826,-8503.660028,-518.144159
4070.310947,1332.370696,-8503.660028,-222.061783
4070.311272,814.226536,-8810.098227,-296.082377
4070.311596,148.041188,-8886.707777,-148.041188
4070.311920,-148.041188,-9193.145976,74.020594
4070.312245,-1110.308913,-9116.536426,296.082377
4070.312569,-518.144159,-9039.926876,0.000000
4070.312893,-666.185348,-8733.488677,0.000000
4070.313218,-296.082377,-8427.050478,-296.082377
4070.313542,0.000000,-8044.002729,-518.144159
4070.313866,74.020594,-7967.393179,-222.061783
4070.314191,296.082377,-7890.783629,-518.144159
4070.314515,370.102971,-8273.831378,0.000000
4070.314839,370.102971,-8197.221829,-444.123565
4070.315164,222.061783,-8044.002729,-518.144159
4070.315488,148.041188,-8503.660028,-148.041188
4070.315813,370.102971,-8656.879127,74.020594
4070.316137,518.144159,-8273.831378,0.000000
4070.316461,1406.391290,-8580.269578,296.082377
4070.316786,1702.473667,-8427.050478,0.000000
4070.317110,1628.453072,-8044.002729,296.082377
4070.317434,2072.576638,-8044.002729,296.082377
4070.317759,962.267725,-8273.831378,222.061783
4070.318083,666.185348,-8580.269578,444.123565
4070.318407,0.000000,-8273.831378,222.061783
4070.318732,-1110.308913,-8733.488677,444.123565
4070.319056,-1924.535449,-8044.002729,-296.082377
4070.319381,-962.267725,-8427.050478,740.205942
4070.319705,-740.205942,-7890.783629,-444.123565
4070.320029,222.061783,-8580.269578,148.041188
4070.320354,518.144159,-7967.393179,-888.247130
4070.320678,1628.453072,-8733.488677,222.061783
4070.321002,1406.391290,-7890.783629,-888.247130
4070.321327,1702.473667,-8810.098227,-740.205942
4070.321651,1184.329507,-8580.269578,-666.185348
4070.321975,592.164754,-9193.145976,-222.061783
4070.322300,-296.082377,-8810.098227,-444.123565
4070.322624,-296.082377,-9422.974625,-370.102971
4070.322949,-740.205942,-8733.488677,-666.185348
4070.323273,-296.082377,-8503.660028,-296.082377
4070.323597,666.185348,-8197.221829,-370.102971
4070.323922,592.164754,-8273.831378,-814.226536
4070.324246,1332.370696,-8197.221829,-814.226536
4070.324570,1776.494261,-8810.098227,-370.102971
4070.324895,1406.391290,-9116.536426,-592.164754
4070.325219,1406.391290,-9039.926876,-370.102971
4070.325543,518.144159,-9269.755526,-370.102971
4070.325868,592.164754,-9269.755526,-222.061783
4070.326192,0.000000,-9193.145976,-666.185348
4070.326516,444.123565,-9269.755526,-518.144159
4070.326841,-592.164754,-8656.879127,-740.205942
4070.327165,-518.144159,-8963.317327,-518.144159
4070.327490,0.000000,-8273.831378,-1258.350101
4070.327814,518.144159,-8197.221829,-740.205942
4070.328138,444.123565,-8427.050478,-1184.329507
4070.328463,370.102971,-8580.269578,-962.267725
4070.328787,740.205942,-8656.879127,-1258.350101
4070.329111,222.061783,-8656.879127,-592.164754
4070.329436,444.123565,-8733.488677,-740.205942
4070.329760,888.247130,-9039.926876,-814.226536
4070.330084,1110.308913,-8810.098227,0.000000
4070.330409,1332.370696,-8427.050478,-666.185348
4070.330733,1406.391290,-8503.660028,-592.164754
4070.331058,1406.391290,-8273.831378,-592.164754
4070.331382,1184.329507,-8733.488677,-370.102971
4070.331706,370.102971,-8427.050478,-592.164754
4070.332031,0.000000,-8886.707777,-222.061783
4070.332355,-666.185348,-8656.879127,222.061783
4070.332679,-1480.411884,-8197.221829,0.000000
4070.333004,-1184.329507,-8810.098227,0.000000
4070.333328,-1036.288319,-8197.221829,222.061783
4070.333652,-296.082377,-8273.831378,0.000000
4070.333977,0.000000,-8273.831378,-370.102971
4070.334301,1184.329507,-7814.174080,-148.041188
4070.334626,1184.329507,-8044.002729,-370.102971
4070.334950,1850.514855,-8733.488677,-444.123565
4070.335274,1332.370696,-8810.098227,-222.061783
4070.335599,222.061783,-8427.050478,0.000000
4070.335923,148.041188,-8733.488677,0.000000
4070.336247,-666.185348,-7967.393179,0.000000
4070.336572,-222.061783,-8810.098227,-370.102971
4070.336896,-296.082377,-8273.831378,148.041188
4070.337220,-296.082377,-8120.612279,0.000000
4070.337545,0.000000,-8120.612279,-296.082377
4070.337869,1036.288319,-8120.612279,148.041188
4070.338193,740.205942,-8197.221829,-148.041188
4070.338518,1110.308913,-8810.098227,-148.041188
4070.338842,74.020594,-8503.660028,0.000000
4070.339167,74.020594,-8503.660028,0.000000
4070.339491,-518.144159,-8580.269578,74.020594
4070.339815,-296.082377,-9193.145976,370.102971
4070.340140,-370.102971,-8656.879127,0.000000
4070.340464,592.164754,-8427.050478,370.102971
4070.340788,444.123565,-8427.050478,-222.061783
4070.341113,1110.308913,-8427.050478,-296.082377
4070.341437,1406.391290,-7737.564530,-592.164754
4070.341761,1776.494261,-8350.440928,-740.205942
4070.342086,1480.411884,-7890.783629,-1554.432478
4070.342410,1110.308913,-9039.926876,-1332.370696
4070.342735,0.000000,-8503.660028,-888.247130
4070.343059,-222.061783,-9116.536426,-740.205942
4070.343383,-148.041188,-9269.755526,-888.247130
4070.343708,370.102971,-9116.536426,-666.185348
4070.344032,888.247130,-8580.269578,-740.205942
4070.344356,1110.308913,-8503.660028,-888.247130
4070.344681,1776.494261,-8273.831378,-592.164754
4070.345005,2294.638420,-8427.050478,-814.226536
4070.345329,2294.638420,-8810.098227,-740.205942
4070.345654,1332.370696,-8656.879127,-592.164754
4070.345978,1036.288319,-9039.926876,-370.102971
4070.346303,-444.123565,-9193.145976,-666.185348
4070.346627,-962.267725,-9039.926876,0.000000
4070.346951,-1110.308913,-8580.269578,-814.226536
4070.347276,-666.185348,-9499.584175,0.000000
4070.347600,-740.205942,-9039.926876,-888.247130
4070.347924,370.102971,-9039.926876,-296.082377
4070.348249,148.041188,-7814.174080,-1184.329507
4070.348573,1776.494261,-8886.707777,-518.144159
4070.348897,1406.391290,-7967.393179,-1110.308913
4070.349222,1850.514855,-9652.803275,-518.144159
4070.349546,888.247130,-8503.660028,-1110.308913
4070.349870,518.144159,-9806.022374,0.000000
4070.350195,0.000000,-8886.707777,-1036.288319
4070.350519,-592.164754,-9116.536426,-296.082377
4070.350844,-74.020594,-8273.831378,-370.102971
4070.351168,148.041188,-8580.269578,0.000000
4070.351492,444.123565,-8350.440928,-370.102971
4070.351817,1332.370696,-8886.707777,-592.164754
4070.352141,1258.350101,-7890.783629,-592.164754
4070.352465,1406.391290,-8886.707777,0.000000
4070.352790,962.267725,-8427.050478,-370.102971
4070.353114,444.123565,-9116.536426,148.041188
4070.353438,0.000000,-8810.098227,0.000000
4070.353763,-518.144159,-9269.755526,370.102971
4070.354087,-1036.288319,-9116.536426,222.061783
4070.354412,-592.164754,-8810.098227,370.102971
4070.354736,-444.123565,-8120.612279,-222.061783
4070.355060,-296.082377,-8427.050478,0.000000
4070.355385,74.020594,-7584.345430,0.000000
4070.355709,592.164754,-8197.221829,-444.123565
4070.356033,148.041188,-7584.345430,-888.247130
4070.356358,592.164754,-8273.831378,-222.061783
4070.356682,0.000000,-8427.050478,0.000000
4070.357006,-74.020594,-8350.440928,-592.164754
4070.357331,0.000000,-8810.098227,74.020594
4070.357655,148.041188,-8503.660028,-518.144159
4070.357980,518.144159,-8733.488677,148.041188
4070.358304,740.205942,-8350.440928,0.000000
4070.358628,814.226536,-8350.440928,0.000000
4070.358953,1332.370696,-8197.221829,-222.061783
4070.359277,1036.288319,-8273.831378,444.123565
4070.359601,518.144159,-8350.440928,0.000000
4070.359926,74.020594,-8427.050478,296.082377
4070.360250,222.061783,-8503.660028,74.020594
4070.360574,-666.185348,-8733.488677,0.000000
4070.360899,-296.082377,-8580.269578,0.000000
4070.361223,148.041188,-8427.050478,148.041188
4070.361548,518.144159,-8580.269578,0.000000
4070.361872,370.102971,-8427.050478,-148.041188
4070.362196,1332.370696,-8427.050478,-222.061783
4070.362521,962.267725,-8350.440928,-888.247130
4070.362845,518.144159,-8733.488677,-888.247130
4070.363169,518.144159,-8886.707777,-444.123565
4070.363494,370.102971,-8963.317327,-592.164754
4070.363818,-148.041188,-9346.365076,-444.123565
4070.364142,-148.041188,-8886.707777,-814.226536
4070.364467,296.082377,-9346.365076,-148.041188
4070.364791,444.123565,-8273.831378,-962.267725
4070.365115,1184.329507,-8580.269578,-444.123565
4070.365440,1036.288319,-8427.050478,-518.144159
4070.365764,1406.391290,-8656.879127,-740.205942
4070.366089,1554.432478,-8350.440928,-888.247130
4070.366413,888.247130,-8886.707777,-370.102971
4070.366737,296.082377,-8656.879127,-740.205942
4070.367062,0.000000,-8810.098227,-518.144159
4070.367386,-222.061783,-9346.365076,-296.082377
4070.367710,222.061783,-9269.755526,-296.082377
4070.368035,0.000000,-8810.098227,0.000000
4070.368359,1110.308913,-8656.879127,-370.102971
4070.368683,1480.411884,-8273.831378,-666.185348
4070.369008,1406.391290,-9039.926876,-962.267725
4070.369332,1480.411884,-8197.221829,-962.267725
4070.369657,1332.370696,-8656.879127,-740.205942
4070.369981,296.082377,-8197.221829,-1110.308913
4070.370305,222.061783,-9346.365076,-962.267725
4070.370630,-444.123565,-8886.707777,-518.144159
4070.370954,-444.123565,-9039.926876,-444.123565
4070.371279,74.020594,-8886.707777,-666.185348
4070.371603,666.185348,-8810.098227,296.082377
4070.371927,1184.329507,-8350.440928,-444.123565
4070.372252,1850.514855,-8273.831378,-370.102971
4070.372576,2664.741391,-8273.831378,-148.041188
4070.372901,2442.679609,-8350.440928,0.000000
4070.373225,2072.576638,-8733.488677,0.000000
4070.373550,666.185348,-8580.269578,0.000000
4070.373874,0.000000,-8886.707777,296.082377
4070.374198,-1332.370696,-9039.926876,148.041188
4070.374523,-2220.617826,-8273.831378,518.144159
4070.374847,-1924.535449,-8733.488677,222.061783
4070.375172,-1850.514855,-8350.440928,148.041188
4070.375496,-1258.350101,-8120.612279,0.000000
4070.375820,-370.102971,-8120.612279,-222.061783
4070.376145,888.247130,-7814.174080,-148.041188
4070.376469,1258.350101,-8044.002729,-740.205942
4070.376794,1332.370696,-8656.879127,-444.123565
4070.377118,2220.617826,-8656.879127,-444.123565
4070.377443,222.061783,-8503.660028,74.020594
4070.377767,0.000000,-9039.926876,-592.164754
4070.378091,0.000000,-9193.145976,0.000000
4070.378416,-888.247130,-8963.317327,74.020594
4070.378740,-370.102971,-8886.707777,518.144159
4070.379065,74.020594,-8273.831378,0.000000
4070.379389,666.185348,-8273.831378,-222.061783
4070.379713,1332.370696,-7967.393179,0.000000
4070.380038,962.267725,-7737.564530,-74.020594
4070.380362,1850.514855,-8886.707777,148.041188
4070.380687,962.267725,-8197.221829,0.000000
4070.381011,1036.288319,-9422.974625,222.061783
4070.381336,-148.041188,-8733.488677,0.000000
4070.381660,222.061783,-9806.022374,148.041188
4070.381984,-592.164754,-8503.660028,0.000000
4070.382309,-370.102971,-9269.755526,74.020594
4070.382633,-296.082377,-8120.612279,-666.185348
4070.382958,592.164754,-8733.488677,-148.041188
4070.383282,740.205942,-7737.564530,-888.247130
4070.383606,1110.308913,-8427.050478,-296.082377
4070.383931,296.082377,-7737.564530,-814.226536
4070.384255,148.041188,-8656.879127,-370.102971
4070.384580,-222.061783,-8197.221829,-814.226536
4070.384904,0.000000,-8656.879127,-296.082377
4070.385229,444.123565,-8580.269578,-666.185348
4070.385553,-666.185348,-8656.879127,-518.144159
4070.385877,1406.391290,-8580.269578,0.000000
4070.386202,740.205942,-7660.954980,-888.247130
4070.386526,2590.720797,-9422.974625,0.000000
4070.386851,2516.700203,-7890.783629,-962.267725
4070.387175,1628.453072,-9346.365076,222.061783
4070.387499,1036.288319,-8273.831378,-666.185348
4070.387824,148.041188,-8733.488677,-148.041188
4070.388148,0.000000,-8733.488677,0.000000
4070.388473,-740.205942,-8733.488677,-444.123565
4070.388797,-296.082377,-8580.269578,0.000000
4070.389122,-666.185348,-7967.393179,-666.185348
4070.389446,296.082377,-8197.221829,-740.205942
4070.389770,-888.247130,-7967.393179,-740.205942
4070.390095,1332.370696,-8580.269578,-1036.288319
4070.390419,1702.473667,-8580.269578,-592.164754
4070.390744,1332.370696,-8580.269578,-1036.288319
4070.391068,1258.350101,-9193.145976,-444.123565
4070.391392,592.164754,-9422.974625,-592.164754
4070.391717,740.205942,-9422.974625,-592.164754
4070.392041,0.000000,-8963.317327,-444.123565
4070.392366,0.000000,-8963.317327,-518.144159
4070.392690,74.020594,-8656.879127,-518.144159
4070.393014,1036.288319,-8580.269578,-444.123565
4070.393339,888.247130,-8273.831378,-518.144159
4070.393663,962.267725,-8503.660028,-592.164754
4070.393988,1332.370696,-8273.831378,-444.123565
4070.394312,1480.411884,-8963.317327,0.000000
4070.394637,444.123565,-8886.707777,-222.061783
4070.394961,-296.082377,-8810.098227,222.061783
4070.395285,-1110.308913,-8810.098227,222.061783
4070.395610,-518.144159,-9346.365076,148.041188
4070.395934,-518.144159,-8350.440928,74.020594
4070.396259,0.000000,-8503.660028,0.000000
4070.396583,148.041188,-8120.612279,-222.061783
4070.396907,814.226536,-8197.221829,0.000000
4070.397232,888.247130,-7507.735880,-592.164754
4070.397556,1480.411884,-8350.440928,-592.164754
4070.397881,222.061783,-8044.002729,-740.205942
4070.398205,666.185348,-8427.050478,-222.061783
4070.398530,-370.102971,-8044.002729,0.000000
4070.398854,-592.164754,-8886.707777,-592.164754
4070.399178,222.061783,-8656.879127,0.000000
4070.399503,0.000000,-8120.612279,0.000000
4070.399827,1406.391290,-8886.707777,-222.061783
4070.400152,1480.411884,-8120.612279,0.000000
4070.400476,2516.700203,-8427.050478,148.041188
4070.400800,2738.761985,-8044.002729,-370.102971
4070.401125,2072.576638,-8886.707777,0.000000
4070.401449,814.226536,-7967.393179,296.082377
4070.401774,74.020594,-9116.536426,148.041188
4070.402098,-1036.288319,-9116.536426,0.000000
4070.402423,-1998.556043,-8733.488677,148.041188
4070.402747,-1850.514855,-8580.269578,444.123565
4070.403071,-1924.535449,-7967.393179,-222.061783
4070.403396,-740.205942,-8580.269578,0.000000
4070.403720,222.061783,-7967.393179,-296.082377
4070.404045,1184.329507,-8273.831378,-296.082377
4070.404369,1332.370696,-8273.831378,-740.205942
4070.404693,1332.370696,-8580.269578,-962.267725
4070.405018,1258.350101,-8656.879127,-444.123565
4070.405342,148.041188,-9116.536426,-518.144159
4070.405667,-666.185348,-9116.536426,-740.205942
4070.405991,-666.185348,-9269.755526,-296.082377
4070.406316,-666.185348,-8963.317327,-518.144159
4070.406640,-370.102971,-8656.879127,-148.041188
4070.406964,444.123565,-7814.174080,-518.144159
4070.407289,666.185348,-8044.002729,-296.082377
4070.407613,1406.391290,-8044.002729,-518.144159
4070.407938,2294.638420,-8120.612279,-296.082377
4070.408262,1554.432478,-8197.221829,-518.144159
4070.408586,1702.473667,-8273.831378,-592.164754
4070.408911,592.164754,-9269.755526,-740.205942
4070.409235,148.041188,-9116.536426,0.000000
4070.409560,-296.082377,-9039.926876,-148.041188
4070.409884,0.000000,-9193.145976,-148.041188
4070.410209,-222.061783,-8656.879127,-444.123565
4070.410533,0.000000,-8810.098227,-518.144159
4070.410857,518.144159,-8273.831378,-1110.308913
4070.411182,592.164754,-8427.050478,-666.185348
4070.411506,1184.329507,-7967.393179,-1036.288319
4070.411831,592.164754,-8120.612279,-1036.288319
4070.412155,444.123565,-8350.440928,-1184.329507
4070.412479,0.000000,-8503.660028,-370.102971
4070.412804,296.082377,-8810.098227,-1184.329507
4070.413128,0.000000,-9422.974625,-148.041188
4070.413453,222.061783,-8350.440928,-444.123565
4070.413777,592.164754,-8733.488677,-444.123565
4070.414101,1554.432478,-8656.879127,-592.164754
4070.414426,1702.473667,-8350.440928,-444.123565
4070.414750,1998.556043,-8427.050478,-296.082377
4070.415075,1406.391290,-8503.660028,-296.082377
4070.415399,1406.391290,-8810.098227,0.000000
4070.415724,814.226536,-8197.221829,-222.061783
4070.416048,74.020594,-8656.879127,148.041188
4070.416372,-370.102971,-8810.098227,-370.102971
4070.416697,-592.164754,-8503.660028,296.082377
4070.417021,-888.247130,-7967.393179,0.000000
4070.417346,-592.164754,-8733.488677,0.000000
4070.417670,0.000000,-8273.831378,-222.061783
4070.417994,370.102971,-8273.831378,-740.205942
4070.418319,444.123565,-8886.707777,-1110.308913
4070.418643,592.164754,-8886.707777,-518.144159
4070.418968,666.185348,-8656.879127,-666.185348
4070.419292,222.061783,-8503.660028,-296.082377
4070.419617,222.061783,-8656.879127,-148.041188
4070.419941,-296.082377,-8810.098227,-148.041188
4070.420265,444.123565,-8503.660028,-148.041188
4070.420590,814.226536,-8733.488677,-148.041188
4070.420914,888.247130,-8273.831378,-666.185348
4070.421239,296.082377,-7890.783629,-444.123565
4070.421563,888.247130,-8273.831378,-222.061783
4070.421887,222.061783,-8273.831378,0.000000
4070.422212,666.185348,-8886.707777,-370.102971
4070.422536,222.061783,-8886.707777,0.000000
4070.422861,-518.144159,-8350.440928,-296.082377
4070.423185,-518.144159,-8810.098227,222.061783
4070.423510,-296.082377,-8886.707777,74.020594
4070.423834,74.020594,-8886.707777,222.061783
4070.424158,444.123565,-8427.050478,-444.123565
4070.424483,666.185348,-8427.050478,-370.102971
4070.424807,592.164754,-8427.050478,-444.123565
4070.425132,592.164754,-8120.612279,-592.164754
4070.425456,592.164754,-8273.831378,-888.247130
4070.425780,0.000000,-8197.221829,-518.144159
4070.426105,-1036.288319,-8427.050478,-74.020594
4070.426429,-962.267725,-7967.393179,-740.205942
4070.426754,-296.082377,-9882.631924,-296.082377
4070.427078,-148.041188,-8656.879127,-518.144159
4070.427403,1110.308913,-8350.440928,-296.082377
4070.427727,1998.556043,-7967.393179,-518.144159
4070.428051,2516.700203,-8350.440928,-296.082377
4070.428376,3330.926739,-9039.926876,-296.082377
4070.428700,2590.720797,-8580.269578,-592.164754
4070.429025,1850.514855,-8733.488677,148.041188
4070.429349,740.205942,-8886.707777,-148.041188
4070.429673,-370.102971,-9346.365076,0.000000
4070.429998,-1036.288319,-9193.145976,0.000000
4070.430322,-2146.597232,-8886.707777,0.000000
4070.430647,-1850.514855,-8733.488677,0.000000
4070.430971,-1554.432478,-8503.660028,-518.144159
4070.431296,-148.041188,-8273.831378,-370.102971
4070.431620,666.185348,-8120.612279,-888.247130
4070.431944,1406.391290,-8427.050478,-888.247130
4070.432269,1776.494261,-8580.269578,-888.247130
4070.432593,1998.556043,-8963.317327,-444.123565
4070.432918,1258.350101,-8810.098227,-814.226536
4070.433242,370.102971,-8963.317327,-370.102971
4070.433566,-444.123565,-9576.193725,-370.102971
4070.433891,-370.102971,-9806.022374,-740.205942
4070.434215,-296.082377,-8580.269578,-370.102971
4070.434540,-148.041188,-8580.269578,-444.123565
4070.434864,370.102971,-8350.440928,-740.205942
4070.435188,1110.308913,-8044.002729,-592.164754
4070.435513,2072.576638,-8273.831378,-370.102971
4070.435837,2146.597232,-7967.393179,-296.082377
4070.436162,1776.494261,-8273.831378,-370.102971
4070.436486,1406.391290,-8656.879127,0.000000
4070.436811,518.144159,-8963.317327,370.102971
4070.437135,0.000000,-9652.803275,74.020594
4070.437459,-444.123565,-9116.536426,0.000000
4070.437784,-444.123565,-8810.098227,148.041188
4070.438108,-296.082377,-9576.193725,-296.082377
4070.438433,0.000000,-8350.440928,-148.041188
4070.438757,296.082377,-7814.174080,-592.164754
4070.439081,370.102971,-8273.831378,-518.144159
4070.439406,666.185348,-8044.002729,-592.164754
4070.439730,370.102971,-8733.488677,-592.164754
4070.440055,-370.102971,-8503.660028,-592.164754
4070.440379,-370.102971,-8810.098227,-148.041188
4070.440704,-592.164754,-8427.050478,-444.123565
4070.441028,444.123565,-9346.365076,444.123565
4070.441352,444.123565,-8197.221829,-296.082377
4070.441677,1184.329507,-9039.926876,222.061783
4070.442001,1924.535449,-8273.831378,-296.082377
4070.442326,2294.638420,-9422.974625,74.020594
4070.442650,1998.556043,-8273.831378,0.000000
4070.442974,1480.411884,-8580.269578,518.144159
4070.443299,666.185348,-8733.488677,0.000000
4070.443623,0.000000,-8810.098227,0.000000
4070.443948,-666.185348,-9039.926876,0.000000
4070.444272,-1406.391290,-8656.879127,-222.061783
4070.444597,-1406.391290,-8580.269578,0.000000
4070.444921,-1184.329507,-8503.660028,-222.061783
4070.445245,-444.123565,-8886.707777,370.102971
4070.445570,148.041188,-7967.393179,-518.144159
4070.445894,1480.411884,-8580.269578,-666.185348
4070.446219,1776.494261,-8273.831378,-962.267725
4070.446543,1776.494261,-8963.317327,-962.267725
4070.446867,1036.288319,-8886.707777,-518.144159
4070.447192,518.144159,-8963.317327,-370.102971
4070.447516,-296.082377,-8963.317327,-518.144159
4070.447841,-814.226536,-9269.755526,-148.041188
4070.448165,-888.247130,-8580.269578,0.000000
4070.448490,-296.082377,-8427.050478,-444.123565
4070.448814,222.061783,-8427.050478,-666.185348
4070.449138,962.267725,-8503.660028,-370.102971
4070.449463,1258.350101,-7660.954980,-444.123565
4070.449787,2220.617826,-9039.926876,-222.061783
4070.450112,1332.370696,-8273.831378,-296.082377
4070.450436,1628.453072,-9116.536426,0.000000
4070.450760,740.205942,-8963.317327,-518.144159
4070.451085,-148.041188,-9576.193725,0.000000
4070.451409,-148.041188,-8810.098227,-296.082377
4070.451734,0.000000,-9116.536426,592.164754
4070.452058,-296.082377,-8656.879127,-518.144159
4070.452383,370.102971,-8886.707777,0.000000
4070.452707,888.247130,-8044.002729,-962.267725
4070.453031,814.226536,-8197.221829,-740.205942
4070.453356,592.164754,-7967.393179,-962.267725
4070.453680,370.102971,-8427.050478,-296.082377
4070.454005,222.061783,-8427.050478,-962.267725
4070.454329,148.041188,-8733.488677,-370.102971
4070.454653,222.061783,-8503.660028,-962.267725
4070.454978,592.164754,-8733.488677,-444.123565
4070.455302,1554.432478,-8580.269578,-222.061783
4070.455627,1924.535449,-8656.879127,-222.061783
4070.455951,2738.761985,-8503.660028,-296.082377
4070.456275,2442.679609,-8580.269578,-370.102971
4070.456600,2812.782580,-8656.879127,0.000000
4070.456924,1036.288319,-8427.050478,0.000000
4070.457249,296.082377,-8580.269578,148.041188
4070.457573,-444.123565,-8580.269578,-296.082377
4070.457898,-962.267725,-8733.488677,0.000000
4070.458222,-1628.453072,-8810.098227,0.000000
4070.458546,-1184.329507,-8350.440928,-370.102971
4070.458871,-592.164754,-8427.050478,-222.061783
4070.459195,-222.061783,-8656.879127,-814.226536
4070.459520,592.164754,-7967.393179,-592.164754
4070.459844,888.247130,-8273.831378,-740.205942
4070.460168,1110.308913,-8656.879127,-518.144159
4070.460493,740.205942,-8656.879127,-666.185348
4070.460817,222.061783,-8503.660028,0.000000
4070.461142,0.000000,-9193.145976,-296.082377
4070.461466,-518.144159,-8886.707777,-814.226536
4070.461791,-296.082377,-9576.193725,74.020594
4070.462115,-740.205942,-8656.879127,0.000000
4070.462439,370.102971,-8810.098227,0.000000
4070.462764,296.082377,-7890.783629,-740.205942
4070.463088,1776.494261,-8197.221829,0.000000
4070.463413,1628.453072,-8044.002729,-444.123565
4070.463737,2220.617826,-8427.050478,444.123565
4070.464061,888.247130,-8273.831378,-296.082377
4070.464386,518.144159,-9116.536426,296.082377
4070.464710,-518.144159,-8350.440928,-370.102971
4070.465035,-740.205942,-9652.803275,1036.288319
4070.465359,-962.267725,-8733.488677,0.000000
4070.465684,-222.061783,-9193.145976,222.061783
4070.466008,-296.082377,-8350.440928,-666.185348
4070.466332,148.041188,-8810.098227,-222.061783
4070.466657,740.205942,-8044.002729,-444.123565
4070.466981,666.185348,-8273.831378,-518.144159
4070.467306,740.205942,-7890.783629,-888.247130
4070.467630,148.041188,-8503.660028,-370.102971
4070.467954,-296.082377,-8427.050478,-296.082377
4070.468279,-444.123565,-8733.488677,-370.102971
4070.468603,-296.082377,-8886.707777,-518.144159
4070.468928,222.061783,-8656.879127,0.000000
4070.469252,592.164754,-8656.879127,0.000000
4070.469577,962.267725,-8503.660028,0.000000
4070.469901,2072.576638,-8273.831378,-296.082377
4070.470225,2368.659014,-8273.831378,-518.144159
4070.470550,2368.659014,-8656.879127,0.000000
4070.470874,1850.514855,-8350.440928,0.000000
4070.471199,962.267725,-8963.317327,370.102971
4070.471523,-222.061783,-8503.660028,-148.041188
4070.471847,-962.267725,-9116.536426,74.020594
4070.472172,-1702.473667,-7890.783629,-370.102971
4070.472496,-1036.288319,-8580.269578,148.041188
4070.472821,-740.205942,-8503.660028,-888.247130
4070.473145,0.000000,-8580.269578,-370.102971
4070.473469,740.205942,-7584.345430,-1332.370696
4070.473794,1480.411884,-8886.707777,-592.164754
4070.474118,1702.473667,-8197.221829,-814.226536
4070.474442,1776.494261,-8963.317327,-444.123565
4070.474767,1406.391290,-8656.879127,-1184.329507
4070.475091,1258.350101,-9499.584175,-370.102971
4070.475415,0.000000,-9039.926876,-740.205942
4070.475740,0.000000,-9346.365076,0.000000
4070.476064,-296.082377,-8580.269578,-740.205942
4070.476388,296.082377,-9346.365076,-370.102971
4070.476713,444.123565,-8120.612279,-740.205942
4070.477037,962.267725,-8427.050478,-370.102971
4070.477361,1036.288319,-7890.783629,-666.185348
4070.477686,1628.453072,-9116.536426,0.000000
4070.478010,1184.329507,-8656.879127,-444.123565
4070.478334,1036.288319,-9116.536426,0.000000
4070.478659,222.061783,-8656.879127,-148.041188
4070.478983,222.061783,-9269.755526,74.020594
4070.479308,222.061783,-8810.098227,0.000000
4070.479632,-518.144159,-9193.145976,0.000000
4070.479956,-666.185348,-8427.050478,-296.082377
4070.480281,74.020594,-8810.098227,0.000000
4070.480605,444.123565,-7814.174080,-962.267725
4070.480929,592.164754,-8427.050478,-518.144159
4070.481254,148.041188,-7737.564530,-962.267725
4070.481578,222.061783,-8733.488677,-740.205942
4070.481902,0.000000,-7660.954980,-814.226536
4070.482227,370.102971,-8886.707777,-370.102971
4070.482551,0.000000,-8733.488677,-592.164754
4070.482875,814.226536,-8503.660028,-222.061783
4070.483200,962.267725,-8580.269578,-148.041188
4070.483524,1850.514855,-8350.440928,0.000000
4070.483848,1998.556043,-8350.440928,0.000000
4070.484173,2072.576638,-8580.269578,0.000000
4070.484497,2442.679609,-8350.440928,370.102971
4070.484821,296.082377,-8427.050478,-148.041188
4070.485146,1406.391290,-9116.536426,666.185348
4070.485470,-1110.308913,-8044.002729,0.000000
4070.485794,-1110.308913,-8963.317327,222.061783
4070.486119,-888.247130,-8197.221829,222.061783
4070.486443,-888.247130,-8350.440928,74.020594
4070.486767,-518.144159,-8273.831378,0.000000
4070.487092,74.020594,-7967.393179,-592.164754
4070.487416,740.205942,-8733.488677,0.000000
4070.487740,592.164754,-8197.221829,-444.123565
4070.488065,1184.329507,-8810.098227,-444.123565
4070.488389,0.000000,-8580.269578,-666.185348
4070.488713,-370.102971,-8886.707777,74.020594
4070.489038,-814.226536,-8886.707777,0.000000
4070.489362,0.000000,-9116.536426,-222.061783
4070.489686,-370.102971,-8886.707777,0.000000
4070.490011,-296.082377,-8886.707777,-592.164754
4070.490335,148.041188,-8656.879127,-444.123565
4070.490659,1258.350101,-8427.050478,-148.041188
4070.490984,1776.494261,-8120.612279,-592.164754
4070.491308,1554.432478,-8503.660028,0.000000
4070.491632,1850.514855,-8120.612279,-444.123565
4070.491957,1406.391290,-8733.488677,74.020594
4070.492281,592.164754,-8733.488677,-666.185348
4070.492605,0.000000,-8886.707777,0.000000
4070.492930,-148.041188,-9039.926876,-222.061783
4070.493254,-444.123565,-8963.317327,0.000000
4070.493578,-148.041188,-8273.831378,-740.205942
4070.493903,0.000000,-8580.269578,-148.041188
4070.494227,592.164754,-8197.221829,-814.226536
4070.494551,1036.288319,-8810.098227,-1110.308913
4070.494876,1406.391290,-8580.269578,-740.205942
4070.495200,1110.308913,-8350.440928,-1110.308913
4070.495524,518.144159,-8733.488677,-888.247130
4070.495849,592.164754,-8580.269578,-888.247130
4070.496173,74.020594,-9499.584175,-888.247130
4070.496497,0.000000,-8963.317327,-740.205942
4070.496822,592.164754,-8350.440928,-740.205942
4070.497146,1036.288319,-9193.145976,-518.144159
4070.497470,1628.453072,-8503.660028,-740.205942
4070.497795,1924.535449,-8427.050478,0.000000
4070.498119,3034.844362,-8733.488677,-296.082377
4070.498443,2516.700203,-8656.879127,-74.020594
4070.498768,1924.535449,-8963.317327,-444.123565
4070.499092,1406.391290,-9116.536426,74.020594
4070.499416,-592.164754,-8963.317327,-444.123565
4070.499741,-1036.288319,-8810.098227,-296.082377
4070.500065,-1184.329507,-8656.879127,222.061783
4070.500389,-1480.411884,-8810.098227,-444.123565
4070.500714,-962.267725,-8427.050478,-666.185348
4070.501038,-222.061783,-8427.050478,-296.082377
4070.501362,296.082377,-7584.345430,-1110.308913
4070.501687,296.082377,-8503.660028,-370.102971
4070.502011,1332.370696,-8197.221829,-740.205942
4070.502335,1258.350101,-8963.317327,-518.144159
4070.502660,370.102971,-8580.269578,-666.185348
4070.502984,370.102971,-8886.707777,-518.144159
4070.503308,444.123565,-9116.536426,0.000000
4070.503633,-518.144159,-9039.926876,0.000000
4070.503957,148.041188,-8886.707777,444.123565
4070.504281,-222.061783,-8733.488677,-518.144159
4070.504606,888.247130,-8656.879127,148.041188
4070.504930,1110.308913,-7967.393179,-148.041188
4070.505254,1332.370696,-8503.660028,0.000000
4070.505579,1110.308913,-8197.221829,0.000000
4070.505903,592.164754,-8503.660028,0.000000
4070.506228,518.144159,-8963.317327,0.000000
4070.506552,-370.102971,-8580.269578,0.000000
4070.506876,0.000000,-9116.536426,0.000000
4070.507201,-296.082377,-8656.879127,444.123565
4070.507525,0.000000,-8963.317327,-296.082377
4070.507849,0.000000,-8350.440928,0.000000
4070.508174,444.123565,-8427.050478,0.000000
4070.508498,296.082377,-7890.783629,-666.185348
4070.508822,666.185348,-8503.660028,-370.102971
4070.509147,74.020594,-8044.002729,-740.205942
4070.509471,-148.041188,-9116.536426,0.000000
4070.509795,-814.226536,-8044.002729,-888.247130
4070.510120,-296.082377,-9269.755526,-444.123565
4070.510444,0.000000,-8350.440928,-518.144159
4070.510768,-518.144159,-8427.050478,0.000000
4070.511093,666.185348,-8886.707777,-296.082377
4070.511417,2368.659014,-8580.269578,-222.061783
4070.511741,2072.576638,-8197.221829,-962.267725
4070.512066,3182.885551,-8733.488677,-296.082377
4070.512390,2072.576638,-8733.488677,0.000000
4070.512714,1184.329507,-9039.926876,0.000000
4070.513039,592.164754,-8580.269578,-370.102971
4070.513363,-666.185348,-8886.707777,296.082377
4070.513687,-814.226536,-8656.879127,-814.226536
4070.514012,-1110.308913,-8427.050478,-74.020594
4070.514336,-1184.329507,-8503.660028,-518.144159
4070.514660,-444.123565,-9039.926876,-222.061783
4070.514985,0.000000,-7967.393179,-888.247130
4070.515309,962.267725,-8810.098227,-518.144159
4070.515633,1258.350101,-8273.831378,-1332.370696
4070.515958,1184.329507,-9729.412825,-1184.329507
4070.516282,1184.329507,-9039.926876,-1110.308913
4070.516606,370.102971,-9193.145976,-740.205942
4070.516931,74.020594,-9422.974625,-1110.308913
4070.517255,-518.144159,-9346.365076,-666.185348
4070.517579,-222.061783,-8886.707777,-296.082377
4070.517904,74.020594,-8810.098227,-814.226536
4070.518228,740.205942,-8580.269578,-666.185348
4070.518552,1258.350101,-8044.002729,-518.144159
4070.518877,2294.638420,-8120.612279,-740.205942
4070.519201,1998.556043,-8273.831378,-444.123565
4070.519525,1850.514855,-8886.707777,-148.041188
4070.519850,1406.391290,-8810.098227,-148.041188
4070.520174,666.185348,-9193.145976,-740.205942
4070.520498,74.020594,-9116.536426,-148.041188
4070.520823,-222.061783,-9422.974625,0.000000
4070.521147,-592.164754,-8886.707777,0.000000
4070.521471,-740.205942,-8733.488677,-370.102971
4070.521796,-296.082377,-8273.831378,-148.041188
4070.522120,592.164754,-8197.221829,-444.123565
4070.522444,444.123565,-8273.831378,-814.226536
4070.522769,666.185348,-7967.393179,-518.144159
4070.523093,370.102971,-8427.050478,-962.267725
4070.523417,444.123565,-8580.269578,-518.144159
4070.523742,0.000000,-8273.831378,-740.205942
4070.524066,-222.061783,-8656.879127,-222.061783
4070.524390,148.041188,-8580.269578,-296.082377
4070.524715,592.164754,-8656.879127,0.000000
4070.525039,814.226536,-8656.879127,74.020594
4070.525363,1924.535449,-8350.440928,0.000000
4070.525688,2220.617826,-8273.831378,0.000000
4070.526012,2368.659014,-8810.098227,222.061783
4070.526336,1776.494261,-8197.221829,74.020594
4070.526661,888.247130,-8580.269578,222.061783
4070.526985,148.041188,-8580.269578,222.061783
4070.527309,-1184.329507,-8656.879127,518.144159
4070.527634,-1480.411884,-8963.317327,74.020594
4070.527958,-1628.453072,-8197.221829,296.082377
4070.528282,-1776.494261,-8503.660028,74.020594
4070.528607,-1184.329507,-8350.440928,-222.061783
4070.528931,74.020594,-8427.050478,-296.082377
4070.529255,666.185348,-8350.440928,-592.164754
4070.529580,1554.432478,-8503.660028,-814.226536
4070.529904,1332.370696,-8273.831378,-666.185348
4070.530228,1628.453072,-9039.926876,0.000000
4070.530553,296.082377,-8733.488677,-370.102971
4070.530877,296.082377,-9193.145976,0.000000
4070.531201,-296.082377,-8963.317327,74.020594
4070.531526,-444.123565,-8733.488677,-296.082377
4070.531850,0.000000,-8656.879127,-74.020594
4070.532175,444.123565,-8273.831378,-370.102971
4070.532499,962.267725,-8580.269578,-296.082377
4070.532823,1480.411884,-8197.221829,-222.061783
4070.533148,1480.411884,-8044.002729,-222.061783
4070.533472,1332.370696,-8350.440928,-444.123565
4070.533796,740.205942,-8580.269578,-518.144159
4070.534121,592.164754,-9269.755526,0.000000
4070.534445,518.144159,-8580.269578,-518.144159
4070.534769,-518.144159,-8886.707777,0.000000
4070.535094,-148.041188,-8733.488677,-222.061783
4070.535418,-592.164754,-9116.536426,-592.164754
4070.535742,0.000000,-8350.440928,-444.123565
4070.536067,518.144159,-8273.831378,-666.185348
4070.536391,296.082377,-8120.612279,-962.267725
4070.536715,962.267725,-8886.707777,-1036.288319
4070.537040,518.144159,-7660.954980,-1184.329507
4070.537364,444.123565,-9039.926876,-592.164754
4070.537688,0.000000,-8273.831378,-962.267725
4070.538013,444.123565,-8963.317327,-666.185348
4070.538337,518.144159,-8273.831378,-518.144159
4070.538661,740.205942,-8350.440928,-148.041188
4070.538986,1110.308913,-8580.269578,-666.185348
4070.539310,2072.576638,-8427.050478,-370.102971
4070.539634,2220.617826,-8273.831378,-666.185348
4070.539959,2664.741391,-9116.536426,-370.102971
4070.540283,1924.535449,-8810.098227,-518.144159
4070.540607,1036.288319,-9116.536426,74.020594
4070.540932,0.000000,-8580.269578,-148.041188
4070.541256,-592.164754,-9039.926876,0.000000
4070.541580,-1406.391290,-9116.536426,148.041188
4070.541905,-1332.370696,-8580.269578,74.020594
4070.542229,-1480.411884,-8656.879127,-296.082377
4070.542553,-740.205942,-8044.002729,0.000000
4070.542878,-148.041188,-8350.440928,-518.144159
4070.543202,888.247130,-8503.660028,-518.144159
4070.543526,1554.432478,-8197.221829,-740.205942
4070.543851,1184.329507,-8427.050478,-740.205942
4070.544175,1184.329507,-8733.488677,-370.102971
4070.544499,518.144159,-9039.926876,-592.164754
4070.544824,0.000000,-9422.974625,-222.061783
4070.545148,-518.144159,-8810.098227,0.000000
4070.545472,-444.123565,-8656.879127,0.000000
4070.545797,222.061783,-8963.317327,-296.082377
4070.546121,444.123565,-8197.221829,0.000000
4070.546445,814.226536,-8120.612279,-74.020594
4070.546770,1406.391290,-8197.221829,-444.123565
4070.547094,1850.514855,-8810.098227,0.000000
4070.547418,1480.411884,-8427.050478,0.000000
4070.547743,1184.329507,-8580.269578,222.061783
4070.548067,296.082377,-8963.317327,-370.102971
4070.548391,222.061783,-9039.926876,222.061783
4070.548716,0.000000,-8503.660028,74.020594
4070.549040,-222.061783,-8733.488677,370.102971
4070.549364,-592.164754,-8733.488677,0.000000
4070.549689,0.000000,-8273.831378,0.000000
4070.550013,222.061783,-8273.831378,-518.144159
4070.550337,74.020594,-8273.831378,-518.144159
4070.550662,444.123565,-8044.002729,-888.247130
4070.550986,0.000000,-8733.488677,-444.123565
4070.551310,0.000000,-8044.002729,-1258.350101
4070.551635,0.000000,-8963.317327,74.020594
4070.551959,296.082377,-8427.050478,-888.247130
4070.552283,296.082377,-8810.098227,296.082377
4070.552608,518.144159,-8350.440928,-518.144159
4070.552932,1924.535449,-8810.098227,-222.061783
4070.553256,2072.576638,-8427.050478,-518.144159
4070.553581,2294.638420,-8963.317327,-370.102971
4070.553905,2294.638420,-8963.317327,148.041188
4070.554229,1924.535449,-8810.098227,0.000000
4070.554554,1036.288319,-8886.707777,-296.082377
4070.554878,0.000000,-8656.879127,0.000000
4070.555202,-1036.288319,-9193.145976,0.000000
4070.555527,-1850.514855,-8427.050478,-444.123565
4070.555851,-1110.308913,-8273.831378,0.000000
4070.556175,-1554.432478,-8350.440928,-296.082377
4070.556500,-666.185348,-8273.831378,-592.164754
4070.556824,148.041188,-8044.002729,-666.185348
4070.557148,1628.453072,-8503.660028,-888.247130
4070.557473,1406.391290,-8427.050478,-962.267725
4070.557797,1554.432478,-8656.879127,-888.247130
4070.558121,1110.308913,-8963.317327,-666.185348
4070.558446,814.226536,-8886.707777,-370.102971
4070.558770,-148.041188,-9116.536426,-666.185348
4070.559095,-222.061783,-9193.145976,0.000000
4070.559419,-296.082377,-8580.269578,-592.164754
4070.559743,296.082377,-9193.145976,-592.164754
4070.560068,888.247130,-8273.831378,-518.144159
4070.560392,1702.473667,-8350.440928,-444.123565
4070.560716,2516.700203,-8350.440928,-444.123565
4070.561041,2294.638420,-8120.612279,-518.144159
4070.561365,2072.576638,-8810.098227,0.000000
4070.561689,1258.350101,-8656.879127,-518.144159
4070.562014,296.082377,-9346.365076,-148.041188
4070.562338,-296.082377,-8656.879127,0.000000
4070.562662,74.020594,-9116.536426,148.041188
4070.562987,-1110.308913,-8580.269578,-370.102971
4070.563311,-740.205942,-9193.145976,-370.102971
4070.563635,-296.082377,-8350.440928,-666.185348
4070.563960,-222.061783,-8503.660028,-888.247130
4070.564284,296.082377,-8197.221829,-370.102971
4070.564608,592.164754,-8427.050478,-518.144159
4070.564933,0.000000,-8197.221829,-888.247130
4070.565257,0.000000,-8197.221829,-740.205942
4070.565581,444.123565,-8963.317327,-592.164754
4070.565906,-296.082377,-8733.488677,-666.185348
4070.566230,0.000000,-8273.831378,0.000000
4070.566554,888.247130,-8733.488677,0.000000
4070.566879,1184.329507,-8197.221829,-666.185348
4070.567203,2516.700203,-8733.488677,148.041188
4070.567527,2442.679609,-7967.393179,-148.041188
4070.567852,2368.659014,-9116.536426,0.000000
4070.568176,1850.514855,-8656.879127,0.000000
4070.568500,1110.308913,-8810.098227,148.041188
4070.568825,0.000000,-8656.879127,0.000000
4070.569149,-740.205942,-8886.707777,0.000000
4070.569473,-888.247130,-8580.269578,-148.041188
4070.569798,-1258.350101,-7967.393179,222.061783
4070.570122,-1110.308913,-8656.879127,-296.082377
4070.570446,-370.102971,-8120.612279,-444.123565
4070.570771,296.082377,-7737.564530,-814.226536
4070.571096,1184.329507,-8580.269578,-74.020594
4070.571420,888.247130,-8350.440928,-592.164754
4070.571744,740.205942,-8733.488677,-740.205942
4070.572069,518.144159,-8963.317327,-148.041188
4070.572393,370.102971,-8886.707777,-814.226536
4070.572718,-296.082377,-9576.193725,-148.041188
4070.573042,-370.102971,-8810.098227,0.000000
4070.573366,-370.102971,-9193.145976,296.082377
4070.573691,222.061783,-8810.098227,-444.123565
4070.574015,888.247130,-8810.098227,-148.041188
4070.574340,1480.411884,-8044.002729,-370.102971
4070.574664,2072.576638,-8197.221829,-370.102971
4070.574989,1776.494261,-8503.660028,-518.144159
4070.575313,1110.308913,-9039.926876,0.000000
4070.575637,592.164754,-8656.879127,0.000000
4070.575962,-370.102971,-8810.098227,-444.123565
4070.576286,-222.061783,-9193.145976,148.041188
4070.576611,-740.205942,-8656.879127,0.000000
4070.576935,-296.082377,-9422.974625,74.020594
4070.577259,-666.185348,-8580.269578,-370.102971
4070.577584,74.020594,-8733.488677,-296.082377
4070.577908,518.144159,-7584.345430,-1184.329507
4070.578233,888.247130,-8503.660028,-444.123565
4070.578557,888.247130,-8197.221829,-1036.288319
4070.578882,444.123565,-8580.269578,-814.226536
4070.579206,444.123565,-8580.269578,-1036.288319
4070.579530,222.061783,-8656.879127,-518.144159
4070.579855,444.123565,-8427.050478,-592.164754
4070.580179,740.205942,-8503.660028,-370.102971
4070.580504,1036.288319,-8656.879127,-148.041188
4070.580828,1776.494261,-8656.879127,-592.164754
4070.581152,2812.782580,-8427.050478,-296.082377
4070.581477,2664.741391,-8886.707777,-222.061783
4070.581801,2146.597232,-8810.098227,-296.082377
4070.582126,1924.535449,-8810.098227,-296.082377
4070.582450,74.020594,-8427.050478,0.000000
4070.582774,-296.082377,-9116.536426,0.000000
4070.583099,-1406.391290,-8656.879127,-222.061783
4070.583423,-1924.535449,-9039.926876,0.000000
4070.583748,-2368.659014,-8044.002729,-518.144159
4070.584072,-1036.288319,-8886.707777,-74.020594
4070.584397,-518.144159,-8044.002729,-888.247130
4070.584721,592.164754,-8427.050478,-518.144159
4070.585045,1036.288319,-7890.783629,-888.247130
4070.585370,1628.453072,-8656.879127,-888.247130
4070.585694,1480.411884,-8656.879127,-1036.288319
4070.586019,962.267725,-9116.536426,-296.082377
4070.586343,148.041188,-9039.926876,-666.185348
4070.586667,-444.123565,-9346.365076,-518.144159
4070.586992,-518.144159,-8733.488677,-370.102971
4070.587316,-888.247130,-9269.755526,0.000000
4070.587641,-444.123565,-8656.879127,-666.185348
4070.587965,1184.329507,-8503.660028,0.000000
4070.588290,1480.411884,-7890.783629,-518.144159
4070.588614,1924.535449,-8350.440928,0.000000
4070.588938,2368.659014,-8273.831378,0.000000
4070.589263,2072.576638,-8427.050478,0.000000
4070.589587,1184.329507,-9039.926876,0.000000
4070.589912,444.123565,-9193.145976,370.102971
4070.590236,-296.082377,-9346.365076,518.144159
4070.590560,-740.205942,-8580.269578,222.061783
4070.590885,-962.267725,-9193.145976,148.041188
4070.591209,-1480.411884,-8733.488677,0.000000
4070.591534,-444.123565,-8044.002729,-666.185348
4070.591858,0.000000,-8580.269578,-666.185348
4070.592182,148.041188,-7967.393179,-962.267725
4070.592507,0.000000,-8120.612279,-296.082377
4070.592831,148.041188,-8273.831378,-370.102971
4070.593156,0.000000,-8197.221829,-222.061783
4070.593480,0.000000,-9116.536426,-740.205942
4070.593805,444.123565,-9116.536426,-518.144159
4070.594129,370.102971,-8810.098227,296.082377
4070.594453,666.185348,-8810.098227,-666.185348
4070.594778,1332.370696,-8503.660028,0.000000
4070.595102,1702.473667,-8120.612279,-592.164754
4070.595427,2146.597232,-8427.050478,0.000000
4070.595751,2220.617826,-8350.440928,-444.123565
4070.596075,1850.514855,-8733.488677,0.000000
4070.596400,1184.329507,-8427.050478,-592.164754
4070.596724,0.000000,-8273.831378,-370.102971
4070.597049,-222.061783,-8656.879127,0.000000
4070.597373,-814.226536,-8273.831378,-370.102971
4070.597698,-1184.329507,-8733.488677,-592.164754
4070.598022,-1110.308913,-8733.488677,-962.267725
4070.598346,74.020594,-8810.098227,-592.164754
4070.598671,370.102971,-7967.393179,-1406.391290
4070.598995,888.247130,-8656.879127,-666.185348
4070.599320,1184.329507,-8427.050478,-1110.308913
4070.599644,1110.308913,-8963.317327,-888.247130
4070.599968,814.226536,-8963.317327,-666.185348
4070.600293,222.061783,-9576.193725,-666.185348
4070.600617,222.061783,-9499.584175,-666.185348
4070.600942,-444.123565,-9193.145976,-592.164754
4070.601266,-370.102971,-9346.365076,-296.082377
4070.601590,148.041188,-8810.098227,-740.205942
4070.601915,888.247130,-8656.879127,-518.144159
4070.602239,1480.411884,-8810.098227,-444.123565
4070.602564,1776.494261,-8350.440928,-148.041188
4070.602888,1776.494261,-8810.098227,-296.082377
4070.603213,1702.473667,-8427.050478,-296.082377
4070.603537,1036.288319,-8886.707777,0.000000
4070.603861,222.061783,-8810.098227,-296.082377
4070.604186,0.000000,-9116.536426,0.000000
4070.604510,-592.164754,-8350.440928,0.000000
4070.604835,-740.205942,-9193.145976,-222.061783
4070.605159,-296.082377,-8350.440928,-148.041188
4070.605483,-222.061783,-9269.755526,-296.082377
4070.605808,0.000000,-7660.954980,-1332.370696
4070.606132,296.082377,-9499.584175,296.082377
4070.606457,-148.041188,-7584.345430,-1406.391290
4070.606781,222.061783,-8503.660028,222.061783
4070.607106,148.041188,-7967.393179,-888.247130
4070.607430,296.082377,-8963.317327,0.000000
4070.607754,740.205942,-7967.393179,-666.185348
4070.608079,518.144159,-9116.536426,74.020594
4070.608403,1776.494261,-8503.660028,0.000000
4070.608728,1924.535449,-8427.050478,0.000000
4070.609052,1998.556043,-8350.440928,74.020594
4070.609376,2220.617826,-8273.831378,296.082377
4070.609701,1924.535449,-8427.050478,0.000000
4070.610025,1554.432478,-9269.755526,0.000000
4070.610350,296.082377,-8350.440928,-148.041188
4070.610674,-888.247130,-9422.974625,0.000000
4070.610999,-1924.535449,-8427.050478,0.000000
4070.611323,-1480.411884,-8580.269578,296.082377
4070.611647,-1998.556043,-8044.002729,-222.061783
4070.611972,-1480.411884,-8886.707777,0.000000
4070.612296,-666.185348,-7431.126331,-814.226536
4070.612621,296.082377,-8733.488677,-444.123565
4070.612945,444.123565,-8120.612279,-592.164754
4070.613269,1702.473667,-8580.269578,-592.164754
4070.613594,740.205942,-8120.612279,-814.226536
4070.613918,518.144159,-9039.926876,-222.061783
4070.614243,-222.061783,-8733.488677,-592.164754
4070.614567,0.000000,-9193.145976,222.061783
4070.614891,-74.020594,-8733.488677,-222.061783
4070.615216,-370.102971,-8886.707777,-296.082377
4070.615540,592.164754,-8580.269578,-370.102971
4070.615865,814.226536,-8120.612279,-296.082377
4070.616189,1554.432478,-8580.269578,-296.082377
4070.616514,1776.494261,-8503.660028,-296.082377
4070.616838,2146.597232,-8656.879127,-296.082377
4070.617162,1036.288319,-8273.831378,-222.061783
4070.617487,814.226536,-8963.317327,-222.061783
4070.617811,74.020594,-8503.660028,-444.123565
4070.618136,0.000000,-9346.365076,-148.041188
4070.618460,-222.061783,-8350.440928,-370.102971
4070.618784,0.000000,-9039.926876,-222.061783
4070.619109,0.000000,-8273.831378,-666.185348
4070.619433,444.123565,-9039.926876,-814.226536
4070.619758,666.185348,-8120.612279,-1258.350101
4070.620082,148.041188,-8580.269578,-370.102971
4070.620407,222.061783,-7890.783629,-1406.391290
4070.620731,-296.082377,-8886.707777,-592.164754
4070.621055,0.000000,-8656.879127,-1036.288319
4070.621380,0.000000,-8886.707777,-814.226536
4070.621704,0.000000,-8580.269578,-518.144159
4070.622029,222.061783,-8580.269578,-444.123565
4070.622353,1480.411884,-8810.098227,-370.102971
4070.622677,1850.514855,-8427.050478,-370.102971
4070.623002,2368.659014,-8656.879127,-592.164754
4070.623326,2812.782580,-8733.488677,-222.061783
4070.623651,1628.453072,-9116.536426,148.041188
4070.623975,1480.411884,-8963.317327,-222.061783
4070.624299,444.123565,-9116.536426,0.000000
4070.624624,-518.144159,-8733.488677,-592.164754
4070.624948,-740.205942,-9422.974625,74.020594
4070.625273,-1406.391290,-8503.660028,-370.102971
4070.625597,-1036.288319,-8733.488677,0.000000
4070.625922,-1036.288319,-7890.783629,-592.164754
4070.626246,74.020594,-9193.145976,0.000000
4070.626570,740.205942,-7967.393179,-1110.308913
4070.626895,1110.308913,-8733.488677,-296.082377
4070.627219,1332.370696,-8656.879127,-444.123565
4070.627544,814.226536,-8733.488677,-518.144159
4070.627868,888.247130,-9116.536426,-592.164754
4070.628192,0.000000,-9039.926876,-296.082377
4070.628517,0.000000,-8963.317327,0.000000
4070.628841,-1110.308913,-8886.707777,0.000000
4070.629166,0.000000,-8886.707777,-148.041188
4070.629490,0.000000,-8427.050478,-370.102971
4070.629815,1036.288319,-8580.269578,0.000000
4070.630139,1628.453072,-8427.050478,0.000000
4070.630463,1628.453072,-8427.050478,0.000000
4070.630788,1924.535449,-8427.050478,0.000000
4070.631112,1184.329507,-8886.707777,0.000000
4070.631437,444.123565,-8733.488677,0.000000
4070.631761,-296.082377,-8963.317327,444.123565
4070.632085,222.061783,-8656.879127,0.000000
4070.632410,-1480.411884,-8733.488677,296.082377
4070.632734,-1036.288319,-8963.317327,74.020594
4070.633059,-740.205942,-7967.393179,-296.082377
4070.633383,0.000000,-8810.098227,74.020594
4070.633707,0.000000,-7814.174080,-888.247130
4070.634032,444.123565,-8350.440928,-296.082377
4070.634356,-296.082377,-7660.954980,-962.267725
4070.634681,222.061783,-8886.707777,-444.123565
4070.635005,370.102971,-8197.221829,-888.247130
4070.635330,444.123565,-9269.755526,-370.102971
4070.635654,370.102971,-8120.612279,-666.185348
4070.635978,1332.370696,-9193.145976,74.020594
4070.636303,962.267725,-8427.050478,0.000000
4070.636627,1998.556043,-8580.269578,296.082377
4070.636952,2368.659014,-8044.002729,-518.144159
4070.637276,2812.782580,-9193.145976,0.000000
4070.637600,2146.597232,-8503.660028,-370.102971
4070.637925,1702.473667,-9269.755526,0.000000
4070.638249,148.041188,-8120.612279,-222.061783
4070.638574,-518.144159,-9116.536426,0.000000
4070.638898,-1258.350101,-9039.926876,-370.102971
4070.639223,-1702.473667,-8580.269578,148.041188
4070.639547,-1628.453072,-8503.660028,-666.185348
4070.639871,-1184.329507,-8733.488677,-370.102971
4070.640196,-148.041188,-8197.221829,-740.205942
4070.640520,1184.329507,-8120.612279,-962.267725
4070.640845,1036.288319,-8503.660028,-1184.329507
4070.641169,1332.370696,-8503.660028,-666.185348
4070.641493,1480.411884,-8733.488677,-814.226536
4070.641818,444.123565,-9346.365076,-740.205942
4070.642142,518.144159,-9269.755526,-888.247130
4070.642467,74.020594,-9039.926876,-296.082377
4070.642791,-370.102971,-9039.926876,-444.123565
4070.643115,222.061783,-8656.879127,-370.102971
4070.643440,518.144159,-8810.098227,-370.102971
4070.643764,1110.308913,-8350.440928,-592.164754
4070.644089,1702.473667,-8503.660028,-222.061783
4070.644413,1924.535449,-8656.879127,-740.205942
4070.644738,2664.741391,-8656.879127,-444.123565
4070.645062,1924.535449,-8656.879127,-518.144159
4070.645386,740.205942,-8886.707777,0.000000
4070.645711,222.061783,-8886.707777,-148.041188
4070.646035,-370.102971,-9039.926876,0.000000
4070.646360,-888.247130,-8580.269578,0.000000
4070.646684,-1036.288319,-9039.926876,-222.061783
4070.647008,-148.041188,-8656.879127,-518.144159
4070.647333,74.020594,-8886.707777,-666.185348
4070.647657,0.000000,-7660.954980,-1258.350101
4070.647982,296.082377,-8273.831378,-518.144159
4070.648306,148.041188,-7814.174080,-814.226536
4070.648631,0.000000,-8350.440928,-296.082377
4070.648955,0.000000,-8197.221829,-444.123565
4070.649279,888.247130,-8733.488677,-222.061783
4070.649604,370.102971,-8120.612279,-222.061783
4070.649928,592.164754,-8580.269578,0.000000
4070.650253,1258.350101,-8580.269578,148.041188
4070.650577,1776.494261,-8427.050478,222.061783
4070.650901,2516.700203,-8656.879127,222.061783
4070.651226,2072.576638,-8503.660028,0.000000
4070.651550,2368.659014,-8963.317327,222.061783
4070.651875,814.226536,-8580.269578,148.041188
4070.652199,222.061783,-8810.098227,74.020594
4070.652523,-592.164754,-8427.050478,0.000000
4070.652848,-1184.329507,-9039.926876,666.185348
4070.653172,-962.267725,-7737.564530,0.000000
4070.653497,-888.247130,-8503.660028,0.000000
4070.653821,-592.164754,-8503.660028,0.000000
4070.654146,370.102971,-7967.393179,-888.247130
4070.654470,962.267725,-8886.707777,-592.164754
4070.654794,740.205942,-8350.440928,-592.164754
4070.655119,814.226536,-8733.488677,-370.102971
4070.655443,74.020594,-7967.393179,-962.267725
4070.655768,518.144159,-9422.974625,148.041188
4070.656092,-444.123565,-8656.879127,-1110.308913
4070.656416,0.000000,-9193.145976,0.000000
4070.656741,0.000000,-8656.879127,-888.247130
4070.657065,370.102971,-9116.536426,0.000000
4070.657390,666.185348,-8656.879127,-1184.329507
4070.657714,1184.329507,-8427.050478,0.000000
4070.658039,1332.370696,-8580.269578,-592.164754
4070.658363,1554.432478,-8733.488677,-296.082377
4070.658687,1406.391290,-9193.145976,-666.185348
4070.659012,518.144159,-8427.050478,-222.061783
4070.659336,0.000000,-9269.755526,-296.082377
4070.659661,-370.102971,-8427.050478,74.020594
4070.659985,0.000000,-9193.145976,148.041188
4070.660309,-1036.288319,-8733.488677,296.082377
4070.660634,-148.041188,-9499.584175,0.000000
4070.660958,148.041188,-7967.393179,-740.205942
4070.661283,444.123565,-8810.098227,-444.123565
4070.661607,370.102971,-8120.612279,-1110.308913
4070.661931,444.123565,-8503.660028,-592.164754
4070.662256,0.000000,-8044.002729,-962.267725
4070.662580,0.000000,-8733.488677,-740.205942
4070.662905,0.000000,-8656.879127,-1110.308913
4070.663229,148.041188,-9422.974625,0.000000
4070.663554,740.205942,-8197.221829,-666.185348
4070.663878,1036.288319,-9116.536426,74.020594
4070.664202,1850.514855,-8120.612279,-444.123565
4070.664527,2886.803174,-9269.755526,148.041188
4070.664851,2960.823768,-8656.879127,-592.164754
4070.665176,2442.679609,-8733.488677,0.000000
4070.665500,2590.720797,-8733.488677,-296.082377
4070.665824,814.226536,-8886.707777,0.000000
4070.666149,0.000000,-9039.926876,-148.041188
4070.666473,-1036.288319,-8810.098227,-296.082377
4070.666798,-1110.308913,-8810.098227,0.000000
4070.667122,-1554.432478,-8273.831378,-296.082377
4070.667447,-1184.329507,-7890.783629,0.000000
4070.667771,-518.144159,-8044.002729,-222.061783
4070.668095,222.061783,-7890.783629,-592.164754
4070.668420,962.267725,-8273.831378,-814.226536
4070.668744,1406.391290,-8503.660028,-888.247130
4070.669069,1036.288319,-8656.879127,-888.247130
4070.669393,1110.308913,-8733.488677,-222.061783
4070.669717,148.041188,-8810.098227,-740.205942
4070.670042,-296.082377,-9346.365076,-444.123565
4070.670366,-222.061783,-8886.707777,-296.082377
4070.670691,-740.205942,-8656.879127,-296.082377
4070.671015,-296.082377,-8733.488677,-444.123565
4070.671339,0.000000,-8120.612279,-444.123565
4070.671664,1480.411884,-8427.050478,-296.082377
4070.671988,1776.494261,-8427.050478,-370.102971
4070.672313,2146.597232,-8503.660028,0.000000
4070.672637,1480.411884,-8580.269578,148.041188
4070.672962,1702.473667,-9039.926876,-444.123565
4070.673286,592.164754,-8963.317327,0.000000
4070.673610,0.000000,-9346.365076,444.123565
4070.673935,-1036.288319,-8503.660028,0.000000
4070.674259,-1184.329507,-8886.707777,148.041188
4070.674584,-1332.370696,-8350.440928,-222.061783
4070.674908,-518.144159,-8503.660028,-592.164754
4070.675233,-222.061783,-8197.221829,-814.226536
4070.675557,222.061783,-7967.393179,-518.144159
4070.675882,444.123565,-8427.050478,-740.205942
4070.676206,444.123565,-7967.393179,-370.102971
4070.676530,666.185348,-8503.660028,-370.102971
4070.676855,370.102971,-8427.050478,-666.185348
4070.677179,962.267725,-8963.317327,-222.061783
4070.677504,518.144159,-8273.831378,-666.185348
4070.677828,962.267725,-9499.584175,74.020594
4070.678153,1184.329507,-8427.050478,-148.041188
4070.678477,1554.432478,-8886.707777,0.000000
4070.678802,1776.494261,-8656.879127,-222.061783
4070.679126,1702.473667,-8656.879127,74.020594
4070.679451,1628.453072,-8580.269578,0.000000
4070.679775,888.247130,-8810.098227,0.000000
4070.680100,-370.102971,-9193.145976,74.020594
4070.680424,-666.185348,-8810.098227,0.000000
4070.680749,-1258.350101,-8273.831378,0.000000
4070.681073,-1110.308913,-8810.098227,0.000000
4070.681398,-888.247130,-8197.221829,-592.164754
4070.681722,-666.185348,-8273.831378,0.000000
4070.682046,518.144159,-8197.221829,-1036.288319
4070.682371,1184.329507,-8656.879127,-666.185348
4070.682695,1628.453072,-8197.221829,-962.267725
4070.683020,1850.514855,-8733.488677,-962.267725
4070.683344,1184.329507,-8427.050478,-592.164754
4070.683669,296.082377,-9346.365076,-296.082377
4070.683993,74.020594,-9116.536426,-518.144159
4070.684318,148.041188,-9039.926876,0.000000
4070.684642,-444.123565,-9193.145976,-74.020594
4070.684967,0.000000,-8733.488677,-296.082377
4070.685291,740.205942,-8427.050478,-592.164754
4070.685616,1184.329507,-8810.098227,-370.102971
4070.685940,1924.535449,-8350.440928,-814.226536
4070.686265,1924.535449,-9039.926876,-74.020594
4070.686589,1850.514855,-8733.488677,-296.082377
4070.686913,1480.411884,-9039.926876,-296.082377
4070.687238,740.205942,-8810.098227,-444.123565
4070.687562,0.000000,-9269.755526,370.102971
4070.687887,-296.082377,-8503.660028,-222.061783
4070.688211,-370.102971,-9346.365076,-148.041188
4070.688536,-666.185348,-8656.879127,148.041188
4070.688860,0.000000,-7890.783629,0.000000
4070.689185,370.102971,-8120.612279,-888.247130
4070.689509,592.164754,-8350.440928,-888.247130
4070.689834,222.061783,-7814.174080,-888.247130
4070.690158,148.041188,-8503.660028,-222.061783
4070.690483,222.061783,-8503.660028,-1036.288319
4070.690807,74.020594,-8886.707777,-518.144159
4070.691132,-148.041188,-8656.879127,-370.102971
4070.691456,-222.061783,-7737.564530,74.020594
4070.691781,518.144159,-8656.879127,-148.041188
4070.692105,1332.370696,-8273.831378,-222.061783
4070.692429,2220.617826,-8580.269578,0.000000
4070.692754,2220.617826,-8580.269578,74.020594
4070.693078,2368.659014,-8733.488677,222.061783
4070.693403,1554.432478,-8427.050478,-148.041188
4070.693727,888.247130,-8810.098227,0.000000
4070.694052,-296.082377,-8503.660028,0.000000
4070.694376,-666.185348,-9039.926876,296.082377
4070.694701,-888.247130,-8503.660028,0.000000
4070.695025,-1184.329507,-8350.440928,370.102971
4070.695350,-814.226536,-8580.269578,-296.082377
4070.695674,222.061783,-8120.612279,-592.164754
4070.695999,666.185348,-8044.002729,-370.102971
4070.696323,370.102971,-8273.831378,-296.082377
4070.696648,888.247130,-8197.221829,-444.123565
4070.696972,444.123565,-8810.098227,0.000000
4070.697296,0.000000,-8733.488677,-296.082377
4070.697621,-148.041188,-9116.536426,-296.082377
4070.697945,-592.164754,-9039.926876,-592.164754
4070.698270,-518.144159,-9039.926876,0.000000
4070.698594,222.061783,-8886.707777,-296.082377
4070.698919,222.061783,-8810.098227,0.000000
4070.699243,666.185348,-7967.393179,-592.164754
4070.699568,1776.494261,-8273.831378,-222.061783
4070.699892,2590.720797,-8580.269578,-296.082377
4070.700217,1924.535449,-8503.660028,-222.061783
4070.700541,1554.432478,-8580.269578,-370.102971
4070.700866,1332.370696,-8427.050478,-222.061783
4070.701190,-222.061783,-9269.755526,-666.185348
4070.701515,-370.102971,-9039.926876,74.020594
4070.701839,-962.267725,-8503.660028,74.020594
4070.702163,-222.061783,-8886.707777,-296.082377
4070.702488,-222.061783,-8810.098227,-740.205942
4070.702812,1554.432478,-8733.488677,-370.102971
4070.703137,592.164754,-8273.831378,-1184.329507
4070.703461,1036.288319,-8580.269578,-814.226536
4070.703786,814.226536,-8044.002729,-814.226536
4070.704110,666.185348,-7354.516781,-370.102971
4070.704435,74.020594,-8120.612279,-1036.288319
4070.704759,74.020594,-9039.926876,-370.102971
4070.705084,444.123565,-8733.488677,-518.144159
4070.705408,666.185348,-8656.879127,-518.144159
4070.705733,888.247130,-9039.926876,-592.164754
4070.706057,1480.411884,-8503.660028,0.000000
4070.706382,2590.720797,-8656.879127,-666.185348
4070.706706,2738.761985,-8656.879127,0.000000
4070.707031,2294.638420,-8580.269578,-296.082377
4070.707355,1998.556043,-8810.098227,-296.082377
4070.707679,1406.391290,-8886.707777,-666.185348
4070.708004,222.061783,-8503.660028,-222.061783
4070.708328,-370.102971,-9499.584175,0.000000
4070.708653,-2146.597232,-8810.098227,-296.082377
4070.708977,-2220.617826,-8886.707777,0.000000
4070.709302,-962.267725,-8273.831378,-370.102971
4070.709626,1184.329507,-8503.660028,-296.082377
4070.709951,-1036.288319,-8427.050478,-1184.329507
4070.710275,1258.350101,-8350.440928,-444.123565
4070.710600,296.082377,-7890.783629,-888.247130
4070.710924,1110.308913,-9576.193725,-222.061783
4070.711249,1184.329507,-8197.221829,-74.020594
4070.711573,296.082377,-9576.193725,-370.102971
4070.711898,-370.102971,-9116.536426,-518.144159
4070.712222,148.041188,-8503.660028,-666.185348
4070.712546,0.000000,-9269.755526,0.000000
4070.712871,-370.102971,-8273.831378,-222.061783
4070.713195,592.164754,-8427.050478,-296.082377
4070.713520,888.247130,-8273.831378,-666.185348
4070.713844,1480.411884,-8350.440928,-296.082377
4070.714169,2072.576638,-8580.269578,0.000000
4070.714493,1776.494261,-8197.221829,-296.082377
4070.714818,1850.514855,-8963.317327,148.041188
4070.715142,888.247130,-8886.707777,-666.185348
4070.715467,222.061783,-9346.365076,0.000000
4070.715791,-592.164754,-8427.050478,0.000000
4070.716116,-444.123565,-9039.926876,518.144159
4070.716440,-592.164754,-8427.050478,-296.082377
4070.716765,0.000000,-8427.050478,-222.061783
4070.717089,0.000000,-8197.221829,-814.226536
4070.717414,-444.123565,-8580.269578,-148.041188
4070.717738,74.020594,-7890.783629,-962.267725
4070.718062,-444.123565,-8197.221829,148.041188
4070.718387,0.000000,-8580.269578,-518.144159
4070.718711,0.000000,-8580.269578,-592.164754
4070.719036,296.082377,-8733.488677,0.000000
4070.719360,518.144159,-8810.098227,-296.082377
4070.719685,814.226536,-9346.365076,0.000000
4070.720009,1184.329507,-8580.269578,0.000000
4070.720334,2146.597232,-8427.050478,-370.102971
4070.720658,2590.720797,-8656.879127,-296.082377
4070.720983,1924.535449,-8503.660028,74.020594
4070.721307,1258.350101,-8503.660028,0.000000
4070.721632,1036.288319,-8503.660028,0.000000
4070.721956,148.041188,-8580.269578,-222.061783
4070.722281,0.000000,-8810.098227,0.000000
4070.722605,-1036.288319,-8273.831378,0.000000
4070.722929,-1480.411884,-8503.660028,-148.041188
4070.723254,-962.267725,-8427.050478,-296.082377
4070.723578,-148.041188,-8503.660028,-592.164754
4070.723903,148.041188,-8963.317327,-1258.350101
4070.724227,592.164754,-8197.221829,-592.164754
4070.724552,814.226536,-8350.440928,-888.247130
4070.724876,814.226536,-9116.536426,-666.185348
4070.725201,740.205942,-8580.269578,-814.226536
4070.725525,222.061783,-8886.707777,-1036.288319
4070.725850,0.000000,-9039.926876,-444.123565
4070.726174,-444.123565,-8810.098227,-518.144159
4070.726499,-148.041188,-9039.926876,-592.164754
4070.726823,148.041188,-8427.050478,-370.102971
4070.727148,888.247130,-8580.269578,-444.123565
4070.727472,1924.535449,-8580.269578,-370.102971
4070.727797,1776.494261,-8197.221829,-518.144159
4070.728121,2368.659014,-9116.536426,0.000000
4070.728445,1110.308913,-8350.440928,-592.164754
4070.728770,518.144159,-9193.145976,0.000000
4070.729094,-296.082377,-8580.269578,-296.082377
4070.729419,-518.144159,-9116.536426,0.000000
4070.729743,-370.102971,-8886.707777,-592.164754
4070.730068,-296.082377,-9346.365076,0.000000
4070.730392,-592.164754,-8273.831378,-296.082377
4070.730717,-296.082377,-8273.831378,-296.082377
4070.731041,148.041188,-7814.174080,-740.205942
4070.731366,370.102971,-8120.612279,-666.185348
4070.731690,518.144159,-8350.440928,-740.205942
4070.732015,296.082377,-8350.440928,-592.164754
4070.732339,444.123565,-8963.317327,-740.205942
4070.732664,74.020594,-8580.269578,-592.164754
4070.732988,74.020594,-8503.660028,0.000000
4070.733312,0.000000,-8656.879127,-296.082377
4070.733637,1258.350101,-8503.660028,0.000000
4070.733961,2072.576638,-8120.612279,-222.061783
4070.734286,2590.720797,-8810.098227,-148.041188
4070.734610,2516.700203,-8197.221829,0.000000
4070.734935,1776.494261,-8503.660028,0.000000
4070.735259,1480.411884,-8656.879127,-222.061783
4070.735584,148.041188,-8733.488677,0.000000
4070.735908,-370.102971,-8733.488677,-296.082377
4070.736233,-1184.329507,-8580.269578,0.000000
4070.736557,-1480.411884,-8580.269578,0.000000
4070.736882,-1554.432478,-8733.488677,-148.041188
4070.737206,-962.267725,-8580.269578,0.000000
4070.737531,-370.102971,-8350.440928,-370.102971
4070.737855,296.082377,-8197.221829,-666.185348
4070.738179,592.164754,-8656.879127,74.020594
4070.738504,1036.288319,-8810.098227,-370.102971
4070.738828,814.226536,-8733.488677,-666.185348
4070.739153,444.123565,-8580.269578,-296.082377
4070.739477,518.144159,-8733.488677,-370.102971
4070.739802,0.000000,-8656.879127,-296.082377
4070.740126,-148.041188,-8886.707777,0.000000
4070.740451,148.041188,-8427.050478,-296.082377
4070.740775,518.144159,-8810.098227,-370.102971
4070.741100,1036.288319,-8273.831378,-444.123565
4070.741424,1628.453072,-8350.440928,-74.020594
4070.741749,1554.432478,-8197.221829,-518.144159
4070.742073,1998.556043,-9193.145976,0.000000
4070.742398,1110.308913,-8044.002729,-1258.350101
4070.742722,740.205942,-9499.584175,0.000000
4070.743047,-222.061783,-8810.098227,-740.205942
4070.743371,0.000000,-9346.365076,222.061783
4070.743695,-592.164754,-8503.660028,-518.144159
4070.744020,-518.144159,-9116.536426,0.000000
4070.744344,0.000000,-7967.393179,-740.205942
4070.744669,74.020594,-8580.269578,-148.041188
4070.744993,592.164754,-8044.002729,-1036.288319
4070.745318,666.185348,-8580.269578,-444.123565
4070.745642,222.061783,-8350.440928,-962.267725
4070.745967,296.082377,-9116.536426,-666.185348
4070.746291,74.020594,-8427.050478,-962.267725
4070.746616,518.144159,-9193.145976,-296.082377
4070.746940,666.185348,-8350.440928,-148.041188
4070.747265,444.123565,-8503.660028,-444.123565
4070.747589,1110.308913,-8733.488677,-444.123565
4070.747914,1924.535449,-8427.050478,-296.082377
4070.748238,1850.514855,-8273.831378,-444.123565
4070.748562,2368.659014,-8886.707777,0.000000
4070.748887,1850.514855,-8350.440928,-222.061783
4070.749211,1406.391290,-9039.926876,0.000000
4070.749536,592.164754,-8350.440928,-222.061783
4070.749860,-370.102971,-8886.707777,0.000000
4070.750185,-296.082377,-8503.660028,0.000000
4070.750509,-1036.288319,-8273.831378,0.000000
4070.750834,-1184.329507,-8656.879127,148.041188
4070.751158,-740.205942,-8120.612279,-296.082377
4070.751483,-148.041188,-8503.660028,-444.123565
4070.751807,592.164754,-8044.002729,-370.102971
4070.752132,1036.288319,-8656.879127,-370.102971
4070.752456,592.164754,-8273.831378,-962.267725
4070.752781,1110.308913,-8810.098227,-444.123565
4070.753105,222.061783,-8273.831378,-666.185348
4070.753430,148.041188,-8963.317327,-444.123565
4070.753754,0.000000,-8273.831378,-222.061783
4070.754078,74.020594,-8656.879127,-296.082377
4070.754403,0.000000,-8580.269578,-444.123565
4070.754727,518.144159,-8733.488677,-370.102971
4070.755052,1036.288319,-8580.269578,296.082377
4070.755376,1406.391290,-8656.879127,0.000000
4070.755701,1258.350101,-8273.831378,-148.041188
4070.756025,1406.391290,-8963.317327,0.000000
4070.756350,962.267725,-8886.707777,-518.144159
4070.756674,592.164754,-9269.755526,0.000000
4070.756999,-222.061783,-8886.707777,-222.061783
4070.757323,-296.082377,-9193.145976,370.102971
4070.757648,-740.205942,-8427.050478,-222.061783
4070.757972,-148.041188,-8963.317327,0.000000
4070.758297,0.000000,-7814.174080,-444.123565
4070.758621,444.123565,-8656.879127,-148.041188
4070.758945,518.144159,-7660.954980,-740.205942
4070.759270,740.205942,-8580.269578,0.000000
4070.759594,444.123565,-7967.393179,-888.247130
4070.759919,-148.041188,-8580.269578,-370.102971
4070.760243,-148.041188,-8427.050478,-666.185348
4070.760568,296.082377,-8656.879127,-370.102971
4070.760892,0.000000,-7814.174080,-296.082377
4070.761217,814.226536,-8733.488677,-740.205942
4070.761541,1258.350101,-8273.831378,-740.205942
4070.761866,2072.576638,-8656.879127,0.000000
4070.762190,2294.638420,-8120.612279,0.000000
4070.762515,2516.700203,-8656.879127,-296.082377
4070.762839,2072.576638,-8503.660028,-296.082377
4070.763164,1554.432478,-8810.098227,-222.061783
4070.763488,518.144159,-8963.317327,0.000000
4070.763812,-740.205942,-8810.098227,148.041188
4070.764137,-962.267725,-8810.098227,74.020594
4070.764461,-1258.350101,-8580.269578,-296.082377
4070.764786,-1258.350101,-8810.098227,-222.061783
4070.765110,-888.247130,-7967.393179,0.000000
4070.765435,-296.082377,-8580.269578,-814.226536
4070.765759,370.102971,-8350.440928,-518.144159
4070.766084,444.123565,-8427.050478,-370.102971
4070.766408,888.247130,-7967.393179,-592.164754
4070.766733,1036.288319,-8963.317327,-814.226536
4070.767057,814.226536,-8656.879127,-518.144159
4070.767382,592.164754,-9269.755526,-666.185348
4070.767706,222.061783,-8350.440928,-370.102971
4070.768031,0.000000,-8963.317327,0.000000
4070.768355,0.000000,-8350.440928,-518.144159
4070.768680,814.226536,-8580.269578,-296.082377
4070.769004,814.226536,-8273.831378,-518.144159
4070.769328,1776.494261,-8733.488677,-222.061783
4070.769653,1554.432478,-8044.002729,-814.226536
4070.769977,1776.494261,-9422.974625,0.000000
4070.770302,666.185348,-8273.831378,-888.247130
4070.770626,1258.350101,-9806.022374,296.082377
4070.770951,0.000000,-8580.269578,-740.205942
4070.771275,0.000000,-9039.926876,518.144159
4070.771600,-592.164754,-8350.440928,-296.082377
4070.771924,-444.123565,-9116.536426,0.000000
4070.772249,-518.144159,-7737.564530,-296.082377
4070.772573,-222.061783,-8886.707777,0.000000
4070.772898,0.000000,-8197.221829,-962.267725
4070.773222,74.020594,-8273.831378,-518.144159
4070.773547,74.020594,-8273.831378,-666.185348
4070.773871,-370.102971,-8580.269578,-296.082377
4070.774195,0.000000,-8580.269578,-740.205942
4070.774520,444.123565,-8273.831378,-518.144159
4070.774844,1036.288319,-8810.098227,-296.082377
4070.775169,148.041188,-8656.879127,-370.102971
4070.775493,1332.370696,-8503.660028,0.000000
4070.775817,1924.535449,-8273.831378,-592.164754
4070.776142,2220.617826,-8733.488677,0.000000
4070.776466,2220.617826,-8580.269578,74.020594
4070.776790,2220.617826,-8886.707777,74.020594
4070.777115,1258.350101,-7814.174080,0.000000
4070.777439,148.041188,-8886.707777,0.000000
4070.777763,-296.082377,-9116.536426,-296.082377
4070.778088,-1554.432478,-8503.660028,222.061783
4070.778412,-962.267725,-7967.393179,0.000000
4070.778736,-1406.391290,-8580.269578,-296.082377
4070.779061,-370.102971,-7277.907231,-370.102971
4070.779385,740.205942,-8273.831378,-444.123565
4070.779710,1258.350101,-7814.174080,-296.082377
4070.780034,1702.473667,-8427.050478,-296.082377
4070.780358,1554.432478,-8350.440928,-592.164754
4070.780683,1406.391290,-8963.317327,-518.144159
4070.781007,444.123565,-8350.440928,-740.205942
4070.781331,296.082377,-9652.803275,-222.061783
4070.781656,-444.123565,-8350.440928,-370.102971
4070.781980,-962.267725,-8503.660028,148.041188
4070.782304,-444.123565,-8120.612279,-888.247130
4070.782629,370.102971,-8656.879127,-222.061783
4070.782953,888.247130,-8044.002729,-740.205942
4070.783277,1702.473667,-8656.879127,444.123565
4070.783602,1702.473667,-8120.612279,-148.041188
4070.783926,2072.576638,-9039.926876,-296.082377
4070.784250,1332.370696,-8580.269578,-962.267725
4070.784575,814.226536,-9422.974625,0.000000
4070.784899,-296.082377,-8733.488677,-370.102971
4070.785223,-888.247130,-9193.145976,148.041188
4070.785548,-740.205942,-9039.926876,0.000000
4070.785872,-740.205942,-8427.050478,-296.082377
4070.786196,0.000000,-7737.564530,-74.020594
4070.786521,296.082377,-8733.488677,-296.082377
4070.786845,888.247130,-7890.783629,-888.247130
4070.787169,1110.308913,-8044.002729,-444.123565
4070.787494,740.205942,-7890.783629,-518.144159
4070.787818,592.164754,-8197.221829,-222.061783
4070.788142,666.185348,-8886.707777,-666.185348
4070.788467,370.102971,-8503.660028,-888.247130
4070.788791,740.205942,-8810.098227,-518.144159
4070.789115,222.061783,-8427.050478,-444.123565
4070.789440,1036.288319,-8810.098227,-74.020594
4070.789764,1258.350101,-8580.269578,-370.102971
4070.790088,1332.370696,-8733.488677,-370.102971
4070.790413,1554.432478,-8350.440928,148.041188
4070.790737,1406.391290,-8810.098227,0.000000
4070.791061,1258.350101,-8886.707777,0.000000
4070.791386,518.144159,-8350.440928,-296.082377
4070.791710,0.000000,-9193.145976,148.041188
4070.792034,0.000000,-8044.002729,-296.082377
4070.792359,-888.247130,-8733.488677,0.000000
4070.792683,-962.267725,-8120.612279,-370.102971
4070.793007,-1036.288319,-8197.221829,-148.041188
4070.793332,-592.164754,-8810.098227,-444.123565
4070.793656,0.000000,-8580.269578,0.000000
4070.793980,74.020594,-8350.440928,-666.185348
4070.794305,296.082377,-8580.269578,-962.267725
4070.794629,0.000000,-8580.269578,-444.123565
4070.794953,592.164754,-8350.440928,-592.164754
4070.795278,814.226536,-8886.707777,-666.185348
4070.795602,592.164754,-8733.488677,-444.123565
4070.795926,0.000000,-8656.879127,296.082377
4070.796251,296.082377,-8350.440928,-518.144159
4070.796575,740.205942,-8273.831378,-518.144159
4070.796899,1480.411884,-8197.221829,0.000000
4070.797224,1406.391290,-8350.440928,-518.144159
4070.797548,1702.473667,-8120.612279,0.000000
4070.797872,1258.350101,-8350.440928,0.000000
4070.798197,814.226536,-8656.879127,0.000000
4070.798521,0.000000,-8886.707777,-740.205942
4070.798846,-222.061783,-9193.145976,592.164754
4070.799170,-370.102971,-7967.393179,0.000000
4070.799494,-666.185348,-8886.707777,0.000000
4070.799819,-444.123565,-8273.831378,-148.041188
4070.800143,518.144159,-8503.660028,-222.061783
4070.800467,0.000000,-8273.831378,-1110.308913
4070.800792,296.082377,-8427.050478,-296.082377
4070.801116,444.123565,-8120.612279,-296.082377
4070.801440,-148.041188,-8427.050478,-888.247130
4070.801765,-370.102971,-8273.831378,-1480.411884
4070.802089,296.082377,-8810.098227,-592.164754
4070.802413,-148.041188,-8350.440928,-740.205942
4070.802738,-148.041188,-9193.145976,74.020594
4070.803062,740.205942,-8273.831378,-740.205942
4070.803386,1406.391290,-8503.660028,148.041188
4070.803711,2442.679609,-8427.050478,-518.144159
4070.804035,3034.844362,-8503.660028,-296.082377
4070.804359,3034.844362,-8350.440928,-370.102971
4070.804684,2220.617826,-9652.803275,-592.164754
4070.805008,1258.350101,-8810.098227,-222.061783
4070.805332,148.041188,-8963.317327,-370.102971
4070.805657,-814.226536,-9193.145976,74.020594
4070.805981,-1036.288319,-8427.050478,-370.102971
4070.806305,-1998.556043,-8656.879127,-148.041188
4070.806630,-1702.473667,-8197.221829,-370.102971
4070.806954,-592.164754,-7890.783629,-592.164754
4070.807278,518.144159,-8044.002729,-222.061783
4070.807603,666.185348,-8044.002729,-1110.308913
4070.807927,1110.308913,-8810.098227,-518.144159
4070.808251,2220.617826,-8810.098227,-740.205942
4070.808576,962.267725,-9039.926876,-1332.370696
4070.808900,1332.370696,-9116.536426,-666.185348
4070.809224,0.000000,-9039.926876,-296.082377
4070.809549,0.000000,-8886.707777,-370.102971
4070.809873,-370.102971,-8886.707777,-518.144159
4070.810197,-370.102971,-8733.488677,148.041188
4070.810522,370.102971,-7967.393179,-296.082377
4070.810846,1480.411884,-8427.050478,-592.164754
4070.811170,1628.453072,-9039.926876,0.000000
4070.811495,1480.411884,-8120.612279,-592.164754
4070.811819,2072.576638,-9039.926876,-222.061783
4070.812143,1406.391290,-8503.660028,-296.082377
4070.812468,444.123565,-9576.193725,-444.123565
4070.812792,-370.102971,-8656.879127,-148.041188
4070.813116,-592.164754,-9039.926876,0.000000
4070.813441,-1036.288319,-8886.707777,-222.061783
4070.813765,-666.185348,-8427.050478,74.020594
4070.814089,-592.164754,-8273.831378,-296.082377
4070.814414,0.000000,-8350.440928,-222.061783
4070.814738,148.041188,-7890.783629,0.000000
4070.815062,666.185348,-8273.831378,-370.102971
4070.815387,814.226536,-8273.831378,-222.061783
4070.815711,518.144159,-8350.440928,-296.082377
4070.816035,592.164754,-8963.317327,-296.082377
4070.816360,296.082377,-8427.050478,0.000000
4070.816684,592.164754,-8810.098227,0.000000
4070.817008,0.000000,-8733.488677,-444.123565
4070.817333,1036.288319,-9499.584175,148.041188
4070.817657,1258.350101,-8273.831378,0.000000
4070.817982,1924.535449,-8656.879127,-370.102971
4070.818306,1258.350101,-8503.660028,148.041188
4070.818630,1406.391290,-8656.879127,-148.041188
4070.818955,888.247130,-8273.831378,-518.144159
4070.819279,74.020594,-8810.098227,0.000000
4070.819603,-370.102971,-8733.488677,-370.102971
4070.819928,-888.247130,-8656.879127,0.000000
4070.820252,-1332.370696,-7967.393179,74.020594
4070.820576,-888.247130,-8503.660028,0.000000
4070.820901,-370.102971,-7890.783629,-148.041188
4070.821225,222.061783,-8810.098227,-370.102971
4070.821549,592.164754,-8120.612279,-962.267725
4070.821874,592.164754,-8503.660028,-740.205942
4070.822198,666.185348,-8273.831378,-518.144159
4070.822522,1110.308913,-8580.269578,-592.164754
4070.822847,74.020594,-8963.317327,-814.226536
4070.823171,0.000000,-9193.145976,-518.144159
4070.823495,-296.082377,-8503.660028,-296.082377
4070.823820,0.000000,-9422.974625,-518.144159
4070.824144,370.102971,-8886.707777,-444.123565
4070.824468,1258.350101,-8810.098227,-518.144159
4070.824793,1258.350101,-8044.002729,-666.185348
4070.825117,2146.597232,-8886.707777,-148.041188
4070.825441,1628.453072,-8197.221829,-666.185348
4070.825766,1554.432478,-9422.974625,-370.102971
4070.826090,444.123565,-8503.660028,-148.041188
4070.826414,74.020594,-9346.365076,0.000000
4070.826739,-296.082377,-8733.488677,0.000000
4070.827063,-518.144159,-9039.926876,0.000000
4070.827387,-592.164754,-8886.707777,-370.102971
4070.827712,-222.061783,-8580.269578,-296.082377
4070.828036,74.020594,-8197.221829,-592.164754
4070.828360,370.102971,-8656.879127,-518.144159
4070.828685,592.164754,-8197.221829,-518.144159
4070.829009,888.247130,-8580.269578,-740.205942
4070.829333,0.000000,-8503.660028,-1036.288319
4070.829658,74.020594,-8733.488677,-888.247130
4070.829982,0.000000,-9193.145976,-666.185348
4070.830306,0.000000,-8197.221829,-296.082377
4070.830631,0.000000,-8886.707777,-296.082377
4070.830955,1036.288319,-8503.660028,-222.061783
4070.831279,2146.597232,-8427.050478,0.000000
4070.831604,2220.617826,-8197.221829,-370.102971
4070.831928,2886.803174,-8963.317327,0.000000
4070.832252,2516.700203,-8273.831378,-222.061783
4070.832577,2294.638420,-8810.098227,-222.061783
4070.832901,888.247130,-9346.365076,0.000000
4070.833225,0.000000,-9039.926876,222.061783
4070.833550,-888.247130,-8810.098227,0.000000
4070.833874,-1924.535449,-8733.488677,222.061783
4070.834198,-1702.473667,-8427.050478,148.041188
4070.834523,-1184.329507,-8427.050478,-148.041188
4070.834847,-222.061783,-8197.221829,-370.102971
4070.835171,592.164754,-8273.831378,-370.102971
4070.835496,1184.329507,-8273.831378,-370.102971
4070.835820,1184.329507,-8273.831378,-444.123565
4070.836144,1332.370696,-8656.879127,-296.082377
4070.836469,1110.308913,-8580.269578,-518.144159
4070.836793,444.123565,-8963.317327,-296.082377
4070.837118,-1110.308913,-9269.755526,-222.061783
4070.837442,-740.205942,-8810.098227,74.020594
4070.837766,-740.205942,-8273.831378,-518.144159
4070.838091,-296.082377,-8810.098227,0.000000
4070.838415,370.102971,-8120.612279,-296.082377
4070.838739,1332.370696,-8733.488677,0.000000
4070.839064,1850.514855,-8427.050478,-592.164754
4070.839388,2072.576638,-8733.488677,-296.082377
4070.839712,1702.473667,-8350.440928,-518.144159
4070.840037,1554.432478,-8810.098227,518.144159
4070.840361,666.185348,-9039.926876,0.000000
4070.840685,0.000000,-8810.098227,148.041188
4070.841010,-518.144159,-8503.660028,0.000000
4070.841334,-518.144159,-9346.365076,518.144159
4070.841658,-518.144159,-8273.831378,-296.082377
4070.841983,0.000000,-8273.831378,-444.123565
4070.842307,74.020594,-8350.440928,-148.041188
4070.842631,148.041188,-7814.174080,-740.205942
4070.842956,592.164754,-8886.707777,-370.102971
4070.843280,666.185348,-7660.954980,-814.226536
4070.843604,1036.288319,-8810.098227,-444.123565
4070.843929,0.000000,-8197.221829,-518.144159
4070.844253,74.020594,-9116.536426,222.061783
4070.844577,148.041188,-8656.879127,-666.185348
4070.844902,962.267725,-9116.536426,0.000000
4070.845226,1184.329507,-8427.050478,-518.144159
4070.845550,1998.556043,-8580.269578,0.000000
4070.845875,2146.597232,-9116.536426,-370.102971
4070.846199,2220.617826,-8503.660028,-518.144159
4070.846523,1850.514855,-8656.879127,-296.082377
4070.846848,1184.329507,-8580.269578,0.000000
4070.847172,74.020594,-9116.536426,0.000000
4070.847496,-148.041188,-8427.050478,-222.061783
4070.847821,-1036.288319,-8350.440928,-222.061783
4070.848145,-1554.432478,-8580.269578,0.000000
4070.848469,-1184.329507,-7890.783629,-296.082377
4070.848794,-148.041188,-8503.660028,-222.061783
4070.849118,222.061783,-8350.440928,-740.205942
4070.849442,518.144159,-8044.002729,-518.144159
4070.849767,1998.556043,-8733.488677,-1184.329507
4070.850091,1258.350101,-9039.926876,-296.082377
4070.850415,740.205942,-8427.050478,-814.226536
4070.850740,814.226536,-9193.145976,-444.123565
4070.851064,148.041188,-8810.098227,-666.185348
4070.851388,148.041188,-8963.317327,-666.185348
4070.851713,-222.061783,-8350.440928,-592.164754
4070.852037,518.144159,-8810.098227,-222.061783
4070.852361,296.082377,-8427.050478,-592.164754
4070.852686,1776.494261,-8273.831378,-592.164754
4070.853010,2294.638420,-9039.926876,-740.205942
4070.853334,1406.391290,-8503.660028,-518.144159
4070.853659,1406.391290,-8886.707777,-592.164754
4070.853983,888.247130,-8963.317327,0.000000
4070.854307,0.000000,-9193.145976,0.000000
4070.854632,-518.144159,-8656.879127,0.000000
4070.854956,-1036.288319,-8963.317327,-74.020594
4070.855280,-1184.329507,-8427.050478,-148.041188
4070.855605,-518.144159,-8350.440928,-222.061783
4070.855929,0.000000,-8350.440928,-444.123565
4070.856254,296.082377,-8044.002729,-592.164754
4070.856578,296.082377,-7967.393179,-444.123565
4070.856902,518.144159,-8350.440928,-888.247130
4070.857227,222.061783,-8273.831378,-444.123565
4070.857551,74.020594,-8580.269578,-518.144159
4070.857875,0.000000,-8963.317327,-296.082377
4070.858200,444.123565,-8580.269578,-370.102971
4070.858524,666.185348,-8733.488677,-518.144159
4070.858848,370.102971,-8580.269578,-148.041188
4070.859173,814.226536,-8273.831378,-222.061783
4070.859497,1998.556043,-8580.269578,-148.041188
4070.859821,2738.761985,-8733.488677,0.000000
4070.860146,2368.659014,-9116.536426,148.041188
4070.860470,1406.391290,-8427.050478,-370.102971
4070.860794,1110.308913,-9039.926876,0.000000
4070.861119,0.000000,-8580.269578,370.102971
4070.861443,-296.082377,-9193.145976,148.041188
4070.861767,-1776.494261,-8350.440928,74.020594
4070.862092,-2146.597232,-8656.879127,74.020594
4070.862416,-1554.432478,-7737.564530,-518.144159
4070.862740,0.000000,-8120.612279,-296.082377
4070.863065,222.061783,-8044.002729,-518.144159
4070.863389,888.247130,-8120.612279,-370.102971
4070.863713,1258.350101,-8273.831378,-518.144159
4070.864038,1258.350101,-9039.926876,0.000000
4070.864362,1110.308913,-8580.269578,-666.185348
4070.864686,444.123565,-9193.145976,-592.164754
4070.865011,0.000000,-8886.707777,-592.164754
4070.865335,-370.102971,-9346.365076,-222.061783
4070.865659,-370.102971,-8733.488677,-740.205942
4070.865984,222.061783,-8733.488677,74.020594
4070.866308,222.061783,-8503.660028,-444.123565
4070.866632,1110.308913,-8044.002729,0.000000
4070.866957,1554.432478,-8350.440928,-222.061783
4070.867281,2294.638420,-8656.879127,-444.123565
4070.867605,1850.514855,-8733.488677,-222.061783
4070.867930,1258.350101,-9116.536426,0.000000
4070.868254,962.267725,-8503.660028,370.102971
4070.868578,0.000000,-8733.488677,666.185348
4070.868903,-370.102971,-8963.317327,-296.082377
4070.869227,-370.102971,-8733.488677,0.000000
4070.869551,-370.102971,-8503.660028,-148.041188
4070.869876,-148.041188,-8350.440928,-296.082377
4070.870200,148.041188,-8044.002729,-666.185348
4070.870524,296.082377,-8273.831378,0.000000
4070.870849,666.185348,-8197.221829,-666.185348
4070.871173,592.164754,-8503.660028,-518.144159
4070.871497,740.205942,-8810.098227,-962.267725
4070.871822,518.144159,-8503.660028,-666.185348
4070.872146,444.123565,-8580.269578,-592.164754
