#time,accel_x,accel_y,accel_z
4102.115163,-592.164754,-8886.707777,-962.267725
4102.115487,-296.082377,-8886.707777,-1036.288319
4102.115811,0.000000,-8810.098227,-1776.494261
4102.116135,0.000000,-8580.269578,-1184.329507
4102.116459,444.123565,-8427.050478,-1776.494261
4102.116784,444.123565,-8886.707777,-1702.473667
4102.117108,296.082377,-8886.707777,-1406.391290
4102.117432,-296.082377,-9039.926876,-1258.350101
4102.117756,-666.185348,-9269.755526,-1406.391290
4102.118080,-1258.350101,-9729.412825,-1332.370696
4102.118404,-1554.432478,-9806.022374,-1036.288319
4102.118728,-2664.741391,-9882.631924,-1184.329507
4102.119052,-3256.906145,-9882.631924,-962.267725
4102.119376,-3478.967927,-9422.974625,-592.164754
4102.119701,-3478.967927,-9499.584175,-814.226536
4102.120025,-3478.967927,-9652.803275,-222.061783
4102.120349,-3552.988522,-8886.707777,-888.247130
4102.120673,-3552.988522,-9039.926876,-148.041188
4102.120997,-3701.029710,-8733.488677,-444.123565
4102.121321,-3330.926739,-9116.536426,-296.082377
4102.121645,-4071.132681,-9116.536426,-296.082377
4102.121969,-4515.256246,-9116.536426,0.000000
4102.122293,-4811.338623,-9039.926876,0.000000
4102.122617,-4737.318029,-9269.755526,-296.082377
4102.122942,-5033.400406,-8810.098227,-222.061783
4102.123266,-4737.318029,-8963.317327,0.000000
4102.123590,-4589.276840,-8427.050478,74.020594
4102.123914,-3775.050304,-7890.783629,-222.061783
4102.124238,-3552.988522,-7737.564530,0.000000
4102.124562,-3108.864956,-8120.612279,666.185348
4102.124886,-2294.638420,-7354.516781,148.041188
4102.125210,-1258.350101,-7660.954980,592.164754
4102.125534,-888.247130,-7507.735880,666.185348
4102.125859,-888.247130,-8044.002729,666.185348
4102.126183,-962.267725,-8503.660028,740.205942
4102.126507,-740.205942,-8273.831378,888.247130
4102.126831,-740.205942,-8580.269578,740.205942
4102.127155,-1184.329507,-8273.831378,666.185348
4102.127479,-1110.308913,-8503.660028,1258.350101
4102.127803,-1036.288319,-8044.002729,444.123565
4102.128127,-1184.329507,-8197.221829,666.185348
4102.128451,-962.267725,-8120.612279,222.061783
4102.128776,-1036.288319,-8273.831378,962.267725
4102.129100,-1332.370696,-8044.002729,296.082377
4102.129424,-1480.411884,-7890.783629,74.020594
4102.129749,-1110.308913,-8427.050478,0.000000
4102.130073,-1332.370696,-8580.269578,0.000000
4102.130398,-1628.453072,-9116.536426,0.000000
4102.130722,-1628.453072,-8963.317327,0.000000
4102.131047,-1036.288319,-8963.317327,-74.020594
4102.131371,-1110.308913,-8427.050478,-518.144159
4102.131696,-1184.329507,-8427.050478,0.000000
4102.132020,-740.205942,-8044.002729,-518.144159
4102.132345,-666.185348,-8120.612279,-962.267725
4102.132669,-888.247130,-8044.002729,-962.267725
4102.132994,-666.185348,-7890.783629,-740.205942
4102.133318,-740.205942,-7890.783629,-1554.432478
4102.133643,0.000000,-8580.269578,-1184.329507
4102.133967,148.041188,-8503.660028,-1406.391290
4102.134292,518.144159,-9039.926876,-1332.370696
4102.134616,814.226536,-9422.974625,-1406.391290
4102.134941,1036.288319,-9422.974625,-1554.432478
4102.135265,370.102971,-9116.536426,-2072.576638
4102.135590,592.164754,-9652.803275,-1628.453072
4102.135914,-666.185348,-9116.536426,-1110.308913
4102.136239,-814.226536,-9806.022374,-1480.411884
4102.136563,-1036.288319,-9576.193725,-1702.473667
4102.136888,-592.164754,-9269.755526,-1332.370696
4102.137212,-814.226536,-9346.365076,-1110.308913
4102.137537,-592.164754,-9193.145976,-1332.370696
4102.137861,0.000000,-9193.145976,-1406.391290
4102.138186,-148.041188,-9652.803275,-1036.288319
4102.138510,-444.123565,-9422.974625,-1702.473667
4102.138835,-962.267725,-10035.851024,-592.164754
4102.139159,-2664.741391,-9499.584175,-740.205942
4102.139484,-3108.864956,-9729.412825,-814.226536
4102.139808,-4145.153275,-9346.365076,-962.267725
4102.140133,-4737.318029,-9116.536426,-592.164754
4102.140457,-5477.523971,-8810.098227,-592.164754
4102.140782,-5995.668130,-8886.707777,-222.061783
4102.141106,-5329.482782,-8503.660028,-370.102971
4102.141431,-5329.482782,-8427.050478,-444.123565
4102.141755,-3552.988522,-8044.002729,0.000000
4102.142080,-3182.885551,-8273.831378,0.000000
4102.142404,-2368.659014,-7737.564530,-296.082377
4102.142729,-2220.617826,-9039.926876,1480.411884
4102.143053,-592.164754,-8427.050478,-296.082377
4102.143378,-666.185348,-8656.879127,1480.411884
4102.143702,-296.082377,-8197.221829,666.185348
4102.144027,-1036.288319,-8656.879127,444.123565
4102.144351,-962.267725,-7890.783629,1110.308913
4102.144676,-1184.329507,-8503.660028,962.267725
4102.145000,0.000000,-7814.174080,666.185348
4102.145325,-888.247130,-7890.783629,222.061783
4102.145649,-1628.453072,-8350.440928,814.226536
4102.145974,-1924.535449,-7431.126331,740.205942
4102.146298,-2072.576638,-8197.221829,1258.350101
4102.146623,-2294.638420,-8197.221829,518.144159
4102.146947,-1850.514855,-7967.393179,888.247130
4102.147272,-1110.308913,-8197.221829,1036.288319
4102.147596,-740.205942,-8350.440928,814.226536
4102.147921,74.020594,-8273.831378,888.247130
4102.148245,222.061783,-8120.612279,296.082377
4102.148570,518.144159,-8427.050478,666.185348
4102.148894,814.226536,-7354.516781,148.041188
4102.149219,444.123565,-8350.440928,592.164754
4102.149543,814.226536,-7890.783629,370.102971
4102.149868,444.123565,-8350.440928,0.000000
4102.150192,74.020594,-8733.488677,-148.041188
4102.150517,962.267725,-8503.660028,-296.082377
4102.150841,1258.350101,-8656.879127,-888.247130
4102.151166,888.247130,-9116.536426,-592.164754
4102.151490,1110.308913,-8733.488677,-888.247130
4102.151815,518.144159,-8810.098227,-1258.350101
4102.152139,0.000000,-8733.488677,-1184.329507
4102.152464,74.020594,-8197.221829,-1850.514855
4102.152788,148.041188,-7890.783629,-1258.350101
4102.153113,1702.473667,-8197.221829,-1702.473667
4102.153437,2368.659014,-8427.050478,-1258.350101
4102.153762,5921.647536,-8350.440928,-1258.350101
4102.154086,4885.359217,-8733.488677,-1184.329507
4102.154411,6143.709319,-8273.831378,-2368.659014
4102.154735,5255.462188,-9193.145976,-1036.288319
4102.155060,6365.771101,-8810.098227,-2368.659014
4102.155384,3923.091493,-9499.584175,-1702.473667
4102.155709,3478.967927,-9499.584175,-2738.761985
4102.156033,1332.370696,-10112.460574,-2146.597232
4102.156358,-370.102971,-9806.022374,-2516.700203
4102.156682,-2294.638420,-9806.022374,-1924.535449
4102.157007,-2516.700203,-8656.879127,-2738.761985
4102.157331,-2442.679609,-9499.584175,-1110.308913
4102.157656,-888.247130,-8733.488677,-1998.556043
4102.157980,740.205942,-9193.145976,-1480.411884
4102.158305,1332.370696,-9116.536426,-962.267725
4102.158629,1998.556043,-9116.536426,-888.247130
4102.158954,2220.617826,-9039.926876,-814.226536
4102.159278,2294.638420,-9499.584175,-370.102971
4102.159603,1258.350101,-8427.050478,518.144159
4102.159927,2812.782580,-9039.926876,0.000000
4102.160252,444.123565,-9499.584175,370.102971
4102.160576,888.247130,-8886.707777,-296.082377
4102.160901,444.123565,-7890.783629,0.000000
4102.161225,-222.061783,-8273.831378,518.144159
4102.161550,0.000000,-8273.831378,-222.061783
4102.161874,-1406.391290,-8197.221829,0.000000
4102.162199,-1850.514855,-8886.707777,-370.102971
4102.162523,-2072.576638,-8580.269578,-444.123565
4102.162848,-3256.906145,-8580.269578,518.144159
4102.163172,-3182.885551,-9193.145976,0.000000
4102.163497,-2960.823768,-8733.488677,518.144159
4102.163821,-2738.761985,-7967.393179,1110.308913
4102.164146,-1776.494261,-8197.221829,1406.391290
4102.164470,-814.226536,-7354.516781,1406.391290
4102.164795,962.267725,-7354.516781,1110.308913
4102.165119,1406.391290,-7048.078582,1258.350101
4102.165444,1406.391290,-7354.516781,1480.411884
4102.165768,1702.473667,-7814.174080,1702.473667
4102.166093,1776.494261,-7584.345430,1332.370696
4102.166417,592.164754,-7814.174080,1184.329507
4102.166742,-222.061783,-8656.879127,1258.350101
4102.167066,-1850.514855,-8427.050478,592.164754
4102.167391,-2516.700203,-9346.365076,888.247130
4102.167715,-3404.947333,-8810.098227,0.000000
4102.168040,-3108.864956,-8733.488677,666.185348
4102.168364,-2368.659014,-8810.098227,74.020594
4102.168689,-1332.370696,-8273.831378,0.000000
4102.169013,-740.205942,-7660.954980,0.000000
4102.169338,814.226536,-7890.783629,0.000000
4102.169662,1258.350101,-7507.735880,148.041188
4102.169987,1184.329507,-7507.735880,0.000000
4102.170311,2590.720797,-8350.440928,740.205942
4102.170636,2072.576638,-7584.345430,370.102971
4102.170960,3034.844362,-8503.660028,444.123565
4102.171285,2960.823768,-9346.365076,-370.102971
4102.171609,2516.700203,-9039.926876,-148.041188
4102.171934,2294.638420,-8733.488677,-444.123565
4102.172258,2368.659014,-9116.536426,-962.267725
4102.172583,1406.391290,-9193.145976,-1480.411884
4102.172907,1332.370696,-8886.707777,-1554.432478
4102.173232,0.000000,-8503.660028,-2294.638420
4102.173556,-296.082377,-9422.974625,-1554.432478
4102.173881,-666.185348,-8886.707777,-2220.617826
4102.174205,370.102971,-9499.584175,-1554.432478
4102.174530,-518.144159,-8963.317327,-2368.659014
4102.174854,1628.453072,-9116.536426,-1776.494261
4102.175179,2220.617826,-8810.098227,-1924.535449
4102.175503,3182.885551,-10265.679673,-1702.473667
4102.175828,3552.988522,-9039.926876,-1332.370696
4102.176152,3701.029710,-9269.755526,-1184.329507
4102.176477,3552.988522,-9116.536426,-1406.391290
4102.176801,3330.926739,-8886.707777,-1554.432478
4102.177126,3256.906145,-8963.317327,-1184.329507
4102.177450,2146.597232,-9039.926876,-1258.350101
4102.177775,1406.391290,-9576.193725,-1554.432478
4102.178099,0.000000,-9652.803275,-1628.453072
4102.178424,0.000000,-9499.584175,-1554.432478
4102.178748,-962.267725,-9499.584175,-1628.453072
4102.179073,-1036.288319,-9576.193725,-1480.411884
4102.179397,-740.205942,-9193.145976,-1406.391290
4102.179722,-444.123565,-8963.317327,-962.267725
4102.180046,74.020594,-9116.536426,-592.164754
4102.180371,518.144159,-8963.317327,-444.123565
4102.180695,592.164754,-8963.317327,0.000000
4102.181020,1110.308913,-8044.002729,148.041188
4102.181344,962.267725,-8273.831378,370.102971
4102.181669,1480.411884,-7431.126331,222.061783
4102.181993,814.226536,-7967.393179,370.102971
4102.182318,1702.473667,-8197.221829,518.144159
4102.182642,666.185348,-7584.345430,888.247130
4102.182967,296.082377,-8350.440928,74.020594
4102.183291,-592.164754,-8350.440928,0.000000
4102.183616,-1702.473667,-8350.440928,740.205942
4102.183940,-2738.761985,-8810.098227,-148.041188
4102.184265,-2886.803174,-8427.050478,666.185348
4102.184589,-3552.988522,-8120.612279,518.144159
4102.184914,-3478.967927,-8733.488677,888.247130
4102.185238,-3182.885551,-7354.516781,222.061783
4102.185563,-1036.288319,-8350.440928,888.247130
4102.185887,0.000000,-7431.126331,518.144159
4102.186212,1406.391290,-7431.126331,962.267725
4102.186536,1850.514855,-7660.954980,1184.329507
4102.186861,1924.535449,-7124.688131,1036.288319
4102.187185,2368.659014,-8427.050478,1554.432478
4102.187510,2072.576638,-8120.612279,518.144159
4102.187834,2072.576638,-8427.050478,1184.329507
4102.188159,666.185348,-8886.707777,222.061783
4102.188483,0.000000,-9269.755526,666.185348
4102.188808,-1628.453072,-8350.440928,74.020594
4102.189132,-1628.453072,-8963.317327,148.041188
4102.189457,-1850.514855,-8273.831378,-370.102971
4102.189781,-1110.308913,-8656.879127,-370.102971
4102.190106,0.000000,-8503.660028,-296.082377
4102.190430,444.123565,-8733.488677,-370.102971
4102.190755,1184.329507,-9346.365076,-296.082377
4102.191079,1110.308913,-8503.660028,-518.144159
4102.191404,1406.391290,-8733.488677,-222.061783
4102.191728,888.247130,-8886.707777,-444.123565
4102.192053,1184.329507,-9576.193725,0.000000
4102.192377,1332.370696,-8656.879127,-666.185348
4102.192702,1998.556043,-9116.536426,-518.144159
4102.193026,2738.761985,-7967.393179,-740.205942
4102.193351,2664.741391,-8350.440928,-1036.288319
4102.193675,3627.009116,-8503.660028,-1184.329507
4102.194000,2664.741391,-8044.002729,-1850.514855
4102.194324,1554.432478,-8963.317327,-1850.514855
4102.194649,592.164754,-8656.879127,-2220.617826
4102.194973,-518.144159,-9576.193725,-1702.473667
4102.195298,-1554.432478,-9422.974625,-1924.535449
4102.195622,-1332.370696,-9499.584175,-1924.535449
4102.195947,-1184.329507,-9422.974625,-1998.556043
4102.196271,-222.061783,-9499.584175,-1332.370696
4102.196596,1480.411884,-8810.098227,-1554.432478
4102.196920,3330.926739,-8427.050478,-1702.473667
4102.197245,3775.050304,-8580.269578,-814.226536
4102.197569,4811.338623,-8580.269578,-1332.370696
4102.197894,4959.379811,-8886.707777,-814.226536
4102.198218,3849.070898,-8120.612279,-962.267725
4102.198543,3256.906145,-8963.317327,-740.205942
4102.198867,1258.350101,-9116.536426,-1184.329507
4102.199192,0.000000,-9882.631924,-666.185348
4102.199516,-1184.329507,-9729.412825,-962.267725
4102.199841,-1702.473667,-9499.584175,-888.247130
4102.200165,-1850.514855,-9116.536426,-1036.288319
4102.200490,-1554.432478,-8580.269578,-962.267725
4102.200814,-1110.308913,-8656.879127,-740.205942
4102.201139,222.061783,-8656.879127,-666.185348
4102.201463,592.164754,-8580.269578,-222.061783
4102.201788,1110.308913,-8044.002729,0.000000
4102.202112,888.247130,-8273.831378,148.041188
4102.202437,518.144159,-8350.440928,666.185348
4102.202761,0.000000,-8120.612279,814.226536
4102.203086,74.020594,-8197.221829,370.102971
4102.203410,0.000000,-8273.831378,888.247130
4102.203735,0.000000,-8656.879127,740.205942
4102.204059,-592.164754,-7967.393179,518.144159
4102.204384,-518.144159,-7967.393179,296.082377
4102.204708,-592.164754,-8273.831378,222.061783
4102.205033,-1184.329507,-8197.221829,74.020594
4102.205357,-1702.473667,-8273.831378,148.041188
4102.205682,-2960.823768,-8503.660028,296.082377
4102.206006,-3182.885551,-7967.393179,518.144159
4102.206331,-2368.659014,-8503.660028,666.185348
4102.206655,-1554.432478,-8810.098227,962.267725
4102.206980,-148.041188,-8120.612279,740.205942
4102.207304,296.082377,-7967.393179,740.205942
4102.207629,1850.514855,-8044.002729,666.185348
4102.207953,1776.494261,-8273.831378,444.123565
4102.208278,2220.617826,-8350.440928,814.226536
4102.208602,2590.720797,-7890.783629,666.185348
4102.208927,1998.556043,-8044.002729,666.185348
4102.209251,814.226536,-7967.393179,518.144159
4102.209576,74.020594,-8886.707777,592.164754
4102.209900,-740.205942,-8580.269578,0.000000
4102.210225,-1406.391290,-9422.974625,-296.082377
4102.210549,-2072.576638,-8886.707777,-666.185348
4102.210874,-2220.617826,-9193.145976,0.000000
4102.211198,-1480.411884,-8580.269578,-1036.288319
4102.211523,-888.247130,-8656.879127,-444.123565
4102.211847,518.144159,-8810.098227,-740.205942
4102.212172,814.226536,-8503.660028,-370.102971
4102.212496,1702.473667,-8733.488677,-592.164754
4102.212821,1406.391290,-8197.221829,-592.164754
4102.213145,2368.659014,-8656.879127,-296.082377
4102.213470,1850.514855,-8580.269578,-296.082377
4102.213794,2738.761985,-8733.488677,-666.185348
4102.214119,1924.535449,-8350.440928,-740.205942
4102.214443,2442.679609,-8427.050478,-666.185348
4102.214768,1998.556043,-8810.098227,-1554.432478
4102.215092,2738.761985,-8810.098227,-1110.308913
4102.215417,1628.453072,-8733.488677,-1480.411884
4102.215741,518.144159,-8350.440928,-1776.494261
4102.216066,-740.205942,-8963.317327,-1628.453072
4102.216390,-740.205942,-8886.707777,-1332.370696
4102.216715,-1554.432478,-9039.926876,-1776.494261
4102.217039,-814.226536,-9422.974625,-1406.391290
4102.217364,-370.102971,-8886.707777,-1258.350101
4102.217688,222.061783,-8810.098227,-1480.411884
4102.218013,1332.370696,-8350.440928,-1036.288319
4102.218337,2072.576638,-8197.221829,-1332.370696
4102.218662,3552.988522,-8580.269578,-1110.308913
4102.218986,3627.009116,-8197.221829,-1332.370696
4102.219311,3404.947333,-8733.488677,-518.144159
4102.219635,3478.967927,-8503.660028,-592.164754
4102.219960,2368.659014,-8886.707777,-666.185348
4102.220284,1258.350101,-9116.536426,-296.082377
4102.220609,0.000000,-8810.098227,-888.247130
4102.220933,-740.205942,-9422.974625,-888.247130
4102.221258,-1554.432478,-8810.098227,-666.185348
4102.221582,-1776.494261,-9116.536426,-888.247130
4102.221907,-1554.432478,-8503.660028,-518.144159
4102.222231,-1036.288319,-8044.002729,-222.061783
4102.222556,222.061783,-8350.440928,-296.082377
4102.222880,-148.041188,-8427.050478,-148.041188
4102.223205,518.144159,-8580.269578,-222.061783
4102.223529,888.247130,-8810.098227,888.247130
4102.223854,222.061783,-8656.879127,666.185348
4102.224178,666.185348,-8810.098227,666.185348
4102.224503,148.041188,-8044.002729,740.205942
4102.224827,740.205942,-8580.269578,740.205942
4102.225152,2368.659014,-7584.345430,888.247130
4102.225476,296.082377,-8197.221829,0.000000
4102.225801,814.226536,-8427.050478,296.082377
4102.226125,-962.267725,-7967.393179,814.226536
4102.226450,-1332.370696,-7354.516781,518.144159
4102.226774,-2738.761985,-8197.221829,518.144159
4102.227099,-2368.659014,-8120.612279,0.000000
4102.227423,-2886.803174,-8580.269578,518.144159
4102.227748,-2368.659014,-8273.831378,148.041188
4102.228072,-1702.473667,-8886.707777,592.164754
4102.228397,-592.164754,-8273.831378,222.061783
4102.228721,444.123565,-8044.002729,370.102971
4102.229046,2072.576638,-8273.831378,74.020594
4102.229370,1702.473667,-7737.564530,518.144159
4102.229695,2072.576638,-8273.831378,148.041188
4102.230019,2442.679609,-8273.831378,0.000000
4102.230344,1628.453072,-8350.440928,592.164754
4102.230668,1184.329507,-8656.879127,222.061783
4102.230993,962.267725,-8963.317327,0.000000
4102.231317,-592.164754,-8656.879127,-518.144159
4102.231642,-666.185348,-8810.098227,-296.082377
4102.231966,-1332.370696,-8427.050478,-814.226536
4102.232291,-1184.329507,-9193.145976,-888.247130
4102.232615,0.000000,-8503.660028,-1110.308913
4102.232939,592.164754,-9039.926876,-888.247130
4102.233264,148.041188,-8963.317327,-888.247130
4102.233588,518.144159,-8886.707777,-666.185348
4102.233913,1036.288319,-8580.269578,-518.144159
4102.234237,1036.288319,-8656.879127,-888.247130
4102.234562,1036.288319,-8733.488677,-370.102971
4102.234886,814.226536,-9576.193725,0.000000
4102.235211,1036.288319,-8580.269578,-518.144159
4102.235535,1110.308913,-8427.050478,-444.123565
4102.235860,1850.514855,-8580.269578,-1110.308913
4102.236184,1924.535449,-8810.098227,-1184.329507
4102.236509,2294.638420,-8886.707777,-1184.329507
4102.236833,1258.350101,-8810.098227,-1702.473667
4102.237158,518.144159,-9193.145976,-1850.514855
4102.237482,-518.144159,-8886.707777,-1998.556043
4102.237807,-518.144159,-8503.660028,-666.185348
4102.238131,-1184.329507,-8810.098227,-1258.350101
4102.238455,-814.226536,-9116.536426,-740.205942
4102.238780,-370.102971,-8733.488677,-1110.308913
4102.239104,222.061783,-8886.707777,-1110.308913
4102.239429,1628.453072,-8656.879127,-1258.350101
4102.239753,3108.864956,-8273.831378,-666.185348
4102.240078,3478.967927,-8120.612279,-814.226536
4102.240402,3627.009116,-8580.269578,-592.164754
4102.240727,3552.988522,-8427.050478,-814.226536
4102.241051,2738.761985,-8580.269578,-444.123565
4102.241376,1628.453072,-9039.926876,-518.144159
4102.241700,0.000000,-8963.317327,-296.082377
4102.242025,-1184.329507,-9576.193725,-296.082377
4102.242349,-1998.556043,-8886.707777,-888.247130
4102.242674,-2664.741391,-8810.098227,-888.247130
4102.242998,-2368.659014,-8810.098227,-814.226536
4102.243322,-1702.473667,-8580.269578,-370.102971
4102.243647,-1110.308913,-8656.879127,-592.164754
4102.243971,-518.144159,-8350.440928,0.000000
4102.244296,222.061783,-8044.002729,296.082377
4102.244620,1480.411884,-7967.393179,222.061783
4102.244945,740.205942,-8197.221829,740.205942
4102.245269,962.267725,-8503.660028,962.267725
4102.245594,592.164754,-8580.269578,1110.308913
4102.245918,444.123565,-8503.660028,740.205942
4102.246243,592.164754,-8427.050478,1110.308913
4102.246567,740.205942,-8120.612279,888.247130
4102.246892,888.247130,-8197.221829,740.205942
4102.247216,74.020594,-8044.002729,0.000000
4102.247541,148.041188,-8733.488677,518.144159
4102.247865,-1480.411884,-7737.564530,-370.102971
4102.248189,-2220.617826,-8427.050478,518.144159
4102.248514,-2220.617826,-8350.440928,592.164754
4102.248838,-2960.823768,-8580.269578,444.123565
4102.249163,-2812.782580,-7890.783629,370.102971
4102.249487,-1702.473667,-8810.098227,296.082377
4102.249812,-592.164754,-8350.440928,0.000000
4102.250136,518.144159,-8197.221829,444.123565
4102.250461,1776.494261,-7507.735880,592.164754
4102.250785,2220.617826,-8503.660028,370.102971
4102.251110,3034.844362,-7584.345430,74.020594
4102.251434,3701.029710,-8810.098227,740.205942
4102.251759,2960.823768,-8120.612279,-296.082377
4102.252083,1998.556043,-8810.098227,148.041188
4102.252408,962.267725,-8580.269578,-296.082377
4102.252732,-666.185348,-8886.707777,74.020594
4102.253057,-1110.308913,-8810.098227,-444.123565
4102.253381,-2442.679609,-7814.174080,-222.061783
4102.253705,-740.205942,-9422.974625,-296.082377
4102.254030,-666.185348,-8580.269578,-814.226536
4102.254354,1702.473667,-9652.803275,-1184.329507
4102.254679,1480.411884,-9039.926876,-888.247130
4102.255003,1850.514855,-8886.707777,-888.247130
4102.255328,518.144159,-8427.050478,-1110.308913
4102.255652,1406.391290,-9422.974625,-370.102971
4102.255977,1406.391290,-8580.269578,-592.164754
4102.256301,1554.432478,-8810.098227,0.000000
4102.256626,1554.432478,-8427.050478,-962.267725
4102.256950,2072.576638,-8503.660028,-666.185348
4102.257275,1258.350101,-8197.221829,-962.267725
4102.257599,2220.617826,-9039.926876,-888.247130
4102.257924,1036.288319,-8503.660028,-1776.494261
4102.258248,814.226536,-8886.707777,-1332.370696
4102.258572,0.000000,-8350.440928,-1480.411884
4102.258897,-222.061783,-9039.926876,-666.185348
4102.259221,-888.247130,-8886.707777,-1628.453072
4102.259546,-592.164754,-9576.193725,-888.247130
4102.259870,-1406.391290,-9039.926876,-1184.329507
4102.260195,296.082377,-9193.145976,-888.247130
4102.260519,296.082377,-8963.317327,-1406.391290
4102.260844,1702.473667,-8733.488677,-740.205942
4102.261168,2220.617826,-8427.050478,-888.247130
4102.261493,2886.803174,-8886.707777,-740.205942
4102.261817,3478.967927,-8273.831378,-518.144159
4102.262142,2738.761985,-8503.660028,-222.061783
4102.262466,2294.638420,-8427.050478,-222.061783
4102.262791,1850.514855,-8580.269578,-296.082377
4102.263115,962.267725,-9039.926876,0.000000
4102.263439,-296.082377,-8733.488677,-592.164754
4102.263764,-444.123565,-9499.584175,-444.123565
4102.264088,-1406.391290,-8886.707777,-444.123565
4102.264413,-1702.473667,-9039.926876,0.000000
4102.264737,-1110.308913,-8733.488677,-740.205942
4102.265062,-370.102971,-8656.879127,296.082377
4102.265386,-370.102971,-7814.174080,-444.123565
4102.265711,-518.144159,-8427.050478,-296.082377
4102.266035,370.102971,-7814.174080,1110.308913
4102.266360,-444.123565,-7584.345430,222.061783
4102.266684,666.185348,-9039.926876,1702.473667
4102.267009,444.123565,-7124.688131,296.082377
4102.267333,1036.288319,-8963.317327,1184.329507
4102.267658,1924.535449,-7890.783629,962.267725
4102.267982,1998.556043,-7737.564530,222.061783
4102.268307,1850.514855,-8733.488677,444.123565
4102.268631,888.247130,-8197.221829,0.000000
4102.268955,814.226536,-8810.098227,148.041188
4102.269280,-962.267725,-8120.612279,0.000000
4102.269604,-2146.597232,-8886.707777,666.185348
4102.269929,-2738.761985,-8197.221829,148.041188
4102.270253,-2294.638420,-8810.098227,296.082377
4102.270578,-2294.638420,-8503.660028,148.041188
4102.270902,-814.226536,-8733.488677,74.020594
4102.271227,0.000000,-7814.174080,-222.061783
4102.271551,1480.411884,-8273.831378,74.020594
4102.271876,2442.679609,-8044.002729,0.000000
4102.272200,3330.926739,-8273.831378,296.082377
4102.272525,3775.050304,-8810.098227,222.061783
4102.272849,2664.741391,-8810.098227,0.000000
4102.273174,2738.761985,-9729.412825,74.020594
4102.273498,1480.411884,-8886.707777,-444.123565
4102.273822,296.082377,-9499.584175,0.000000
4102.274147,-814.226536,-8733.488677,-666.185348
4102.274471,-814.226536,-9499.584175,-222.061783
4102.274796,-1554.432478,-8350.440928,-888.247130
4102.275120,-1332.370696,-9116.536426,-370.102971
4102.275445,-222.061783,-8503.660028,-1258.350101
4102.275769,592.164754,-8963.317327,-740.205942
4102.276094,1480.411884,-8733.488677,-962.267725
4102.276418,2220.617826,-8810.098227,-1036.288319
4102.276743,1554.432478,-8580.269578,-962.267725
4102.277067,1776.494261,-8810.098227,-444.123565
4102.277392,1110.308913,-8810.098227,-296.082377
4102.277716,444.123565,-8963.317327,-518.144159
4102.278041,962.267725,-8886.707777,-444.123565
4102.278365,1036.288319,-8350.440928,-370.102971
4102.278689,1258.350101,-8580.269578,-1258.350101
4102.279014,1406.391290,-8886.707777,-814.226536
4102.279338,1258.350101,-8273.831378,-1184.329507
4102.279663,666.185348,-8733.488677,-1332.370696
4102.279987,-222.061783,-8503.660028,-1480.411884
4102.280312,-148.041188,-9193.145976,-962.267725
4102.280636,-1702.473667,-8350.440928,-1258.350101
4102.280961,-888.247130,-9193.145976,-444.123565
4102.281285,-888.247130,-8810.098227,-666.185348
4102.281610,-592.164754,-8503.660028,-518.144159
4102.281934,222.061783,-8580.269578,-1110.308913
4102.282259,1554.432478,-8580.269578,-740.205942
4102.282583,2368.659014,-8273.831378,-296.082377
4102.282908,3478.967927,-8197.221829,-592.164754
4102.283232,2960.823768,-8580.269578,-222.061783
4102.283557,2738.761985,-8120.612279,-518.144159
4102.283881,2368.659014,-8580.269578,-222.061783
4102.284205,1184.329507,-8656.879127,-666.185348
4102.284530,444.123565,-8963.317327,-370.102971
4102.284854,-888.247130,-9116.536426,-666.185348
4102.285179,-2072.576638,-8886.707777,-370.102971
4102.285503,-2516.700203,-8963.317327,-518.144159
4102.285828,-2368.659014,-8427.050478,0.000000
4102.286152,-1258.350101,-8120.612279,-592.164754
4102.286477,-592.164754,-8733.488677,-296.082377
4102.286801,518.144159,-8120.612279,-296.082377
4102.287126,962.267725,-8044.002729,0.000000
4102.287450,1406.391290,-7890.783629,74.020594
4102.287775,1702.473667,-8120.612279,370.102971
4102.288099,1776.494261,-8273.831378,666.185348
4102.288424,1628.453072,-8733.488677,444.123565
4102.288748,1628.453072,-9039.926876,74.020594
4102.289072,888.247130,-8733.488677,740.205942
4102.289397,444.123565,-8197.221829,0.000000
4102.289721,370.102971,-8503.660028,0.000000
4102.290046,-444.123565,-8273.831378,-222.061783
4102.290370,-740.205942,-8886.707777,0.000000
4102.290695,-1406.391290,-8427.050478,-962.267725
4102.291019,-1850.514855,-9346.365076,-222.061783
4102.291344,-2368.659014,-8197.221829,-296.082377
4102.291668,-1850.514855,-8733.488677,-74.020594
4102.291993,-1702.473667,-8503.660028,0.000000
4102.292317,74.020594,-8656.879127,-148.041188
4102.292642,296.082377,-8197.221829,0.000000
4102.292966,2220.617826,-8656.879127,296.082377
4102.293291,2590.720797,-7967.393179,-518.144159
4102.293615,3404.947333,-8580.269578,0.000000
4102.293939,2960.823768,-8273.831378,-148.041188
4102.294264,2960.823768,-9116.536426,74.020594
4102.294588,1480.411884,-8503.660028,-518.144159
4102.294913,1258.350101,-9346.365076,-370.102971
4102.295237,370.102971,-9116.536426,-740.205942
4102.295562,-740.205942,-8963.317327,-592.164754
4102.295886,-814.226536,-9499.584175,-444.123565
4102.296211,-1702.473667,-8733.488677,-1258.350101
4102.296535,-962.267725,-9039.926876,-888.247130
4102.296860,-740.205942,-8656.879127,-1036.288319
4102.297184,0.000000,-9806.022374,-518.144159
4102.297509,518.144159,-8810.098227,-962.267725
4102.297833,1110.308913,-9039.926876,-592.164754
4102.298158,1110.308913,-8580.269578,-888.247130
4102.298482,1036.288319,-8810.098227,-296.082377
4102.298807,1480.411884,-8963.317327,-148.041188
4102.299131,1258.350101,-8580.269578,-370.102971
4102.299455,1480.411884,-8503.660028,-296.082377
4102.299780,1480.411884,-8273.831378,-592.164754
4102.300104,1184.329507,-8427.050478,-296.082377
4102.300429,1702.473667,-8733.488677,-1258.350101
4102.300753,888.247130,-8656.879127,-888.247130
4102.301078,0.000000,-8733.488677,-888.247130
4102.301402,-962.267725,-9039.926876,-888.247130
4102.301727,-1776.494261,-8580.269578,-666.185348
4102.302051,-1924.535449,-8886.707777,-1110.308913
4102.302376,-1406.391290,-9039.926876,-592.164754
4102.302700,-1480.411884,-8503.660028,-888.247130
4102.303025,-592.164754,-8810.098227,-518.144159
4102.303349,148.041188,-8120.612279,-296.082377
4102.303674,2146.597232,-8120.612279,-222.061783
4102.303998,2146.597232,-8044.002729,-296.082377
4102.304322,2738.761985,-7967.393179,74.020594
4102.304647,2812.782580,-8197.221829,-370.102971
4102.304971,2590.720797,-8580.269578,-370.102971
4102.305296,2294.638420,-8656.879127,0.000000
4102.305620,962.267725,-8656.879127,0.000000
4102.305945,74.020594,-8886.707777,222.061783
4102.306269,-1480.411884,-9193.145976,-296.082377
4102.306594,-1554.432478,-9116.536426,-370.102971
4102.306918,-1850.514855,-8197.221829,-296.082377
4102.307243,-1628.453072,-8197.221829,-444.123565
4102.307567,-888.247130,-8733.488677,-222.061783
4102.307892,222.061783,-8503.660028,0.000000
4102.308216,74.020594,-8656.879127,-370.102971
4102.308541,592.164754,-7967.393179,-444.123565
4102.308865,444.123565,-8044.002729,0.000000
4102.309189,888.247130,-8656.879127,518.144159
4102.309514,296.082377,-8120.612279,666.185348
4102.309838,814.226536,-8580.269578,370.102971
4102.310163,0.000000,-8197.221829,296.082377
4102.310487,1184.329507,-8580.269578,444.123565
4102.310812,814.226536,-8350.440928,-222.061783
4102.311136,1184.329507,-8733.488677,74.020594
4102.311461,444.123565,-8427.050478,0.000000
4102.311785,-296.082377,-8350.440928,-666.185348
4102.312110,-1480.411884,-8273.831378,-666.185348
4102.312434,-1998.556043,-8503.660028,-740.205942
4102.312759,-1924.535449,-8886.707777,-296.082377
4102.313083,-1998.556043,-8350.440928,-222.061783
4102.313408,-1628.453072,-8810.098227,-296.082377
4102.313732,-1110.308913,-8044.002729,-296.082377
4102.314057,296.082377,-8580.269578,-222.061783
4102.314381,1554.432478,-8427.050478,-148.041188
4102.314705,2960.823768,-8427.050478,-370.102971
4102.315030,3997.112087,-8810.098227,-370.102971
4102.315354,4441.235652,-8197.221829,-814.226536
4102.315679,3923.091493,-8886.707777,0.000000
4102.316003,2590.720797,-8503.660028,-814.226536
4102.316328,1776.494261,-9193.145976,-518.144159
4102.316652,296.082377,-9116.536426,-962.267725
4102.316977,-1258.350101,-10265.679673,-1184.329507
4102.317301,-1702.473667,-9116.536426,-962.267725
4102.317626,-1776.494261,-9193.145976,-1110.308913
4102.317950,-1628.453072,-9193.145976,-814.226536
4102.318275,-888.247130,-9422.974625,-666.185348
4102.318599,370.102971,-8963.317327,-740.205942
4102.318924,1258.350101,-8656.879127,-740.205942
4102.319248,1924.535449,-8503.660028,-1110.308913
4102.319572,2812.782580,-8886.707777,-296.082377
4102.319897,2590.720797,-8656.879127,740.205942
4102.320221,1480.411884,-8580.269578,-370.102971
4102.320546,1184.329507,-9116.536426,0.000000
4102.320870,222.061783,-8350.440928,74.020594
4102.321195,444.123565,-9116.536426,-814.226536
4102.321519,666.185348,-8656.879127,-296.082377
4102.321844,296.082377,-8810.098227,-666.185348
4102.322168,0.000000,-9116.536426,-1036.288319
4102.322493,-962.267725,-8350.440928,-1332.370696
4102.322817,-592.164754,-9193.145976,-740.205942
4102.323142,-1554.432478,-7967.393179,-1480.411884
4102.323466,-1332.370696,-8580.269578,-148.041188
4102.323791,-1480.411884,-8503.660028,-592.164754
4102.324115,-518.144159,-9269.755526,-222.061783
4102.324439,0.000000,-8273.831378,-666.185348
4102.324764,814.226536,-8427.050478,-222.061783
4102.325088,1332.370696,-7890.783629,-222.061783
4102.325413,2516.700203,-8580.269578,74.020594
4102.325737,3256.906145,-8120.612279,222.061783
4102.326062,3478.967927,-8120.612279,296.082377
4102.326386,3182.885551,-8656.879127,444.123565
4102.326711,2590.720797,-8120.612279,-222.061783
4102.327035,1776.494261,-8810.098227,0.000000
4102.327360,-296.082377,-8733.488677,-592.164754
4102.327684,-1480.411884,-9269.755526,296.082377
4102.328009,-2146.597232,-8273.831378,-370.102971
4102.328333,-1998.556043,-9422.974625,0.000000
4102.328658,-1850.514855,-8197.221829,-740.205942
4102.328982,-1406.391290,-9346.365076,-370.102971
4102.329306,-1036.288319,-8427.050478,-222.061783
4102.329631,-518.144159,-8503.660028,0.000000
4102.329955,74.020594,-8580.269578,444.123565
4102.330280,962.267725,-7354.516781,444.123565
4102.330604,962.267725,-8273.831378,296.082377
4102.330928,444.123565,-8427.050478,814.226536
4102.331253,1406.391290,-8044.002729,222.061783
4102.331577,1628.453072,-8273.831378,222.061783
4102.331901,1480.411884,-8197.221829,370.102971
4102.332226,1184.329507,-8273.831378,0.000000
4102.332550,1258.350101,-8656.879127,0.000000
4102.332874,592.164754,-8656.879127,-518.144159
4102.333198,0.000000,-8580.269578,-666.185348
4102.333523,-2442.679609,-8810.098227,-962.267725
4102.333847,-2368.659014,-8656.879127,-518.144159
4102.334171,-3034.844362,-9039.926876,0.000000
4102.334495,-2516.700203,-7431.126331,-296.082377
4102.334820,222.061783,-8656.879127,0.000000
4102.335144,-666.185348,-8733.488677,-814.226536
4102.335468,1702.473667,-8427.050478,-148.041188
4102.335793,3108.864956,-7967.393179,-222.061783
4102.336117,2738.761985,-8580.269578,-888.247130
4102.336441,3627.009116,-8580.269578,-74.020594
4102.336765,3997.112087,-8733.488677,-296.082377
4102.337090,3330.926739,-9422.974625,-296.082377
4102.337414,1628.453072,-8810.098227,-592.164754
4102.337738,370.102971,-9039.926876,-666.185348
4102.338062,-814.226536,-9269.755526,-888.247130
4102.338387,-1554.432478,-9039.926876,-666.185348
4102.338711,-1110.308913,-9346.365076,-1258.350101
4102.339035,-1776.494261,-9039.926876,-1036.288319
4102.339360,-1110.308913,-8810.098227,-666.185348
4102.339684,0.000000,-9422.974625,-1406.391290
4102.340008,370.102971,-8656.879127,-1332.370696
4102.340332,814.226536,-8963.317327,-814.226536
4102.340657,1702.473667,-8656.879127,-592.164754
4102.340981,1184.329507,-9806.022374,-518.144159
4102.341305,1258.350101,-8810.098227,-148.041188
4102.341630,740.205942,-8810.098227,-222.061783
4102.341954,1406.391290,-8197.221829,0.000000
4102.342278,888.247130,-8810.098227,222.061783
4102.342602,1628.453072,-8656.879127,0.000000
4102.342927,2072.576638,-8656.879127,-370.102971
4102.343251,1332.370696,-8197.221829,-1036.288319
4102.343575,1110.308913,-8733.488677,-222.061783
4102.343899,0.000000,-8886.707777,-518.144159
4102.344224,-740.205942,-8810.098227,-370.102971
4102.344548,-1554.432478,-8427.050478,0.000000
4102.344872,-1406.391290,-8886.707777,-592.164754
4102.345197,-1702.473667,-8733.488677,-666.185348
4102.345521,-1110.308913,-8197.221829,-148.041188
4102.345845,-592.164754,-8733.488677,0.000000
4102.346169,444.123565,-7814.174080,0.000000
4102.346494,1702.473667,-8427.050478,370.102971
4102.346818,1776.494261,-7660.954980,0.000000
4102.347142,2738.761985,-8350.440928,296.082377
4102.347466,2812.782580,-7814.174080,0.000000
4102.347791,3478.967927,-8350.440928,518.144159
4102.348115,1480.411884,-7814.174080,-296.082377
4102.348439,592.164754,-8733.488677,0.000000
4102.348764,-518.144159,-8350.440928,-370.102971
4102.349088,-962.267725,-9193.145976,222.061783
4102.349412,-1998.556043,-8580.269578,-222.061783
4102.349736,-1332.370696,-8656.879127,74.020594
4102.350061,-888.247130,-8350.440928,-444.123565
4102.350385,-814.226536,-8427.050478,-370.102971
4102.350709,370.102971,-8503.660028,0.000000
4102.351033,814.226536,-6894.859482,148.041188
4102.351358,962.267725,-7890.783629,296.082377
4102.351682,1110.308913,-8350.440928,148.041188
4102.352006,666.185348,-8273.831378,518.144159
4102.352331,1036.288319,-9422.974625,592.164754
4102.352655,1110.308913,-8350.440928,222.061783
4102.352979,1776.494261,-8810.098227,296.082377
4102.353303,1628.453072,-8120.612279,-74.020594
4102.353628,1258.350101,-8810.098227,296.082377
4102.353952,962.267725,-8273.831378,-740.205942
4102.354276,592.164754,-9269.755526,-518.144159
4102.354601,-148.041188,-8427.050478,-962.267725
4102.354925,-1776.494261,-8656.879127,-666.185348
4102.355249,-2368.659014,-8580.269578,-666.185348
4102.355573,-2368.659014,-8886.707777,-444.123565
4102.355898,-2368.659014,-8503.660028,-962.267725
4102.356222,-1258.350101,-9116.536426,-444.123565
4102.356546,222.061783,-8503.660028,0.000000
4102.356870,1332.370696,-8580.269578,-518.144159
4102.357195,3552.988522,-8963.317327,0.000000
4102.357519,3404.947333,-7584.345430,-592.164754
4102.357843,4885.359217,-9499.584175,0.000000
4102.358168,2960.823768,-8580.269578,-666.185348
4102.358492,3182.885551,-9269.755526,-370.102971
4102.358816,2072.576638,-8427.050478,-592.164754
4102.359140,0.000000,-9039.926876,-888.247130
4102.359465,-888.247130,-9499.584175,-666.185348
4102.359789,-1628.453072,-8580.269578,-1110.308913
4102.360113,-1332.370696,-9729.412825,-222.061783
4102.360437,-1258.350101,-9116.536426,-740.205942
4102.360762,-666.185348,-8273.831378,-1184.329507
4102.361086,592.164754,-9193.145976,-814.226536
4102.361410,1406.391290,-8427.050478,-1184.329507
4102.361735,2072.576638,-8733.488677,-296.082377
4102.362059,1480.411884,-8350.440928,-592.164754
4102.362383,1702.473667,-8656.879127,0.000000
4102.362707,666.185348,-8350.440928,-370.102971
4102.363032,740.205942,-9039.926876,74.020594
4102.363356,222.061783,-8580.269578,0.000000
4102.363680,666.185348,-8120.612279,370.102971
4102.364004,1406.391290,-8120.612279,-592.164754
4102.364329,1480.411884,-8350.440928,-148.041188
4102.364653,962.267725,-8350.440928,-740.205942
4102.364977,296.082377,-8503.660028,-444.123565
4102.365302,-296.082377,-8580.269578,-518.144159
4102.365626,-1258.350101,-8733.488677,-518.144159
4102.365950,-2072.576638,-8120.612279,-592.164754
4102.366274,-1776.494261,-8350.440928,-592.164754
4102.366599,-1776.494261,-8733.488677,0.000000
4102.366923,-1184.329507,-8503.660028,-444.123565
4102.367247,-370.102971,-8580.269578,296.082377
4102.367571,888.247130,-8044.002729,148.041188
4102.367896,2368.659014,-8656.879127,0.000000
4102.368220,3627.009116,-8044.002729,-222.061783
4102.368544,3627.009116,-7967.393179,148.041188
4102.368869,3404.947333,-8580.269578,0.000000
4102.369193,2368.659014,-8656.879127,0.000000
4102.369517,1036.288319,-8427.050478,-222.061783
4102.369841,-370.102971,-8733.488677,-370.102971
4102.370166,-1702.473667,-9346.365076,-444.123565
4102.370490,-2368.659014,-9193.145976,-296.082377
4102.370814,-2072.576638,-8810.098227,-370.102971
4102.371139,-1480.411884,-8580.269578,-370.102971
4102.371463,-1110.308913,-8197.221829,-814.226536
4102.371787,148.041188,-9422.974625,-370.102971
4102.372111,814.226536,-7967.393179,-592.164754
4102.372436,1480.411884,-8886.707777,0.000000
4102.372760,1036.288319,-7890.783629,-444.123565
4102.373084,1850.514855,-8580.269578,0.000000
4102.373408,444.123565,-8120.612279,0.000000
4102.373733,1184.329507,-8963.317327,0.000000
4102.374057,592.164754,-8273.831378,-222.061783
4102.374381,888.247130,-8886.707777,148.041188
4102.374706,888.247130,-8120.612279,-962.267725
4102.375030,1110.308913,-8810.098227,-74.020594
4102.375354,888.247130,-8503.660028,-592.164754
4102.375678,0.000000,-8503.660028,-1110.308913
4102.376003,-592.164754,-9039.926876,-1258.350101
4102.376327,-1332.370696,-8580.269578,-666.185348
4102.376651,-1776.494261,-8963.317327,-518.144159
4102.376975,-1850.514855,-8810.098227,-296.082377
4102.377300,-1998.556043,-8733.488677,0.000000
4102.377624,-962.267725,-8580.269578,-518.144159
4102.377948,370.102971,-8120.612279,370.102971
4102.378273,1332.370696,-8044.002729,-888.247130
4102.378597,3256.906145,-8656.879127,-518.144159
4102.378921,3923.091493,-8120.612279,-296.082377
4102.379245,3849.070898,-9346.365076,0.000000
4102.379570,3478.967927,-8503.660028,-518.144159
4102.379894,3256.906145,-9116.536426,-592.164754
4102.380218,888.247130,-8963.317327,-888.247130
4102.380542,-74.020594,-9193.145976,-370.102971
4102.380867,-2072.576638,-9193.145976,-666.185348
4102.381191,-2442.679609,-9652.803275,-592.164754
4102.381515,-2146.597232,-8733.488677,-592.164754
4102.381840,-1036.288319,-9346.365076,-740.205942
4102.382164,-592.164754,-8427.050478,-148.041188
4102.382488,1406.391290,-8120.612279,-1110.308913
4102.382812,1776.494261,-8656.879127,-666.185348
4102.383137,1850.514855,-8350.440928,-592.164754
4102.383461,1258.350101,-8350.440928,222.061783
4102.383785,1332.370696,-8886.707777,0.000000
4102.384109,444.123565,-8427.050478,0.000000
4102.384434,296.082377,-8810.098227,518.144159
4102.384758,296.082377,-8503.660028,148.041188
4102.385082,888.247130,-8886.707777,0.000000
4102.385407,814.226536,-8427.050478,-518.144159
4102.385731,1406.391290,-8273.831378,-296.082377
4102.386055,370.102971,-8044.002729,-518.144159
4102.386379,148.041188,-8197.221829,-222.061783
4102.386704,-740.205942,-7967.393179,-888.247130
4102.387028,-962.267725,-8733.488677,-370.102971
4102.387352,-1332.370696,-8197.221829,-592.164754
4102.387677,-1850.514855,-8963.317327,74.020594
4102.388001,-1554.432478,-8197.221829,0.000000
4102.388325,-444.123565,-8733.488677,0.000000
4102.388649,148.041188,-8273.831378,-222.061783
4102.388974,1628.453072,-8427.050478,-148.041188
4102.389298,2516.700203,-7814.174080,0.000000
4102.389622,2516.700203,-8273.831378,-222.061783
4102.389946,2886.803174,-8120.612279,-370.102971
4102.390271,2516.700203,-8350.440928,-296.082377
4102.390595,2442.679609,-7967.393179,148.041188
4102.390919,814.226536,-8197.221829,-148.041188
4102.391244,0.000000,-9193.145976,-296.082377
4102.391568,-1184.329507,-8733.488677,-518.144159
4102.391892,-1480.411884,-9499.584175,-666.185348
4102.392216,-1850.514855,-8733.488677,-962.267725
4102.392541,-1036.288319,-8963.317327,-592.164754
4102.392865,-518.144159,-8656.879127,-444.123565
4102.393189,148.041188,-8810.098227,-518.144159
4102.393513,1110.308913,-8197.221829,-888.247130
4102.393838,888.247130,-8580.269578,0.000000
4102.394162,518.144159,-8427.050478,-444.123565
4102.394486,962.267725,-8733.488677,296.082377
4102.394811,518.144159,-8427.050478,740.205942
4102.395135,666.185348,-9039.926876,296.082377
4102.395459,962.267725,-7890.783629,-592.164754
4102.395783,1924.535449,-9269.755526,74.020594
4102.396108,1332.370696,-8580.269578,-962.267725
4102.396432,1554.432478,-8963.317327,0.000000
4102.396756,296.082377,-8503.660028,-740.205942
4102.397080,-592.164754,-8810.098227,-592.164754
4102.397405,-1406.391290,-8273.831378,-888.247130
4102.397729,-1628.453072,-8656.879127,0.000000
4102.398053,-2072.576638,-8350.440928,-1110.308913
4102.398378,-1480.411884,-8656.879127,-666.185348
4102.398702,-1554.432478,-8810.098227,-222.061783
4102.399026,0.000000,-8044.002729,-296.082377
4102.399350,1184.329507,-8350.440928,-296.082377
4102.399675,2812.782580,-7890.783629,-222.061783
4102.399999,3108.864956,-8197.221829,-888.247130
4102.400323,3701.029710,-8733.488677,-296.082377
4102.400648,3627.009116,-8810.098227,-370.102971
4102.400972,2590.720797,-8810.098227,-518.144159
4102.401296,1406.391290,-8503.660028,-444.123565
4102.401620,888.247130,-9269.755526,-444.123565
4102.401945,-888.247130,-9193.145976,0.000000
4102.402269,-1480.411884,-9116.536426,-444.123565
4102.402593,-2146.597232,-8810.098227,-962.267725
4102.402917,-1776.494261,-9116.536426,-814.226536
4102.403242,-370.102971,-8427.050478,-444.123565
4102.403566,0.000000,-8810.098227,-518.144159
4102.403890,888.247130,-8810.098227,-666.185348
4102.404215,1406.391290,-8197.221829,-222.061783
4102.404539,2072.576638,-8886.707777,-296.082377
4102.404863,1332.370696,-8580.269578,0.000000
4102.405187,1554.432478,-8810.098227,296.082377
4102.405512,888.247130,-8656.879127,370.102971
4102.405836,370.102971,-8580.269578,0.000000
4102.406160,592.164754,-8503.660028,740.205942
4102.406484,370.102971,-8120.612279,0.000000
4102.406809,518.144159,-8120.612279,-148.041188
4102.407133,814.226536,-8350.440928,-518.144159
4102.407457,370.102971,-8427.050478,-444.123565
4102.407782,-296.082377,-8273.831378,-666.185348
4102.408106,-1184.329507,-8580.269578,-962.267725
4102.408430,-1332.370696,-8580.269578,-518.144159
4102.408754,-2146.597232,-8656.879127,0.000000
4102.409079,-2368.659014,-8580.269578,148.041188
4102.409403,-666.185348,-8656.879127,-148.041188
4102.409727,-222.061783,-8580.269578,0.000000
4102.410051,962.267725,-8350.440928,0.000000
4102.410376,2590.720797,-7814.174080,296.082377
4102.410700,2886.803174,-7967.393179,-222.061783
4102.411024,3552.988522,-8427.050478,0.000000
4102.411349,3330.926739,-8350.440928,-444.123565
4102.411673,2220.617826,-8580.269578,-148.041188
4102.411997,1850.514855,-8580.269578,-666.185348
4102.412321,296.082377,-8886.707777,-518.144159
4102.412646,-888.247130,-8810.098227,-444.123565
4102.412970,-1480.411884,-8810.098227,-814.226536
4102.413294,-1554.432478,-8963.317327,-1110.308913
4102.413618,-1776.494261,-8580.269578,-296.082377
4102.413943,-740.205942,-8503.660028,-666.185348
4102.414267,222.061783,-8427.050478,-1110.308913
4102.414591,1110.308913,-8197.221829,0.000000
4102.414916,1480.411884,-8503.660028,-666.185348
4102.415240,2294.638420,-9116.536426,-444.123565
4102.415564,1480.411884,-8656.879127,148.041188
4102.415888,1258.350101,-8733.488677,296.082377
4102.416213,592.164754,-8197.221829,-296.082377
4102.416537,518.144159,-9346.365076,74.020594
4102.416861,0.000000,-8273.831378,-518.144159
4102.417186,814.226536,-8197.221829,-148.041188
4102.417510,592.164754,-8350.440928,-444.123565
4102.417834,222.061783,-8273.831378,-666.185348
4102.418158,148.041188,-7890.783629,-1184.329507
4102.418483,-296.082377,-8427.050478,-1110.308913
4102.418807,-518.144159,-8427.050478,-296.082377
4102.419131,-1332.370696,-8197.221829,-296.082377
4102.419455,-1406.391290,-8656.879127,-222.061783
4102.419780,-1258.350101,-8733.488677,-518.144159
4102.420104,-370.102971,-9729.412825,0.000000
4102.420428,296.082377,-8273.831378,-666.185348
4102.420753,1110.308913,-8197.221829,0.000000
4102.421077,1628.453072,-8273.831378,-296.082377
4102.421401,2738.761985,-8120.612279,-370.102971
4102.421725,3923.091493,-7890.783629,0.000000
4102.422050,2664.741391,-8273.831378,-296.082377
4102.422374,3034.844362,-8120.612279,-444.123565
4102.422698,1776.494261,-8580.269578,-592.164754
4102.423022,814.226536,-9269.755526,148.041188
4102.423347,74.020594,-8503.660028,-666.185348
4102.423671,-1036.288319,-9576.193725,-296.082377
4102.423995,-888.247130,-8963.317327,0.000000
4102.424320,-1628.453072,-8273.831378,-666.185348
4102.424644,-1258.350101,-8810.098227,-444.123565
4102.424968,-296.082377,-8427.050478,-148.041188
4102.425292,444.123565,-9116.536426,-666.185348
4102.425617,296.082377,-8350.440928,0.000000
4102.425941,740.205942,-8503.660028,444.123565
4102.426265,814.226536,-8580.269578,222.061783
4102.426589,814.226536,-9039.926876,592.164754
4102.426914,740.205942,-8350.440928,370.102971
4102.427238,1258.350101,-8350.440928,296.082377
4102.427562,1258.350101,-8120.612279,444.123565
4102.427887,1184.329507,-8197.221829,74.020594
4102.428211,666.185348,-8197.221829,-148.041188
4102.428535,1702.473667,-8350.440928,-222.061783
4102.428859,-592.164754,-8580.269578,-592.164754
4102.429184,-444.123565,-8810.098227,-814.226536
4102.429508,-2368.659014,-8197.221829,0.000000
4102.429832,-2516.700203,-8580.269578,-296.082377
4102.430156,-2516.700203,-7737.564530,0.000000
4102.430481,-2220.617826,-8733.488677,74.020594
4102.430805,-1036.288319,-8580.269578,-370.102971
4102.431129,74.020594,-7967.393179,-444.123565
4102.431453,1628.453072,-8733.488677,-370.102971
4102.431778,2738.761985,-8197.221829,-592.164754
4102.432102,3627.009116,-8273.831378,-370.102971
4102.432426,4071.132681,-8580.269578,-740.205942
4102.432750,2738.761985,-9039.926876,0.000000
4102.433075,1776.494261,-8503.660028,-148.041188
4102.433399,814.226536,-8963.317327,-370.102971
4102.433723,-148.041188,-9116.536426,-666.185348
4102.434047,-1036.288319,-8810.098227,-592.164754
4102.434371,-518.144159,-9116.536426,-222.061783
4102.434696,-962.267725,-8503.660028,-666.185348
4102.435020,-444.123565,-8656.879127,-740.205942
4102.435344,222.061783,-8044.002729,-740.205942
4102.435668,1702.473667,-8273.831378,-962.267725
4102.435993,1184.329507,-8503.660028,-740.205942
4102.436317,1406.391290,-9193.145976,-222.061783
4102.436641,1110.308913,-9039.926876,-444.123565
4102.436965,740.205942,-9193.145976,0.000000
4102.437289,296.082377,-8810.098227,370.102971
4102.437614,-444.123565,-9269.755526,148.041188
4102.437938,-148.041188,-8886.707777,0.000000
4102.438262,0.000000,-8427.050478,148.041188
4102.438586,814.226536,-8273.831378,-592.164754
4102.438910,1184.329507,-7967.393179,-962.267725
4102.439235,1480.411884,-7890.783629,-962.267725
4102.439559,888.247130,-7967.393179,-1036.288319
4102.439883,74.020594,-8350.440928,-1110.308913
4102.440207,-1258.350101,-8427.050478,-518.144159
4102.440532,-1554.432478,-8503.660028,-296.082377
4102.440856,-1776.494261,-8963.317327,-444.123565
4102.441180,-962.267725,-8810.098227,-222.061783
4102.441504,222.061783,-8656.879127,0.000000
4102.441828,222.061783,-8656.879127,0.000000
4102.442153,1406.391290,-7967.393179,0.000000
4102.442477,2886.803174,-7814.174080,74.020594
4102.442801,3478.967927,-8044.002729,-518.144159
4102.443125,3552.988522,-8273.831378,0.000000
4102.443449,3182.885551,-8273.831378,-296.082377
4102.443774,2368.659014,-8810.098227,-444.123565
4102.444098,814.226536,-9193.145976,-444.123565
4102.444422,-444.123565,-9116.536426,-592.164754
4102.444746,-1776.494261,-9269.755526,0.000000
4102.445071,-1702.473667,-8963.317327,-222.061783
4102.445395,-2072.576638,-9116.536426,0.000000
4102.445719,-1554.432478,-8656.879127,-518.144159
4102.446043,-1110.308913,-8273.831378,0.000000
4102.446367,-74.020594,-8273.831378,-666.185348
4102.446692,888.247130,-8350.440928,-370.102971
4102.447016,1628.453072,-8656.879127,296.082377
4102.447340,1776.494261,-8350.440928,-222.061783
4102.447664,2368.659014,-9039.926876,0.000000
4102.447989,1628.453072,-8350.440928,0.000000
4102.448313,1554.432478,-9346.365076,666.185348
4102.448637,296.082377,-8503.660028,0.000000
4102.448961,-148.041188,-9039.926876,444.123565
4102.449285,-296.082377,-7967.393179,-222.061783
4102.449610,0.000000,-8503.660028,-296.082377
4102.449934,-74.020594,-7737.564530,-1406.391290
4102.450258,740.205942,-8656.879127,-296.082377
4102.450582,-666.185348,-8044.002729,-1110.308913
4102.450906,-592.164754,-8580.269578,-666.185348
4102.451231,-444.123565,-8503.660028,-296.082377
4102.451555,-370.102971,-9193.145976,-592.164754
4102.451879,0.000000,-8580.269578,-148.041188
4102.452203,0.000000,-8886.707777,-296.082377
4102.452528,592.164754,-8580.269578,0.000000
4102.452852,740.205942,-8120.612279,-518.144159
4102.453176,2368.659014,-8580.269578,-444.123565
4102.453500,2072.576638,-7967.393179,-296.082377
4102.453824,2442.679609,-8120.612279,-592.164754
4102.454149,2442.679609,-7890.783629,-296.082377
4102.454473,2294.638420,-8810.098227,-518.144159
4102.454797,1258.350101,-8963.317327,-814.226536
4102.455121,814.226536,-9269.755526,-592.164754
4102.455446,-592.164754,-8963.317327,-444.123565
4102.455770,-1184.329507,-9729.412825,-666.185348
4102.456094,-1554.432478,-9116.536426,-888.247130
4102.456418,-1480.411884,-9269.755526,-370.102971
4102.456742,-1924.535449,-8197.221829,-592.164754
4102.457067,-222.061783,-9039.926876,-444.123565
4102.457391,0.000000,-8427.050478,-518.144159
4102.457715,814.226536,-8963.317327,0.000000
4102.458039,1110.308913,-8197.221829,-444.123565
4102.458363,1850.514855,-8810.098227,-148.041188
4102.458688,1480.411884,-8273.831378,222.061783
4102.459012,1702.473667,-8810.098227,296.082377
4102.459336,888.247130,-8580.269578,74.020594
4102.459660,1184.329507,-8810.098227,296.082377
4102.459985,888.247130,-7890.783629,-444.123565
4102.460309,1110.308913,-8733.488677,-222.061783
4102.460633,222.061783,-8044.002729,-962.267725
4102.460957,0.000000,-8503.660028,-518.144159
4102.461281,-592.164754,-8197.221829,-814.226536
4102.461606,-1258.350101,-9039.926876,-370.102971
4102.461930,-1554.432478,-8427.050478,-222.061783
4102.462254,-1480.411884,-8350.440928,-222.061783
4102.462578,-814.226536,-8656.879127,-444.123565
4102.462902,-222.061783,-8427.050478,0.000000
4102.463227,814.226536,-8503.660028,-444.123565
4102.463551,1702.473667,-8197.221829,-296.082377
4102.463875,2368.659014,-8656.879127,222.061783
4102.464199,2516.700203,-8044.002729,-148.041188
4102.464524,2590.720797,-8733.488677,-296.082377
4102.464848,2812.782580,-8503.660028,-222.061783
4102.465172,1998.556043,-8810.098227,-666.185348
4102.465496,1480.411884,-9193.145976,-1110.308913
4102.465820,0.000000,-8963.317327,-666.185348
4102.466145,-814.226536,-9116.536426,-518.144159
4102.466469,-1480.411884,-8580.269578,0.000000
4102.466793,-1554.432478,-8886.707777,-666.185348
4102.467117,-740.205942,-8656.879127,-518.144159
4102.467442,-888.247130,-8197.221829,-1036.288319
4102.467766,0.000000,-8120.612279,-666.185348
4102.468090,1036.288319,-8273.831378,-296.082377
4102.468414,1406.391290,-8120.612279,-666.185348
4102.468738,1184.329507,-8810.098227,0.000000
4102.469063,1702.473667,-8427.050478,222.061783
4102.469387,1110.308913,-8656.879127,222.061783
4102.469711,1406.391290,-9039.926876,0.000000
4102.470035,1628.453072,-8810.098227,74.020594
4102.470359,1258.350101,-8350.440928,148.041188
4102.470684,814.226536,-8120.612279,-296.082377
4102.471008,962.267725,-8733.488677,-592.164754
4102.471332,-296.082377,-8580.269578,-1110.308913
4102.471656,-370.102971,-8886.707777,-962.267725
4102.471981,-1776.494261,-8656.879127,-1332.370696
4102.472305,-2146.597232,-9039.926876,-518.144159
4102.472629,-2664.741391,-8197.221829,-962.267725
4102.472953,-1924.535449,-8580.269578,-444.123565
4102.473277,-2146.597232,-8733.488677,0.000000
4102.473602,0.000000,-8503.660028,-444.123565
4102.473926,1110.308913,-8503.660028,-222.061783
4102.474250,2072.576638,-8427.050478,-296.082377
4102.474574,3330.926739,-8044.002729,-370.102971
4102.474898,3404.947333,-8580.269578,-296.082377
4102.475223,2960.823768,-8580.269578,-518.144159
4102.475547,2738.761985,-8656.879127,-740.205942
4102.475871,1924.535449,-9039.926876,-296.082377
4102.476195,370.102971,-9193.145976,0.000000
4102.476520,-444.123565,-9039.926876,-444.123565
4102.476844,-1258.350101,-9269.755526,-666.185348
4102.477168,-1628.453072,-8656.879127,-740.205942
4102.477492,-1258.350101,-8810.098227,-444.123565
4102.477816,-592.164754,-8427.050478,-740.205942
4102.478141,-592.164754,-8273.831378,-518.144159
4102.478465,592.164754,-8810.098227,-222.061783
4102.478789,666.185348,-8273.831378,-296.082377
4102.479113,1924.535449,-8810.098227,-296.082377
4102.479438,1776.494261,-8273.831378,-296.082377
4102.479762,1406.391290,-9116.536426,296.082377
4102.480086,1036.288319,-8886.707777,222.061783
4102.480410,592.164754,-8580.269578,518.144159
4102.480734,1184.329507,-8656.879127,74.020594
4102.481059,740.205942,-8580.269578,0.000000
4102.481383,740.205942,-7660.954980,-222.061783
4102.481707,888.247130,-8273.831378,-222.061783
4102.482031,518.144159,-8044.002729,-1110.308913
4102.482355,-148.041188,-8656.879127,-1036.288319
4102.482680,-962.267725,-8580.269578,-1110.308913
4102.483004,-1850.514855,-8733.488677,-592.164754
4102.483328,-2368.659014,-8810.098227,-666.185348
4102.483652,-1998.556043,-8886.707777,0.000000
4102.483977,-2294.638420,-8656.879127,370.102971
4102.484301,-592.164754,-8350.440928,-518.144159
4102.484625,222.061783,-8044.002729,148.041188
4102.484949,1850.514855,-8197.221829,-296.082377
4102.485273,2960.823768,-8810.098227,0.000000
4102.485598,3923.091493,-8350.440928,0.000000
4102.485922,3108.864956,-8197.221829,-666.185348
4102.486246,3478.967927,-8733.488677,-444.123565
4102.486570,2294.638420,-9039.926876,-296.082377
4102.486895,592.164754,-8886.707777,-740.205942
4102.487219,-296.082377,-9346.365076,-222.061783
4102.487543,-1332.370696,-9193.145976,-666.185348
4102.487867,-1702.473667,-9269.755526,-814.226536
4102.488191,-2220.617826,-8427.050478,-518.144159
4102.488516,-740.205942,-8963.317327,-444.123565
4102.488840,0.000000,-8120.612279,-814.226536
4102.489164,444.123565,-8656.879127,0.000000
4102.489488,1554.432478,-8273.831378,-666.185348
4102.489812,2368.659014,-8963.317327,-148.041188
4102.490137,1554.432478,-8120.612279,-148.041188
4102.490461,1850.514855,-9116.536426,444.123565
4102.490785,444.123565,-8503.660028,0.000000
4102.491109,0.000000,-9193.145976,296.082377
4102.491434,-444.123565,-7890.783629,-296.082377
4102.491758,222.061783,-9346.365076,444.123565
4102.492082,-592.164754,-7584.345430,-592.164754
4102.492406,814.226536,-9116.536426,-148.041188
4102.492730,222.061783,-7660.954980,-1258.350101
4102.493055,148.041188,-9193.145976,-222.061783
4102.493379,148.041188,-7814.174080,-1110.308913
4102.493703,-222.061783,-9039.926876,-370.102971
4102.494027,-962.267725,-8656.879127,-518.144159
4102.494351,-1332.370696,-8810.098227,-296.082377
4102.494676,-740.205942,-8963.317327,-296.082377
4102.495000,-592.164754,-8350.440928,-296.082377
4102.495324,370.102971,-8503.660028,-296.082377
4102.495648,1406.391290,-7814.174080,-148.041188
4102.495973,2368.659014,-8120.612279,-222.061783
4102.496297,3034.844362,-7967.393179,-666.185348
4102.496621,3552.988522,-8656.879127,-296.082377
4102.496945,3034.844362,-7890.783629,-518.144159
4102.497269,3108.864956,-9116.536426,-444.123565
4102.497594,1554.432478,-9039.926876,-814.226536
4102.497918,592.164754,-8963.317327,-370.102971
4102.498242,-1036.288319,-9422.974625,-666.185348
4102.498566,-1998.556043,-9269.755526,-666.185348
4102.498891,-1628.453072,-8886.707777,-518.144159
4102.499215,-1702.473667,-8427.050478,-222.061783
4102.499539,-814.226536,-8120.612279,-814.226536
4102.499863,518.144159,-8963.317327,-962.267725
4102.500187,0.000000,-8350.440928,-444.123565
4102.500512,1036.288319,-8503.660028,74.020594
4102.500836,814.226536,-8350.440928,-666.185348
4102.501160,962.267725,-8656.879127,0.000000
4102.501484,1406.391290,-8197.221829,0.000000
4102.501808,1480.411884,-8886.707777,-222.061783
4102.502133,740.205942,-8886.707777,370.102971
4102.502457,814.226536,-8733.488677,0.000000
4102.502781,0.000000,-8120.612279,-814.226536
4102.503105,0.000000,-8580.269578,-444.123565
4102.503430,-148.041188,-8580.269578,-888.247130
4102.503754,-666.185348,-8273.831378,-1184.329507
4102.504078,-1406.391290,-8197.221829,-962.267725
4102.504402,-1998.556043,-8886.707777,-222.061783
4102.504726,-2294.638420,-8197.221829,-666.185348
4102.505051,-1554.432478,-8733.488677,0.000000
4102.505375,-962.267725,-8427.050478,0.000000
4102.505699,296.082377,-8427.050478,0.000000
4102.506023,1406.391290,-8427.050478,0.000000
4102.506347,2442.679609,-8656.879127,0.000000
4102.506672,3108.864956,-7507.735880,-592.164754
4102.506996,3997.112087,-8580.269578,-222.061783
4102.507320,3182.885551,-8273.831378,-296.082377
4102.507644,2442.679609,-8733.488677,296.082377
4102.507969,1332.370696,-8197.221829,-666.185348
4102.508293,370.102971,-8963.317327,0.000000
4102.508617,-296.082377,-8886.707777,-444.123565
4102.508941,-1406.391290,-8580.269578,-444.123565
4102.509265,-1332.370696,-9039.926876,-222.061783
4102.509590,-1702.473667,-8273.831378,-518.144159
4102.509914,-666.185348,-8733.488677,-592.164754
4102.510238,-740.205942,-7737.564530,-888.247130
4102.510562,518.144159,-9039.926876,0.000000
4102.510887,740.205942,-8503.660028,0.000000
4102.511211,1258.350101,-9193.145976,0.000000
4102.511535,1036.288319,-8273.831378,0.000000
4102.511859,1036.288319,-8810.098227,592.164754
4102.512183,222.061783,-8656.879127,222.061783
4102.512508,592.164754,-8733.488677,0.000000
4102.512832,1036.288319,-8503.660028,0.000000
4102.513156,1480.411884,-8427.050478,-148.041188
4102.513480,962.267725,-7890.783629,-740.205942
4102.513804,1406.391290,-8273.831378,-444.123565
4102.514129,1406.391290,-8273.831378,-1332.370696
4102.514453,-592.164754,-8044.002729,-888.247130
4102.514777,-1924.535449,-8733.488677,-592.164754
4102.515101,-666.185348,-8963.317327,296.082377
4102.515426,-2146.597232,-9193.145976,-222.061783
4102.515750,-1110.308913,-9039.926876,-222.061783
4102.516074,-592.164754,-8580.269578,-222.061783
4102.516398,0.000000,-8733.488677,-370.102971
4102.516722,1850.514855,-8580.269578,0.000000
4102.517047,2294.638420,-7890.783629,-148.041188
4102.517371,2812.782580,-8503.660028,-1036.288319
4102.517695,3182.885551,-9116.536426,0.000000
4102.518019,2220.617826,-8197.221829,74.020594
4102.518344,2442.679609,-8656.879127,-1184.329507
4102.518668,666.185348,-9422.974625,-592.164754
4102.518992,296.082377,-9269.755526,-962.267725
4102.519316,-888.247130,-9499.584175,0.000000
4102.519640,-1406.391290,-9039.926876,-370.102971
4102.519965,-1332.370696,-9116.536426,-444.123565
4102.520289,-1332.370696,-8120.612279,-444.123565
4102.520613,-962.267725,-8580.269578,-888.247130
4102.520937,444.123565,-8580.269578,-666.185348
4102.521261,666.185348,-7890.783629,-666.185348
4102.521586,444.123565,-8733.488677,-222.061783
4102.521910,1036.288319,-8656.879127,-592.164754
4102.522234,1332.370696,-8810.098227,0.000000
4102.522558,666.185348,-9039.926876,74.020594
4102.522883,1184.329507,-9039.926876,0.000000
4102.523207,518.144159,-9039.926876,0.000000
4102.523531,518.144159,-8120.612279,-74.020594
4102.523855,222.061783,-8044.002729,296.082377
4102.524179,1406.391290,-8044.002729,-666.185348
4102.524504,740.205942,-8350.440928,0.000000
4102.524828,740.205942,-8197.221829,-888.247130
4102.525152,-370.102971,-9039.926876,-1332.370696
4102.525476,-1554.432478,-8427.050478,-740.205942
4102.525800,-888.247130,-8350.440928,-666.185348
4102.526125,-2072.576638,-8580.269578,0.000000
4102.526449,-1036.288319,-8580.269578,-666.185348
4102.526773,-1332.370696,-8656.879127,74.020594
4102.527097,148.041188,-8580.269578,0.000000
4102.527422,814.226536,-8197.221829,-222.061783
4102.527746,2220.617826,-8273.831378,148.041188
4102.528070,2812.782580,-7814.174080,0.000000
4102.528394,3256.906145,-8427.050478,-444.123565
4102.528718,2886.803174,-8427.050478,-148.041188
4102.529043,2294.638420,-8350.440928,-370.102971
4102.529367,1554.432478,-9039.926876,-518.144159
4102.529691,222.061783,-8810.098227,-518.144159
4102.530015,-888.247130,-9193.145976,-370.102971
4102.530340,-1628.453072,-9039.926876,-518.144159
4102.530664,-1554.432478,-9039.926876,-592.164754
4102.530988,-1702.473667,-8427.050478,-444.123565
4102.531312,-1554.432478,-8350.440928,-370.102971
4102.531636,-296.082377,-8503.660028,0.000000
4102.531961,592.164754,-8273.831378,-370.102971
4102.532285,1406.391290,-8886.707777,-370.102971
4102.532609,1998.556043,-8427.050478,-740.205942
4102.532933,1776.494261,-8427.050478,444.123565
4102.533257,2220.617826,-8580.269578,0.000000
4102.533582,1110.308913,-8656.879127,370.102971
4102.533906,666.185348,-9116.536426,222.061783
4102.534230,814.226536,-8197.221829,296.082377
4102.534554,296.082377,-8273.831378,-592.164754
4102.534878,814.226536,-8197.221829,296.082377
4102.535203,296.082377,-7890.783629,-740.205942
4102.535527,370.102971,-8656.879127,-814.226536
4102.535851,-370.102971,-7967.393179,-1258.350101
4102.536175,-740.205942,-9039.926876,-370.102971
4102.536499,-962.267725,-8733.488677,-962.267725
4102.536823,-1554.432478,-9039.926876,-148.041188
4102.537148,-1110.308913,-8733.488677,-592.164754
4102.537472,-592.164754,-8656.879127,0.000000
4102.537796,-222.061783,-8273.831378,-444.123565
4102.538120,1258.350101,-8350.440928,-592.164754
4102.538444,2368.659014,-7814.174080,-296.082377
4102.538769,2664.741391,-8503.660028,0.000000
4102.539093,2886.803174,-8427.050478,-222.061783
4102.539417,2738.761985,-8503.660028,-592.164754
4102.539741,2738.761985,-8580.269578,-592.164754
4102.540065,1628.453072,-8733.488677,-1258.350101
4102.540390,888.247130,-9346.365076,-592.164754
4102.540714,-370.102971,-9346.365076,-666.185348
4102.541038,-1332.370696,-9422.974625,-370.102971
4102.541362,-1702.473667,-9039.926876,-888.247130
4102.541686,-1850.514855,-9116.536426,0.000000
4102.542011,-1406.391290,-7814.174080,-592.164754
4102.542335,-740.205942,-8580.269578,0.000000
4102.542659,74.020594,-8197.221829,-370.102971
4102.542983,814.226536,-8273.831378,148.041188
4102.543307,1776.494261,-8503.660028,-370.102971
4102.543632,1480.411884,-8886.707777,222.061783
4102.543956,1406.391290,-8350.440928,0.000000
4102.544280,1406.391290,-9193.145976,74.020594
4102.544604,1258.350101,-8580.269578,-148.041188
4102.544928,1184.329507,-8810.098227,74.020594
4102.545253,888.247130,-8427.050478,-148.041188
4102.545577,296.082377,-8197.221829,0.000000
4102.545901,518.144159,-8350.440928,-814.226536
4102.546225,370.102971,-7967.393179,-814.226536
4102.546549,-518.144159,-8120.612279,-1110.308913
4102.546874,-1554.432478,-8963.317327,-518.144159
4102.547198,-2072.576638,-8350.440928,-592.164754
4102.547522,-2146.597232,-8427.050478,148.041188
4102.547846,-1702.473667,-8656.879127,-296.082377
4102.548170,-592.164754,-8580.269578,370.102971
4102.548494,74.020594,-8197.221829,-296.082377
4102.548819,1924.535449,-8044.002729,-444.123565
4102.549143,2886.803174,-7890.783629,74.020594
4102.549467,2812.782580,-8350.440928,-370.102971
4102.549791,3182.885551,-8733.488677,0.000000
4102.550115,2442.679609,-8044.002729,-296.082377
4102.550440,2146.597232,-8273.831378,0.000000
4102.550764,1406.391290,-8580.269578,-592.164754
4102.551088,370.102971,-9499.584175,-148.041188
4102.551412,-1036.288319,-8963.317327,-888.247130
4102.551736,-1702.473667,-9422.974625,-296.082377
4102.552061,-2072.576638,-8886.707777,-666.185348
4102.552385,-1184.329507,-8273.831378,0.000000
4102.552709,-444.123565,-7737.564530,-518.144159
4102.553033,888.247130,-8427.050478,-296.082377
4102.553357,740.205942,-7967.393179,-962.267725
4102.553682,1924.535449,-8886.707777,-444.123565
4102.554006,1776.494261,-8580.269578,-444.123565
4102.554330,1998.556043,-9039.926876,-148.041188
4102.554654,1628.453072,-8503.660028,74.020594
4102.554978,888.247130,-8656.879127,370.102971
4102.555303,74.020594,-8580.269578,74.020594
4102.555627,888.247130,-8810.098227,0.000000
4102.555951,740.205942,-8197.221829,0.000000
4102.556275,518.144159,-8273.831378,-518.144159
4102.556599,222.061783,-7890.783629,-814.226536
4102.556924,592.164754,-8427.050478,-666.185348
4102.557248,-518.144159,-8273.831378,-1406.391290
4102.557572,-296.082377,-8886.707777,-592.164754
4102.557896,0.000000,-8580.269578,-370.102971
4102.558220,-3256.906145,-9116.536426,-814.226536
4102.558545,-370.102971,-9193.145976,-296.082377
4102.558869,-1110.308913,-8580.269578,0.000000
4102.559193,666.185348,-9193.145976,0.000000
4102.559517,1628.453072,-7507.735880,0.000000
4102.559841,2294.638420,-8273.831378,-370.102971
4102.560166,2590.720797,-8656.879127,74.020594
4102.560490,3478.967927,-7660.954980,-1110.308913
4102.560814,3330.926739,-9729.412825,222.061783
4102.561138,2442.679609,-7890.783629,-1258.350101
4102.561462,1702.473667,-9269.755526,-814.226536
4102.561786,-740.205942,-8350.440928,-1258.350101
4102.562111,-1258.350101,-9499.584175,0.000000
4102.562435,-2294.638420,-9039.926876,-1110.308913
4102.562759,-1776.494261,-9116.536426,74.020594
4102.563083,-1036.288319,-8810.098227,0.000000
4102.563407,-1332.370696,-8350.440928,-888.247130
4102.563732,0.000000,-8656.879127,0.000000
4102.564056,518.144159,-7967.393179,-1184.329507
4102.564380,1850.514855,-9039.926876,-222.061783
4102.564704,1480.411884,-8120.612279,-666.185348
4102.565028,2146.597232,-9269.755526,814.226536
4102.565353,370.102971,-7584.345430,-740.205942
4102.565677,1184.329507,-9806.022374,962.267725
4102.566001,1110.308913,-8580.269578,-370.102971
4102.566325,370.102971,-8810.098227,666.185348
4102.566649,222.061783,-7814.174080,-370.102971
4102.566974,666.185348,-8656.879127,148.041188
4102.567298,666.185348,-8273.831378,-740.205942
4102.567622,222.061783,-8733.488677,-740.205942
4102.567946,-222.061783,-8580.269578,-444.123565
4102.568270,-1258.350101,-8427.050478,-888.247130
4102.568595,-962.267725,-9116.536426,-444.123565
4102.568919,-1554.432478,-8273.831378,-370.102971
4102.569243,-518.144159,-9422.974625,370.102971
4102.569567,-1258.350101,-8197.221829,-222.061783
4102.569891,962.267725,-8656.879127,518.144159
4102.570216,1036.288319,-7814.174080,-296.082377
4102.570540,2294.638420,-8197.221829,222.061783
4102.570864,2738.761985,-7584.345430,-296.082377
4102.571188,2960.823768,-8886.707777,0.000000
4102.571512,2294.638420,-8273.831378,-666.185348
4102.571837,1924.535449,-8963.317327,-444.123565
4102.572161,1332.370696,-9193.145976,-444.123565
4102.572485,222.061783,-8810.098227,-740.205942
4102.572809,-74.020594,-9269.755526,-1036.288319
4102.573133,-814.226536,-9039.926876,-592.164754
4102.573457,-1036.288319,-8503.660028,-296.082377
4102.573782,-740.205942,-8656.879127,-370.102971
4102.574106,-370.102971,-7967.393179,-518.144159
4102.574430,962.267725,-8427.050478,-296.082377
4102.574754,1258.350101,-8580.269578,-666.185348
4102.575078,1036.288319,-9269.755526,-370.102971
4102.575403,1184.329507,-8120.612279,-666.185348
4102.575727,814.226536,-8810.098227,74.020594
4102.576051,1036.288319,-8733.488677,0.000000
4102.576375,814.226536,-9116.536426,444.123565
4102.576699,518.144159,-8656.879127,-222.061783
4102.577024,814.226536,-8810.098227,74.020594
4102.577348,-444.123565,-7967.393179,-370.102971
4102.577672,370.102971,-9039.926876,0.000000
4102.577996,370.102971,-8350.440928,-1036.288319
4102.578320,222.061783,-9039.926876,-666.185348
4102.578645,-1036.288319,-8580.269578,-1184.329507
4102.578969,-666.185348,-9422.974625,-518.144159
4102.579293,-1850.514855,-8044.002729,-1110.308913
4102.579617,-1110.308913,-9346.365076,-222.061783
4102.579941,-1258.350101,-8273.831378,-148.041188
4102.580266,-666.185348,-9039.926876,666.185348
4102.580590,370.102971,-7967.393179,-444.123565
4102.580914,1628.453072,-8427.050478,148.041188
4102.581238,2368.659014,-7584.345430,-296.082377
4102.581562,3256.906145,-9116.536426,-222.061783
4102.581887,2812.782580,-8273.831378,-296.082377
4102.582211,2442.679609,-8656.879127,0.000000
4102.582535,2590.720797,-8733.488677,-592.164754
4102.582859,1184.329507,-8963.317327,-740.205942
4102.583183,148.041188,-9652.803275,-518.144159
4102.583508,-740.205942,-8580.269578,-666.185348
4102.583832,-1406.391290,-9116.536426,-296.082377
4102.584156,-1628.453072,-8656.879127,-370.102971
4102.584480,-1036.288319,-8580.269578,0.000000
4102.584804,-222.061783,-8503.660028,-592.164754
4102.585128,518.144159,-8503.660028,-370.102971
4102.585453,1332.370696,-8273.831378,-666.185348
4102.585777,2294.638420,-8733.488677,0.000000
4102.586101,1036.288319,-8503.660028,-518.144159
4102.586425,1110.308913,-8963.317327,592.164754
4102.586749,296.082377,-8120.612279,0.000000
4102.587074,888.247130,-9039.926876,962.267725
4102.587398,-296.082377,-7890.783629,0.000000
4102.587722,370.102971,-8810.098227,518.144159
4102.588046,1110.308913,-7660.954980,-296.082377
4102.588370,1036.288319,-8963.317327,0.000000
4102.588695,370.102971,-7507.735880,-592.164754
4102.589019,-148.041188,-9193.145976,0.000000
4102.589343,-888.247130,-8044.002729,-1184.329507
4102.589667,-962.267725,-9193.145976,-222.061783
4102.589991,-1702.473667,-8044.002729,-444.123565
4102.590316,-1776.494261,-9269.755526,0.000000
4102.590640,-814.226536,-8273.831378,-370.102971
4102.590964,-518.144159,-9116.536426,0.000000
4102.591288,740.205942,-8350.440928,-370.102971
4102.591612,1776.494261,-8273.831378,0.000000
4102.591937,2960.823768,-8273.831378,0.000000
4102.592261,3404.947333,-7890.783629,-666.185348
4102.592585,3404.947333,-8886.707777,0.000000
4102.592909,2368.659014,-8197.221829,-370.102971
4102.593233,2072.576638,-9346.365076,-592.164754
4102.593558,1184.329507,-9039.926876,-1184.329507
4102.593882,74.020594,-9499.584175,-740.205942
4102.594206,-1480.411884,-8656.879127,-444.123565
4102.594530,-1924.535449,-9729.412825,-666.185348
4102.594854,-2220.617826,-8503.660028,-814.226536
4102.595179,-962.267725,-9346.365076,-296.082377
4102.595503,-148.041188,-8580.269578,-962.267725
4102.595827,518.144159,-9346.365076,-222.061783
4102.596151,1110.308913,-8350.440928,-888.247130
4102.596475,1850.514855,-8580.269578,0.000000
4102.596800,1332.370696,-8197.221829,-296.082377
4102.597124,1406.391290,-9116.536426,74.020594
4102.597448,814.226536,-8810.098227,370.102971
4102.597772,148.041188,-9346.365076,-444.123565
4102.598096,-222.061783,-8810.098227,-444.123565
4102.598420,-518.144159,-8886.707777,666.185348
4102.598745,-740.205942,-7890.783629,-814.226536
4102.599069,-148.041188,-9116.536426,74.020594
4102.599393,-296.082377,-7814.174080,-814.226536
4102.599717,592.164754,-8810.098227,-1110.308913
4102.600041,-444.123565,-7967.393179,-888.247130
4102.600366,370.102971,-8656.879127,-370.102971
4102.600690,-814.226536,-8503.660028,-888.247130
4102.601014,-666.185348,-9193.145976,0.000000
4102.601338,-888.247130,-7814.174080,148.041188
4102.601662,0.000000,-8656.879127,0.000000
4102.601987,-296.082377,-8120.612279,-740.205942
4102.602311,1406.391290,-8503.660028,0.000000
4102.602635,2072.576638,-8733.488677,0.000000
4102.602959,2368.659014,-8350.440928,0.000000
4102.603283,3627.009116,-7431.126331,-1036.288319
4102.603608,2590.720797,-9193.145976,0.000000
4102.603932,1998.556043,-8120.612279,-814.226536
4102.604256,1628.453072,-8733.488677,0.000000
4102.604580,0.000000,-8963.317327,-740.205942
4102.604904,-740.205942,-9193.145976,-592.164754
4102.605229,-1776.494261,-8580.269578,-592.164754
4102.605553,-1702.473667,-8656.879127,148.041188
4102.605877,-1406.391290,-8733.488677,-370.102971
4102.606201,-962.267725,-8120.612279,-814.226536
4102.606525,222.061783,-8656.879127,148.041188
4102.606850,1480.411884,-8044.002729,-370.102971
4102.607174,1480.411884,-8580.269578,-222.061783
4102.607498,1258.350101,-8120.612279,74.020594
4102.607822,1702.473667,-8733.488677,0.000000
4102.608146,1258.350101,-8427.050478,-148.041188
4102.608471,222.061783,-8810.098227,592.164754
4102.608795,370.102971,-7967.393179,0.000000
4102.609119,370.102971,-8810.098227,296.082377
4102.609443,222.061783,-8044.002729,-370.102971
4102.609767,1110.308913,-9039.926876,-222.061783
4102.610091,74.020594,-8273.831378,-666.185348
4102.610416,0.000000,-8733.488677,-814.226536
4102.610740,0.000000,-8273.831378,-1036.288319
4102.611064,-888.247130,-9116.536426,-370.102971
4102.611388,-888.247130,-8273.831378,-814.226536
4102.611712,-888.247130,-8733.488677,-518.144159
4102.612037,-1406.391290,-8810.098227,0.000000
4102.612361,-370.102971,-8427.050478,-148.041188
4102.612685,962.267725,-8886.707777,0.000000
4102.613009,1998.556043,-8273.831378,-222.061783
4102.613333,2294.638420,-8120.612279,-592.164754
4102.613658,2960.823768,-8810.098227,-518.144159
4102.613982,3108.864956,-8580.269578,-370.102971
4102.614306,2664.741391,-8733.488677,-370.102971
4102.614630,1998.556043,-8733.488677,-370.102971
4102.614954,592.164754,-8580.269578,-148.041188
4102.615279,-370.102971,-9269.755526,-666.185348
4102.615603,-1184.329507,-9039.926876,-1110.308913
4102.615927,-1480.411884,-9346.365076,-518.144159
4102.616251,-1480.411884,-8733.488677,-592.164754
4102.616575,-1332.370696,-8503.660028,-444.123565
4102.616900,0.000000,-9193.145976,-370.102971
4102.617224,370.102971,-8886.707777,-444.123565
4102.617548,518.144159,-8427.050478,-296.082377
4102.617872,1554.432478,-8886.707777,-370.102971
4102.618196,1850.514855,-8580.269578,74.020594
4102.618521,1480.411884,-8427.050478,74.020594
4102.618845,1184.329507,-8580.269578,0.000000
4102.619169,814.226536,-8733.488677,74.020594
4102.619493,1110.308913,-8427.050478,444.123565
4102.619817,740.205942,-8273.831378,-444.123565
4102.620142,1036.288319,-8503.660028,74.020594
4102.620466,74.020594,-7814.174080,-444.123565
4102.620790,222.061783,-8810.098227,-666.185348
4102.621114,222.061783,-7431.126331,-888.247130
4102.621438,-518.144159,-9039.926876,-296.082377
4102.621762,-962.267725,-7890.783629,-1184.329507
4102.622087,-1110.308913,-8963.317327,-222.061783
4102.622411,-1480.411884,-9116.536426,-518.144159
4102.622735,-962.267725,-8503.660028,296.082377
4102.623059,0.000000,-8273.831378,-222.061783
4102.623383,1332.370696,-8580.269578,0.000000
4102.623708,2220.617826,-8197.221829,-370.102971
4102.624032,1998.556043,-8273.831378,0.000000
4102.624356,2442.679609,-8273.831378,0.000000
4102.624680,2738.761985,-8044.002729,-222.061783
4102.625004,2294.638420,-8656.879127,-296.082377
4102.625329,1776.494261,-8350.440928,0.000000
4102.625653,592.164754,-8810.098227,-370.102971
4102.625977,-444.123565,-8963.317327,-1036.288319
4102.626301,-740.205942,-9039.926876,-370.102971
4102.626625,-1110.308913,-8963.317327,-370.102971
4102.626950,-666.185348,-9116.536426,0.000000
4102.627274,-740.205942,-8197.221829,-592.164754
4102.627598,0.000000,-8580.269578,0.000000
4102.627922,148.041188,-8273.831378,-592.164754
4102.628246,1406.391290,-9193.145976,0.000000
4102.628571,1406.391290,-8656.879127,0.000000
4102.628895,1184.329507,-8503.660028,0.000000
4102.629219,592.164754,-8810.098227,0.000000
4102.629543,444.123565,-8197.221829,444.123565
4102.629867,518.144159,-8580.269578,0.000000
4102.630192,888.247130,-9039.926876,0.000000
4102.630516,888.247130,-8427.050478,0.000000
4102.630840,888.247130,-8273.831378,-370.102971
4102.631164,814.226536,-8273.831378,-296.082377
4102.631488,296.082377,-8120.612279,-666.185348
4102.631813,148.041188,-8886.707777,-740.205942
4102.632137,-444.123565,-8427.050478,-740.205942
4102.632461,-962.267725,-8733.488677,-666.185348
4102.632785,-1776.494261,-8886.707777,-592.164754
4102.633109,-1110.308913,-8733.488677,-666.185348
4102.633434,-814.226536,-8733.488677,-962.267725
4102.633758,0.000000,-9116.536426,222.061783
4102.634082,370.102971,-8120.612279,-148.041188
4102.634406,1406.391290,-8273.831378,-444.123565
4102.634730,1702.473667,-7737.564530,-296.082377
4102.635054,2442.679609,-8427.050478,-148.041188
4102.635378,2664.741391,-8580.269578,-296.082377
4102.635702,2516.700203,-8580.269578,-444.123565
4102.636027,1480.411884,-8580.269578,-592.164754
4102.636351,592.164754,-9193.145976,-666.185348
4102.636675,-370.102971,-9499.584175,-666.185348
4102.637000,-962.267725,-9729.412825,-296.082377
4102.637324,-1850.514855,-8503.660028,-666.185348
4102.637648,-1702.473667,-8886.707777,222.061783
4102.637973,-1554.432478,-8197.221829,-518.144159
4102.638297,-148.041188,-8886.707777,0.000000
4102.638621,148.041188,-8120.612279,-296.082377
4102.638946,1332.370696,-8580.269578,222.061783
4102.639270,1702.473667,-7814.174080,-370.102971
4102.639594,2072.576638,-8656.879127,296.082377
4102.639919,1776.494261,-8656.879127,0.000000
4102.640243,740.205942,-8580.269578,148.041188
4102.640568,1036.288319,-8810.098227,0.000000
4102.640892,1332.370696,-8427.050478,296.082377
4102.641216,222.061783,-8273.831378,0.000000
4102.641541,518.144159,-8733.488677,74.020594
4102.641865,296.082377,-7814.174080,-666.185348
4102.642189,222.061783,-8580.269578,-444.123565
4102.642514,-740.205942,-7967.393179,-740.205942
4102.642838,-962.267725,-8350.440928,-370.102971
4102.643162,-1554.432478,-8810.098227,-666.185348
4102.643487,-1406.391290,-8810.098227,-370.102971
4102.643811,-592.164754,-9193.145976,-814.226536
4102.644135,-1110.308913,-8427.050478,0.000000
4102.644460,-222.061783,-8503.660028,-222.061783
4102.644784,888.247130,-7890.783629,-296.082377
4102.645109,2590.720797,-8886.707777,0.000000
4102.645433,2368.659014,-7431.126331,-296.082377
4102.645757,3182.885551,-8810.098227,0.000000
4102.646082,2590.720797,-7507.735880,-666.185348
4102.646406,2886.803174,-9116.536426,-296.082377
4102.646730,1480.411884,-8273.831378,-1332.370696
4102.647055,814.226536,-9499.584175,-296.082377
4102.647379,-222.061783,-8886.707777,-1258.350101
4102.647703,-740.205942,-9652.803275,-518.144159
4102.648028,-1184.329507,-8963.317327,-592.164754
4102.648352,-1110.308913,-8963.317327,0.000000
4102.648676,-888.247130,-8197.221829,-518.144159
4102.649001,0.000000,-8503.660028,-518.144159
4102.649325,1110.308913,-8810.098227,-740.205942
4102.649650,1332.370696,-8350.440928,-296.082377
4102.649974,1406.391290,-8656.879127,-296.082377
4102.650298,1554.432478,-8503.660028,0.000000
4102.650623,888.247130,-8886.707777,0.000000
4102.650947,814.226536,-9193.145976,-222.061783
4102.651271,148.041188,-8656.879127,0.000000
4102.651596,296.082377,-8427.050478,370.102971
4102.651920,592.164754,-8427.050478,0.000000
4102.652244,1036.288319,-8350.440928,-592.164754
4102.652569,1036.288319,-8503.660028,-222.061783
4102.652893,740.205942,-8656.879127,-740.205942
4102.653217,296.082377,-8273.831378,-666.185348
4102.653542,-1184.329507,-8120.612279,-518.144159
4102.653866,-1332.370696,-8427.050478,-296.082377
4102.654191,-1406.391290,-8810.098227,-740.205942
4102.654515,-1332.370696,-9269.755526,-444.123565
4102.654839,-1184.329507,-8503.660028,0.000000
4102.655164,148.041188,-8427.050478,0.000000
4102.655488,1258.350101,-8350.440928,0.000000
4102.655812,2590.720797,-8273.831378,-296.082377
4102.656137,2664.741391,-8197.221829,-296.082377
4102.656461,3552.988522,-8273.831378,-222.061783
4102.656785,2738.761985,-8273.831378,-666.185348
4102.657110,2220.617826,-9499.584175,-518.144159
4102.657434,814.226536,-8503.660028,-1110.308913
4102.657758,-148.041188,-9269.755526,-666.185348
4102.658083,-1258.350101,-8886.707777,-1036.288319
4102.658407,-1554.432478,-9346.365076,-296.082377
4102.658732,-1776.494261,-8733.488677,-518.144159
4102.659056,-1406.391290,-9039.926876,0.000000
4102.659380,-592.164754,-8197.221829,-592.164754
4102.659705,518.144159,-9039.926876,0.000000
4102.660029,518.144159,-7890.783629,-518.144159
4102.660353,888.247130,-8503.660028,296.082377
4102.660678,1554.432478,-8273.831378,-370.102971
4102.661002,1480.411884,-9116.536426,74.020594
4102.661326,666.185348,-8733.488677,0.000000
4102.661651,296.082377,-8963.317327,518.144159
4102.661975,0.000000,-8350.440928,296.082377
4102.662299,296.082377,-8810.098227,592.164754
4102.662624,1184.329507,-7967.393179,-370.102971
4102.662948,1480.411884,-8503.660028,-444.123565
4102.663273,1628.453072,-8197.221829,-370.102971
4102.663597,666.185348,-7814.174080,-666.185348
4102.663921,296.082377,-8197.221829,-666.185348
4102.664246,-222.061783,-8350.440928,-444.123565
4102.664570,-1110.308913,-8656.879127,-444.123565
4102.664894,-2072.576638,-8120.612279,-666.185348
4102.665219,-1332.370696,-8733.488677,148.041188
4102.665543,-666.185348,-8427.050478,222.061783
4102.665867,-1110.308913,-8350.440928,-296.082377
4102.666192,1258.350101,-8044.002729,148.041188
4102.666516,1702.473667,-7737.564530,-1110.308913
4102.666840,2886.803174,-8656.879127,0.000000
4102.667165,3256.906145,-7890.783629,-370.102971
4102.667489,3478.967927,-8886.707777,-296.082377
4102.667814,2516.700203,-9422.974625,-814.226536
4102.668138,1480.411884,-9039.926876,-888.247130
4102.668462,148.041188,-8963.317327,-592.164754
4102.668787,-592.164754,-9346.365076,-518.144159
4102.669111,-1184.329507,-9269.755526,-592.164754
4102.669435,-1554.432478,-8963.317327,-666.185348
4102.669760,-1036.288319,-8427.050478,-370.102971
4102.670084,-370.102971,-8350.440928,-592.164754
4102.670408,518.144159,-8503.660028,-148.041188
4102.670733,1554.432478,-8733.488677,-740.205942
4102.671057,1628.453072,-8427.050478,-222.061783
4102.671381,814.226536,-8656.879127,-592.164754
4102.671706,888.247130,-9193.145976,0.000000
4102.672030,740.205942,-9039.926876,148.041188
4102.672355,1628.453072,-9269.755526,148.041188
4102.672679,74.020594,-8580.269578,-222.061783
4102.673003,0.000000,-8810.098227,296.082377
4102.673328,370.102971,-8044.002729,-592.164754
4102.673652,1184.329507,-8810.098227,-518.144159
4102.673976,962.267725,-7814.174080,-740.205942
4102.674301,370.102971,-8886.707777,-666.185348
4102.674625,-518.144159,-8120.612279,-1184.329507
4102.674949,-888.247130,-9193.145976,-222.061783
4102.675274,-1258.350101,-8733.488677,-962.267725
4102.675598,-888.247130,-9269.755526,-444.123565
4102.675922,-1554.432478,-8810.098227,-370.102971
4102.676247,-518.144159,-9806.022374,74.020594
4102.676571,-148.041188,-8120.612279,-222.061783
4102.676896,888.247130,-8656.879127,0.000000
4102.677220,1998.556043,-7814.174080,-148.041188
4102.677544,2368.659014,-8350.440928,-370.102971
4102.677869,2368.659014,-8350.440928,-296.082377
4102.678193,2368.659014,-8350.440928,-444.123565
4102.678517,2368.659014,-8810.098227,-518.144159
4102.678842,1628.453072,-8503.660028,-666.185348
4102.679166,148.041188,-9806.022374,0.000000
4102.679490,-666.185348,-8963.317327,-740.205942
4102.679815,-1406.391290,-9039.926876,-222.061783
4102.680139,-2812.782580,-8044.002729,-444.123565
4102.680463,-740.205942,-9652.803275,-148.041188
4102.680788,-888.247130,-8044.002729,-814.226536
4102.681112,148.041188,-9116.536426,0.000000
4102.681437,0.000000,-7967.393179,-962.267725
4102.681761,1406.391290,-9269.755526,148.041188
4102.682085,1554.432478,-8427.050478,-666.185348
4102.682410,1998.556043,-8963.317327,888.247130
4102.682734,1184.329507,-7967.393179,-222.061783
4102.683058,1184.329507,-9116.536426,592.164754
4102.683383,1036.288319,-8886.707777,0.000000
4102.683707,222.061783,-8886.707777,444.123565
4102.684031,296.082377,-8120.612279,-518.144159
4102.684356,518.144159,-8580.269578,0.000000
4102.684680,0.000000,-8197.221829,-444.123565
4102.685004,-370.102971,-8503.660028,-592.164754
4102.685329,-518.144159,-8503.660028,-814.226536
4102.685653,-962.267725,-9116.536426,-370.102971
4102.685978,-1110.308913,-8580.269578,-444.123565
4102.686302,-1702.473667,-8427.050478,-296.082377
4102.686626,-592.164754,-8810.098227,74.020594
4102.686951,-296.082377,-8273.831378,-148.041188
4102.687275,1036.288319,-8580.269578,0.000000
4102.687599,1480.411884,-7737.564530,-518.144159
4102.687924,2812.782580,-8427.050478,0.000000
4102.688248,3108.864956,-8273.831378,-592.164754
4102.688572,3330.926739,-8350.440928,-444.123565
4102.688897,2442.679609,-8273.831378,-370.102971
4102.689221,1554.432478,-8427.050478,-962.267725
4102.689545,1406.391290,-9039.926876,-592.164754
4102.689870,0.000000,-9193.145976,-1036.288319
4102.690194,-888.247130,-9269.755526,-444.123565
4102.690519,-2220.617826,-8810.098227,-592.164754
4102.690843,-1258.350101,-8886.707777,-740.205942
4102.691167,-148.041188,-8197.221829,-592.164754
4102.691492,-370.102971,-8350.440928,-592.164754
4102.691816,962.267725,-9422.974625,-962.267725
4102.692140,1258.350101,-8656.879127,-518.144159
4102.692465,1924.535449,-8886.707777,-666.185348
4102.692789,1258.350101,-8503.660028,-148.041188
4102.693113,740.205942,-9116.536426,0.000000
4102.693438,0.000000,-8580.269578,0.000000
4102.693762,74.020594,-9039.926876,74.020594
4102.694086,0.000000,-8273.831378,74.020594
4102.694411,370.102971,-8656.879127,-148.041188
4102.694735,592.164754,-7890.783629,-148.041188
4102.695060,1184.329507,-8503.660028,-296.082377
4102.695384,740.205942,-8427.050478,-1036.288319
4102.695708,296.082377,-8810.098227,-814.226536
4102.696033,-222.061783,-8810.098227,-962.267725
4102.696357,-1036.288319,-9116.536426,-296.082377
4102.696681,-1850.514855,-8350.440928,-666.185348
4102.697006,-1776.494261,-9193.145976,148.041188
4102.697330,-2146.597232,-8197.221829,-740.205942
4102.697654,-518.144159,-9039.926876,-222.061783
4102.697979,370.102971,-8044.002729,-740.205942
4102.698303,1924.535449,-7967.393179,148.041188
4102.698627,2294.638420,-7507.735880,-148.041188
4102.698952,3330.926739,-9193.145976,0.000000
4102.699276,3108.864956,-7737.564530,-296.082377
4102.699601,2516.700203,-8810.098227,-444.123565
4102.699925,1850.514855,-8810.098227,-592.164754
4102.700249,814.226536,-9959.241474,-592.164754
4102.700574,-444.123565,-9193.145976,-592.164754
4102.700898,-1406.391290,-9039.926876,-370.102971
4102.701222,-1998.556043,-8963.317327,-222.061783
4102.701547,-1184.329507,-8503.660028,0.000000
4102.701871,-740.205942,-8580.269578,-666.185348
4102.702195,0.000000,-8656.879127,-444.123565
4102.702520,444.123565,-8350.440928,-740.205942
4102.702844,1332.370696,-8197.221829,-148.041188
4102.703168,1258.350101,-8656.879127,-148.041188
4102.703493,1036.288319,-8580.269578,74.020594
4102.703817,888.247130,-9116.536426,0.000000
4102.704142,1036.288319,-8733.488677,-222.061783
4102.704466,148.041188,-9193.145976,-222.061783
4102.704790,-518.144159,-8044.002729,370.102971
4102.705115,-296.082377,-8273.831378,370.102971
4102.705439,0.000000,-7967.393179,0.000000
4102.705763,518.144159,-9039.926876,-370.102971
4102.706088,296.082377,-8120.612279,-1110.308913
4102.706412,74.020594,-8580.269578,-888.247130
4102.706736,-296.082377,-8120.612279,-1110.308913
4102.707061,-222.061783,-8580.269578,0.000000
4102.707385,-518.144159,-9116.536426,-666.185348
4102.707709,-1036.288319,-8656.879127,-296.082377
4102.708034,-444.123565,-8580.269578,-444.123565
4102.708358,0.000000,-8580.269578,0.000000
4102.708683,666.185348,-8427.050478,-444.123565
4102.709007,1480.411884,-8350.440928,-148.041188
4102.709331,2072.576638,-8044.002729,-148.041188
4102.709656,2664.741391,-8427.050478,-222.061783
4102.709980,2664.741391,-8427.050478,-666.185348
4102.710304,2368.659014,-8963.317327,-148.041188
4102.710629,2072.576638,-9193.145976,-296.082377
4102.710953,814.226536,-8810.098227,-814.226536
4102.711277,296.082377,-9116.536426,-444.123565
4102.711602,-592.164754,-9422.974625,-592.164754
4102.711926,-1036.288319,-8886.707777,-666.185348
4102.712251,-888.247130,-8580.269578,-592.164754
4102.712575,-592.164754,-8503.660028,-814.226536
4102.712899,0.000000,-8503.660028,-518.144159
4102.713224,666.185348,-8656.879127,-518.144159
4102.713548,666.185348,-8273.831378,-518.144159
4102.713872,1406.391290,-8886.707777,0.000000
4102.714197,888.247130,-8656.879127,-518.144159
4102.714521,962.267725,-9499.584175,0.000000
4102.714845,740.205942,-8273.831378,0.000000
4102.715170,518.144159,-8963.317327,0.000000
4102.715494,1184.329507,-8273.831378,74.020594
4102.715818,1110.308913,-8656.879127,-370.102971
4102.716143,1554.432478,-8503.660028,-666.185348
4102.716467,592.164754,-8197.221829,-592.164754
4102.716792,962.267725,-7967.393179,-740.205942
4102.717116,-222.061783,-8427.050478,-518.144159
4102.717440,-740.205942,-8656.879127,-740.205942
4102.717765,-962.267725,-8810.098227,-666.185348
4102.718089,-1850.514855,-8656.879127,-444.123565
4102.718413,-962.267725,-8963.317327,-888.247130
4102.718738,-666.185348,-8810.098227,0.000000
4102.719062,148.041188,-8503.660028,296.082377
4102.719386,814.226536,-8120.612279,-222.061783
4102.719711,2220.617826,-8273.831378,-370.102971
4102.720035,2516.700203,-8120.612279,-222.061783
4102.720359,3182.885551,-8503.660028,-148.041188
4102.720684,2812.782580,-8503.660028,-296.082377
4102.721008,2146.597232,-9116.536426,-222.061783
4102.721333,1036.288319,-8580.269578,-518.144159
4102.721657,222.061783,-8886.707777,0.000000
4102.721981,-740.205942,-8810.098227,-666.185348
4102.722306,-888.247130,-9039.926876,-148.041188
4102.722630,-1480.411884,-8810.098227,-518.144159
4102.722954,-888.247130,-8733.488677,0.000000
4102.723279,-666.185348,-8197.221829,-370.102971
4102.723603,74.020594,-8120.612279,-740.205942
4102.723927,666.185348,-8963.317327,-296.082377
4102.724252,888.247130,-8350.440928,74.020594
4102.724576,1036.288319,-8580.269578,0.000000
4102.724900,814.226536,-8656.879127,222.061783
4102.725225,666.185348,-9039.926876,222.061783
4102.725549,444.123565,-8963.317327,0.000000
4102.725874,-296.082377,-8427.050478,222.061783
4102.726198,74.020594,-7814.174080,0.000000
4102.726522,370.102971,-8427.050478,-296.082377
4102.726847,666.185348,-8120.612279,-740.205942
4102.727171,1184.329507,-8733.488677,-1110.308913
4102.727495,592.164754,-8503.660028,-740.205942
4102.727820,296.082377,-8580.269578,-1036.288319
4102.728144,-592.164754,-8503.660028,-666.185348
4102.728468,-1184.329507,-9039.926876,-592.164754
4102.728793,-2146.597232,-8580.269578,-888.247130
4102.729117,-1406.391290,-8733.488677,-296.082377
4102.729441,-962.267725,-8427.050478,0.000000
4102.729766,-518.144159,-8580.269578,-296.082377
4102.730090,0.000000,-7890.783629,-666.185348
4102.730415,1776.494261,-7890.783629,222.061783
4102.730739,2368.659014,-8197.221829,-222.061783
4102.731063,3108.864956,-8120.612279,-370.102971
4102.731388,3034.844362,-8427.050478,0.000000
4102.731712,2442.679609,-8810.098227,-148.041188
4102.732036,1702.473667,-8963.317327,-1110.308913
4102.732361,962.267725,-9499.584175,-518.144159
4102.732685,0.000000,-9346.365076,-814.226536
4102.733009,-1332.370696,-9116.536426,-666.185348
4102.733334,-1332.370696,-9269.755526,-444.123565
4102.733658,-1480.411884,-8273.831378,0.000000
4102.733982,-370.102971,-8273.831378,-222.061783
4102.734307,888.247130,-8656.879127,-444.123565
4102.734631,666.185348,-8503.660028,-222.061783
4102.734956,1924.535449,-8350.440928,0.000000
4102.735280,2146.597232,-8656.879127,-740.205942
4102.735604,1702.473667,-8656.879127,-370.102971
4102.735928,1406.391290,-9116.536426,222.061783
4102.736253,666.185348,-8810.098227,222.061783
4102.736577,222.061783,-8656.879127,0.000000
4102.736901,1998.556043,-8197.221829,740.205942
4102.737226,-2664.741391,-8503.660028,-1036.288319
4102.737550,1036.288319,-8656.879127,-148.041188
4102.737874,-296.082377,-7660.954980,-1110.308913
4102.738198,1184.329507,-8963.317327,0.000000
4102.738523,888.247130,-8886.707777,-1184.329507
4102.738847,-814.226536,-8656.879127,-1036.288319
4102.739171,-1110.308913,-9193.145976,-296.082377
4102.739495,-1628.453072,-7890.783629,-1924.535449
4102.739820,-1258.350101,-9882.631924,1036.288319
4102.740144,-1850.514855,-7737.564530,-888.247130
4102.740468,0.000000,-9039.926876,222.061783
4102.740792,-222.061783,-7507.735880,-222.061783
4102.741117,1702.473667,-8197.221829,148.041188
4102.741441,2664.741391,-8273.831378,0.000000
4102.741765,2368.659014,-8350.440928,0.000000
4102.742089,2664.741391,-8427.050478,0.000000
4102.742414,3034.844362,-8733.488677,-518.144159
4102.742738,1184.329507,-8963.317327,-370.102971
4102.743062,888.247130,-9039.926876,-592.164754
4102.743387,74.020594,-8733.488677,-592.164754
4102.743711,-1406.391290,-9576.193725,-296.082377
4102.744035,-666.185348,-9039.926876,-592.164754
4102.744359,-666.185348,-8886.707777,0.000000
4102.744684,-740.205942,-8427.050478,-222.061783
4102.745008,666.185348,-8427.050478,-222.061783
4102.745332,444.123565,-8120.612279,-518.144159
4102.745656,1628.453072,-8810.098227,0.000000
4102.745981,1850.514855,-8120.612279,-814.226536
4102.746305,296.082377,-8886.707777,-222.061783
4102.746629,148.041188,-8656.879127,0.000000
4102.746953,222.061783,-9039.926876,296.082377
4102.747278,-666.185348,-8503.660028,0.000000
4102.747602,518.144159,-7967.393179,222.061783
4102.747926,74.020594,-8810.098227,-222.061783
4102.748250,962.267725,-8503.660028,-148.041188
4102.748575,1702.473667,-8044.002729,-1110.308913
4102.748899,-74.020594,-8810.098227,-296.082377
4102.749223,-296.082377,-8044.002729,-1184.329507
4102.749548,-740.205942,-8273.831378,-592.164754
4102.749872,-1258.350101,-9499.584175,-962.267725
4102.750196,-1850.514855,-8503.660028,-370.102971
4102.750520,-1258.350101,-8656.879127,-148.041188
4102.750845,-814.226536,-8350.440928,-296.082377
4102.751169,1184.329507,-8503.660028,-370.102971
4102.751493,1702.473667,-7967.393179,-740.205942
4102.751817,2664.741391,-8810.098227,74.020594
4102.752142,2590.720797,-7737.564530,-444.123565
4102.752466,3182.885551,-8656.879127,0.000000
4102.752790,2664.741391,-8197.221829,-148.041188
4102.753114,2220.617826,-9422.974625,-370.102971
4102.753439,1406.391290,-8656.879127,-1332.370696
4102.753763,518.144159,-9422.974625,0.000000
4102.754087,-444.123565,-8427.050478,-592.164754
4102.754411,-1332.370696,-9193.145976,-296.082377
4102.754736,-1554.432478,-8197.221829,-592.164754
4102.755060,-666.185348,-9116.536426,-296.082377
4102.755384,0.000000,-8427.050478,-518.144159
4102.755709,444.123565,-8656.879127,-444.123565
4102.756033,1332.370696,-8580.269578,-888.247130
4102.756357,1258.350101,-8580.269578,0.000000
4102.756681,1184.329507,-8656.879127,-814.226536
4102.757006,962.267725,-8733.488677,0.000000
4102.757330,888.247130,-8580.269578,370.102971
4102.757654,-296.082377,-9193.145976,-222.061783
4102.757978,148.041188,-8733.488677,444.123565
4102.758303,74.020594,-8350.440928,370.102971
4102.758627,296.082377,-8120.612279,-444.123565
4102.758951,666.185348,-7967.393179,-148.041188
4102.759275,1258.350101,-8197.221829,-592.164754
4102.759600,1184.329507,-8810.098227,-1332.370696
4102.759924,222.061783,-7967.393179,-444.123565
4102.760248,-222.061783,-9193.145976,-518.144159
4102.760572,-962.267725,-8120.612279,-740.205942
4102.760897,-888.247130,-9422.974625,-518.144159
4102.761221,-1628.453072,-8273.831378,0.000000
4102.761545,-518.144159,-8656.879127,0.000000
4102.761869,0.000000,-8044.002729,-222.061783
4102.762194,1184.329507,-8503.660028,370.102971
4102.762518,2072.576638,-7584.345430,-148.041188
4102.762842,2220.617826,-8427.050478,-296.082377
4102.763167,2590.720797,-7890.783629,-148.041188
4102.763491,2368.659014,-8580.269578,148.041188
4102.763815,2072.576638,-8120.612279,-814.226536
4102.764139,1850.514855,-8963.317327,-444.123565
4102.764464,370.102971,-8886.707777,-1184.329507
4102.764788,-666.185348,-9652.803275,-518.144159
4102.765112,-1258.350101,-8886.707777,-370.102971
4102.765436,-1258.350101,-9346.365076,-592.164754
4102.765761,-1258.350101,-9039.926876,0.000000
4102.766085,-1480.411884,-8350.440928,-222.061783
4102.766409,-370.102971,-8580.269578,0.000000
4102.766733,74.020594,-7890.783629,0.000000
4102.767058,814.226536,-8427.050478,-370.102971
4102.767382,666.185348,-8350.440928,0.000000
4102.767706,1184.329507,-8503.660028,592.164754
4102.768030,1184.329507,-8273.831378,-444.123565
4102.768355,1628.453072,-9193.145976,370.102971
4102.768679,1036.288319,-8350.440928,-222.061783
4102.769003,962.267725,-8963.317327,296.082377
4102.769328,814.226536,-8197.221829,0.000000
4102.769652,1258.350101,-8503.660028,0.000000
4102.769976,296.082377,-8120.612279,-1332.370696
4102.770300,-148.041188,-8733.488677,-518.144159
4102.770625,-222.061783,-8733.488677,-962.267725
4102.770949,-962.267725,-8886.707777,-370.102971
4102.771273,-1554.432478,-7967.393179,-1110.308913
4102.771597,-1332.370696,-8810.098227,-518.144159
4102.771922,-1480.411884,-8427.050478,-296.082377
4102.772246,0.000000,-8580.269578,222.061783
4102.772570,1110.308913,-7814.174080,-666.185348
4102.772894,1776.494261,-8810.098227,-222.061783
4102.773219,2442.679609,-8427.050478,-296.082377
4102.773543,2664.741391,-8273.831378,-370.102971
4102.773867,2072.576638,-8503.660028,-296.082377
4102.774191,1924.535449,-8273.831378,-444.123565
4102.774516,1628.453072,-8350.440928,-592.164754
4102.774840,666.185348,-8886.707777,-888.247130
4102.775164,518.144159,-9269.755526,-888.247130
4102.775489,-666.185348,-8580.269578,-1036.288319
4102.775813,-962.267725,-9039.926876,-518.144159
4102.776137,-592.164754,-8963.317327,-592.164754
4102.776461,-222.061783,-9269.755526,0.000000
4102.776786,-444.123565,-7814.174080,-1110.308913
4102.777110,148.041188,-9422.974625,-296.082377
4102.777434,592.164754,-7967.393179,-666.185348
4102.777758,1258.350101,-9039.926876,0.000000
4102.778083,370.102971,-7814.174080,74.020594
4102.778407,592.164754,-8503.660028,148.041188
4102.778731,444.123565,-8503.660028,0.000000
4102.779055,222.061783,-8963.317327,518.144159
4102.779380,592.164754,-8197.221829,0.000000
4102.779704,962.267725,-8427.050478,296.082377
4102.780028,888.247130,-8044.002729,-592.164754
4102.780352,1110.308913,-8733.488677,-444.123565
4102.780677,740.205942,-7814.174080,-888.247130
4102.781001,370.102971,-8810.098227,-148.041188
4102.781325,-592.164754,-8427.050478,-962.267725
4102.781650,-1258.350101,-9193.145976,74.020594
4102.781974,-1332.370696,-8656.879127,-592.164754
4102.782298,-888.247130,-9193.145976,-444.123565
4102.782622,-888.247130,-8503.660028,-222.061783
4102.782947,-444.123565,-8350.440928,-222.061783
4102.783271,592.164754,-8427.050478,-296.082377
4102.783595,1480.411884,-7814.174080,-148.041188
4102.783919,2886.803174,-8427.050478,74.020594
4102.784244,3256.906145,-7737.564530,-370.102971
4102.784568,2590.720797,-8886.707777,0.000000
4102.784892,2442.679609,-8120.612279,-740.205942
4102.785216,2368.659014,-9576.193725,0.000000
4102.785541,296.082377,-8733.488677,-888.247130
4102.785865,222.061783,-9576.193725,-296.082377
4102.786189,-962.267725,-8427.050478,-1036.288319
4102.786513,-1406.391290,-9576.193725,0.000000
4102.786838,-1628.453072,-8044.002729,-666.185348
4102.787162,-962.267725,-9269.755526,0.000000
4102.787486,-592.164754,-7967.393179,-1036.288319
4102.787810,592.164754,-8886.707777,0.000000
4102.788135,1036.288319,-7890.783629,-888.247130
4102.788459,1998.556043,-8886.707777,0.000000
4102.788783,1258.350101,-8427.050478,-592.164754
4102.789108,592.164754,-9346.365076,296.082377
4102.789432,666.185348,-8580.269578,-740.205942
4102.789756,74.020594,-8810.098227,370.102971
4102.790080,666.185348,-8427.050478,296.082377
4102.790405,370.102971,-8503.660028,148.041188
4102.790729,518.144159,-7814.174080,-518.144159
4102.791053,666.185348,-8273.831378,-666.185348
4102.791377,592.164754,-7890.783629,-1184.329507
4102.791702,666.185348,-9116.536426,-444.123565
4102.792026,-592.164754,-8427.050478,-962.267725
4102.792350,-370.102971,-9729.412825,-148.041188
4102.792674,-1776.494261,-8197.221829,-962.267725
4102.792999,-962.267725,-9806.022374,-296.082377
4102.793323,-888.247130,-8197.221829,-666.185348
4102.793647,0.000000,-8580.269578,0.000000
4102.793971,666.185348,-8273.831378,-444.123565
4102.794296,1850.514855,-8273.831378,0.000000
4102.794620,2886.803174,-7890.783629,-444.123565
4102.794944,2738.761985,-8427.050478,-370.102971
4102.795269,3034.844362,-8044.002729,-592.164754
4102.795593,2442.679609,-8886.707777,-222.061783
4102.795917,1998.556043,-9039.926876,-1184.329507
4102.796241,814.226536,-9193.145976,-518.144159
4102.796566,222.061783,-9729.412825,-814.226536
4102.796890,-1628.453072,-8886.707777,-814.226536
4102.797214,-1480.411884,-9499.584175,-592.164754
4102.797538,-1332.370696,-8273.831378,-888.247130
4102.797863,-1554.432478,-9039.926876,-222.061783
4102.798187,0.000000,-7890.783629,-592.164754
4102.798511,888.247130,-9193.145976,0.000000
4102.798835,1184.329507,-7890.783629,-222.061783
4102.799160,888.247130,-9269.755526,148.041188
4102.799484,444.123565,-8120.612279,-740.205942
4102.799808,1332.370696,-9346.365076,148.041188
4102.800132,444.123565,-8197.221829,-148.041188
4102.800457,148.041188,-9116.536426,148.041188
4102.800781,296.082377,-7967.393179,0.000000
4102.801105,888.247130,-8810.098227,74.020594
4102.801430,592.164754,-7584.345430,-592.164754
4102.801754,1406.391290,-8120.612279,-370.102971
4102.802078,888.247130,-8886.707777,-518.144159
4102.802402,592.164754,-8273.831378,-592.164754
4102.802727,-814.226536,-8656.879127,-444.123565
4102.803051,-740.205942,-8503.660028,-370.102971
4102.803375,-1258.350101,-8656.879127,-592.164754
4102.803699,-1184.329507,-9116.536426,-296.082377
4102.804024,-740.205942,-8733.488677,0.000000
4102.804348,-518.144159,-8273.831378,-74.020594
4102.804672,666.185348,-8580.269578,-74.020594
4102.804996,1480.411884,-8580.269578,0.000000
4102.805321,2812.782580,-8197.221829,-444.123565
4102.805645,3478.967927,-8656.879127,0.000000
4102.805969,3108.864956,-7967.393179,-370.102971
4102.806293,2294.638420,-8886.707777,0.000000
4102.806618,1184.329507,-8503.660028,-814.226536
4102.806942,666.185348,-9039.926876,-370.102971
4102.807266,-814.226536,-9039.926876,-592.164754
4102.807591,-1628.453072,-9116.536426,-370.102971
4102.807915,-1554.432478,-9269.755526,-370.102971
4102.808239,-1776.494261,-8120.612279,-296.082377
4102.808563,-740.205942,-8810.098227,-592.164754
4102.808888,-370.102971,-7967.393179,-1110.308913
4102.809212,222.061783,-9269.755526,592.164754
4102.809536,592.164754,-7890.783629,-666.185348
4102.809860,1628.453072,-9499.584175,0.000000
4102.810185,1036.288319,-8350.440928,-370.102971
4102.810509,962.267725,-9269.755526,296.082377
4102.810833,444.123565,-8503.660028,-592.164754
4102.811157,-518.144159,-9422.974625,518.144159
4102.811482,148.041188,-8350.440928,-148.041188
4102.811806,296.082377,-8656.879127,-444.123565
4102.812130,444.123565,-8044.002729,148.041188
4102.812454,518.144159,-8273.831378,-296.082377
4102.812779,814.226536,-8044.002729,-592.164754
4102.813103,0.000000,-8733.488677,-740.205942
4102.813427,-148.041188,-8197.221829,-518.144159
4102.813751,-814.226536,-8580.269578,-666.185348
4102.814076,-1258.350101,-8810.098227,-592.164754
4102.814400,-888.247130,-8810.098227,-296.082377
4102.814724,-740.205942,-8503.660028,-370.102971
4102.815049,370.102971,-8733.488677,0.000000
4102.815373,1036.288319,-7737.564530,-296.082377
4102.815697,2442.679609,-8350.440928,-222.061783
4102.816021,2886.803174,-7737.564530,-592.164754
4102.816346,3034.844362,-8197.221829,-666.185348
4102.816670,2516.700203,-8810.098227,-518.144159
4102.816994,2072.576638,-8733.488677,-296.082377
4102.817318,1702.473667,-8886.707777,-962.267725
4102.817643,0.000000,-8810.098227,-666.185348
4102.817967,-222.061783,-9422.974625,-740.205942
4102.818291,-1406.391290,-9039.926876,-814.226536
4102.818615,-1036.288319,-9116.536426,-888.247130
4102.818940,-962.267725,-8273.831378,-666.185348
4102.819264,-666.185348,-8656.879127,-740.205942
4102.819588,222.061783,-8350.440928,0.000000
4102.819912,592.164754,-8120.612279,-296.082377
4102.820237,1036.288319,-8427.050478,0.000000
4102.820561,1332.370696,-8733.488677,-296.082377
4102.820885,1258.350101,-8733.488677,148.041188
4102.821210,1110.308913,-9039.926876,0.000000
4102.821534,740.205942,-9116.536426,0.000000
4102.821858,592.164754,-9422.974625,0.000000
4102.822182,740.205942,-8427.050478,222.061783
4102.822507,592.164754,-8503.660028,0.000000
4102.822831,888.247130,-8044.002729,-222.061783
4102.823155,1406.391290,-8273.831378,0.000000
4102.823479,-1110.308913,-8656.879127,-592.164754
4102.823804,0.000000,-8810.098227,-592.164754
4102.824128,-1258.350101,-7967.393179,-666.185348
4102.824452,-518.144159,-9806.022374,0.000000
4102.824776,-1850.514855,-8963.317327,-592.164754
4102.825101,-592.164754,-8963.317327,0.000000
4102.825425,-814.226536,-8427.050478,0.000000
4102.825749,814.226536,-8273.831378,-666.185348
4102.826073,1628.453072,-8350.440928,74.020594
4102.826398,2368.659014,-8427.050478,-222.061783
4102.826722,2590.720797,-8197.221829,74.020594
4102.827046,2220.617826,-8427.050478,-666.185348
4102.827371,2516.700203,-8963.317327,0.000000
4102.827695,2220.617826,-8273.831378,-518.144159
4102.828019,518.144159,-9499.584175,-444.123565
4102.828343,-296.082377,-8503.660028,-444.123565
4102.828668,-444.123565,-9269.755526,-370.102971
4102.828992,-1036.288319,-9806.022374,148.041188
4102.829316,-1332.370696,-8733.488677,-370.102971
4102.829640,-1036.288319,-8503.660028,-888.247130
4102.829965,-444.123565,-8427.050478,-740.205942
4102.830289,222.061783,-8197.221829,-444.123565
4102.830613,666.185348,-8120.612279,-148.041188
4102.830937,2294.638420,-8580.269578,-296.082377
4102.831262,962.267725,-8733.488677,-518.144159
4102.831586,1110.308913,-9116.536426,0.000000
4102.831910,370.102971,-9116.536426,0.000000
4102.832234,222.061783,-9039.926876,-148.041188
4102.832559,444.123565,-8503.660028,74.020594
4102.832883,0.000000,-8350.440928,222.061783
4102.833207,962.267725,-8120.612279,-888.247130
4102.833531,740.205942,-8963.317327,148.041188
4102.833856,888.247130,-8197.221829,-370.102971
4102.834180,296.082377,-8197.221829,-666.185348
4102.834504,0.000000,-8427.050478,-962.267725
4102.834829,370.102971,-9193.145976,-148.041188
4102.835153,-1110.308913,-8580.269578,-814.226536
4102.835477,-1628.453072,-9039.926876,-296.082377
4102.835801,-1332.370696,-8886.707777,-222.061783
4102.836126,-518.144159,-9116.536426,0.000000
4102.836450,-296.082377,-8810.098227,-148.041188
4102.836774,814.226536,-8120.612279,-296.082377
4102.837099,1628.453072,-8273.831378,-296.082377
4102.837423,1702.473667,-7890.783629,444.123565
4102.837748,3404.947333,-8427.050478,0.000000
4102.838072,2812.782580,-8273.831378,-740.205942
4102.838396,2886.803174,-9269.755526,-518.144159
4102.838721,1480.411884,-8503.660028,-888.247130
4102.839045,2072.576638,-9039.926876,0.000000
4102.839369,-888.247130,-8733.488677,-666.185348
4102.839694,-2738.761985,-8580.269578,0.000000
4102.840018,-2368.659014,-8197.221829,-888.247130
4102.840343,0.000000,-8273.831378,370.102971
4102.840667,-222.061783,-8350.440928,-1332.370696
4102.840991,148.041188,-8427.050478,-370.102971
4102.841316,666.185348,-8580.269578,0.000000
4102.841640,1480.411884,-7967.393179,74.020594
4102.841964,3701.029710,-9116.536426,-592.164754
4102.842289,1184.329507,-8197.221829,-296.082377
4102.842613,962.267725,-9116.536426,148.041188
4102.842938,74.020594,-8580.269578,-296.082377
4102.843262,1480.411884,-9193.145976,370.102971
4102.843586,-222.061783,-8044.002729,-518.144159
4102.843911,222.061783,-8733.488677,-222.061783
4102.844235,-296.082377,-8044.002729,0.000000
4102.844560,296.082377,-8656.879127,-444.123565
4102.844884,518.144159,-8733.488677,-518.144159
4102.845208,296.082377,-8427.050478,-814.226536
4102.845533,-1184.329507,-8886.707777,-444.123565
4102.845857,-1554.432478,-8580.269578,-814.226536
4102.846181,-1258.350101,-8886.707777,0.000000
4102.846506,-814.226536,-8503.660028,-666.185348
4102.846830,-74.020594,-8810.098227,-518.144159
4102.847155,888.247130,-8886.707777,-148.041188
4102.847479,1480.411884,-8503.660028,0.000000
4102.847803,1998.556043,-8656.879127,-148.041188
4102.848128,2294.638420,-8120.612279,-592.164754
4102.848452,2812.782580,-8427.050478,0.000000
4102.848777,2442.679609,-8427.050478,-1184.329507
4102.849101,2220.617826,-9652.803275,0.000000
4102.849425,518.144159,-8580.269578,-814.226536
4102.849750,444.123565,-9499.584175,-370.102971
4102.850074,-666.185348,-8580.269578,-1184.329507
4102.850398,-1110.308913,-9499.584175,-518.144159
4102.850723,-1110.308913,-8886.707777,-666.185348
4102.851047,-222.061783,-8810.098227,-148.041188
4102.851372,-370.102971,-8503.660028,-592.164754
4102.851696,666.185348,-8503.660028,-444.123565
4102.852020,888.247130,-8273.831378,-444.123565
4102.852345,1406.391290,-8656.879127,0.000000
4102.852669,888.247130,-8503.660028,-370.102971
4102.852994,888.247130,-8810.098227,0.000000
4102.853318,666.185348,-8810.098227,0.000000
4102.853642,148.041188,-8427.050478,0.000000
4102.853967,0.000000,-8427.050478,0.000000
4102.854291,296.082377,-8273.831378,222.061783
4102.854615,148.041188,-7967.393179,-592.164754
4102.854940,666.185348,-8580.269578,-296.082377
4102.855264,740.205942,-8197.221829,-740.205942
4102.855589,296.082377,-8886.707777,-444.123565
4102.855913,0.000000,-9499.584175,-1184.329507
4102.856237,0.000000,-9652.803275,222.061783
4102.856562,-740.205942,-8273.831378,-666.185348
4102.856886,-1554.432478,-8963.317327,74.020594
4102.857211,-1628.453072,-8503.660028,-222.061783
4102.857535,222.061783,-8963.317327,-148.041188
4102.857859,518.144159,-8350.440928,-666.185348
4102.858184,1184.329507,-8120.612279,-74.020594
4102.858508,2590.720797,-7890.783629,0.000000
4102.858832,2590.720797,-8120.612279,-222.061783
4102.859157,3330.926739,-8810.098227,-148.041188
4102.859481,2886.803174,-8197.221829,-444.123565
4102.859806,1998.556043,-9422.974625,74.020594
4102.860130,814.226536,-8963.317327,-962.267725
4102.860454,666.185348,-9193.145976,148.041188
4102.860779,-1036.288319,-8733.488677,-888.247130
4102.861103,-1850.514855,-9116.536426,-222.061783
4102.861427,-1480.411884,-8120.612279,-962.267725
4102.861752,-1110.308913,-8810.098227,0.000000
4102.862076,-370.102971,-8197.221829,-370.102971
4102.862401,814.226536,-8427.050478,0.000000
4102.862725,1110.308913,-8427.050478,-518.144159
4102.863049,2072.576638,-8963.317327,222.061783
4102.863374,1554.432478,-8503.660028,-592.164754
4102.863698,1332.370696,-8963.317327,148.041188
4102.864023,1110.308913,-8273.831378,-148.041188
4102.864347,74.020594,-9116.536426,-296.082377
4102.864671,0.000000,-8656.879127,0.000000
4102.864996,222.061783,-8120.612279,222.061783
4102.865320,148.041188,-8350.440928,-962.267725
4102.865644,518.144159,-8503.660028,0.000000
4102.865969,592.164754,-7814.174080,-814.226536
4102.866293,222.061783,-8886.707777,-888.247130
4102.866618,0.000000,-8733.488677,-370.102971
4102.866942,-592.164754,-8733.488677,-222.061783
4102.867266,-370.102971,-8886.707777,-962.267725
4102.867591,-962.267725,-8503.660028,-666.185348
4102.867915,-962.267725,-9422.974625,-370.102971
4102.868240,-370.102971,-8197.221829,-370.102971
4102.868564,444.123565,-8810.098227,0.000000
4102.868888,1480.411884,-8120.612279,-444.123565
4102.869213,2294.638420,-7890.783629,-370.102971
4102.869537,2590.720797,-8503.660028,-740.205942
4102.869861,2812.782580,-8886.707777,-518.144159
4102.870186,2368.659014,-8810.098227,-666.185348
4102.870510,1258.350101,-9193.145976,0.000000
4102.870835,296.082377,-8886.707777,-666.185348
4102.871159,0.000000,-9346.365076,-962.267725
4102.871483,-1036.288319,-9806.022374,-740.205942
4102.871808,-962.267725,-8810.098227,-222.061783
4102.872132,-1332.370696,-8197.221829,-888.247130
4102.872457,-370.102971,-8733.488677,-148.041188
4102.872781,0.000000,-8427.050478,-444.123565
4102.873105,222.061783,-8580.269578,-222.061783
4102.873430,1258.350101,-8427.050478,-370.102971
4102.873754,1406.391290,-8886.707777,148.041188
4102.874078,814.226536,-8503.660028,-444.123565
4102.874403,370.102971,-9116.536426,74.020594
4102.874727,370.102971,-8733.488677,0.000000
4102.875052,74.020594,-8963.317327,296.082377
4102.875376,0.000000,-8427.050478,0.000000
4102.875700,74.020594,-8350.440928,370.102971
4102.876025,740.205942,-7967.393179,-370.102971
4102.876349,1036.288319,-8350.440928,-148.041188
4102.876673,814.226536,-8044.002729,-444.123565
4102.876998,74.020594,-8733.488677,-296.082377
4102.877322,-296.082377,-8656.879127,-592.164754
4102.877647,-444.123565,-8733.488677,-444.123565
4102.877971,-888.247130,-8503.660028,-148.041188
4102.878295,-1258.350101,-8810.098227,-296.082377
4102.878620,-666.185348,-8580.269578,444.123565
4102.878944,0.000000,-8273.831378,0.000000
4102.879269,814.226536,-8810.098227,0.000000
4102.879593,1850.514855,-8197.221829,-296.082377
4102.879917,1628.453072,-8656.879127,0.000000
4102.880242,2516.700203,-8810.098227,-222.061783
4102.880566,2294.638420,-8656.879127,-444.123565
4102.880890,2368.659014,-8656.879127,-666.185348
4102.881215,1554.432478,-8886.707777,-222.061783
4102.881539,222.061783,-9193.145976,-592.164754
4102.881864,-444.123565,-9193.145976,0.000000
4102.882188,-1480.411884,-8427.050478,-666.185348
4102.882512,-1554.432478,-9116.536426,-740.205942
4102.882837,-1776.494261,-7507.735880,-592.164754
4102.883161,-592.164754,-8350.440928,0.000000
4102.883486,74.020594,-8197.221829,-962.267725
4102.883810,888.247130,-9039.926876,0.000000
4102.884134,888.247130,-9193.145976,-370.102971
4102.884459,1776.494261,-8733.488677,0.000000
4102.884783,1628.453072,-8427.050478,-222.061783
4102.885107,1406.391290,-8810.098227,0.000000
4102.885432,1110.308913,-8886.707777,-148.041188
4102.885756,518.144159,-8503.660028,-444.123565
4102.886081,296.082377,-8656.879127,222.061783
4102.886405,370.102971,-8120.612279,0.000000
4102.886729,518.144159,-8197.221829,-296.082377
4102.887054,1480.411884,-8886.707777,-444.123565
4102.887378,592.164754,-8580.269578,-888.247130
4102.887703,74.020594,-8350.440928,-444.123565
4102.888027,0.000000,-8580.269578,-888.247130
4102.888351,-148.041188,-8810.098227,74.020594
4102.888676,-740.205942,-8503.660028,-740.205942
4102.889000,-518.144159,-8656.879127,-222.061783
4102.889324,-1036.288319,-8656.879127,-740.205942
4102.889649,-370.102971,-9193.145976,0.000000
4102.889973,296.082377,-7967.393179,-370.102971
4102.890298,1332.370696,-8350.440928,0.000000
4102.890622,2294.638420,-7890.783629,-518.144159
4102.890946,2812.782580,-8427.050478,-296.082377
4102.891271,2442.679609,-7737.564530,0.000000
4102.891595,1850.514855,-8044.002729,0.000000
4102.891920,1776.494261,-8886.707777,-740.205942
4102.892244,666.185348,-9039.926876,-592.164754
4102.892568,74.020594,-9499.584175,-370.102971
4102.892893,-814.226536,-8886.707777,-592.164754
4102.893217,-1110.308913,-9269.755526,-740.205942
4102.893541,-1258.350101,-8580.269578,-740.205942
4102.893866,-296.082377,-8810.098227,-666.185348
4102.894190,0.000000,-8197.221829,-296.082377
4102.894515,740.205942,-8733.488677,0.000000
4102.894839,1258.350101,-8427.050478,-296.082377
4102.895163,1554.432478,-8656.879127,74.020594
4102.895488,1110.308913,-8656.879127,-148.041188
4102.895812,1406.391290,-8963.317327,0.000000
4102.896136,814.226536,-8273.831378,0.000000
4102.896461,-222.061783,-9193.145976,0.000000
4102.896785,74.020594,-8273.831378,0.000000
4102.897110,74.020594,-8427.050478,0.000000
4102.897434,222.061783,-8503.660028,-740.205942
4102.897758,74.020594,-8810.098227,-666.185348
4102.898083,0.000000,-8427.050478,-814.226536
4102.898407,0.000000,-9116.536426,-666.185348
4102.898732,-740.205942,-8350.440928,-888.247130
4102.899056,-888.247130,-9193.145976,-370.102971
4102.899380,-1702.473667,-8427.050478,-666.185348
4102.899705,-1110.308913,-9116.536426,-296.082377
4102.900029,-1110.308913,-8197.221829,-296.082377
4102.900353,-148.041188,-8580.269578,-148.041188
4102.900678,296.082377,-7737.564530,-370.102971
4102.901002,1258.350101,-8197.221829,222.061783
4102.901327,2368.659014,-8044.002729,-296.082377
4102.901651,2812.782580,-8733.488677,0.000000
4102.901975,3034.844362,-8656.879127,0.000000
4102.902300,2664.741391,-8503.660028,-518.144159
4102.902624,1998.556043,-9499.584175,-444.123565
4102.902949,888.247130,-8886.707777,-222.061783
4102.903273,-444.123565,-8963.317327,-444.123565
4102.903597,-1554.432478,-8886.707777,0.000000
4102.903922,-1480.411884,-8963.317327,0.000000
4102.904246,-1036.288319,-8120.612279,-222.061783
4102.904570,0.000000,-8656.879127,0.000000
4102.904895,444.123565,-7967.393179,0.000000
4102.905219,1406.391290,-8810.098227,0.000000
4102.905544,888.247130,-8197.221829,0.000000
4102.905868,2516.700203,-9116.536426,-296.082377
4102.906192,2072.576638,-8044.002729,-370.102971
4102.906517,666.185348,-8810.098227,0.000000
4102.906841,2516.700203,-8733.488677,0.000000
4102.907166,-592.164754,-8656.879127,0.000000
4102.907490,-1702.473667,-8503.660028,222.061783
4102.907814,-222.061783,-7890.783629,296.082377
4102.908139,-370.102971,-8044.002729,-370.102971
4102.908463,74.020594,-8503.660028,-370.102971
4102.908787,1258.350101,-8044.002729,-814.226536
4102.909112,1702.473667,-9652.803275,-814.226536
4102.909436,-814.226536,-8273.831378,-1850.514855
4102.909761,0.000000,-9269.755526,518.144159
4102.910085,-1480.411884,-8044.002729,-1332.370696
4102.910409,-296.082377,-9806.022374,0.000000
4102.910734,0.000000,-8350.440928,-592.164754
4102.911058,518.144159,-9346.365076,-518.144159
4102.911382,370.102971,-8197.221829,-444.123565
4102.911707,1406.391290,-8733.488677,-296.082377
4102.912031,2072.576638,-8197.221829,-296.082377
4102.912356,2886.803174,-8120.612279,-296.082377
4102.912680,2960.823768,-8810.098227,-888.247130
4102.913004,2738.761985,-9116.536426,-1406.391290
4102.913329,1628.453072,-8886.707777,0.000000
4102.913653,1110.308913,-9116.536426,-666.185348
4102.913978,-296.082377,-9422.974625,-666.185348
4102.914302,-1924.535449,-8963.317327,-444.123565
4102.914626,-592.164754,-9806.022374,-592.164754
4102.914951,-1406.391290,-8427.050478,-1036.288319
4102.915275,444.123565,-8963.317327,-296.082377
4102.915599,-296.082377,-8350.440928,-444.123565
4102.915924,740.205942,-8273.831378,-888.247130
4102.916248,1184.329507,-7967.393179,-296.082377
4102.916573,1480.411884,-9039.926876,-148.041188
4102.916897,1850.514855,-8656.879127,-222.061783
4102.917221,370.102971,-9269.755526,0.000000
4102.917546,-592.164754,-9039.926876,148.041188
4102.917870,0.000000,-8656.879127,0.000000
4102.918195,-222.061783,-8273.831378,222.061783
4102.918519,-222.061783,-8427.050478,370.102971
4102.918843,0.000000,-7737.564530,-370.102971
4102.919168,740.205942,-8427.050478,-296.082377
4102.919492,962.267725,-7890.783629,-518.144159
4102.919816,518.144159,-8580.269578,-1110.308913
4102.920141,-666.185348,-8427.050478,-296.082377
4102.920465,-814.226536,-8580.269578,-222.061783
4102.920790,-1110.308913,-9039.926876,-1110.308913
4102.921114,-1480.411884,-8656.879127,-148.041188
4102.921438,-962.267725,-8503.660028,-222.061783
