#time,accel_x,accel_y,accel_z
5562.072789,518.144159,-8656.879127,-592.164754
5562.073114,740.205942,-8810.098227,-888.247130
5562.073438,370.102971,-8273.831378,0.000000
5562.073762,518.144159,-8427.050478,-148.041188
5562.074087,296.082377,-8503.660028,-370.102971
5562.074411,592.164754,-8656.879127,-370.102971
5562.074736,592.164754,-8427.050478,-296.082377
5562.075060,444.123565,-8656.879127,-296.082377
5562.075385,148.041188,-8733.488677,0.000000
5562.075709,296.082377,-8810.098227,-370.102971
5562.076033,592.164754,-8656.879127,-444.123565
5562.076358,370.102971,-8733.488677,0.000000
5562.076682,518.144159,-8427.050478,-370.102971
5562.077007,296.082377,-8886.707777,-370.102971
5562.077331,592.164754,-8580.269578,0.000000
5562.077656,222.061783,-8580.269578,0.000000
5562.077980,444.123565,-8503.660028,-518.144159
5562.078304,518.144159,-8580.269578,-444.123565
5562.078629,740.205942,-8810.098227,0.000000
5562.078953,666.185348,-8580.269578,-296.082377
5562.079278,0.000000,-8580.269578,-148.041188
5562.079602,518.144159,-8810.098227,0.000000
5562.079926,444.123565,-8350.440928,-444.123565
5562.080251,518.144159,-8656.879127,-296.082377
5562.080575,370.102971,-8733.488677,0.000000
5562.080900,296.082377,-8503.660028,-370.102971
5562.081224,148.041188,-8733.488677,-370.102971
5562.081549,592.164754,-8044.002729,296.082377
5562.081873,666.185348,-8733.488677,-296.082377
5562.082197,518.144159,-8886.707777,-370.102971
5562.082522,370.102971,-8427.050478,-370.102971
5562.082846,814.226536,-9116.536426,-592.164754
5562.083171,296.082377,-8810.098227,-222.061783
5562.083495,296.082377,-8427.050478,-370.102971
5562.083820,444.123565,-8810.098227,-370.102971
5562.084144,518.144159,-8427.050478,-518.144159
5562.084468,296.082377,-8503.660028,-148.041188
5562.084793,518.144159,-8656.879127,-296.082377
5562.085117,518.144159,-8427.050478,-444.123565
5562.085442,666.185348,-8503.660028,-370.102971
5562.085766,888.247130,-8886.707777,-666.185348
5562.086091,518.144159,-8810.098227,-222.061783
5562.086415,518.144159,-8656.879127,-296.082377
5562.086739,444.123565,-8733.488677,-370.102971
5562.087064,518.144159,-9116.536426,-370.102971
5562.087388,592.164754,-8886.707777,-370.102971
5562.087713,518.144159,-8350.440928,-296.082377
5562.088037,296.082377,-8580.269578,-148.041188
5562.088362,518.144159,-8350.440928,-444.123565
5562.088686,666.185348,-8733.488677,-740.205942
5562.089010,666.185348,-8580.269578,-370.102971
5562.089335,370.102971,-8580.269578,-370.102971
5562.089659,444.123565,-8733.488677,0.000000
5562.089984,814.226536,-9116.536426,-814.226536
5562.090308,296.082377,-8733.488677,-518.144159
5562.090633,592.164754,-8427.050478,-592.164754
5562.090957,592.164754,-8656.879127,-444.123565
5562.091281,518.144159,-8886.707777,-222.061783
5562.091606,148.041188,-8656.879127,-74.020594
5562.091930,592.164754,-8580.269578,-592.164754
5562.092255,592.164754,-8503.660028,-740.205942
5562.092579,518.144159,-8733.488677,-296.082377
5562.092904,-222.061783,-8810.098227,-740.205942
5562.093228,-592.164754,-8886.707777,-518.144159
5562.093552,-888.247130,-8886.707777,0.000000
5562.093877,-962.267725,-8503.660028,-1036.288319
5562.094201,-1406.391290,-9806.022374,-814.226536
5562.094526,-1924.535449,-8273.831378,0.000000
5562.094850,-1998.556043,-8503.660028,222.061783
5562.095175,-962.267725,-8580.269578,-592.164754
5562.095499,-814.226536,-8350.440928,-222.061783
5562.095823,-592.164754,-7967.393179,-370.102971
5562.096148,-1258.350101,-8427.050478,-740.205942
5562.096472,-1628.453072,-9039.926876,-444.123565
5562.096797,-2294.638420,-8810.098227,-740.205942
5562.097121,-3627.009116,-8733.488677,-444.123565
5562.097446,-4071.132681,-8656.879127,-592.164754
5562.097770,-3775.050304,-9193.145976,-148.041188
5562.098094,-3997.112087,-8044.002729,-296.082377
5562.098419,-3330.926739,-9039.926876,-148.041188
5562.098743,-3034.844362,-8427.050478,-740.205942
5562.099068,-2072.576638,-8963.317327,-592.164754
5562.099392,-1998.556043,-8503.660028,-592.164754
5562.099717,-1850.514855,-8963.317327,-296.082377
5562.100041,-2368.659014,-8656.879127,-370.102971
5562.100365,-2738.761985,-9039.926876,-370.102971
5562.100690,-2886.803174,-9193.145976,-148.041188
5562.101014,-3108.864956,-9193.145976,-222.061783
5562.101339,-3775.050304,-8810.098227,296.082377
5562.101663,-3256.906145,-8810.098227,0.000000
5562.101987,-3330.926739,-9269.755526,222.061783
5562.102312,-2294.638420,-8580.269578,-592.164754
5562.102636,-2146.597232,-8886.707777,-370.102971
5562.102961,-1998.556043,-8273.831378,-148.041188
5562.103285,-1776.494261,-8350.440928,0.000000
5562.103610,-2146.597232,-8886.707777,-370.102971
5562.103934,-2072.576638,-8733.488677,0.000000
5562.104258,-2220.617826,-8197.221829,148.041188
5562.104583,-2812.782580,-8810.098227,-444.123565
5562.104907,-1702.473667,-9193.145976,0.000000
5562.105232,-2072.576638,-8503.660028,-222.061783
5562.105556,-2368.659014,-8810.098227,-518.144159
5562.105881,-1776.494261,-8273.831378,-888.247130
5562.106205,-2146.597232,-8656.879127,-592.164754
5562.106529,-1628.453072,-8273.831378,-740.205942
5562.106854,-2812.782580,-8273.831378,-518.144159
5562.107178,-2146.597232,-8350.440928,-592.164754
5562.107503,-2442.679609,-7584.345430,-518.144159
5562.107827,-1850.514855,-8044.002729,-222.061783
5562.108152,-1924.535449,-8427.050478,-444.123565
5562.108476,-1702.473667,-8197.221829,0.000000
5562.108800,-444.123565,-8197.221829,-518.144159
5562.109125,-148.041188,-8120.612279,-1036.288319
5562.109449,0.000000,-8733.488677,-370.102971
5562.109774,0.000000,-8656.879127,-370.102971
5562.110098,0.000000,-8580.269578,-370.102971
5562.110423,296.082377,-8427.050478,-518.144159
5562.110747,222.061783,-8503.660028,-370.102971
5562.111071,-518.144159,-8427.050478,-370.102971
5562.111396,0.000000,-8886.707777,-666.185348
5562.111720,814.226536,-8656.879127,-222.061783
5562.112045,1702.473667,-8503.660028,-444.123565
5562.112369,1924.535449,-9422.974625,-666.185348
5562.112694,1850.514855,-9422.974625,-592.164754
5562.113018,1628.453072,-9269.755526,-888.247130
5562.113342,740.205942,-9576.193725,-666.185348
5562.113667,-518.144159,-8886.707777,-1036.288319
5562.113991,-1850.514855,-10112.460574,0.000000
5562.114316,-2442.679609,-9039.926876,-370.102971
5562.114640,-3404.947333,-9193.145976,-444.123565
5562.114965,-3627.009116,-8810.098227,-592.164754
5562.115289,-3256.906145,-8273.831378,-222.061783
5562.115613,-2812.782580,-8044.002729,-814.226536
5562.115938,-1998.556043,-8427.050478,-666.185348
5562.116262,-814.226536,-8197.221829,-296.082377
5562.116587,-1184.329507,-8427.050478,-814.226536
5562.116911,-1110.308913,-8733.488677,-296.082377
5562.117236,-1332.370696,-8503.660028,-592.164754
5562.117560,-2294.638420,-9499.584175,-370.102971
5562.117884,-2812.782580,-8580.269578,-740.205942
5562.118209,-2664.741391,-9652.803275,148.041188
5562.118533,-2516.700203,-8886.707777,-888.247130
5562.118858,-2072.576638,-8886.707777,0.000000
5562.119182,-1702.473667,-8273.831378,-518.144159
5562.119507,-444.123565,-8656.879127,-296.082377
5562.119831,0.000000,-8197.221829,-296.082377
5562.120155,444.123565,-8963.317327,-592.164754
5562.120480,-592.164754,-8733.488677,-74.020594
5562.120804,-2368.659014,-8427.050478,-222.061783
5562.121129,-3108.864956,-9576.193725,148.041188
5562.121453,-4441.235652,-9116.536426,0.000000
5562.121778,-5033.400406,-9116.536426,0.000000
5562.122102,-5551.544565,-8656.879127,370.102971
5562.122426,-4885.359217,-8656.879127,814.226536
5562.122751,-3552.988522,-8580.269578,148.041188
5562.123075,-1480.411884,-7814.174080,0.000000
5562.123400,-518.144159,-7890.783629,0.000000
5562.123724,444.123565,-8580.269578,592.164754
5562.124048,222.061783,-7890.783629,0.000000
5562.124373,-888.247130,-9346.365076,1036.288319
5562.124697,-1480.411884,-8733.488677,370.102971
5562.125022,-2960.823768,-9422.974625,74.020594
5562.125346,-4737.318029,-10112.460574,444.123565
5562.125671,-5921.647536,-9193.145976,0.000000
5562.125995,-6217.729913,-9269.755526,-148.041188
5562.126319,-5699.585753,-8656.879127,-888.247130
5562.126644,-4293.194464,-8273.831378,-222.061783
5562.126968,-2146.597232,-7354.516781,-666.185348
5562.127293,0.000000,-7277.907231,-444.123565
5562.127617,2294.638420,-6818.249932,-148.041188
5562.127942,3182.885551,-7584.345430,0.000000
5562.128266,3923.091493,-7201.297681,-148.041188
5562.128590,3182.885551,-8427.050478,370.102971
5562.128915,1924.535449,-8963.317327,-370.102971
5562.129239,1258.350101,-8886.707777,-518.144159
5562.129564,-1110.308913,-9652.803275,-1110.308913
5562.129888,-3182.885551,-9576.193725,-1406.391290
5562.130213,-4811.338623,-9193.145976,-2146.597232
5562.130537,-5403.503377,-8886.707777,-2146.597232
5562.130861,-4737.318029,-8580.269578,-1480.411884
5562.131186,-3701.029710,-7584.345430,-1850.514855
5562.131510,-1480.411884,-7431.126331,-814.226536
5562.131835,666.185348,-7507.735880,-370.102971
5562.132159,2886.803174,-7660.954980,-592.164754
5562.132484,4811.338623,-7967.393179,-962.267725
5562.132808,5329.482782,-9576.193725,296.082377
5562.133132,3552.988522,-9806.022374,-592.164754
5562.133457,296.082377,-10495.508323,-592.164754
5562.133781,-2368.659014,-10189.070123,-592.164754
5562.134106,-6069.688724,-10801.946522,-666.185348
5562.134430,-6809.894666,-9652.803275,-592.164754
5562.134755,-8216.285956,-8427.050478,-962.267725
5562.135079,-6513.812290,-7967.393179,0.000000
5562.135403,-2590.720797,-6818.249932,-518.144159
5562.135728,1406.391290,-7584.345430,-666.185348
5562.136052,5699.585753,-6205.373534,-666.185348
5562.136377,8512.368333,-7277.907231,-222.061783
5562.136701,7920.203579,-8503.660028,-1110.308913
5562.137026,4885.359217,-9806.022374,-962.267725
5562.137350,148.041188,-10801.946522,-740.205942
5562.137674,-4737.318029,-11261.603821,-1332.370696
5562.137999,-9178.553681,-10878.556072,-1406.391290
5562.138323,-12065.356855,-10955.165621,-518.144159
5562.138648,-11843.295072,-9193.145976,518.144159
5562.138973,-9548.656652,-7660.954980,0.000000
5562.139297,-5477.523971,-6741.640382,-592.164754
5562.139622,592.164754,-5592.497135,-222.061783
5562.139946,5107.421000,-5515.887586,0.000000
5562.140270,8512.368333,-6511.811733,0.000000
5562.140594,7254.018232,-7354.516781,962.267725
5562.140919,4071.132681,-7660.954980,518.144159
5562.141243,74.020594,-10801.946522,444.123565
5562.141567,-5625.565159,-11721.261119,740.205942
5562.141891,-9474.636058,-12257.527968,444.123565
5562.142216,-11621.233289,-11951.089769,518.144159
5562.142540,-10732.986159,-10801.946522,74.020594
5562.142864,-7105.977043,-8886.707777,-518.144159
5562.143188,-3404.947333,-6741.640382,0.000000
5562.143512,222.061783,-6205.373534,148.041188
5562.143837,4663.297435,-6205.373534,-518.144159
5562.144161,6069.688724,-6052.154434,-1258.350101
5562.144485,3775.050304,-7431.126331,-296.082377
5562.144809,444.123565,-7890.783629,148.041188
5562.145134,-3404.947333,-9346.365076,444.123565
5562.145458,-7105.977043,-10725.336972,888.247130
5562.145782,-6661.853478,-10342.289223,740.205942
5562.146106,-7550.100608,-10878.556072,0.000000
5562.146431,-3627.009116,-10648.727422,-518.144159
5562.146755,-1554.432478,-8350.440928,-1258.350101
5562.147079,296.082377,-8197.221829,-1036.288319
5562.147403,1998.556043,-6281.983084,-1554.432478
5562.147728,4071.132681,-7354.516781,-148.041188
5562.148052,2294.638420,-6588.421283,148.041188
5562.148376,1776.494261,-7814.174080,370.102971
5562.148700,1332.370696,-7660.954980,1184.329507
5562.149024,0.000000,-9499.584175,888.247130
5562.149349,-1332.370696,-10035.851024,-666.185348
5562.149673,-3627.009116,-11031.775171,-1702.473667
5562.149997,-4885.359217,-11951.089769,-1850.514855
5562.150321,-5477.523971,-9882.631924,-2368.659014
5562.150646,-4219.173869,-9193.145976,-1406.391290
5562.150970,-3404.947333,-7124.688131,-592.164754
5562.151294,296.082377,-7277.907231,0.000000
5562.151618,2072.576638,-6358.592633,148.041188
5562.151943,3256.906145,-7354.516781,1110.308913
5562.152267,2664.741391,-6052.154434,-222.061783
5562.152591,1258.350101,-7890.783629,-148.041188
5562.152915,1554.432478,-8427.050478,-1850.514855
5562.153240,-888.247130,-9729.412825,-1110.308913
5562.153564,-2516.700203,-9499.584175,-2072.576638
5562.153888,-3182.885551,-10265.679673,-1406.391290
5562.154212,-2294.638420,-9806.022374,-1924.535449
5562.154537,-1184.329507,-10035.851024,-1702.473667
5562.154861,0.000000,-9806.022374,-1554.432478
5562.155185,1554.432478,-8197.221829,-814.226536
5562.155509,888.247130,-7814.174080,0.000000
5562.155833,1554.432478,-6894.859482,-1110.308913
5562.156158,3182.885551,-7431.126331,1110.308913
5562.156482,2590.720797,-7201.297681,148.041188
5562.156806,2664.741391,-7890.783629,370.102971
5562.157130,3775.050304,-8503.660028,-1628.453072
5562.157455,2146.597232,-9959.241474,-1406.391290
5562.157779,1110.308913,-8810.098227,-1924.535449
5562.158103,0.000000,-10342.289223,-1184.329507
5562.158427,-1184.329507,-10342.289223,-296.082377
5562.158752,-1850.514855,-9269.755526,962.267725
5562.159076,444.123565,-8580.269578,0.000000
5562.159400,0.000000,-7967.393179,1184.329507
5562.159724,1258.350101,-7431.126331,592.164754
5562.160049,2516.700203,-8197.221829,-814.226536
5562.160373,2960.823768,-7737.564530,-740.205942
5562.160697,-888.247130,-6588.421283,-1406.391290
5562.161021,-1332.370696,-8350.440928,-518.144159
5562.161345,-2072.576638,-7584.345430,-814.226536
5562.161670,-1554.432478,-10035.851024,370.102971
5562.161994,-740.205942,-8656.879127,-666.185348
5562.162318,-370.102971,-10725.336972,1036.288319
5562.162642,222.061783,-8886.707777,0.000000
5562.162967,1036.288319,-8656.879127,1332.370696
5562.163291,1998.556043,-7967.393179,740.205942
5562.163615,1998.556043,-7660.954980,814.226536
5562.163939,1332.370696,-6971.469032,518.144159
5562.164264,1036.288319,-6588.421283,-962.267725
5562.164588,2220.617826,-7737.564530,296.082377
5562.164912,4367.215058,-8350.440928,-888.247130
5562.165236,2442.679609,-8427.050478,-148.041188
5562.165561,518.144159,-8733.488677,-518.144159
5562.165885,-740.205942,-9346.365076,-740.205942
5562.166209,-4219.173869,-10648.727422,-296.082377
5562.166533,-3256.906145,-9269.755526,1110.308913
5562.166858,-3034.844362,-8733.488677,518.144159
5562.167182,-2072.576638,-9959.241474,1702.473667
5562.167506,1258.350101,-7354.516781,-148.041188
5562.167830,3923.091493,-9422.974625,74.020594
5562.168154,3478.967927,-6741.640382,-962.267725
5562.168479,2368.659014,-6511.811733,-1332.370696
5562.168803,1332.370696,-8044.002729,-296.082377
5562.169127,814.226536,-8197.221829,148.041188
5562.169451,-1036.288319,-9269.755526,0.000000
5562.169776,-1702.473667,-9269.755526,444.123565
5562.170100,-888.247130,-9806.022374,444.123565
5562.170424,-1332.370696,-10035.851024,-962.267725
5562.170748,-1480.411884,-10801.946522,-444.123565
5562.171073,-148.041188,-9806.022374,-666.185348
5562.171397,-740.205942,-8733.488677,0.000000
5562.171721,-222.061783,-7431.126331,-1776.494261
5562.172045,0.000000,-8886.707777,-666.185348
5562.172370,2368.659014,-7584.345430,-740.205942
5562.172694,2220.617826,-8810.098227,-962.267725
5562.173018,2886.803174,-8580.269578,-2368.659014
5562.173342,2442.679609,-9116.536426,444.123565
5562.173667,518.144159,-7890.783629,-1110.308913
5562.173991,-296.082377,-9576.193725,-592.164754
5562.174315,-1406.391290,-8886.707777,-962.267725
5562.174639,-592.164754,-8810.098227,-518.144159
5562.174963,1184.329507,-7354.516781,-592.164754
5562.175288,2368.659014,-8656.879127,-888.247130
5562.175612,3775.050304,-8810.098227,-888.247130
5562.175936,4219.173869,-8273.831378,-2220.617826
5562.176260,962.267725,-8963.317327,-962.267725
5562.176585,-1702.473667,-7354.516781,-1850.514855
5562.176909,-1702.473667,-8886.707777,0.000000
5562.177233,-3923.091493,-8044.002729,-370.102971
5562.177557,-2294.638420,-9729.412825,222.061783
5562.177882,-1110.308913,-7431.126331,-370.102971
5562.178206,-2072.576638,-10189.070123,1036.288319
5562.178530,1628.453072,-7354.516781,-1554.432478
5562.178854,2664.741391,-8273.831378,74.020594
5562.179179,3256.906145,-7584.345430,0.000000
5562.179503,2664.741391,-8273.831378,0.000000
5562.179827,1628.453072,-9269.755526,0.000000
5562.180151,1258.350101,-7584.345430,-222.061783
5562.180475,296.082377,-8427.050478,1258.350101
5562.180800,518.144159,-8733.488677,-1406.391290
5562.181124,370.102971,-8656.879127,666.185348
5562.181448,-814.226536,-8427.050478,0.000000
5562.181772,-2146.597232,-8733.488677,0.000000
5562.182097,-2072.576638,-8044.002729,-1110.308913
5562.182421,-1702.473667,-10342.289223,666.185348
5562.182745,518.144159,-7814.174080,-1406.391290
5562.183069,2072.576638,-9652.803275,148.041188
5562.183394,5921.647536,-7201.297681,296.082377
5562.183718,2886.803174,-7737.564530,-1332.370696
5562.184042,4367.215058,-9576.193725,0.000000
5562.184366,740.205942,-7737.564530,-592.164754
5562.184691,-148.041188,-8733.488677,666.185348
5562.185015,-1110.308913,-7967.393179,-296.082377
5562.185339,-592.164754,-8963.317327,-962.267725
5562.185663,148.041188,-8350.440928,740.205942
5562.185988,0.000000,-7354.516781,-888.247130
5562.186312,666.185348,-10035.851024,-296.082377
5562.186636,444.123565,-7354.516781,-1776.494261
5562.186960,222.061783,-9806.022374,-1332.370696
5562.187284,-888.247130,-8273.831378,-740.205942
5562.187609,-444.123565,-8120.612279,0.000000
5562.187933,740.205942,-9576.193725,1110.308913
5562.188257,1554.432478,-8120.612279,0.000000
5562.188581,1702.473667,-9346.365076,740.205942
5562.188906,1258.350101,-8427.050478,-1480.411884
5562.189230,1184.329507,-9039.926876,-592.164754
5562.189554,296.082377,-7354.516781,-1036.288319
5562.189878,-592.164754,-9576.193725,1258.350101
5562.190203,-1036.288319,-8733.488677,-740.205942
5562.190527,-296.082377,-9499.584175,0.000000
5562.190851,2146.597232,-8656.879127,-888.247130
5562.191175,2368.659014,-9422.974625,-740.205942
5562.191500,2812.782580,-9576.193725,370.102971
5562.191824,1258.350101,-9422.974625,370.102971
5562.192148,1036.288319,-8273.831378,-370.102971
5562.192472,-296.082377,-8503.660028,-888.247130
5562.192796,-962.267725,-8503.660028,-148.041188
5562.193121,-888.247130,-8733.488677,-296.082377
5562.193445,-1184.329507,-8886.707777,-592.164754
5562.193769,-1036.288319,-9193.145976,-444.123565
5562.194093,2146.597232,-8503.660028,-814.226536
5562.194418,222.061783,-7967.393179,74.020594
5562.194742,888.247130,-8733.488677,-1036.288319
5562.195066,1036.288319,-9346.365076,1480.411884
5562.195390,518.144159,-7431.126331,-1036.288319
5562.195715,1998.556043,-10572.117872,962.267725
5562.196039,740.205942,-6205.373534,-1258.350101
5562.196363,296.082377,-10035.851024,1184.329507
5562.196687,1998.556043,-8120.612279,-222.061783
5562.197012,-1998.556043,-9269.755526,-1554.432478
5562.197336,-1332.370696,-8733.488677,-518.144159
5562.197660,-2368.659014,-6971.469032,-2072.576638
5562.197984,-1258.350101,-9729.412825,-444.123565
5562.198309,148.041188,-8120.612279,740.205942
5562.198633,0.000000,-9116.536426,74.020594
5562.198957,666.185348,-8427.050478,-296.082377
5562.199281,3256.906145,-8197.221829,-1332.370696
5562.199605,4219.173869,-9039.926876,-148.041188
5562.199930,3256.906145,-7124.688131,-1036.288319
5562.200254,1628.453072,-9422.974625,518.144159
5562.200578,-1406.391290,-7354.516781,148.041188
5562.200902,-666.185348,-8350.440928,0.000000
5562.201227,814.226536,-8044.002729,-666.185348
5562.201551,1554.432478,-8810.098227,0.000000
5562.201875,1258.350101,-8044.002729,-888.247130
5562.202199,1258.350101,-8886.707777,0.000000
5562.202524,1258.350101,-8197.221829,0.000000
5562.202848,0.000000,-8273.831378,-1702.473667
5562.203172,-296.082377,-8733.488677,444.123565
5562.203496,-1554.432478,-7431.126331,0.000000
5562.203821,-666.185348,-9422.974625,-370.102971
5562.204145,666.185348,-8427.050478,-444.123565
5562.204469,888.247130,-7814.174080,-444.123565
5562.204793,1110.308913,-8886.707777,-370.102971
5562.205117,2294.638420,-8503.660028,-888.247130
5562.205442,740.205942,-8580.269578,-370.102971
5562.205766,-148.041188,-8044.002729,0.000000
5562.206090,0.000000,-8120.612279,-296.082377
5562.206414,962.267725,-9729.412825,-1406.391290
5562.206739,888.247130,-8427.050478,1036.288319
5562.207063,962.267725,-8656.879127,-814.226536
5562.207387,-666.185348,-9806.022374,0.000000
5562.207711,-518.144159,-8733.488677,-1258.350101
5562.208036,-2590.720797,-8733.488677,-888.247130
5562.208360,-1776.494261,-8350.440928,-888.247130
5562.208684,-1628.453072,-8273.831378,0.000000
5562.209008,-888.247130,-9346.365076,74.020594
5562.209333,1776.494261,-7814.174080,-148.041188
5562.209657,3404.947333,-8963.317327,-962.267725
5562.209981,3256.906145,-7584.345430,-592.164754
5562.210305,3552.988522,-7507.735880,-444.123565
5562.210630,962.267725,-8656.879127,0.000000
5562.210954,-444.123565,-7737.564530,0.000000
5562.211278,-1184.329507,-9269.755526,370.102971
5562.211602,0.000000,-8350.440928,-666.185348
5562.211926,-222.061783,-9193.145976,-370.102971
5562.212251,888.247130,-8656.879127,0.000000
5562.212575,296.082377,-9652.803275,-962.267725
5562.212899,1184.329507,-9346.365076,-518.144159
5562.213223,-1110.308913,-8120.612279,-1776.494261
5562.213548,-592.164754,-9039.926876,0.000000
5562.213872,-1184.329507,-7890.783629,-740.205942
5562.214196,-888.247130,-9806.022374,888.247130
5562.214520,-296.082377,-8350.440928,-888.247130
5562.214845,666.185348,-9346.365076,0.000000
5562.215169,-888.247130,-7967.393179,222.061783
5562.215493,1406.391290,-7967.393179,74.020594
5562.215817,2368.659014,-8273.831378,0.000000
5562.216142,666.185348,-8733.488677,296.082377
5562.216466,1036.288319,-8886.707777,-296.082377
5562.216790,1406.391290,-7584.345430,-666.185348
5562.217114,74.020594,-8197.221829,518.144159
5562.217439,2812.782580,-8120.612279,666.185348
5562.217763,2294.638420,-8197.221829,444.123565
5562.218087,1332.370696,-9499.584175,-888.247130
5562.218411,-296.082377,-8197.221829,-1110.308913
5562.218735,-1480.411884,-8733.488677,-518.144159
5562.219060,-2664.741391,-8273.831378,296.082377
5562.219384,-814.226536,-8656.879127,74.020594
5562.219708,666.185348,-8580.269578,148.041188
5562.220032,1036.288319,-8273.831378,-370.102971
5562.220357,1332.370696,-7814.174080,0.000000
5562.220681,2516.700203,-7737.564530,-592.164754
5562.221005,814.226536,-8197.221829,-962.267725
5562.221329,-148.041188,-8427.050478,370.102971
5562.221654,-814.226536,-7967.393179,296.082377
5562.221978,-1332.370696,-7814.174080,1258.350101
5562.222302,-592.164754,-7354.516781,-740.205942
5562.222626,3182.885551,-8810.098227,0.000000
5562.222951,1998.556043,-8580.269578,-1554.432478
5562.223275,1924.535449,-9576.193725,-296.082377
5562.223599,1036.288319,-8273.831378,-1628.453072
5562.223923,-1998.556043,-9039.926876,-222.061783
5562.224247,-1924.535449,-8580.269578,0.000000
5562.224572,-1480.411884,-8886.707777,148.041188
5562.224896,-1480.411884,-8656.879127,-666.185348
5562.225220,962.267725,-9116.536426,-370.102971
5562.225544,2442.679609,-8656.879127,-444.123565
5562.225869,3478.967927,-8810.098227,0.000000
5562.226193,148.041188,-7507.735880,-1850.514855
5562.226517,222.061783,-9193.145976,0.000000
5562.226841,-592.164754,-7737.564530,-148.041188
5562.227166,1406.391290,-9806.022374,-666.185348
5562.227490,444.123565,-8350.440928,-592.164754
5562.227814,962.267725,-9959.241474,888.247130
5562.228138,1110.308913,-8886.707777,-592.164754
5562.228463,222.061783,-9346.365076,-518.144159
5562.228787,-814.226536,-9116.536426,-518.144159
5562.229111,-1184.329507,-8503.660028,0.000000
5562.229435,-2146.597232,-7967.393179,-2072.576638
5562.229760,-1850.514855,-9422.974625,518.144159
5562.230084,0.000000,-7737.564530,-962.267725
5562.230408,-222.061783,-10342.289223,-518.144159
5562.230732,2442.679609,-8273.831378,-1480.411884
5562.231056,1776.494261,-8273.831378,-666.185348
5562.231381,2368.659014,-9346.365076,-148.041188
5562.231705,888.247130,-8656.879127,-222.061783
5562.232029,814.226536,-9729.412825,296.082377
5562.232353,-1036.288319,-8503.660028,296.082377
5562.232678,222.061783,-8350.440928,-518.144159
5562.233002,1258.350101,-9422.974625,-296.082377
5562.233326,666.185348,-8044.002729,-1554.432478
5562.233650,740.205942,-9193.145976,-148.041188
5562.233975,518.144159,-7431.126331,-1184.329507
5562.234299,-2738.761985,-8580.269578,74.020594
5562.234623,-2146.597232,-7507.735880,148.041188
5562.234947,-888.247130,-8427.050478,-222.061783
5562.235272,-222.061783,-8120.612279,-296.082377
5562.235596,1480.411884,-9193.145976,296.082377
5562.235920,2886.803174,-9193.145976,-518.144159
5562.236244,3478.967927,-9729.412825,222.061783
5562.236568,3034.844362,-7431.126331,-1924.535449
5562.236893,296.082377,-9806.022374,740.205942
5562.237217,370.102971,-7277.907231,-1406.391290
5562.237541,-814.226536,-8733.488677,444.123565
5562.237865,-296.082377,-7354.516781,-296.082377
5562.238190,740.205942,-8580.269578,666.185348
5562.238514,0.000000,-8503.660028,-814.226536
5562.238838,-370.102971,-9346.365076,1258.350101
5562.239162,0.000000,-6971.469032,-1258.350101
5562.239487,-1036.288319,-10112.460574,-666.185348
5562.239811,-962.267725,-7814.174080,-370.102971
5562.240135,-1480.411884,-9116.536426,444.123565
5562.240460,0.000000,-8580.269578,-888.247130
5562.240784,444.123565,-8886.707777,-444.123565
5562.241108,2368.659014,-9499.584175,-444.123565
5562.241433,2590.720797,-7967.393179,-148.041188
5562.241757,1998.556043,-9346.365076,-148.041188
5562.242081,666.185348,-7814.174080,-370.102971
5562.242406,-1110.308913,-8273.831378,962.267725
5562.242730,-740.205942,-7814.174080,0.000000
5562.243054,0.000000,-8886.707777,-370.102971
5562.243379,1406.391290,-7660.954980,-296.082377
5562.243703,2368.659014,-9039.926876,0.000000
5562.244027,1554.432478,-9039.926876,-1406.391290
5562.244352,1850.514855,-9806.022374,-592.164754
5562.244676,0.000000,-8120.612279,-1332.370696
5562.245000,-1110.308913,-9116.536426,-444.123565
5562.245325,-1998.556043,-8044.002729,-222.061783
5562.245649,-1998.556043,-9422.974625,296.082377
5562.245973,444.123565,-8886.707777,-222.061783
5562.246298,1036.288319,-8886.707777,-222.061783
5562.246622,0.000000,-8503.660028,0.000000
5562.246946,1776.494261,-7584.345430,-518.144159
5562.247271,1702.473667,-8580.269578,222.061783
5562.247595,1628.453072,-7584.345430,-518.144159
5562.247919,1184.329507,-7890.783629,222.061783
5562.248244,1036.288319,-9193.145976,-1258.350101
5562.248568,518.144159,-9499.584175,296.082377
5562.248892,0.000000,-8963.317327,-888.247130
5562.249217,-1184.329507,-9882.631924,0.000000
5562.249541,-1702.473667,-8503.660028,-296.082377
5562.249865,222.061783,-8580.269578,-1036.288319
5562.250190,370.102971,-8733.488677,-666.185348
5562.250514,-1258.350101,-8044.002729,-296.082377
5562.250838,1480.411884,-8350.440928,-518.144159
5562.251163,3701.029710,-7660.954980,-222.061783
5562.251487,3775.050304,-9116.536426,148.041188
5562.251811,2664.741391,-7048.078582,0.000000
5562.252136,3108.864956,-8427.050478,296.082377
5562.252460,888.247130,-8044.002729,-888.247130
5562.252784,444.123565,-10035.851024,1184.329507
5562.253109,-1258.350101,-8273.831378,0.000000
5562.253433,-1628.453072,-9499.584175,-1036.288319
5562.253757,-444.123565,-8810.098227,296.082377
5562.254082,296.082377,-7737.564530,518.144159
5562.254406,740.205942,-9193.145976,-1036.288319
5562.254730,888.247130,-8197.221829,-444.123565
5562.255055,-296.082377,-7737.564530,-1258.350101
5562.255379,74.020594,-8350.440928,74.020594
5562.255703,-1406.391290,-6894.859482,-222.061783
5562.256028,-1036.288319,-9193.145976,1406.391290
5562.256352,-666.185348,-7048.078582,-888.247130
5562.256676,592.164754,-10112.460574,1332.370696
5562.257001,2294.638420,-8044.002729,-1110.308913
5562.257325,2442.679609,-9422.974625,296.082377
5562.257649,2220.617826,-7431.126331,-962.267725
5562.257974,814.226536,-8886.707777,296.082377
5562.258298,1332.370696,-7660.954980,0.000000
5562.258622,-888.247130,-8350.440928,0.000000
5562.258947,592.164754,-8273.831378,222.061783
5562.259271,1554.432478,-7660.954980,0.000000
5562.259595,1036.288319,-9422.974625,0.000000
5562.259920,1850.514855,-9116.536426,-592.164754
5562.260244,0.000000,-8503.660028,-222.061783
5562.260568,-2368.659014,-9116.536426,-666.185348
5562.260893,-962.267725,-8427.050478,-1850.514855
5562.261217,-2368.659014,-11031.775171,222.061783
5562.261541,-2960.823768,-6052.154434,-1258.350101
5562.261866,1184.329507,-10495.508323,0.000000
5562.262190,1332.370696,-8120.612279,-1258.350101
5562.262514,1258.350101,-9422.974625,888.247130
5562.262838,2664.741391,-7048.078582,-1554.432478
5562.263163,-666.185348,-9422.974625,-148.041188
5562.263487,-296.082377,-8197.221829,-370.102971
5562.263811,1924.535449,-8580.269578,-740.205942
5562.264136,222.061783,-8503.660028,-518.144159
5562.264460,0.000000,-8963.317327,666.185348
5562.264784,2072.576638,-9269.755526,-1554.432478
5562.265109,-444.123565,-9422.974625,-814.226536
5562.265433,-592.164754,-9499.584175,-1702.473667
5562.265757,0.000000,-8656.879127,-518.144159
5562.266082,-3256.906145,-8044.002729,0.000000
5562.266406,-1110.308913,-8656.879127,592.164754
5562.266730,888.247130,-7967.393179,-592.164754
5562.267055,1554.432478,-9193.145976,0.000000
5562.267379,3034.844362,-8580.269578,-1702.473667
5562.267703,2812.782580,-7967.393179,-814.226536
5562.268028,2220.617826,-7967.393179,-814.226536
5562.268352,518.144159,-8350.440928,518.144159
5562.268676,0.000000,-8733.488677,370.102971
5562.269001,-1480.411884,-9116.536426,-370.102971
5562.269325,666.185348,-9346.365076,-1184.329507
5562.269649,1110.308913,-8733.488677,-296.082377
5562.269974,666.185348,-8733.488677,74.020594
5562.270298,1776.494261,-8044.002729,-74.020594
5562.270622,814.226536,-8580.269578,0.000000
5562.270947,148.041188,-7890.783629,0.000000
5562.271271,0.000000,-7967.393179,-1110.308913
5562.271595,-1850.514855,-8656.879127,-148.041188
5562.271920,0.000000,-8580.269578,-592.164754
5562.272244,222.061783,-7737.564530,0.000000
5562.272568,1332.370696,-9193.145976,592.164754
5562.272893,814.226536,-7737.564530,666.185348
5562.273217,518.144159,-8886.707777,0.000000
5562.273541,2072.576638,-8733.488677,-370.102971
5562.273866,888.247130,-8733.488677,0.000000
5562.274190,444.123565,-8503.660028,0.000000
5562.274514,1110.308913,-7507.735880,518.144159
5562.274839,592.164754,-8273.831378,296.082377
5562.275163,1258.350101,-8733.488677,-592.164754
5562.275487,1258.350101,-8427.050478,-1628.453072
5562.275812,0.000000,-8810.098227,-148.041188
5562.276136,-1258.350101,-8733.488677,-740.205942
5562.276460,-222.061783,-8427.050478,0.000000
5562.276785,-1850.514855,-8427.050478,666.185348
5562.277109,0.000000,-8350.440928,-666.185348
5562.277433,222.061783,-8197.221829,-296.082377
5562.277758,2590.720797,-9652.803275,-222.061783
5562.278082,3701.029710,-8044.002729,-1110.308913
5562.278406,2738.761985,-8427.050478,-518.144159
5562.278731,296.082377,-9039.926876,-444.123565
5562.279055,0.000000,-8810.098227,74.020594
5562.279379,-1924.535449,-8733.488677,-666.185348
5562.279704,-1554.432478,-8810.098227,-666.185348
5562.280028,-666.185348,-8273.831378,0.000000
5562.280352,1110.308913,-9193.145976,-444.123565
5562.280677,0.000000,-8580.269578,-1184.329507
5562.281001,1258.350101,-9039.926876,-740.205942
5562.281325,-962.267725,-8886.707777,-1924.535449
5562.281650,-962.267725,-9193.145976,-296.082377
5562.281974,-740.205942,-8273.831378,-370.102971
5562.282298,-1924.535449,-9499.584175,888.247130
5562.282623,-666.185348,-8273.831378,-814.226536
5562.282947,1702.473667,-9422.974625,0.000000
5562.283271,1406.391290,-8810.098227,-148.041188
5562.283596,2220.617826,-7737.564530,-888.247130
5562.283920,1036.288319,-7967.393179,-296.082377
5562.284244,370.102971,-7737.564530,148.041188
5562.284569,1184.329507,-8273.831378,0.000000
5562.284893,962.267725,-8656.879127,-370.102971
5562.285217,518.144159,-8120.612279,0.000000
5562.285542,666.185348,-8580.269578,-518.144159
5562.285866,0.000000,-8427.050478,-444.123565
5562.286190,592.164754,-8963.317327,0.000000
5562.286515,0.000000,-8580.269578,-592.164754
5562.286839,-1850.514855,-8503.660028,-962.267725
5562.287163,-222.061783,-8120.612279,-296.082377
5562.287488,-592.164754,-8656.879127,0.000000
5562.287812,666.185348,-8273.831378,-1110.308913
5562.288136,1406.391290,-9039.926876,222.061783
5562.288461,1850.514855,-7354.516781,-1036.288319
5562.288785,1628.453072,-8886.707777,-74.020594
5562.289109,1110.308913,-7660.954980,-222.061783
5562.289434,-740.205942,-9422.974625,962.267725
5562.289758,-1110.308913,-8273.831378,-518.144159
5562.290082,-296.082377,-8733.488677,740.205942
5562.290407,1036.288319,-8120.612279,-370.102971
5562.290731,1480.411884,-8656.879127,0.000000
5562.291055,2590.720797,-8886.707777,-1702.473667
5562.291380,1554.432478,-8580.269578,-444.123565
5562.291704,148.041188,-7584.345430,-518.144159
5562.292028,-1554.432478,-8197.221829,-740.205942
5562.292353,-962.267725,-8197.221829,518.144159
5562.292677,-1332.370696,-8503.660028,0.000000
5562.293001,-370.102971,-8503.660028,-370.102971
5562.293326,1110.308913,-9039.926876,0.000000
5562.293650,1776.494261,-8044.002729,-888.247130
5562.293974,2886.803174,-8350.440928,74.020594
5562.294299,2072.576638,-8044.002729,-444.123565
5562.294623,1110.308913,-8503.660028,-666.185348
5562.294947,1036.288319,-8197.221829,-814.226536
5562.295272,0.000000,-8503.660028,-518.144159
5562.295596,296.082377,-8120.612279,-1110.308913
5562.295920,-370.102971,-8886.707777,74.020594
5562.296245,888.247130,-8963.317327,-444.123565
5562.296569,0.000000,-9806.022374,-148.041188
5562.296893,-666.185348,-9193.145976,-1406.391290
5562.297218,-1480.411884,-9499.584175,-518.144159
5562.297542,-3849.070898,-7967.393179,-1332.370696
5562.297866,-1776.494261,-8810.098227,1332.370696
5562.298191,1258.350101,-7890.783629,-1110.308913
5562.298515,1110.308913,-9499.584175,-518.144159
5562.298839,2072.576638,-8503.660028,-370.102971
5562.299163,2590.720797,-8427.050478,-888.247130
5562.299488,2072.576638,-8733.488677,0.000000
5562.299812,1998.556043,-8044.002729,1036.288319
5562.300136,2220.617826,-8656.879127,444.123565
5562.300461,518.144159,-8120.612279,0.000000
5562.300785,1184.329507,-9039.926876,-518.144159
5562.301109,-962.267725,-9116.536426,-888.247130
5562.301434,0.000000,-9116.536426,-444.123565
5562.301758,0.000000,-9959.241474,-1554.432478
5562.302082,-1628.453072,-8197.221829,0.000000
5562.302407,-2146.597232,-7660.954980,0.000000
5562.302731,-1184.329507,-9193.145976,222.061783
5562.303055,-2072.576638,-7890.783629,-296.082377
5562.303380,1554.432478,-8580.269578,-444.123565
5562.303704,1036.288319,-8886.707777,-740.205942
5562.304028,2812.782580,-9422.974625,148.041188
5562.304353,2368.659014,-7431.126331,-296.082377
5562.304677,1850.514855,-8733.488677,296.082377
5562.305001,148.041188,-7584.345430,0.000000
5562.305326,962.267725,-9039.926876,-148.041188
5562.305650,-444.123565,-8580.269578,0.000000
5562.305974,740.205942,-8427.050478,-296.082377
5562.306299,2294.638420,-9269.755526,1036.288319
5562.306623,592.164754,-7584.345430,74.020594
5562.306947,1406.391290,-8197.221829,592.164754
5562.307272,1850.514855,-7967.393179,-888.247130
5562.307596,518.144159,-8733.488677,-518.144159
5562.307920,-2664.741391,-7124.688131,-1628.453072
5562.308245,-814.226536,-10112.460574,962.267725
5562.308569,-1406.391290,-7660.954980,-740.205942
5562.308893,-666.185348,-9729.412825,-666.185348
5562.309218,148.041188,-7737.564530,0.000000
5562.309542,0.000000,-7967.393179,0.000000
5562.309866,2590.720797,-9116.536426,-592.164754
5562.310191,1850.514855,-7660.954980,-814.226536
5562.310515,1702.473667,-9346.365076,740.205942
5562.310839,518.144159,-7584.345430,222.061783
5562.311164,1110.308913,-8810.098227,-222.061783
5562.311488,518.144159,-8503.660028,-444.123565
5562.311812,1332.370696,-9193.145976,0.000000
5562.312137,296.082377,-8120.612279,-592.164754
5562.312461,444.123565,-9499.584175,-370.102971
5562.312785,-592.164754,-8120.612279,-888.247130
5562.313110,-1406.391290,-9269.755526,-222.061783
5562.313434,-2146.597232,-8197.221829,-296.082377
5562.313758,-814.226536,-8963.317327,-444.123565
5562.314083,1554.432478,-8580.269578,-370.102971
5562.314407,1110.308913,-8580.269578,-666.185348
5562.314731,1628.453072,-8733.488677,-1184.329507
5562.315056,2072.576638,-8503.660028,-888.247130
5562.315380,1406.391290,-8656.879127,74.020594
5562.315704,1036.288319,-8810.098227,-1110.308913
5562.316029,-814.226536,-8503.660028,0.000000
5562.316353,-1850.514855,-7890.783629,-888.247130
5562.316677,444.123565,-8810.098227,74.020594
5562.317002,1332.370696,-8733.488677,-148.041188
5562.317326,2886.803174,-9269.755526,-1406.391290
5562.317650,1258.350101,-7967.393179,-444.123565
5562.317975,592.164754,-8886.707777,-1924.535449
5562.318299,-222.061783,-8733.488677,-740.205942
5562.318623,0.000000,-7660.954980,0.000000
5562.318948,0.000000,-9652.803275,-222.061783
5562.319272,-296.082377,-8427.050478,-740.205942
5562.319596,74.020594,-8503.660028,-592.164754
5562.319921,2294.638420,-9499.584175,-962.267725
5562.320245,0.000000,-8656.879127,-1036.288319
5562.320569,2072.576638,-8580.269578,-888.247130
5562.320894,296.082377,-9039.926876,222.061783
5562.321218,148.041188,-8350.440928,-370.102971
5562.321542,0.000000,-8350.440928,-666.185348
5562.321867,1110.308913,-8886.707777,814.226536
5562.322191,1258.350101,-8656.879127,-592.164754
5562.322515,2442.679609,-9346.365076,-1184.329507
5562.322840,666.185348,-9193.145976,0.000000
5562.323164,740.205942,-8120.612279,-370.102971
5562.323488,-740.205942,-8580.269578,-444.123565
5562.323813,-2368.659014,-8580.269578,-222.061783
5562.324137,-888.247130,-8886.707777,-148.041188
5562.324461,74.020594,-8350.440928,-814.226536
5562.324786,74.020594,-9499.584175,518.144159
5562.325110,1406.391290,-7660.954980,0.000000
5562.325434,1998.556043,-8886.707777,888.247130
5562.325759,962.267725,-7814.174080,74.020594
5562.326083,1702.473667,-8733.488677,222.061783
5562.326407,740.205942,-8580.269578,-962.267725
5562.326732,444.123565,-9039.926876,370.102971
5562.327056,148.041188,-7967.393179,-1332.370696
5562.327380,1258.350101,-9806.022374,888.247130
5562.327705,-370.102971,-7814.174080,0.000000
5562.328029,-296.082377,-9422.974625,0.000000
5562.328353,-666.185348,-8503.660028,-444.123565
5562.328678,-2072.576638,-8044.002729,-296.082377
5562.329002,-1628.453072,-9193.145976,222.061783
5562.329326,-1998.556043,-7354.516781,-296.082377
5562.329651,888.247130,-8963.317327,592.164754
5562.329975,1110.308913,-7660.954980,148.041188
5562.330299,2886.803174,-9269.755526,0.000000
5562.330624,2368.659014,-8427.050478,-1184.329507
5562.330948,2590.720797,-8886.707777,-666.185348
5562.331272,0.000000,-8427.050478,-666.185348
5562.331597,296.082377,-9269.755526,740.205942
5562.331921,-592.164754,-9499.584175,-444.123565
5562.332245,-1110.308913,-7584.345430,-740.205942
5562.332570,0.000000,-8886.707777,740.205942
5562.332894,518.144159,-7584.345430,-888.247130
5562.333218,592.164754,-9729.412825,-222.061783
5562.333543,2368.659014,-7814.174080,0.000000
5562.333867,-592.164754,-8350.440928,-1702.473667
5562.334191,74.020594,-8120.612279,-814.226536
5562.334516,-962.267725,-8656.879127,222.061783
5562.334840,148.041188,-8656.879127,-666.185348
5562.335164,444.123565,-9499.584175,-814.226536
5562.335488,-296.082377,-8810.098227,-666.185348
5562.335813,1258.350101,-9652.803275,-518.144159
5562.336137,2368.659014,-8120.612279,-296.082377
5562.336461,666.185348,-9652.803275,-1258.350101
5562.336786,148.041188,-9039.926876,-296.082377
5562.337110,74.020594,-7584.345430,-592.164754
5562.337434,-444.123565,-9039.926876,74.020594
5562.337759,1776.494261,-7584.345430,-962.267725
5562.338083,2368.659014,-8733.488677,0.000000
5562.338407,1776.494261,-8886.707777,-1480.411884
5562.338732,2220.617826,-9039.926876,74.020594
5562.339056,-1480.411884,-7737.564530,-1110.308913
5562.339380,-1998.556043,-8963.317327,-518.144159
5562.339705,-1850.514855,-8427.050478,0.000000
5562.340029,-296.082377,-9806.022374,-370.102971
5562.340354,0.000000,-8044.002729,0.000000
5562.340678,1258.350101,-8580.269578,-296.082377
5562.341003,1036.288319,-9269.755526,-296.082377
5562.341327,2738.761985,-8197.221829,-1258.350101
5562.341652,1998.556043,-6894.859482,-814.226536
5562.341976,740.205942,-8810.098227,814.226536
5562.342301,222.061783,-7431.126331,222.061783
5562.342625,296.082377,-8886.707777,-148.041188
5562.342950,0.000000,-8197.221829,-666.185348
5562.343274,592.164754,-8886.707777,-296.082377
5562.343599,74.020594,-8350.440928,-518.144159
5562.343923,-370.102971,-9346.365076,-370.102971
5562.344247,-222.061783,-8656.879127,0.000000
5562.344572,-1998.556043,-8886.707777,-888.247130
5562.344896,-740.205942,-8580.269578,74.020594
5562.345221,1258.350101,-8580.269578,74.020594
5562.345545,-222.061783,-8503.660028,-1628.453072
5562.345870,2368.659014,-7967.393179,370.102971
5562.346194,2072.576638,-7201.297681,-444.123565
5562.346519,3034.844362,-9422.974625,-296.082377
5562.346843,1406.391290,-7201.297681,-592.164754
5562.347168,74.020594,-9652.803275,1036.288319
5562.347492,-1776.494261,-8810.098227,-518.144159
5562.347817,-444.123565,-8580.269578,-444.123565
5562.348141,1924.535449,-9039.926876,370.102971
5562.348466,3775.050304,-7737.564530,888.247130
5562.348790,3997.112087,-8810.098227,-888.247130
5562.349115,1332.370696,-8197.221829,444.123565
5562.349439,296.082377,-8810.098227,0.000000
5562.349764,370.102971,-8810.098227,-1776.494261
5562.350088,0.000000,-8810.098227,222.061783
5562.350413,-1406.391290,-7890.783629,444.123565
5562.350737,-962.267725,-8580.269578,0.000000
5562.351061,-1036.288319,-9269.755526,592.164754
5562.351386,2442.679609,-9729.412825,-888.247130
5562.351710,2368.659014,-9039.926876,0.000000
5562.352035,296.082377,-8427.050478,-1480.411884
5562.352359,1406.391290,-8044.002729,370.102971
5562.352684,0.000000,-7814.174080,666.185348
5562.353008,592.164754,-9193.145976,-888.247130
5562.353333,1258.350101,-8120.612279,-444.123565
5562.353657,1406.391290,-9116.536426,0.000000
5562.353982,1332.370696,-9039.926876,-1554.432478
5562.354306,888.247130,-8886.707777,-666.185348
5562.354631,-518.144159,-9193.145976,-888.247130
5562.354955,-2294.638420,-8733.488677,296.082377
5562.355280,-1480.411884,-8120.612279,-814.226536
5562.355604,-962.267725,-9039.926876,74.020594
5562.355929,370.102971,-8580.269578,-370.102971
5562.356253,1850.514855,-9116.536426,-1036.288319
5562.356578,3404.947333,-8886.707777,-666.185348
5562.356902,1998.556043,-8427.050478,-296.082377
5562.357227,1554.432478,-9116.536426,-888.247130
5562.357551,518.144159,-8350.440928,148.041188
5562.357875,222.061783,-8503.660028,370.102971
5562.358200,-740.205942,-8963.317327,-444.123565
5562.358524,888.247130,-8120.612279,-814.226536
5562.358849,370.102971,-8810.098227,0.000000
5562.359173,888.247130,-9422.974625,-518.144159
5562.359498,666.185348,-8044.002729,-666.185348
5562.359822,74.020594,-8963.317327,-888.247130
5562.360147,-1406.391290,-9499.584175,-296.082377
5562.360471,-592.164754,-8427.050478,-1110.308913
5562.360796,-2442.679609,-8810.098227,-222.061783
5562.361120,-740.205942,-8044.002729,148.041188
5562.361445,-444.123565,-8044.002729,-444.123565
5562.361769,1850.514855,-10035.851024,0.000000
5562.362094,1036.288319,-7890.783629,-1480.411884
5562.362418,1332.370696,-8886.707777,222.061783
5562.362743,1184.329507,-7584.345430,-296.082377
5562.363067,888.247130,-8963.317327,0.000000
5562.363392,0.000000,-8197.221829,-148.041188
5562.363716,814.226536,-8733.488677,0.000000
5562.364041,592.164754,-8120.612279,-814.226536
5562.364365,2886.803174,-9346.365076,296.082377
5562.364689,518.144159,-8120.612279,-740.205942
5562.365014,0.000000,-8963.317327,0.000000
5562.365338,-1480.411884,-7890.783629,-1184.329507
5562.365663,-2294.638420,-8733.488677,0.000000
5562.365987,-2294.638420,-8273.831378,74.020594
5562.366312,-1850.514855,-8503.660028,-592.164754
5562.366636,74.020594,-8503.660028,-148.041188
5562.366961,2146.597232,-8503.660028,-1110.308913
5562.367285,2886.803174,-9346.365076,-666.185348
5562.367610,2368.659014,-7814.174080,-592.164754
5562.367934,2368.659014,-8810.098227,0.000000
5562.368259,222.061783,-9039.926876,222.061783
5562.368583,592.164754,-7660.954980,148.041188
5562.368908,1332.370696,-8963.317327,0.000000
5562.369232,592.164754,-8197.221829,0.000000
5562.369557,1924.535449,-9499.584175,0.000000
5562.369881,-444.123565,-8580.269578,-1480.411884
5562.370206,-1924.535449,-8810.098227,-296.082377
5562.370530,-666.185348,-8044.002729,-1628.453072
5562.370855,-1036.288319,-9193.145976,0.000000
5562.371179,-444.123565,-7431.126331,-148.041188
5562.371504,444.123565,-8273.831378,74.020594
5562.371828,666.185348,-8656.879127,-1036.288319
5562.372152,1036.288319,-9039.926876,-444.123565
5562.372477,2516.700203,-8656.879127,-740.205942
5562.372801,2812.782580,-8963.317327,-592.164754
5562.373126,1480.411884,-8656.879127,148.041188
5562.373450,1184.329507,-9269.755526,0.000000
5562.373775,-1332.370696,-9193.145976,0.000000
5562.374099,-888.247130,-8120.612279,-962.267725
5562.374424,592.164754,-8350.440928,74.020594
5562.374748,962.267725,-9269.755526,-370.102971
5562.375073,1110.308913,-8580.269578,-1110.308913
5562.375397,814.226536,-9193.145976,-518.144159
5562.375722,0.000000,-8197.221829,-1998.556043
5562.376046,-1110.308913,-9039.926876,0.000000
5562.376371,-1258.350101,-8963.317327,0.000000
5562.376695,-444.123565,-9422.974625,-296.082377
5562.377020,-814.226536,-8350.440928,-666.185348
5562.377344,666.185348,-9346.365076,-370.102971
5562.377669,1406.391290,-8427.050478,-592.164754
5562.377993,1924.535449,-8656.879127,-666.185348
5562.378318,1406.391290,-8197.221829,-740.205942
5562.378642,1332.370696,-8886.707777,296.082377
5562.378966,518.144159,-8273.831378,0.000000
5562.379291,-592.164754,-9039.926876,-222.061783
5562.379615,148.041188,-8120.612279,-296.082377
5562.379940,74.020594,-8580.269578,-296.082377
5562.380264,222.061783,-8580.269578,-444.123565
5562.380589,962.267725,-8886.707777,-888.247130
5562.380913,-740.205942,-8810.098227,-370.102971
5562.381238,-296.082377,-8427.050478,-962.267725
5562.381562,-740.205942,-8810.098227,-296.082377
5562.381887,0.000000,-9346.365076,296.082377
5562.382211,296.082377,-7584.345430,-592.164754
5562.382536,148.041188,-8503.660028,-148.041188
5562.382860,1110.308913,-9193.145976,-518.144159
5562.383185,740.205942,-8503.660028,-1332.370696
5562.383509,370.102971,-8580.269578,-592.164754
5562.383834,444.123565,-8044.002729,518.144159
5562.384158,0.000000,-9116.536426,666.185348
5562.384483,296.082377,-8810.098227,0.000000
5562.384807,2664.741391,-7967.393179,444.123565
5562.385132,1110.308913,-7584.345430,-370.102971
5562.385456,2664.741391,-8350.440928,-1036.288319
5562.385780,2368.659014,-8503.660028,0.000000
5562.386105,740.205942,-8427.050478,-962.267725
5562.386429,0.000000,-8886.707777,0.000000
5562.386754,-962.267725,-8044.002729,-370.102971
5562.387078,-1480.411884,-9652.803275,1110.308913
5562.387403,0.000000,-7431.126331,-74.020594
5562.387727,1406.391290,-9116.536426,296.082377
5562.388052,0.000000,-8273.831378,-296.082377
5562.388376,2368.659014,-9729.412825,-370.102971
5562.388701,1184.329507,-7584.345430,-962.267725
5562.389025,1628.453072,-8886.707777,0.000000
5562.389350,0.000000,-7890.783629,-148.041188
5562.389674,0.000000,-8580.269578,370.102971
5562.389999,0.000000,-8656.879127,0.000000
5562.390323,0.000000,-9116.536426,-666.185348
5562.390648,1258.350101,-8963.317327,-444.123565
5562.390972,296.082377,-8886.707777,-518.144159
5562.391297,-1480.411884,-8427.050478,-296.082377
5562.391621,-518.144159,-7967.393179,-962.267725
5562.391946,-888.247130,-9116.536426,0.000000
5562.392270,-370.102971,-8120.612279,148.041188
5562.392594,222.061783,-7507.735880,-1554.432478
5562.392919,1628.453072,-9346.365076,-740.205942
5562.393243,2294.638420,-8350.440928,-296.082377
5562.393568,2146.597232,-8886.707777,-1406.391290
5562.393892,1184.329507,-8810.098227,-592.164754
5562.394217,814.226536,-7814.174080,-148.041188
5562.394541,-370.102971,-8427.050478,0.000000
5562.394866,-1110.308913,-9116.536426,-666.185348
5562.395190,74.020594,-8427.050478,0.000000
5562.395515,-2146.597232,-9039.926876,-1110.308913
5562.395839,3182.885551,-9346.365076,-444.123565
5562.396164,1036.288319,-8120.612279,-1110.308913
5562.396488,74.020594,-7814.174080,-888.247130
5562.396813,74.020594,-9039.926876,-962.267725
5562.397137,-2146.597232,-9039.926876,-962.267725
5562.397462,-1184.329507,-8733.488677,74.020594
5562.397786,-518.144159,-7660.954980,0.000000
5562.398111,-592.164754,-8580.269578,-370.102971
5562.398435,2590.720797,-9346.365076,0.000000
5562.398760,3034.844362,-7584.345430,-1110.308913
5562.399084,1998.556043,-9346.365076,-222.061783
5562.399409,148.041188,-7814.174080,444.123565
5562.399733,1628.453072,-7584.345430,-370.102971
5562.400057,148.041188,-9346.365076,-222.061783
5562.400382,-370.102971,-8580.269578,-740.205942
5562.400706,-518.144159,-8197.221829,0.000000
5562.401031,-370.102971,-8580.269578,-518.144159
5562.401355,0.000000,-9499.584175,-592.164754
5562.401680,-1184.329507,-7737.564530,-814.226536
5562.402004,-1554.432478,-8963.317327,-148.041188
5562.402329,-1480.411884,-8733.488677,-370.102971
5562.402653,-592.164754,-8044.002729,518.144159
5562.402978,666.185348,-8656.879127,0.000000
5562.403302,518.144159,-8197.221829,-1258.350101
5562.403627,2294.638420,-8580.269578,74.020594
5562.403951,2812.782580,-7660.954980,-962.267725
5562.404276,3701.029710,-9499.584175,296.082377
5562.404600,592.164754,-7967.393179,0.000000
5562.404925,1110.308913,-8886.707777,888.247130
5562.405249,-518.144159,-7584.345430,0.000000
5562.405574,-1258.350101,-8810.098227,148.041188
5562.405898,1702.473667,-8733.488677,222.061783
5562.406223,1850.514855,-8273.831378,0.000000
5562.406547,592.164754,-9039.926876,-740.205942
5562.406871,444.123565,-8886.707777,-666.185348
5562.407196,-370.102971,-8350.440928,-1258.350101
5562.407520,-1110.308913,-8656.879127,-666.185348
5562.407845,-1110.308913,-8886.707777,74.020594
5562.408169,-2220.617826,-8810.098227,-518.144159
5562.408494,370.102971,-8273.831378,0.000000
5562.408818,740.205942,-8120.612279,-296.082377
5562.409143,2664.741391,-9039.926876,-814.226536
5562.409467,2516.700203,-7584.345430,-444.123565
5562.409792,2590.720797,-7737.564530,-592.164754
5562.410116,2294.638420,-8580.269578,0.000000
5562.410441,1110.308913,-8580.269578,370.102971
5562.410765,814.226536,-8963.317327,0.000000
5562.411090,0.000000,-8197.221829,-1332.370696
5562.411414,74.020594,-9652.803275,-592.164754
5562.411739,592.164754,-8886.707777,0.000000
5562.412063,-740.205942,-9039.926876,-1110.308913
5562.412388,74.020594,-9806.022374,-740.205942
5562.412712,-1554.432478,-8427.050478,-592.164754
5562.413037,-814.226536,-8427.050478,-592.164754
5562.413361,-518.144159,-8427.050478,-1110.308913
5562.413685,1184.329507,-9269.755526,-444.123565
5562.414010,1702.473667,-8503.660028,-518.144159
5562.414334,3182.885551,-9499.584175,-1110.308913
5562.414659,2146.597232,-9499.584175,-740.205942
5562.414983,74.020594,-8273.831378,-222.061783
5562.415308,666.185348,-9729.412825,444.123565
5562.415632,-222.061783,-8733.488677,-740.205942
5562.415957,-222.061783,-9116.536426,222.061783
5562.416281,518.144159,-8273.831378,-444.123565
5562.416606,1776.494261,-8350.440928,-148.041188
5562.416930,2516.700203,-8733.488677,-1036.288319
5562.417255,1258.350101,-8197.221829,-1776.494261
5562.417579,1924.535449,-8886.707777,-296.082377
5562.417904,-1332.370696,-8197.221829,-1258.350101
5562.418228,-1480.411884,-9269.755526,-296.082377
5562.418553,-2590.720797,-7967.393179,-740.205942
5562.418877,-2146.597232,-9576.193725,0.000000
5562.419202,-2072.576638,-8197.221829,-962.267725
5562.419526,-148.041188,-9269.755526,592.164754
5562.419851,666.185348,-8733.488677,222.061783
5562.420175,2738.761985,-8656.879127,-740.205942
5562.420499,1480.411884,-8120.612279,-592.164754
5562.420824,814.226536,-7967.393179,-222.061783
5562.421148,888.247130,-8350.440928,888.247130
5562.421473,962.267725,-7967.393179,-666.185348
5562.421797,1184.329507,-8963.317327,1406.391290
5562.422122,148.041188,-8120.612279,-962.267725
5562.422446,-1924.535449,-8656.879127,-444.123565
5562.422771,-1554.432478,-8044.002729,-296.082377
5562.423095,-666.185348,-8503.660028,0.000000
5562.423420,-1480.411884,-8427.050478,0.000000
5562.423744,-814.226536,-7890.783629,962.267725
5562.424069,-962.267725,-7814.174080,-444.123565
5562.424393,1406.391290,-8580.269578,0.000000
5562.424718,2294.638420,-7584.345430,0.000000
5562.425042,2072.576638,-8350.440928,-518.144159
5562.425367,2294.638420,-8656.879127,-518.144159
5562.425691,0.000000,-7890.783629,-370.102971
5562.426016,0.000000,-9499.584175,592.164754
5562.426340,-148.041188,-8350.440928,0.000000
5562.426665,0.000000,-8427.050478,1036.288319
5562.426989,740.205942,-7507.735880,222.061783
5562.427314,1406.391290,-8810.098227,74.020594
5562.427638,1702.473667,-8197.221829,-1850.514855
5562.427962,1406.391290,-8886.707777,-148.041188
5562.428287,814.226536,-8503.660028,-1036.288319
5562.428611,-370.102971,-8427.050478,-888.247130
5562.428936,-1776.494261,-8810.098227,148.041188
5562.429260,-888.247130,-8733.488677,0.000000
5562.429585,888.247130,-8503.660028,0.000000
5562.429909,962.267725,-8580.269578,296.082377
5562.430234,1628.453072,-8503.660028,-148.041188
5562.430558,1554.432478,-8580.269578,-814.226536
5562.430883,444.123565,-8273.831378,-444.123565
5562.431207,1924.535449,-8810.098227,-962.267725
5562.431532,740.205942,-8503.660028,444.123565
5562.431856,666.185348,-8810.098227,-222.061783
5562.432181,296.082377,-8427.050478,-222.061783
5562.432505,-148.041188,-9499.584175,222.061783
5562.432830,-666.185348,-9116.536426,-1406.391290
5562.433154,-148.041188,-9806.022374,-888.247130
5562.433479,-444.123565,-8580.269578,-1036.288319
5562.433803,-888.247130,-8886.707777,-148.041188
5562.434128,148.041188,-7814.174080,-444.123565
5562.434452,2294.638420,-8733.488677,370.102971
5562.434776,666.185348,-8273.831378,-1110.308913
5562.435101,2220.617826,-8733.488677,296.082377
5562.435425,2368.659014,-7507.735880,-1998.556043
5562.435750,1998.556043,-10035.851024,-296.082377
5562.436074,1776.494261,-7890.783629,-740.205942
5562.436399,0.000000,-9269.755526,666.185348
5562.436723,-2146.597232,-8656.879127,-518.144159
5562.437048,-1924.535449,-9039.926876,-370.102971
5562.437372,370.102971,-9193.145976,370.102971
5562.437697,1036.288319,-8044.002729,-296.082377
5562.438021,2220.617826,-9422.974625,-1110.308913
5562.438346,1258.350101,-9269.755526,-962.267725
5562.438670,370.102971,-8580.269578,-1480.411884
5562.438995,-444.123565,-9039.926876,222.061783
5562.439319,-1036.288319,-8503.660028,0.000000
5562.439644,-1850.514855,-9269.755526,0.000000
5562.439968,-148.041188,-8503.660028,-370.102971
5562.440293,296.082377,-9116.536426,518.144159
5562.440617,888.247130,-9193.145976,-814.226536
5562.440941,962.267725,-7431.126331,0.000000
5562.441266,1332.370696,-8044.002729,518.144159
5562.441590,1480.411884,-8120.612279,-370.102971
5562.441914,2812.782580,-8350.440928,148.041188
5562.442239,592.164754,-7737.564530,370.102971
5562.442563,888.247130,-8197.221829,-592.164754
5562.442887,-592.164754,-8963.317327,-370.102971
5562.443211,0.000000,-9039.926876,-1036.288319
5562.443536,0.000000,-8427.050478,-444.123565
5562.443860,-1258.350101,-8503.660028,-592.164754
5562.444184,-1776.494261,-8120.612279,444.123565
5562.444509,-1998.556043,-8580.269578,148.041188
5562.444833,-962.267725,-8350.440928,148.041188
5562.445157,0.000000,-7660.954980,-888.247130
5562.445482,2442.679609,-8503.660028,-148.041188
5562.445806,3034.844362,-8503.660028,-148.041188
5562.446130,3404.947333,-7967.393179,-518.144159
5562.446455,1702.473667,-8197.221829,-666.185348
5562.446779,296.082377,-8427.050478,222.061783
5562.447103,296.082377,-8886.707777,740.205942
5562.447428,-370.102971,-8656.879127,-592.164754
5562.447752,518.144159,-8120.612279,148.041188
5562.448076,-740.205942,-7277.907231,148.041188
5562.448401,1110.308913,-8886.707777,222.061783
5562.448725,74.020594,-7967.393179,-1406.391290
5562.449049,592.164754,-8656.879127,-1036.288319
5562.449374,-740.205942,-7814.174080,-518.144159
5562.449698,0.000000,-8350.440928,-666.185348
5562.450022,-370.102971,-8044.002729,74.020594
5562.450347,444.123565,-9193.145976,74.020594
5562.450671,740.205942,-10342.289223,-518.144159
5562.450995,2368.659014,-9729.412825,-444.123565
5562.451320,1702.473667,-8580.269578,-740.205942
5562.451644,1628.453072,-8580.269578,-814.226536
5562.451968,1406.391290,-8580.269578,-370.102971
5562.452293,370.102971,-9116.536426,-296.082377
5562.452617,296.082377,-8197.221829,-1036.288319
5562.452941,444.123565,-7967.393179,222.061783
5562.453265,740.205942,-8580.269578,-740.205942
5562.453590,1924.535449,-8886.707777,-666.185348
5562.453914,444.123565,-8350.440928,-1184.329507
5562.454238,-592.164754,-9652.803275,-444.123565
5562.454563,222.061783,-8886.707777,-518.144159
5562.454887,-1258.350101,-9959.241474,-296.082377
5562.455211,0.000000,-9193.145976,-592.164754
5562.455536,0.000000,-9116.536426,0.000000
5562.455860,0.000000,-9576.193725,-740.205942
5562.456184,1406.391290,-8350.440928,-148.041188
5562.456509,1554.432478,-8503.660028,-740.205942
5562.456833,1702.473667,-9269.755526,-518.144159
5562.457157,592.164754,-8273.831378,-962.267725
5562.457482,592.164754,-9422.974625,444.123565
5562.457806,1036.288319,-8733.488677,740.205942
5562.458130,-592.164754,-8503.660028,74.020594
5562.458455,-222.061783,-8503.660028,-222.061783
5562.458779,1924.535449,-8810.098227,444.123565
5562.459103,74.020594,-8350.440928,-962.267725
5562.459428,740.205942,-9193.145976,-222.061783
5562.459752,-370.102971,-8044.002729,-518.144159
5562.460076,-2368.659014,-8350.440928,222.061783
5562.460401,-1924.535449,-8197.221829,0.000000
5562.460725,-444.123565,-9116.536426,814.226536
5562.461049,-148.041188,-7660.954980,-592.164754
5562.461374,222.061783,-8580.269578,296.082377
5562.461698,1332.370696,-8273.831378,-592.164754
5562.462022,2738.761985,-8656.879127,-370.102971
5562.462347,3404.947333,-7814.174080,222.061783
5562.462671,1184.329507,-7048.078582,666.185348
5562.462995,1628.453072,-8656.879127,592.164754
5562.463319,888.247130,-10035.851024,666.185348
5562.463644,888.247130,-6971.469032,-962.267725
5562.463968,592.164754,-9039.926876,444.123565
5562.464292,0.000000,-7124.688131,-1184.329507
5562.464617,592.164754,-9269.755526,74.020594
5562.464941,148.041188,-9576.193725,-592.164754
5562.465265,-962.267725,-8503.660028,0.000000
5562.465590,-814.226536,-7354.516781,-370.102971
5562.465914,-1702.473667,-9346.365076,370.102971
5562.466238,2368.659014,-9116.536426,-888.247130
5562.466563,1554.432478,-8350.440928,222.061783
5562.466887,1776.494261,-8733.488677,-592.164754
5562.467211,2294.638420,-8427.050478,-296.082377
5562.467536,2072.576638,-8273.831378,-888.247130
5562.467860,0.000000,-8656.879127,1184.329507
5562.468184,296.082377,-8427.050478,-592.164754
5562.468509,-666.185348,-8810.098227,74.020594
5562.468833,888.247130,-8197.221829,-148.041188
5562.469157,1110.308913,-9729.412825,74.020594
5562.469482,1332.370696,-8427.050478,-1332.370696
5562.469806,1554.432478,-9576.193725,-518.144159
5562.470130,962.267725,-8886.707777,-1924.535449
5562.470455,-1332.370696,-9269.755526,-814.226536
5562.470779,-296.082377,-8656.879127,-222.061783
5562.471103,-2516.700203,-8963.317327,-222.061783
5562.471428,-1332.370696,-8810.098227,-1110.308913
5562.471752,962.267725,-9116.536426,-518.144159
5562.472076,1406.391290,-8733.488677,-888.247130
5562.472401,1850.514855,-8580.269578,-1184.329507
5562.472725,2368.659014,-8350.440928,-1110.308913
5562.473049,1332.370696,-9576.193725,-148.041188
5562.473373,888.247130,-8503.660028,0.000000
5562.473698,74.020594,-8886.707777,-814.226536
5562.474022,1332.370696,-8580.269578,-222.061783
5562.474346,-148.041188,-8503.660028,-1332.370696
5562.474671,296.082377,-10572.117872,-1332.370696
5562.474995,-1924.535449,-7890.783629,-2812.782580
5562.475319,-1110.308913,-10035.851024,74.020594
5562.475644,-2886.803174,-6894.859482,-1480.411884
5562.475968,-1480.411884,-9652.803275,0.000000
5562.476292,-1036.288319,-7967.393179,0.000000
5562.476617,-444.123565,-9039.926876,-592.164754
5562.476941,1702.473667,-8273.831378,-592.164754
5562.477265,2294.638420,-8273.831378,0.000000
5562.477590,2368.659014,-7737.564530,-592.164754
5562.477914,3478.967927,-8886.707777,-370.102971
5562.478238,-296.082377,-8273.831378,74.020594
5562.478563,-222.061783,-9269.755526,666.185348
5562.478887,-148.041188,-8044.002729,-296.082377
5562.479211,-592.164754,-8580.269578,370.102971
5562.479536,814.226536,-7737.564530,0.000000
5562.479860,1554.432478,-8810.098227,0.000000
5562.480184,296.082377,-8503.660028,-592.164754
5562.480509,518.144159,-8580.269578,-444.123565
5562.480833,1258.350101,-8197.221829,-222.061783
5562.481157,-370.102971,-8733.488677,592.164754
5562.481482,-1850.514855,-7660.954980,-296.082377
5562.481806,-444.123565,-9193.145976,666.185348
5562.482130,-888.247130,-8503.660028,-740.205942
5562.482455,1480.411884,-9193.145976,74.020594
5562.482779,1184.329507,-7354.516781,0.000000
5562.483103,740.205942,-8580.269578,222.061783
5562.483427,1776.494261,-8197.221829,-222.061783
5562.483752,1406.391290,-8656.879127,444.123565
5562.484076,370.102971,-8580.269578,814.226536
5562.484400,814.226536,-8810.098227,-148.041188
5562.484725,1036.288319,-8580.269578,518.144159
5562.485049,666.185348,-9116.536426,-962.267725
5562.485373,1110.308913,-8733.488677,-1258.350101
5562.485698,-148.041188,-9422.974625,74.020594
5562.486022,-2812.782580,-7354.516781,814.226536
5562.486346,-814.226536,-9422.974625,0.000000
5562.486671,-888.247130,-7967.393179,0.000000
5562.486995,0.000000,-8350.440928,222.061783
5562.487319,814.226536,-7431.126331,-888.247130
5562.487644,2294.638420,-9039.926876,-222.061783
5562.487968,1924.535449,-7507.735880,-888.247130
5562.488292,2442.679609,-9422.974625,-888.247130
5562.488617,-222.061783,-8197.221829,-370.102971
5562.488941,740.205942,-9039.926876,518.144159
5562.489265,-592.164754,-8427.050478,-370.102971
5562.489590,2072.576638,-8963.317327,370.102971
5562.489914,-1406.391290,-7660.954980,-1258.350101
5562.490238,2220.617826,-9499.584175,-296.082377
5562.490563,-1480.411884,-7431.126331,-1480.411884
5562.490887,1554.432478,-9959.241474,-666.185348
5562.491211,-1702.473667,-7660.954980,-1776.494261
5562.491536,-1554.432478,-9422.974625,0.000000
5562.491860,-1554.432478,-8350.440928,-666.185348
5562.492184,148.041188,-8656.879127,-1406.391290
5562.492509,-592.164754,-9499.584175,0.000000
5562.492833,148.041188,-9116.536426,0.000000
5562.493157,1702.473667,-8886.707777,-1036.288319
5562.493481,1776.494261,-8733.488677,-592.164754
5562.493806,2368.659014,-7737.564530,-518.144159
5562.494130,592.164754,-8656.879127,-666.185348
5562.494454,1258.350101,-8963.317327,0.000000
5562.494779,1702.473667,-8656.879127,-148.041188
5562.495103,1628.453072,-9116.536426,-296.082377
5562.495427,740.205942,-8350.440928,-444.123565
5562.495752,0.000000,-8427.050478,-1258.350101
5562.496076,74.020594,-9422.974625,0.000000
5562.496400,-888.247130,-8503.660028,-1258.350101
5562.496725,-2072.576638,-9499.584175,-814.226536
5562.497049,-2886.803174,-8197.221829,-666.185348
5562.497373,-1110.308913,-8733.488677,1406.391290
5562.497698,-518.144159,-7507.735880,-1850.514855
5562.498022,1554.432478,-9499.584175,814.226536
5562.498346,2146.597232,-7431.126331,0.000000
5562.498671,2590.720797,-8656.879127,0.000000
5562.498995,3330.926739,-7814.174080,-888.247130
5562.499319,2072.576638,-8273.831378,222.061783
5562.499644,0.000000,-8120.612279,0.000000
5562.499968,-962.267725,-8810.098227,1258.350101
5562.500292,444.123565,-7660.954980,0.000000
5562.500617,0.000000,-8886.707777,222.061783
5562.500941,296.082377,-8427.050478,-1332.370696
5562.501265,-888.247130,-8810.098227,-592.164754
5562.501590,-296.082377,-7507.735880,0.000000
5562.501914,-1776.494261,-8427.050478,74.020594
5562.502238,-1628.453072,-8350.440928,0.000000
5562.502563,-370.102971,-8580.269578,222.061783
5562.502887,296.082377,-8886.707777,0.000000
5562.503211,592.164754,-8273.831378,0.000000
5562.503535,2220.617826,-9193.145976,-592.164754
5562.503860,1480.411884,-8273.831378,-592.164754
5562.504184,3627.009116,-8656.879127,222.061783
5562.504508,0.000000,-8656.879127,-518.144159
5562.504833,74.020594,-8810.098227,1184.329507
5562.505157,-1554.432478,-7354.516781,666.185348
5562.505481,-148.041188,-9729.412825,666.185348
5562.505806,1924.535449,-7814.174080,-148.041188
5562.506130,2072.576638,-8963.317327,-1480.411884
5562.506454,740.205942,-8656.879127,-222.061783
5562.506779,444.123565,-8656.879127,-888.247130
5562.507103,1184.329507,-9269.755526,-222.061783
5562.507427,-740.205942,-8350.440928,-518.144159
5562.507752,-1332.370696,-9576.193725,0.000000
5562.508076,-592.164754,-8886.707777,-1110.308913
5562.508400,-444.123565,-9576.193725,370.102971
5562.508725,1924.535449,-8886.707777,-666.185348
5562.509049,444.123565,-8120.612279,-518.144159
5562.509373,1110.308913,-8810.098227,-1258.350101
5562.509698,1258.350101,-9116.536426,-222.061783
5562.510022,1554.432478,-8197.221829,0.000000
5562.510346,888.247130,-8580.269578,-296.082377
5562.510671,2220.617826,-8963.317327,-1110.308913
5562.510995,370.102971,-8273.831378,-740.205942
5562.511319,1776.494261,-8886.707777,-592.164754
5562.511644,1036.288319,-8427.050478,-1702.473667
5562.511968,-370.102971,-9499.584175,-148.041188
5562.512292,-2072.576638,-8503.660028,-1480.411884
5562.512617,-1036.288319,-9422.974625,0.000000
5562.512941,-2146.597232,-8427.050478,-1110.308913
5562.513265,-370.102971,-9422.974625,-370.102971
5562.513589,962.267725,-7967.393179,-962.267725
5562.513914,3034.844362,-9806.022374,0.000000
5562.514238,3997.112087,-7354.516781,-592.164754
5562.514562,2812.782580,-8350.440928,-1110.308913
5562.514887,-592.164754,-8044.002729,-1332.370696
5562.515211,1406.391290,-12104.308868,1036.288319
5562.515535,-2590.720797,-6894.859482,-740.205942
5562.515860,444.123565,-9806.022374,-518.144159
5562.516184,-1036.288319,-8120.612279,-1406.391290
5562.516508,-370.102971,-9806.022374,-296.082377
5562.516833,0.000000,-7584.345430,-1776.494261
5562.517157,1258.350101,-8733.488677,296.082377
5562.517481,-740.205942,-8120.612279,-740.205942
5562.517806,0.000000,-7890.783629,814.226536
5562.518130,666.185348,-7890.783629,-444.123565
5562.518454,592.164754,-8273.831378,74.020594
5562.518779,370.102971,-8733.488677,0.000000
5562.519103,1258.350101,-8580.269578,-370.102971
5562.519427,1776.494261,-9193.145976,296.082377
5562.519752,148.041188,-7814.174080,-1258.350101
5562.520076,518.144159,-8273.831378,592.164754
5562.520400,-1036.288319,-7354.516781,296.082377
5562.520725,-222.061783,-9193.145976,-148.041188
5562.521049,370.102971,-7354.516781,0.000000
5562.521373,814.226536,-8350.440928,222.061783
5562.521698,1850.514855,-8120.612279,-666.185348
5562.522022,2146.597232,-8963.317327,-370.102971
5562.522346,74.020594,-9193.145976,-518.144159
5562.522671,-444.123565,-8427.050478,-888.247130
5562.522995,-1554.432478,-8503.660028,74.020594
5562.523319,-1628.453072,-8656.879127,296.082377
5562.523643,-888.247130,-8044.002729,370.102971
5562.523968,-888.247130,-7967.393179,222.061783
5562.524292,518.144159,-9346.365076,0.000000
5562.524616,888.247130,-7660.954980,-296.082377
5562.524941,1776.494261,-8580.269578,-296.082377
5562.525265,962.267725,-7660.954980,-592.164754
5562.525589,1332.370696,-8810.098227,370.102971
5562.525914,592.164754,-8733.488677,-592.164754
5562.526238,1184.329507,-9576.193725,814.226536
5562.526562,518.144159,-8044.002729,-444.123565
5562.526887,518.144159,-8580.269578,-962.267725
5562.527211,-444.123565,-8656.879127,-1110.308913
5562.527535,-592.164754,-9116.536426,-962.267725
5562.527860,-1406.391290,-8350.440928,-888.247130
5562.528184,-1036.288319,-8427.050478,592.164754
5562.528508,-2146.597232,-8580.269578,74.020594
5562.528833,148.041188,-9039.926876,-148.041188
5562.529157,2146.597232,-8273.831378,-444.123565
5562.529481,2146.597232,-9116.536426,370.102971
5562.529806,3775.050304,-9116.536426,-1406.391290
5562.530130,2072.576638,-8733.488677,-296.082377
5562.530454,2886.803174,-9652.803275,-1332.370696
5562.530779,1036.288319,-9269.755526,-296.082377
5562.531103,-1110.308913,-9652.803275,-74.020594
5562.531427,-1776.494261,-8963.317327,0.000000
5562.531752,0.000000,-9116.536426,-518.144159
5562.532076,-296.082377,-8733.488677,-444.123565
5562.532400,1332.370696,-8656.879127,-1480.411884
5562.532725,518.144159,-9499.584175,-888.247130
5562.533049,962.267725,-9269.755526,-740.205942
5562.533373,1110.308913,-8197.221829,-518.144159
5562.533697,222.061783,-8044.002729,-592.164754
5562.534022,1332.370696,-8580.269578,0.000000
5562.534346,1776.494261,-8656.879127,74.020594
5562.534670,1702.473667,-9116.536426,-296.082377
5562.534995,962.267725,-9039.926876,-296.082377
5562.535319,0.000000,-8350.440928,-1110.308913
5562.535643,592.164754,-9806.022374,-888.247130
5562.535968,0.000000,-8503.660028,-518.144159
5562.536292,-1036.288319,-8427.050478,666.185348
5562.536616,-296.082377,-8427.050478,-666.185348
5562.536941,296.082377,-9806.022374,222.061783
5562.537265,888.247130,-8273.831378,-1036.288319
5562.537589,1480.411884,-8656.879127,-666.185348
5562.537914,1184.329507,-9039.926876,-296.082377
5562.538238,-666.185348,-8733.488677,-1332.370696
5562.538562,-1110.308913,-8886.707777,0.000000
5562.538887,-2516.700203,-8120.612279,74.020594
5562.539211,-592.164754,-8810.098227,592.164754
5562.539535,296.082377,-8273.831378,0.000000
5562.539860,-444.123565,-9193.145976,-222.061783
5562.540184,1332.370696,-8886.707777,-740.205942
5562.540508,1110.308913,-7967.393179,-370.102971
5562.540833,2368.659014,-8427.050478,-962.267725
5562.541157,2294.638420,-8810.098227,370.102971
5562.541481,518.144159,-8273.831378,296.082377
5562.541806,0.000000,-9039.926876,222.061783
5562.542130,-370.102971,-8503.660028,0.000000
5562.542454,444.123565,-8580.269578,222.061783
5562.542778,0.000000,-9116.536426,-888.247130
5562.543103,0.000000,-8427.050478,-1110.308913
5562.543427,-888.247130,-8350.440928,-444.123565
5562.543751,-1628.453072,-8044.002729,-740.205942
5562.544076,-962.267725,-8503.660028,-222.061783
5562.544400,-1110.308913,-8963.317327,222.061783
5562.544724,74.020594,-8580.269578,370.102971
5562.545049,1110.308913,-8273.831378,-962.267725
5562.545373,2442.679609,-9729.412825,-296.082377
5562.545697,2368.659014,-7354.516781,-444.123565
5562.546022,2590.720797,-8503.660028,-222.061783
5562.546346,592.164754,-8273.831378,0.000000
5562.546670,666.185348,-9039.926876,222.061783
5562.546994,-222.061783,-8656.879127,-740.205942
5562.547319,-518.144159,-8810.098227,74.020594
5562.547643,-740.205942,-7890.783629,-666.185348
5562.547967,1776.494261,-8963.317327,-1110.308913
5562.548292,740.205942,-9193.145976,-148.041188
5562.548616,1036.288319,-9039.926876,-1480.411884
5562.548940,-1332.370696,-9116.536426,-1258.350101
5562.549265,2368.659014,-9499.584175,888.247130
5562.549589,-1702.473667,-7354.516781,-2368.659014
5562.549913,-148.041188,-11797.870669,2886.803174
5562.550238,74.020594,-7124.688131,-2516.700203
5562.550562,1110.308913,-10035.851024,666.185348
5562.550886,2442.679609,-7967.393179,-1998.556043
5562.551211,3182.885551,-9193.145976,-888.247130
5562.551535,592.164754,-7660.954980,-666.185348
5562.551859,1332.370696,-8350.440928,1850.514855
5562.552183,1702.473667,-8120.612279,-1332.370696
5562.552508,740.205942,-8810.098227,-1036.288319
5562.552832,1110.308913,-8733.488677,-296.082377
5562.553156,1850.514855,-8810.098227,-1628.453072
5562.553481,296.082377,-8733.488677,-1554.432478
5562.553805,222.061783,-9346.365076,74.020594
5562.554129,-1628.453072,-8503.660028,-1850.514855
5562.554454,-3108.864956,-9193.145976,0.000000
5562.554778,-2220.617826,-8350.440928,-296.082377
5562.555102,-1258.350101,-8963.317327,0.000000
5562.555427,1628.453072,-8886.707777,-1110.308913
5562.555751,740.205942,-9499.584175,-222.061783
5562.556075,2590.720797,-8580.269578,-1184.329507
5562.556399,1998.556043,-7967.393179,-814.226536
5562.556724,1406.391290,-9193.145976,0.000000
5562.557048,1036.288319,-8197.221829,888.247130
5562.557372,-148.041188,-8733.488677,74.020594
5562.557697,0.000000,-7814.174080,-370.102971
5562.558021,-148.041188,-8197.221829,518.144159
5562.558345,74.020594,-8044.002729,-962.267725
5562.558670,1332.370696,-8273.831378,-370.102971
5562.558994,0.000000,-8810.098227,-518.144159
5562.559318,296.082377,-8503.660028,-666.185348
5562.559643,-222.061783,-7967.393179,222.061783
5562.559967,-1036.288319,-8733.488677,444.123565
5562.560291,-592.164754,-8886.707777,370.102971
5562.560615,74.020594,-8427.050478,-592.164754
5562.560940,0.000000,-9652.803275,222.061783
5562.561264,1702.473667,-8350.440928,74.020594
5562.561588,1110.308913,-7737.564530,-592.164754
5562.561913,1110.308913,-8810.098227,74.020594
5562.562237,1110.308913,-8197.221829,1036.288319
5562.562561,1480.411884,-8273.831378,370.102971
5562.562886,-1480.411884,-8580.269578,-296.082377
5562.563210,1702.473667,-8044.002729,222.061783
5562.563534,740.205942,-8733.488677,370.102971
5562.563859,222.061783,-8197.221829,-814.226536
5562.564183,2960.823768,-8810.098227,-296.082377
5562.564507,0.000000,-9499.584175,-592.164754
5562.564832,-2368.659014,-8044.002729,-592.164754
5562.565156,-222.061783,-7967.393179,-222.061783
5562.565480,-1554.432478,-8656.879127,0.000000
5562.565804,0.000000,-9499.584175,0.000000
5562.566129,74.020594,-8044.002729,-814.226536
5562.566453,0.000000,-9422.974625,-222.061783
5562.566777,1332.370696,-7660.954980,-740.205942
5562.567102,1998.556043,-8350.440928,-518.144159
5562.567426,1924.535449,-8197.221829,-444.123565
5562.567750,518.144159,-9422.974625,0.000000
5562.568075,666.185348,-8656.879127,-1036.288319
5562.568399,444.123565,-8810.098227,370.102971
5562.568723,1110.308913,-7814.174080,-370.102971
5562.569048,2590.720797,-9039.926876,-1554.432478
5562.569372,296.082377,-8580.269578,-1110.308913
5562.569696,370.102971,-9959.241474,-370.102971
5562.570020,-888.247130,-8273.831378,-1406.391290
5562.570345,-1480.411884,-8886.707777,0.000000
5562.570669,-888.247130,-8273.831378,-814.226536
5562.570993,-1036.288319,-8120.612279,-370.102971
5562.571318,518.144159,-9269.755526,0.000000
5562.571642,1554.432478,-8580.269578,-888.247130
5562.571966,962.267725,-8350.440928,-1480.411884
5562.572291,1924.535449,-8580.269578,-296.082377
5562.572615,1110.308913,-8503.660028,-1702.473667
5562.572939,814.226536,-9729.412825,444.123565
5562.573264,-814.226536,-7890.783629,-518.144159
5562.573588,148.041188,-9422.974625,444.123565
5562.573912,444.123565,-7354.516781,-1036.288319
5562.574236,1924.535449,-10112.460574,0.000000
5562.574561,370.102971,-7737.564530,-2220.617826
5562.574885,1110.308913,-9499.584175,222.061783
5562.575209,1480.411884,-7584.345430,-2220.617826
5562.575534,0.000000,-9422.974625,0.000000
5562.575858,-444.123565,-7967.393179,-370.102971
5562.576182,148.041188,-8810.098227,888.247130
5562.576507,0.000000,-8503.660028,-1776.494261
5562.576831,592.164754,-10265.679673,296.082377
5562.577155,1480.411884,-7354.516781,-1850.514855
5562.577480,518.144159,-9729.412825,-222.061783
5562.577804,0.000000,-7890.783629,-1184.329507
5562.578128,-148.041188,-8963.317327,1776.494261
5562.578453,-1258.350101,-8044.002729,-962.267725
5562.578777,1480.411884,-9652.803275,592.164754
5562.579101,1480.411884,-8197.221829,-1332.370696
5562.579425,3256.906145,-9806.022374,74.020594
5562.579750,888.247130,-7814.174080,-1998.556043
5562.580074,-148.041188,-9269.755526,444.123565
5562.580398,-1628.453072,-7354.516781,-148.041188
5562.580723,-888.247130,-8197.221829,888.247130
5562.581047,-1480.411884,-8273.831378,222.061783
5562.581371,518.144159,-8273.831378,592.164754
5562.581696,1110.308913,-8120.612279,0.000000
5562.582020,1776.494261,-8273.831378,370.102971
5562.582344,1258.350101,-8044.002729,-518.144159
5562.582669,2516.700203,-7967.393179,370.102971
5562.582993,148.041188,-7507.735880,-148.041188
5562.583317,1184.329507,-9346.365076,222.061783
5562.583641,-148.041188,-8044.002729,-296.082377
5562.583966,-592.164754,-8273.831378,74.020594
5562.584290,444.123565,-8963.317327,-370.102971
5562.584614,1110.308913,-8350.440928,-148.041188
5562.584939,740.205942,-7967.393179,-370.102971
5562.585263,74.020594,-8120.612279,-740.205942
5562.585587,444.123565,-9193.145976,-592.164754
5562.585912,-518.144159,-8120.612279,296.082377
5562.586236,74.020594,-8044.002729,296.082377
5562.586560,222.061783,-8503.660028,148.041188
5562.586885,74.020594,-7890.783629,-962.267725
5562.587209,1258.350101,-9193.145976,0.000000
5562.587533,2738.761985,-8503.660028,-666.185348
5562.587857,1036.288319,-8350.440928,-296.082377
5562.588182,888.247130,-8503.660028,-666.185348
5562.588506,-592.164754,-8810.098227,444.123565
5562.588830,-740.205942,-9116.536426,-296.082377
5562.589155,0.000000,-8580.269578,-370.102971
5562.589479,222.061783,-9116.536426,-518.144159
5562.589803,0.000000,-8197.221829,-1258.350101
5562.590128,1110.308913,-8810.098227,-1110.308913
5562.590452,444.123565,-8656.879127,-1554.432478
5562.590776,518.144159,-9422.974625,-370.102971
5562.591101,0.000000,-7660.954980,-740.205942
5562.591425,444.123565,-9269.755526,370.102971
5562.591749,-148.041188,-8503.660028,-370.102971
5562.592074,1332.370696,-8656.879127,-1480.411884
5562.592398,1406.391290,-9116.536426,-592.164754
5562.592722,2072.576638,-10342.289223,-814.226536
5562.593046,2220.617826,-7737.564530,-962.267725
5562.593371,-3256.906145,-8273.831378,-444.123565
5562.593695,-222.061783,-8580.269578,-148.041188
5562.594019,-1406.391290,-8810.098227,-814.226536
5562.594344,0.000000,-9039.926876,0.000000
5562.594668,74.020594,-9193.145976,-444.123565
5562.594992,740.205942,-8733.488677,-814.226536
5562.595317,1554.432478,-10189.070123,-666.185348
5562.595641,1184.329507,-8273.831378,-1258.350101
5562.595965,-518.144159,-9729.412825,-444.123565
5562.596290,-148.041188,-8503.660028,-1110.308913
5562.596614,-592.164754,-9039.926876,148.041188
5562.596938,-1628.453072,-7890.783629,370.102971
5562.597262,-666.185348,-8656.879127,370.102971
5562.597587,518.144159,-7660.954980,-814.226536
5562.597911,2220.617826,-9193.145976,148.041188
5562.598235,2812.782580,-7584.345430,-740.205942
5562.598560,2664.741391,-8810.098227,-666.185348
5562.598884,740.205942,-7354.516781,370.102971
5562.599208,1628.453072,-8810.098227,0.000000
5562.599533,592.164754,-8886.707777,74.020594
5562.599857,518.144159,-7584.345430,-1110.308913
5562.600181,1776.494261,-9269.755526,148.041188
5562.600506,-518.144159,-9039.926876,-888.247130
5562.600830,-1554.432478,-8656.879127,-888.247130
5562.601154,-740.205942,-8656.879127,-296.082377
5562.601478,-1998.556043,-8273.831378,0.000000
5562.601803,-1406.391290,-8273.831378,0.000000
5562.602127,-1184.329507,-8197.221829,592.164754
5562.602451,666.185348,-8350.440928,222.061783
5562.602776,1258.350101,-8656.879127,0.000000
5562.603100,2738.761985,-8810.098227,0.000000
5562.603424,2294.638420,-7737.564530,-888.247130
5562.603749,2516.700203,-9269.755526,-148.041188
5562.604073,1110.308913,-8044.002729,0.000000
5562.604397,0.000000,-10342.289223,444.123565
5562.604722,-1110.308913,-8656.879127,-592.164754
5562.605046,-1332.370696,-8810.098227,370.102971
5562.605370,-1406.391290,-7890.783629,-444.123565
5562.605695,518.144159,-8963.317327,296.082377
5562.606019,-666.185348,-8120.612279,-1406.391290
5562.606343,518.144159,-8427.050478,-1036.288319
5562.606667,-296.082377,-8273.831378,-1258.350101
5562.606992,148.041188,-9193.145976,148.041188
5562.607316,0.000000,-7814.174080,-740.205942
5562.607640,1258.350101,-9806.022374,592.164754
5562.607965,814.226536,-8273.831378,-1184.329507
5562.608289,1480.411884,-9806.022374,222.061783
5562.608613,1702.473667,-7967.393179,-2146.597232
5562.608938,1258.350101,-9116.536426,370.102971
5562.609262,222.061783,-8580.269578,-1332.370696
5562.609586,148.041188,-8810.098227,518.144159
5562.609911,-148.041188,-7431.126331,-740.205942
5562.610235,2146.597232,-8044.002729,962.267725
5562.610559,1406.391290,-6358.592633,-1258.350101
5562.610883,2294.638420,-9116.536426,370.102971
5562.611208,740.205942,-8810.098227,-518.144159
5562.611532,740.205942,-8273.831378,-1776.494261
5562.611856,-1036.288319,-10342.289223,-666.185348
5562.612181,0.000000,-9269.755526,-518.144159
5562.612505,888.247130,-9806.022374,0.000000
5562.612829,-1702.473667,-9652.803275,-370.102971
5562.613154,-1036.288319,-8503.660028,-2294.638420
5562.613478,-814.226536,-7814.174080,222.061783
5562.613802,-370.102971,-4903.011187,1036.288319
5562.614127,-592.164754,-6358.592633,1702.473667
5562.614451,4293.194464,-9499.584175,-2294.638420
5562.614775,4367.215058,-10189.070123,-3108.864956
5562.615099,2812.782580,-11338.213370,0.000000
5562.615424,518.144159,-5515.887586,-3182.885551
5562.615748,-1480.411884,-14632.424012,1628.453072
5562.616072,3404.947333,-6511.811733,-2442.679609
5562.616397,962.267725,-11108.384721,518.144159
5562.616721,-1702.473667,-6358.592633,148.041188
5562.617045,-1850.514855,-10342.289223,962.267725
5562.617370,-3478.967927,-7277.907231,-1998.556043
5562.617694,-740.205942,-12334.137518,2516.700203
5562.618018,-2812.782580,-6818.249932,74.020594
5562.618343,-222.061783,-9422.974625,3182.885551
5562.618667,-222.061783,-7890.783629,-2960.823768
5562.618991,1332.370696,-11874.480219,1110.308913
5562.619316,1406.391290,-5286.058936,-2738.761985
5562.619640,2960.823768,-9882.631924,592.164754
5562.619964,0.000000,-8044.002729,-962.267725
5562.620288,740.205942,-8733.488677,592.164754
5562.620613,-2812.782580,-8044.002729,-444.123565
5562.620937,-888.247130,-9269.755526,814.226536
5562.621261,148.041188,-6358.592633,-740.205942
5562.621586,1850.514855,-8273.831378,-888.247130
5562.621910,1554.432478,-8197.221829,-1924.535449
5562.622234,888.247130,-8427.050478,-888.247130
5562.622559,444.123565,-7431.126331,-962.267725
5562.622883,-592.164754,-8656.879127,296.082377
5562.623207,-888.247130,-7967.393179,296.082377
5562.623532,444.123565,-7814.174080,-592.164754
5562.623856,740.205942,-8963.317327,-1850.514855
5562.624180,1184.329507,-9806.022374,-740.205942
5562.624504,0.000000,-8580.269578,-1702.473667
5562.624829,0.000000,-9193.145976,74.020594
5562.625153,-1850.514855,-8427.050478,-222.061783
5562.625477,-666.185348,-10648.727422,814.226536
5562.625802,962.267725,-7277.907231,-1628.453072
5562.626126,888.247130,-9039.926876,370.102971
5562.626450,370.102971,-7660.954980,-740.205942
5562.626775,1036.288319,-8656.879127,-370.102971
5562.627099,0.000000,-9116.536426,-370.102971
5562.627423,592.164754,-9269.755526,0.000000
5562.627748,-1258.350101,-8503.660028,-666.185348
5562.628072,-1258.350101,-9652.803275,-370.102971
5562.628396,-1332.370696,-8963.317327,-518.144159
5562.628720,-814.226536,-8733.488677,-444.123565
5562.629045,1258.350101,-8886.707777,-148.041188
5562.629369,2812.782580,-8273.831378,-444.123565
5562.629693,740.205942,-7584.345430,518.144159
5562.630018,1332.370696,-7354.516781,0.000000
5562.630342,2368.659014,-8580.269578,222.061783
5562.630666,1036.288319,-9193.145976,-888.247130
5562.630991,1036.288319,-8580.269578,-1480.411884
5562.631315,2368.659014,-9116.536426,-148.041188
5562.631639,148.041188,-9039.926876,444.123565
5562.631964,2812.782580,-10265.679673,370.102971
5562.632288,-1924.535449,-7354.516781,-2368.659014
5562.632612,-592.164754,-10112.460574,592.164754
5562.632937,-814.226536,-6741.640382,-1184.329507
5562.633261,-2072.576638,-8810.098227,518.144159
5562.633585,-1036.288319,-7124.688131,74.020594
5562.633909,296.082377,-7584.345430,0.000000
5562.634234,2368.659014,-8350.440928,-814.226536
5562.634558,3330.926739,-8963.317327,-1110.308913
5562.634882,2072.576638,-8120.612279,-888.247130
5562.635207,1036.288319,-8656.879127,444.123565
5562.635531,1258.350101,-8427.050478,-814.226536
5562.635855,-222.061783,-9346.365076,592.164754
5562.636180,-370.102971,-9116.536426,-814.226536
5562.636504,-666.185348,-9346.365076,296.082377
5562.636828,-1776.494261,-7814.174080,-1332.370696
5562.637153,740.205942,-9346.365076,-370.102971
5562.637477,1110.308913,-7584.345430,-1332.370696
5562.637801,444.123565,-8197.221829,-518.144159
5562.638125,-592.164754,-8427.050478,-1110.308913
5562.638450,0.000000,-8350.440928,592.164754
5562.638774,296.082377,-7507.735880,0.000000
5562.639098,1850.514855,-9039.926876,148.041188
5562.639423,1110.308913,-8580.269578,-296.082377
5562.639747,1554.432478,-8886.707777,74.020594
5562.640071,740.205942,-8350.440928,-814.226536
5562.640396,1628.453072,-8810.098227,74.020594
5562.640720,-1406.391290,-8120.612279,-518.144159
5562.641044,370.102971,-9499.584175,222.061783
5562.641369,-1554.432478,-8886.707777,-592.164754
5562.641693,0.000000,-7890.783629,518.144159
5562.642017,2442.679609,-7201.297681,0.000000
5562.642341,1776.494261,-9729.412825,0.000000
5562.642666,2220.617826,-8427.050478,-1184.329507
5562.642990,1850.514855,-8580.269578,-592.164754
5562.643314,0.000000,-9652.803275,-1036.288319
5562.643638,-962.267725,-9422.974625,444.123565
5562.643963,-962.267725,-8273.831378,-370.102971
5562.644287,-1776.494261,-8963.317327,0.000000
5562.644611,0.000000,-9039.926876,518.144159
5562.644935,-296.082377,-7967.393179,-518.144159
5562.645260,518.144159,-7814.174080,-296.082377
5562.645584,814.226536,-8044.002729,-444.123565
5562.645908,1702.473667,-8120.612279,-222.061783
5562.646232,1776.494261,-7890.783629,444.123565
5562.646557,1110.308913,-8044.002729,-592.164754
5562.646881,1332.370696,-8427.050478,-296.082377
5562.647205,1776.494261,-7814.174080,-666.185348
5562.647529,1628.453072,-9346.365076,-148.041188
5562.647854,1628.453072,-8733.488677,-1110.308913
5562.648178,-222.061783,-8120.612279,-888.247130
5562.648502,-740.205942,-9193.145976,-370.102971
5562.648826,-2368.659014,-7814.174080,0.000000
5562.649151,-888.247130,-8810.098227,222.061783
5562.649475,-888.247130,-7967.393179,-370.102971
5562.649799,296.082377,-8886.707777,-148.041188
5562.650123,814.226536,-7048.078582,-740.205942
5562.650448,3182.885551,-8810.098227,-222.061783
5562.650772,1554.432478,-7584.345430,-1332.370696
5562.651096,1480.411884,-9269.755526,444.123565
5562.651420,370.102971,-7124.688131,740.205942
5562.651745,370.102971,-9729.412825,-370.102971
5562.652069,370.102971,-8963.317327,-1036.288319
5562.652393,296.082377,-9116.536426,222.061783
5562.652717,222.061783,-8580.269578,-518.144159
5562.653042,148.041188,-9499.584175,-1036.288319
5562.653366,74.020594,-8580.269578,-962.267725
5562.653690,148.041188,-9116.536426,-222.061783
5562.654014,-1036.288319,-7967.393179,-1480.411884
5562.654339,1036.288319,-9882.631924,148.041188
5562.654663,888.247130,-7660.954980,-444.123565
5562.654987,518.144159,-8656.879127,-148.041188
5562.655311,962.267725,-9346.365076,-1184.329507
5562.655636,1628.453072,-9652.803275,-518.144159
5562.655960,740.205942,-7814.174080,-1036.288319
5562.656284,740.205942,-9269.755526,-592.164754
5562.656608,-518.144159,-8656.879127,0.000000
5562.656933,-1702.473667,-9039.926876,0.000000
5562.657257,0.000000,-7967.393179,-740.205942
5562.657581,592.164754,-8656.879127,1258.350101
5562.657905,1924.535449,-7660.954980,-296.082377
5562.658230,1998.556043,-8503.660028,-444.123565
5562.658554,592.164754,-7967.393179,-1850.514855
5562.658878,444.123565,-10035.851024,-1332.370696
5562.659202,-222.061783,-8120.612279,-1480.411884
5562.659527,-1110.308913,-8580.269578,518.144159
5562.659851,-2072.576638,-8810.098227,370.102971
5562.660175,-1998.556043,-8886.707777,148.041188
5562.660499,0.000000,-9193.145976,222.061783
5562.660824,962.267725,-8427.050478,-148.041188
5562.661148,518.144159,-7584.345430,74.020594
5562.661472,2146.597232,-7737.564530,-370.102971
5562.661796,2738.761985,-7584.345430,-592.164754
5562.662121,1776.494261,-8427.050478,74.020594
5562.662445,1110.308913,-8273.831378,0.000000
5562.662769,962.267725,-7967.393179,74.020594
5562.663094,296.082377,-8580.269578,296.082377
5562.663418,1776.494261,-9116.536426,-296.082377
5562.663742,-592.164754,-8733.488677,-1110.308913
5562.664066,-1110.308913,-9806.022374,0.000000
5562.664391,-1406.391290,-8197.221829,-222.061783
5562.664715,-1406.391290,-9346.365076,370.102971
5562.665039,-1036.288319,-8656.879127,-296.082377
5562.665363,814.226536,-8273.831378,-148.041188
5562.665688,1406.391290,-8350.440928,0.000000
5562.666012,2220.617826,-7890.783629,-518.144159
5562.666336,2442.679609,-7584.345430,-296.082377
5562.666660,1628.453072,-8656.879127,222.061783
5562.666985,1110.308913,-8963.317327,-666.185348
5562.667309,1406.391290,-9652.803275,814.226536
5562.667633,-888.247130,-8733.488677,-1702.473667
5562.667957,1036.288319,-9652.803275,1480.411884
5562.668282,-888.247130,-7354.516781,-1850.514855
5562.668606,0.000000,-9499.584175,0.000000
5562.668930,518.144159,-7890.783629,-1480.411884
5562.669254,1110.308913,-8273.831378,-370.102971
5562.669579,-444.123565,-8963.317327,-1110.308913
5562.669903,0.000000,-7431.126331,-296.082377
5562.670227,-2072.576638,-8273.831378,148.041188
5562.670551,-370.102971,-8350.440928,-1184.329507
5562.670876,370.102971,-8733.488677,0.000000
5562.671200,2220.617826,-9499.584175,-740.205942
5562.671524,740.205942,-8273.831378,-1184.329507
5562.671848,1924.535449,-8503.660028,-222.061783
5562.672173,740.205942,-9039.926876,0.000000
5562.672497,962.267725,-8273.831378,-148.041188
5562.672821,888.247130,-9576.193725,592.164754
5562.673145,0.000000,-7890.783629,-592.164754
5562.673470,444.123565,-8350.440928,-444.123565
5562.673794,888.247130,-8120.612279,-962.267725
5562.674118,1702.473667,-9499.584175,-666.185348
5562.674442,296.082377,-7967.393179,-962.267725
5562.674767,-1924.535449,-8886.707777,-296.082377
5562.675091,-814.226536,-8656.879127,444.123565
5562.675415,-1110.308913,-8503.660028,444.123565
5562.675739,518.144159,-8656.879127,740.205942
5562.676064,148.041188,-8350.440928,-296.082377
5562.676388,1332.370696,-8656.879127,-666.185348
5562.676712,1554.432478,-8350.440928,-814.226536
5562.677036,1628.453072,-8273.831378,-592.164754
5562.677361,1554.432478,-9116.536426,74.020594
5562.677685,518.144159,-7660.954980,74.020594
5562.678009,296.082377,-9499.584175,370.102971
5562.678333,296.082377,-7354.516781,-444.123565
5562.678658,-444.123565,-8963.317327,444.123565
5562.678982,2368.659014,-7967.393179,-592.164754
5562.679306,740.205942,-9193.145976,-740.205942
5562.679630,-222.061783,-8427.050478,-814.226536
5562.679955,-666.185348,-8427.050478,-296.082377
5562.680279,-1036.288319,-7890.783629,-370.102971
5562.680603,-740.205942,-9193.145976,0.000000
5562.680927,1258.350101,-8044.002729,-518.144159
5562.681252,814.226536,-8350.440928,-814.226536
5562.681576,1036.288319,-7814.174080,370.102971
5562.681900,1924.535449,-8350.440928,-296.082377
5562.682224,1628.453072,-8656.879127,-592.164754
5562.682549,1184.329507,-9193.145976,-148.041188
5562.682873,222.061783,-7967.393179,-296.082377
5562.683197,-444.123565,-9806.022374,0.000000
5562.683521,-1258.350101,-7354.516781,-444.123565
5562.683846,-148.041188,-9422.974625,222.061783
5562.684170,0.000000,-7660.954980,-888.247130
5562.684494,1776.494261,-9806.022374,-666.185348
5562.684818,1036.288319,-8350.440928,-962.267725
5562.685143,1258.350101,-9193.145976,-1036.288319
5562.685467,-296.082377,-8963.317327,74.020594
5562.685791,-1406.391290,-9039.926876,148.041188
5562.686115,-740.205942,-7354.516781,-296.082377
5562.686440,814.226536,-9193.145976,0.000000
5562.686764,0.000000,-8273.831378,-888.247130
5562.687088,888.247130,-9729.412825,222.061783
5562.687412,592.164754,-7354.516781,-1406.391290
5562.687737,1406.391290,-9193.145976,0.000000
5562.688061,296.082377,-7354.516781,-1184.329507
5562.688385,666.185348,-9882.631924,1036.288319
5562.688709,-444.123565,-7660.954980,-1406.391290
5562.689034,962.267725,-9959.241474,370.102971
5562.689358,1036.288319,-7354.516781,-1110.308913
5562.689682,518.144159,-10648.727422,296.082377
5562.690006,-444.123565,-7967.393179,-1480.411884
5562.690331,-592.164754,-9576.193725,-222.061783
5562.690655,-2368.659014,-8120.612279,-1332.370696
5562.690979,0.000000,-9959.241474,518.144159
5562.691303,-740.205942,-6358.592633,-1628.453072
5562.691628,666.185348,-9193.145976,1110.308913
5562.691952,1628.453072,-8350.440928,-1110.308913
5562.692276,1554.432478,-10342.289223,1332.370696
5562.692601,1702.473667,-6665.030833,-1776.494261
5562.692925,1776.494261,-10342.289223,666.185348
5562.693249,888.247130,-6971.469032,-1258.350101
5562.693573,-518.144159,-9959.241474,518.144159
5562.693898,-1110.308913,-7660.954980,-740.205942
5562.694222,222.061783,-9193.145976,1036.288319
5562.694546,888.247130,-7354.516781,-1184.329507
5562.694870,1776.494261,-9039.926876,518.144159
5562.695195,2220.617826,-8197.221829,-1776.494261
5562.695519,-592.164754,-8350.440928,-296.082377
5562.695843,74.020594,-8503.660028,-1406.391290
5562.696167,0.000000,-9422.974625,296.082377
5562.696492,-1184.329507,-8044.002729,-444.123565
5562.696816,-1258.350101,-8120.612279,74.020594
5562.697140,-814.226536,-8656.879127,-1184.329507
5562.697464,370.102971,-9422.974625,0.000000
5562.697789,444.123565,-7277.907231,-296.082377
5562.698113,1924.535449,-8886.707777,222.061783
5562.698437,814.226536,-7814.174080,-666.185348
5562.698761,1036.288319,-8503.660028,740.205942
5562.699086,1258.350101,-8503.660028,-444.123565
5562.699410,1110.308913,-8656.879127,0.000000
5562.699734,814.226536,-7737.564530,-296.082377
5562.700058,518.144159,-8273.831378,74.020594
5562.700383,370.102971,-8273.831378,-1036.288319
5562.700707,370.102971,-9116.536426,74.020594
5562.701031,-1258.350101,-8503.660028,-518.144159
5562.701355,-740.205942,-8733.488677,222.061783
5562.701680,-1110.308913,-8503.660028,74.020594
5562.702004,-888.247130,-7507.735880,0.000000
5562.702328,2072.576638,-9039.926876,592.164754
5562.702652,1628.453072,-7814.174080,-518.144159
5562.702977,2368.659014,-9269.755526,-444.123565
5562.703301,2220.617826,-7354.516781,-1480.411884
5562.703625,888.247130,-9882.631924,1258.350101
5562.703949,1332.370696,-7354.516781,-814.226536
5562.704274,592.164754,-9346.365076,740.205942
5562.704598,0.000000,-7890.783629,-148.041188
5562.704922,1554.432478,-8886.707777,-222.061783
5562.705246,1628.453072,-7660.954980,-370.102971
5562.705571,1776.494261,-8886.707777,-370.102971
5562.705895,666.185348,-7737.564530,-666.185348
5562.706219,444.123565,-9193.145976,-962.267725
5562.706543,-296.082377,-8503.660028,-148.041188
5562.706868,-592.164754,-7890.783629,-148.041188
5562.707192,-888.247130,-8044.002729,74.020594
5562.707516,-814.226536,-8273.831378,0.000000
5562.707840,888.247130,-8503.660028,-666.185348
5562.708165,1702.473667,-8810.098227,-518.144159
5562.708489,2368.659014,-8963.317327,-444.123565
5562.708813,1850.514855,-7814.174080,-888.247130
5562.709137,1702.473667,-8656.879127,-148.041188
5562.709462,888.247130,-8503.660028,0.000000
5562.709786,444.123565,-8273.831378,-296.082377
5562.710110,0.000000,-9116.536426,-148.041188
5562.710434,222.061783,-7967.393179,-1332.370696
5562.710759,74.020594,-9806.022374,-888.247130
5562.711083,222.061783,-8886.707777,-1110.308913
5562.711407,-518.144159,-9269.755526,-740.205942
5562.711731,-2146.597232,-8273.831378,-888.247130
5562.712056,-1480.411884,-9729.412825,0.000000
5562.712380,-518.144159,-7431.126331,-1554.432478
5562.712704,1998.556043,-9576.193725,-666.185348
5562.713028,3552.988522,-8273.831378,-814.226536
5562.713353,3478.967927,-9652.803275,0.000000
5562.713677,1480.411884,-7814.174080,-740.205942
5562.714001,1628.453072,-9576.193725,0.000000
5562.714325,-148.041188,-8044.002729,-962.267725
5562.714650,0.000000,-9806.022374,444.123565
5562.714974,-1110.308913,-7814.174080,-1110.308913
5562.715298,-296.082377,-9499.584175,740.205942
5562.715622,-370.102971,-7431.126331,-1332.370696
5562.715947,592.164754,-9193.145976,222.061783
5562.716271,1554.432478,-8427.050478,-1628.453072
5562.716595,222.061783,-9576.193725,-296.082377
5562.716919,74.020594,-8273.831378,-1184.329507
5562.717244,0.000000,-8963.317327,444.123565
5562.717568,-740.205942,-8580.269578,-1036.288319
5562.717892,-888.247130,-9652.803275,222.061783
5562.718216,518.144159,-7814.174080,0.000000
5562.718541,2738.761985,-9116.536426,518.144159
5562.718865,-888.247130,-7890.783629,-1036.288319
5562.719189,1702.473667,-8810.098227,0.000000
5562.719513,-370.102971,-6894.859482,-1332.370696
5562.719838,814.226536,-10035.851024,1702.473667
5562.720162,1036.288319,-7048.078582,-814.226536
5562.720486,1924.535449,-9806.022374,370.102971
5562.720810,74.020594,-6741.640382,-444.123565
5562.721135,888.247130,-9652.803275,74.020594
5562.721459,370.102971,-8350.440928,-1480.411884
5562.721783,-296.082377,-9346.365076,-296.082377
5562.722108,-1036.288319,-8810.098227,-1406.391290
5562.722432,-1924.535449,-8427.050478,592.164754
5562.722756,-1628.453072,-8503.660028,0.000000
5562.723080,370.102971,-8810.098227,-148.041188
5562.723405,0.000000,-8197.221829,222.061783
5562.723729,666.185348,-8656.879127,222.061783
5562.724053,1184.329507,-7890.783629,-592.164754
5562.724377,1998.556043,-8656.879127,-592.164754
5562.724702,2294.638420,-8810.098227,-518.144159
5562.725026,518.144159,-7814.174080,222.061783
5562.725350,814.226536,-8810.098227,296.082377
5562.725674,-296.082377,-8580.269578,-518.144159
5562.725999,370.102971,-8503.660028,-592.164754
5562.726323,-222.061783,-8350.440928,0.000000
5562.726647,-148.041188,-8503.660028,-1406.391290
5562.726971,0.000000,-8580.269578,-592.164754
5562.727296,-148.041188,-8810.098227,-370.102971
5562.727620,-444.123565,-9116.536426,-518.144159
5562.727944,814.226536,-8656.879127,-1184.329507
5562.728268,1332.370696,-8273.831378,222.061783
5562.728593,1110.308913,-8503.660028,-740.205942
5562.728917,2960.823768,-8886.707777,444.123565
5562.729241,2442.679609,-9116.536426,-962.267725
5562.729565,2516.700203,-9193.145976,0.000000
5562.729890,814.226536,-8810.098227,-1628.453072
5562.730214,518.144159,-9116.536426,296.082377
5562.730538,-814.226536,-8273.831378,-666.185348
5562.730862,-1184.329507,-8810.098227,296.082377
5562.731187,-444.123565,-7967.393179,-148.041188
5562.731511,222.061783,-8197.221829,-592.164754
5562.731835,2294.638420,-9116.536426,-962.267725
5562.732159,888.247130,-8656.879127,-370.102971
5562.732484,888.247130,-8886.707777,-888.247130
5562.732808,74.020594,-8656.879127,0.000000
5562.733132,1406.391290,-9039.926876,444.123565
5562.733456,296.082377,-8197.221829,-592.164754
5562.733781,962.267725,-9346.365076,-148.041188
5562.734105,1036.288319,-8427.050478,0.000000
5562.734429,2960.823768,-8810.098227,-222.061783
5562.734753,2812.782580,-8044.002729,-1110.308913
5562.735078,-1776.494261,-8656.879127,0.000000
5562.735402,148.041188,-7814.174080,592.164754
5562.735726,-1258.350101,-8197.221829,-962.267725
5562.736050,0.000000,-9729.412825,-370.102971
5562.736375,592.164754,-6894.859482,-962.267725
5562.736699,1776.494261,-9039.926876,296.082377
5562.737023,1258.350101,-9039.926876,-1406.391290
5562.737347,-592.164754,-7660.954980,-1406.391290
5562.737672,-1258.350101,-10189.070123,0.000000
5562.737996,-3478.967927,-9806.022374,592.164754
5562.738320,-1628.453072,-9346.365076,0.000000
5562.738644,1036.288319,-6511.811733,-2738.761985
5562.738969,-814.226536,-11108.384721,1850.514855
5562.739293,592.164754,-7124.688131,0.000000
5562.739617,2220.617826,-9269.755526,222.061783
5562.739941,1332.370696,-7277.907231,-888.247130
5562.740266,74.020594,-9269.755526,-222.061783
5562.740590,1036.288319,-8120.612279,148.041188
5562.740914,-148.041188,-9346.365076,592.164754
5562.741238,-296.082377,-7967.393179,0.000000
5562.741563,0.000000,-9193.145976,1702.473667
5562.741887,370.102971,-7737.564530,-666.185348
5562.742211,962.267725,-9499.584175,-1480.411884
5562.742536,2072.576638,-8197.221829,-1110.308913
5562.742860,518.144159,-9193.145976,222.061783
5562.743184,-2368.659014,-8273.831378,-740.205942
5562.743509,-444.123565,-9499.584175,888.247130
5562.743833,-444.123565,-7354.516781,-888.247130
5562.744157,0.000000,-9422.974625,740.205942
5562.744482,2072.576638,-7890.783629,-444.123565
5562.744806,962.267725,-9116.536426,666.185348
5562.745130,2146.597232,-7354.516781,-962.267725
5562.745455,1554.432478,-9499.584175,-592.164754
5562.745779,444.123565,-8044.002729,0.000000
5562.746103,888.247130,-9269.755526,0.000000
5562.746428,-962.267725,-8197.221829,-2072.576638
5562.746752,0.000000,-8886.707777,592.164754
5562.747076,148.041188,-7124.688131,-1036.288319
5562.747401,0.000000,-9039.926876,-592.164754
5562.747725,0.000000,-8427.050478,-296.082377
5562.748049,-148.041188,-9346.365076,-962.267725
5562.748374,-592.164754,-8733.488677,-1406.391290
5562.748698,-666.185348,-8963.317327,-962.267725
5562.749023,-962.267725,-9193.145976,74.020594
5562.749347,814.226536,-7507.735880,-1036.288319
5562.749671,370.102971,-8886.707777,-962.267725
5562.749996,1702.473667,-9346.365076,0.000000
5562.750320,1924.535449,-7737.564530,-1036.288319
5562.750644,518.144159,-9806.022374,-518.144159
5562.750969,740.205942,-8580.269578,-962.267725
5562.751293,1776.494261,-9959.241474,222.061783
5562.751617,-148.041188,-8656.879127,-1406.391290
5562.751942,0.000000,-9039.926876,592.164754
5562.752266,296.082377,-8044.002729,-1480.411884
5562.752590,1332.370696,-9652.803275,-444.123565
5562.752915,814.226536,-8197.221829,-1332.370696
5562.753239,0.000000,-9499.584175,-518.144159
5562.753563,-2072.576638,-7967.393179,-1036.288319
5562.753888,-1850.514855,-9806.022374,592.164754
5562.754212,-666.185348,-8656.879127,-1406.391290
5562.754536,0.000000,-8656.879127,296.082377
5562.754861,2146.597232,-8656.879127,-666.185348
5562.755185,1406.391290,-9269.755526,370.102971
5562.755509,2146.597232,-7814.174080,-1258.350101
5562.755834,3034.844362,-9499.584175,0.000000
5562.756158,1702.473667,-8350.440928,-666.185348
5562.756482,0.000000,-9806.022374,740.205942
5562.756807,-444.123565,-7584.345430,-814.226536
5562.757131,-1036.288319,-8427.050478,1554.432478
5562.757455,0.000000,-7584.345430,-296.082377
5562.757780,1110.308913,-8503.660028,518.144159
5562.758104,444.123565,-8197.221829,-1258.350101
5562.758428,518.144159,-8273.831378,-444.123565
5562.758753,0.000000,-7890.783629,-1184.329507
5562.759077,-296.082377,-8963.317327,962.267725
5562.759402,-666.185348,-7660.954980,0.000000
5562.759726,-370.102971,-8120.612279,666.185348
5562.760050,814.226536,-7967.393179,296.082377
5562.760375,0.000000,-8503.660028,0.000000
5562.760699,2368.659014,-8350.440928,-370.102971
5562.761023,1480.411884,-7354.516781,-518.144159
5562.761348,1110.308913,-9576.193725,296.082377
5562.761672,740.205942,-7354.516781,592.164754
5562.761996,-666.185348,-9039.926876,222.061783
5562.762321,444.123565,-8197.221829,370.102971
5562.762645,1258.350101,-8044.002729,-370.102971
5562.762969,2072.576638,-8810.098227,296.082377
5562.763294,2146.597232,-7890.783629,-518.144159
5562.763618,-888.247130,-8427.050478,-444.123565
5562.763942,-1036.288319,-9729.412825,-666.185348
5562.764267,-1480.411884,-8120.612279,-370.102971
5562.764591,-444.123565,-8427.050478,814.226536
5562.764915,-962.267725,-8044.002729,444.123565
5562.765240,370.102971,-8350.440928,370.102971
5562.765564,444.123565,-8044.002729,-296.082377
5562.765888,1702.473667,-8733.488677,-444.123565
5562.766213,1554.432478,-8197.221829,-1036.288319
5562.766537,2442.679609,-9422.974625,148.041188
5562.766861,1628.453072,-7737.564530,-518.144159
5562.767186,1184.329507,-10189.070123,-370.102971
5562.767510,148.041188,-7814.174080,-370.102971
5562.767834,-666.185348,-9422.974625,0.000000
5562.768159,0.000000,-8273.831378,-1110.308913
5562.768483,-518.144159,-9116.536426,-1036.288319
5562.768808,-1110.308913,-9116.536426,-444.123565
5562.769132,-1110.308913,-8963.317327,-888.247130
5562.769456,0.000000,-8197.221829,-1332.370696
5562.769781,-370.102971,-9499.584175,-296.082377
5562.770105,740.205942,-7737.564530,-962.267725
5562.770429,2886.803174,-9576.193725,518.144159
5562.770754,2738.761985,-7354.516781,-1702.473667
5562.771078,3404.947333,-10035.851024,0.000000
5562.771402,1702.473667,-7507.735880,-1924.535449
5562.771727,518.144159,-9499.584175,-370.102971
5562.772051,-148.041188,-8733.488677,-814.226536
5562.772375,-1258.350101,-9193.145976,-370.102971
5562.772700,-1554.432478,-8810.098227,-518.144159
5562.773024,-888.247130,-8427.050478,-370.102971
5562.773348,296.082377,-8733.488677,-222.061783
5562.773673,0.000000,-7890.783629,-1110.308913
5562.773997,222.061783,-8733.488677,-962.267725
5562.774321,296.082377,-9346.365076,-1184.329507
5562.774646,-666.185348,-8350.440928,-444.123565
5562.774970,1480.411884,-9576.193725,296.082377
5562.775294,666.185348,-7967.393179,-370.102971
5562.775619,1110.308913,-9806.022374,296.082377
5562.775943,1110.308913,-7354.516781,-962.267725
5562.776267,1554.432478,-9806.022374,592.164754
5562.776592,1332.370696,-7660.954980,-2072.576638
5562.776916,814.226536,-9729.412825,740.205942
5562.777240,-2072.576638,-6894.859482,-444.123565
5562.777565,-1332.370696,-9422.974625,666.185348
5562.777889,-444.123565,-8120.612279,-1480.411884
5562.778214,0.000000,-8963.317327,222.061783
5562.778538,666.185348,-7507.735880,-370.102971
5562.778862,2442.679609,-9193.145976,0.000000
5562.779187,1036.288319,-9269.755526,-1184.329507
5562.779511,1110.308913,-9039.926876,0.000000
5562.779835,0.000000,-9269.755526,-222.061783
5562.780160,-1258.350101,-9193.145976,370.102971
5562.780484,-1406.391290,-8273.831378,222.061783
5562.780808,-222.061783,-8273.831378,518.144159
5562.781133,1110.308913,-8886.707777,-444.123565
5562.781457,1554.432478,-8350.440928,-518.144159
5562.781781,-444.123565,-7431.126331,74.020594
5562.782106,0.000000,-6511.811733,740.205942
5562.782430,3849.070898,-8197.221829,-1554.432478
5562.782754,2294.638420,-9959.241474,1406.391290
5562.783079,0.000000,-6435.202183,-1184.329507
5562.783403,370.102971,-9193.145976,1702.473667
5562.783727,1036.288319,-7890.783629,-2516.700203
5562.784052,814.226536,-10725.336972,444.123565
5562.784376,0.000000,-7584.345430,-740.205942
5562.784700,-1850.514855,-9729.412825,-222.061783
5562.785025,-1998.556043,-8197.221829,-222.061783
5562.785349,-2072.576638,-8733.488677,222.061783
5562.785673,0.000000,-9346.365076,-888.247130
5562.785998,0.000000,-7890.783629,370.102971
5562.786322,444.123565,-7967.393179,-740.205942
5562.786646,1998.556043,-8197.221829,-740.205942
5562.786971,2960.823768,-7890.783629,-1258.350101
5562.787295,3108.864956,-9729.412825,-296.082377
5562.787620,1406.391290,-8886.707777,-1332.370696
5562.787944,0.000000,-9269.755526,962.267725
5562.788268,-1554.432478,-9193.145976,-1702.473667
5562.788593,-1036.288319,-9039.926876,518.144159
5562.788917,74.020594,-8810.098227,-370.102971
5562.789241,2220.617826,-7890.783629,-814.226536
5562.789566,518.144159,-9116.536426,-1036.288319
5562.789890,666.185348,-8044.002729,-592.164754
5562.790214,-370.102971,-9652.803275,296.082377
5562.790539,74.020594,-7890.783629,-962.267725
5562.790863,1036.288319,-8656.879127,74.020594
5562.791187,1776.494261,-8044.002729,-296.082377
5562.791512,962.267725,-9499.584175,-370.102971
5562.791836,1776.494261,-8963.317327,-296.082377
5562.792160,740.205942,-8580.269578,-296.082377
5562.792485,1628.453072,-7890.783629,0.000000
5562.792809,666.185348,-9729.412825,-740.205942
5562.793133,-592.164754,-8810.098227,0.000000
5562.793458,1036.288319,-9116.536426,-296.082377
5562.793782,222.061783,-7737.564530,-666.185348
5562.794106,1258.350101,-8197.221829,-148.041188
5562.794431,2368.659014,-7890.783629,0.000000
5562.794755,888.247130,-8963.317327,-814.226536
5562.795079,888.247130,-8427.050478,0.000000
5562.795404,148.041188,-8427.050478,-1110.308913
5562.795728,592.164754,-9039.926876,370.102971
5562.796052,-370.102971,-8733.488677,0.000000
5562.796377,-518.144159,-8350.440928,518.144159
5562.796701,-1184.329507,-7814.174080,0.000000
5562.797026,666.185348,-8273.831378,888.247130
5562.797350,2220.617826,-8120.612279,-296.082377
5562.797674,1258.350101,-7354.516781,-666.185348
5562.797999,1850.514855,-9346.365076,666.185348
5562.798323,888.247130,-6971.469032,-814.226536
5562.798647,1776.494261,-9729.412825,-518.144159
5562.798972,740.205942,-7967.393179,-518.144159
5562.799296,1406.391290,-8733.488677,740.205942
5562.799620,1628.453072,-7354.516781,-148.041188
5562.799945,592.164754,-10112.460574,-370.102971
5562.800269,-666.185348,-8350.440928,-888.247130
5562.800593,-1332.370696,-8886.707777,0.000000
5562.800918,-1258.350101,-7660.954980,-1184.329507
5562.801242,-370.102971,-9269.755526,74.020594
5562.801566,-592.164754,-7354.516781,0.000000
5562.801891,1036.288319,-9422.974625,370.102971
5562.802215,962.267725,-7890.783629,-962.267725
5562.802539,2960.823768,-9652.803275,-148.041188
5562.802864,2368.659014,-8656.879127,-962.267725
5562.803188,814.226536,-9959.241474,-222.061783
5562.803512,74.020594,-9346.365076,-888.247130
5562.803837,-1554.432478,-9269.755526,-74.020594
5562.804161,-2146.597232,-9346.365076,-666.185348
5562.804485,-962.267725,-8503.660028,74.020594
5562.804810,-296.082377,-7814.174080,-296.082377
5562.805134,1258.350101,-8580.269578,-222.061783
5562.805458,666.185348,-8197.221829,-1110.308913
5562.805783,148.041188,-8963.317327,0.000000
5562.806107,-74.020594,-8044.002729,-1036.288319
5562.806432,-370.102971,-10265.679673,-518.144159
5562.806756,666.185348,-8810.098227,-666.185348
5562.807080,3256.906145,-8886.707777,-962.267725
5562.807405,222.061783,-9576.193725,-296.082377
5562.807729,1406.391290,-8656.879127,-1036.288319
5562.808053,148.041188,-8963.317327,-1036.288319
5562.808378,444.123565,-8580.269578,148.041188
5562.808702,666.185348,-8120.612279,-1406.391290
5562.809026,-814.226536,-9576.193725,962.267725
5562.809351,-444.123565,-7431.126331,-1554.432478
5562.809675,1110.308913,-8656.879127,444.123565
5562.809999,0.000000,-7354.516781,-1924.535449
5562.810324,1184.329507,-8810.098227,370.102971
5562.810648,1998.556043,-7737.564530,-1850.514855
5562.810972,592.164754,-9499.584175,0.000000
5562.811297,814.226536,-9346.365076,-1554.432478
5562.811621,-592.164754,-9116.536426,444.123565
5562.811945,-888.247130,-8427.050478,-444.123565
5562.812270,814.226536,-9039.926876,296.082377
5562.812594,0.000000,-8197.221829,-444.123565
5562.812918,666.185348,-8350.440928,-296.082377
5562.813243,888.247130,-7967.393179,-666.185348
5562.813567,1332.370696,-8350.440928,-222.061783
5562.813891,1480.411884,-8350.440928,0.000000
5562.814216,296.082377,-9269.755526,592.164754
5562.814540,74.020594,-8733.488677,-888.247130
5562.814864,-296.082377,-8886.707777,74.020594
5562.815189,1184.329507,-7967.393179,-444.123565
5562.815513,1332.370696,-8886.707777,0.000000
5562.815838,814.226536,-8886.707777,-814.226536
5562.816162,-370.102971,-9346.365076,-592.164754
5562.816486,-1332.370696,-9193.145976,-1332.370696
5562.816811,-2368.659014,-9729.412825,1036.288319
5562.817135,-1850.514855,-7890.783629,-1036.288319
5562.817459,-1110.308913,-9039.926876,962.267725
5562.817784,888.247130,-6971.469032,-1332.370696
5562.818108,2516.700203,-8963.317327,0.000000
5562.818432,2368.659014,-6818.249932,-1702.473667
5562.818757,1998.556043,-8427.050478,222.061783
5562.819081,2220.617826,-8886.707777,-148.041188
5562.819405,1184.329507,-9116.536426,-592.164754
5562.819730,0.000000,-9422.974625,-592.164754
5562.820054,-666.185348,-8044.002729,0.000000
5562.820378,740.205942,-8656.879127,370.102971
5562.820703,222.061783,-7584.345430,-1332.370696
5562.821027,0.000000,-9729.412825,-148.041188
5562.821351,-962.267725,-8044.002729,-370.102971
5562.821676,-1480.411884,-9499.584175,-592.164754
5562.822000,-1332.370696,-8350.440928,-814.226536
5562.822324,222.061783,-8427.050478,1110.308913
5562.822649,2072.576638,-7431.126331,444.123565
5562.822973,2072.576638,-9346.365076,-592.164754
5562.823297,2220.617826,-8273.831378,-296.082377
5562.823622,2220.617826,-9269.755526,0.000000
5562.823946,888.247130,-8273.831378,-592.164754
5562.824270,0.000000,-10112.460574,1110.308913
5562.824595,-1184.329507,-7048.078582,-962.267725
5562.824919,-370.102971,-10189.070123,1554.432478
5562.825244,-1332.370696,-6281.983084,-1332.370696
5562.825568,1258.350101,-9499.584175,592.164754
5562.825892,1406.391290,-6128.763984,-1332.370696
5562.826217,1850.514855,-10189.070123,148.041188
5562.826541,2146.597232,-7890.783629,-814.226536
5562.826865,1924.535449,-9576.193725,-296.082377
5562.827190,-148.041188,-8197.221829,444.123565
5562.827514,592.164754,-9039.926876,-740.205942
5562.827838,-222.061783,-8503.660028,-148.041188
5562.828163,-962.267725,-8120.612279,0.000000
5562.828487,888.247130,-7890.783629,-444.123565
5562.828811,1554.432478,-8197.221829,-296.082377
5562.829136,1332.370696,-8120.612279,-296.082377
5562.829460,1184.329507,-8044.002729,74.020594
5562.829784,1406.391290,-8503.660028,-296.082377
5562.830109,1480.411884,-8810.098227,-296.082377
5562.830433,1184.329507,-7890.783629,-1110.308913
5562.830757,1184.329507,-9193.145976,-592.164754
5562.831082,0.000000,-8810.098227,-592.164754
5562.831406,888.247130,-9652.803275,-1184.329507
5562.831730,-962.267725,-8350.440928,-962.267725
5562.832055,-1702.473667,-10035.851024,-148.041188
5562.832379,-1628.453072,-8963.317327,-962.267725
5562.832703,-740.205942,-9269.755526,-518.144159
5562.833028,-592.164754,-8656.879127,-888.247130
5562.833352,370.102971,-8503.660028,-296.082377
5562.833676,888.247130,-7890.783629,-370.102971
5562.834001,2220.617826,-9652.803275,-666.185348
5562.834325,1406.391290,-8273.831378,-1406.391290
5562.834649,888.247130,-9269.755526,-666.185348
5562.834974,-74.020594,-8580.269578,-518.144159
5562.835298,-1110.308913,-9806.022374,148.041188
5562.835623,-1184.329507,-8503.660028,-740.205942
5562.835947,-370.102971,-9652.803275,74.020594
5562.836271,0.000000,-7354.516781,-1480.411884
5562.836596,1332.370696,-9193.145976,814.226536
5562.836920,222.061783,-7431.126331,-2516.700203
5562.837244,740.205942,-10572.117872,-370.102971
5562.837569,-1258.350101,-7814.174080,-1036.288319
5562.837893,-1480.411884,-9882.631924,1110.308913
5562.838217,74.020594,-7584.345430,-1258.350101
5562.838542,-740.205942,-9116.536426,370.102971
5562.838866,740.205942,-8503.660028,-1110.308913
5562.839190,666.185348,-8273.831378,296.082377
5562.839515,74.020594,-8197.221829,-740.205942
5562.839839,-370.102971,-8963.317327,-222.061783
5562.840163,888.247130,-8733.488677,-444.123565
5562.840488,444.123565,-9499.584175,1036.288319
5562.840812,-74.020594,-7354.516781,-962.267725
5562.841136,1406.391290,-8580.269578,148.041188
5562.841461,1258.350101,-7507.735880,-592.164754
5562.841785,888.247130,-8503.660028,666.185348
5562.842109,0.000000,-8427.050478,-1258.350101
5562.842434,222.061783,-8656.879127,296.082377
5562.842758,-740.205942,-8350.440928,-962.267725
5562.843082,-1406.391290,-8886.707777,444.123565
5562.843407,-2072.576638,-8503.660028,-1184.329507
5562.843731,518.144159,-8044.002729,518.144159
5562.844055,1776.494261,-7584.345430,74.020594
5562.844380,1776.494261,-8427.050478,814.226536
5562.844704,2368.659014,-7890.783629,-444.123565
5562.845029,1850.514855,-8503.660028,0.000000
5562.845353,2812.782580,-9346.365076,-370.102971
5562.845677,296.082377,-7890.783629,-370.102971
5562.846002,888.247130,-8810.098227,-518.144159
5562.846326,148.041188,-8197.221829,-222.061783
5562.846650,296.082377,-8197.221829,222.061783
5562.846975,0.000000,-8273.831378,-222.061783
5562.847299,592.164754,-8886.707777,-888.247130
5562.847623,-962.267725,-8273.831378,0.000000
5562.847948,-148.041188,-9269.755526,-814.226536
5562.848272,-1036.288319,-9806.022374,148.041188
5562.848596,0.000000,-8273.831378,-1110.308913
5562.848921,-74.020594,-8580.269578,74.020594
5562.849245,1702.473667,-7584.345430,-888.247130
5562.849569,2072.576638,-9039.926876,-444.123565
5562.849894,3478.967927,-8120.612279,-148.041188
5562.850218,3108.864956,-8273.831378,-888.247130
5562.850542,2220.617826,-9882.631924,-148.041188
5562.850867,814.226536,-8197.221829,-74.020594
5562.851191,222.061783,-9959.241474,0.000000
5562.851515,740.205942,-8810.098227,-296.082377
5562.851840,0.000000,-8273.831378,-296.082377
5562.852164,222.061783,-7890.783629,-1184.329507
5562.852489,666.185348,-8120.612279,-444.123565
5562.852813,814.226536,-7967.393179,-370.102971
5562.853137,74.020594,-9346.365076,0.000000
5562.853462,-1184.329507,-8273.831378,-518.144159
5562.853786,148.041188,-9959.241474,0.000000
5562.854110,888.247130,-8197.221829,-888.247130
5562.854435,2146.597232,-9269.755526,0.000000
5562.854759,2220.617826,-8120.612279,-592.164754
5562.855083,1184.329507,-8656.879127,-148.041188
5562.855408,666.185348,-8580.269578,-444.123565
5562.855732,3478.967927,-9116.536426,518.144159
5562.856056,1332.370696,-8656.879127,-222.061783
5562.856381,-962.267725,-8197.221829,-518.144159
5562.856705,-2146.597232,-9346.365076,222.061783
5562.857029,-1184.329507,-7048.078582,-1406.391290
5562.857354,444.123565,-8427.050478,296.082377
5562.857678,2146.597232,-8120.612279,-1628.453072
5562.858002,-1184.329507,-8580.269578,-518.144159
5562.858327,-666.185348,-8886.707777,-592.164754
5562.858651,-1332.370696,-9499.584175,-666.185348
5562.858975,-814.226536,-9039.926876,518.144159
5562.859300,666.185348,-8733.488677,-222.061783
5562.859624,444.123565,-9116.536426,1036.288319
5562.859948,0.000000,-7354.516781,-814.226536
5562.860273,2590.720797,-9039.926876,740.205942
5562.860597,666.185348,-7354.516781,-1480.411884
5562.860922,814.226536,-9346.365076,296.082377
5562.861246,-444.123565,-7124.688131,-222.061783
5562.861570,0.000000,-9499.584175,888.247130
5562.861895,-444.123565,-7048.078582,-370.102971
5562.862219,1850.514855,-9269.755526,814.226536
5562.862543,222.061783,-7890.783629,-666.185348
5562.862868,2146.597232,-9346.365076,-1480.411884
5562.863192,1702.473667,-8120.612279,-1258.350101
5562.863516,888.247130,-9269.755526,444.123565
5562.863841,74.020594,-8273.831378,0.000000
5562.864165,-518.144159,-9193.145976,296.082377
5562.864489,-592.164754,-8044.002729,-592.164754
5562.864814,-444.123565,-9116.536426,370.102971
5562.865138,222.061783,-7354.516781,-814.226536
5562.865462,1702.473667,-9576.193725,444.123565
5562.865787,962.267725,-7277.907231,-962.267725
5562.866111,370.102971,-9806.022374,518.144159
5562.866435,888.247130,-8044.002729,-1480.411884
5562.866760,0.000000,-9499.584175,518.144159
5562.867084,0.000000,-7737.564530,-1628.453072
5562.867408,518.144159,-9346.365076,296.082377
5562.867733,444.123565,-8044.002729,-1332.370696
5562.868057,962.267725,-8427.050478,0.000000
5562.868382,1776.494261,-7890.783629,-814.226536
5562.868706,222.061783,-9882.631924,-740.205942
5562.869030,74.020594,-8810.098227,-888.247130
5562.869355,1184.329507,-9193.145976,1184.329507
5562.869679,-2146.597232,-8810.098227,-1554.432478
5562.870003,-1480.411884,-8197.221829,-296.082377
5562.870328,-740.205942,-8197.221829,-444.123565
5562.870652,1776.494261,-9116.536426,-296.082377
5562.870976,2146.597232,-7967.393179,-1036.288319
5562.871301,1998.556043,-9806.022374,-444.123565
5562.871625,888.247130,-8733.488677,-888.247130
5562.871949,1110.308913,-9959.241474,74.020594
5562.872274,-518.144159,-9039.926876,-1184.329507
5562.872598,-222.061783,-8656.879127,0.000000
5562.872922,1036.288319,-9193.145976,-1406.391290
5562.873247,148.041188,-8580.269578,0.000000
5562.873571,518.144159,-8580.269578,-2072.576638
5562.873895,-296.082377,-9193.145976,-148.041188
5562.874220,-888.247130,-8580.269578,-592.164754
5562.874544,444.123565,-8503.660028,74.020594
5562.874868,1110.308913,-9269.755526,0.000000
5562.875193,1998.556043,-8120.612279,370.102971
5562.875517,3330.926739,-8273.831378,-1480.411884
5562.875841,1406.391290,-8350.440928,-296.082377
5562.876166,518.144159,-8810.098227,-518.144159
5562.876490,962.267725,-9039.926876,0.000000
5562.876815,0.000000,-9116.536426,-592.164754
5562.877139,-1184.329507,-8580.269578,518.144159
5562.877463,-518.144159,-8350.440928,0.000000
5562.877788,-296.082377,-8427.050478,370.102971
5562.878112,2072.576638,-8733.488677,-148.041188
5562.878436,2590.720797,-7354.516781,-518.144159
5562.878761,814.226536,-8733.488677,-370.102971
5562.879085,296.082377,-7737.564530,-592.164754
