#time,accel_x,accel_y,accel_z
4132.500547,2220.617826,-9422.974625,-1036.288319
4132.500871,0.000000,-9346.365076,-1184.329507
4132.501196,-666.185348,-9806.022374,-1554.432478
4132.501520,-1776.494261,-10035.851024,-962.267725
4132.501844,-2146.597232,-9576.193725,-1554.432478
4132.502169,-2220.617826,-9806.022374,-1110.308913
4132.502493,-2072.576638,-9193.145976,-814.226536
4132.502818,-2368.659014,-9039.926876,-740.205942
4132.503142,-1702.473667,-8886.707777,-888.247130
4132.503466,-1184.329507,-8886.707777,-814.226536
4132.503791,-1258.350101,-8886.707777,-1036.288319
4132.504115,-1702.473667,-8886.707777,-592.164754
4132.504440,-1184.329507,-9422.974625,-592.164754
4132.504764,-2368.659014,-9882.631924,-1110.308913
4132.505089,-3404.947333,-10035.851024,-814.226536
4132.505413,-4663.297435,-9806.022374,-814.226536
4132.505737,-4885.359217,-9806.022374,-592.164754
4132.506062,-4293.194464,-9346.365076,0.000000
4132.506386,-3552.988522,-9346.365076,222.061783
4132.506711,-3478.967927,-8273.831378,-888.247130
4132.507035,-2368.659014,-8120.612279,-592.164754
4132.507359,-1924.535449,-7967.393179,-444.123565
4132.507684,-1850.514855,-8044.002729,-666.185348
4132.508008,-2590.720797,-8197.221829,-592.164754
4132.508333,-3627.009116,-8503.660028,0.000000
4132.508657,-3997.112087,-8580.269578,-518.144159
4132.508981,-3849.070898,-8733.488677,-222.061783
4132.509306,-4367.215058,-8886.707777,444.123565
4132.509630,-4145.153275,-8503.660028,592.164754
4132.509955,-3034.844362,-8656.879127,0.000000
4132.510279,-3034.844362,-8273.831378,222.061783
4132.510603,-2294.638420,-7890.783629,592.164754
4132.510928,-1776.494261,-7890.783629,370.102971
4132.511252,-1332.370696,-7814.174080,518.144159
4132.511576,-1406.391290,-7354.516781,592.164754
4132.511900,-888.247130,-7814.174080,0.000000
4132.512224,-1998.556043,-7890.783629,444.123565
4132.512549,-2516.700203,-8427.050478,148.041188
4132.512873,-2812.782580,-9269.755526,592.164754
4132.513197,-2664.741391,-7967.393179,666.185348
4132.513521,-2664.741391,-9346.365076,518.144159
4132.513845,-2516.700203,-8427.050478,0.000000
4132.514170,-2146.597232,-8810.098227,370.102971
4132.514494,-1480.411884,-8120.612279,-296.082377
4132.514818,-962.267725,-8350.440928,148.041188
4132.515142,-518.144159,-7431.126331,0.000000
4132.515466,666.185348,-7660.954980,222.061783
4132.515791,444.123565,-7584.345430,-370.102971
4132.516115,962.267725,-8044.002729,0.000000
4132.516439,962.267725,-8350.440928,0.000000
4132.516763,592.164754,-8656.879127,-370.102971
4132.517087,592.164754,-9116.536426,-592.164754
4132.517412,222.061783,-8350.440928,-888.247130
4132.517736,-296.082377,-9116.536426,-740.205942
4132.518060,-1036.288319,-8350.440928,-962.267725
4132.518384,-888.247130,-8656.879127,-888.247130
4132.518708,-518.144159,-8733.488677,-1332.370696
4132.519033,-148.041188,-8656.879127,-1258.350101
4132.519357,-814.226536,-8044.002729,-1702.473667
4132.519681,-444.123565,-8503.660028,-1776.494261
4132.520005,-370.102971,-8044.002729,-1406.391290
4132.520329,-222.061783,-8656.879127,-1184.329507
4132.520654,-370.102971,-8886.707777,-1258.350101
4132.520978,0.000000,-9116.536426,-1480.411884
4132.521302,-222.061783,-9346.365076,-1332.370696
4132.521626,-592.164754,-8503.660028,-1332.370696
4132.521950,-1184.329507,-9422.974625,-962.267725
4132.522275,-1036.288319,-9499.584175,-1184.329507
4132.522599,-1110.308913,-9346.365076,-1332.370696
4132.522923,-1184.329507,-8886.707777,-1702.473667
4132.523247,-1184.329507,-8810.098227,-1258.350101
4132.523571,-1776.494261,-8427.050478,-1480.411884
4132.523896,-1554.432478,-9116.536426,-1184.329507
4132.524220,-1406.391290,-8580.269578,-1110.308913
4132.524544,-370.102971,-9039.926876,-888.247130
4132.524868,-592.164754,-9269.755526,-296.082377
4132.525192,-962.267725,-9422.974625,-518.144159
4132.525517,-1036.288319,-9806.022374,-444.123565
4132.525841,-1110.308913,-9499.584175,-370.102971
4132.526165,-1258.350101,-9652.803275,-222.061783
4132.526489,-1850.514855,-9576.193725,0.000000
4132.526813,-2590.720797,-9116.536426,74.020594
4132.527138,-3997.112087,-8656.879127,0.000000
4132.527462,-4959.379811,-8733.488677,0.000000
4132.527786,-5181.441594,-8197.221829,0.000000
4132.528110,-5403.503377,-7890.783629,296.082377
4132.528434,-4663.297435,-7890.783629,444.123565
4132.528759,-4145.153275,-8120.612279,370.102971
4132.529083,-3108.864956,-8503.660028,592.164754
4132.529407,-2664.741391,-8044.002729,740.205942
4132.529731,-1924.535449,-8427.050478,444.123565
4132.530055,-1406.391290,-8656.879127,666.185348
4132.530380,-1998.556043,-7890.783629,888.247130
4132.530704,-1480.411884,-8656.879127,1110.308913
4132.531028,-2072.576638,-8350.440928,592.164754
4132.531352,-2220.617826,-7967.393179,518.144159
4132.531676,-1924.535449,-7660.954980,0.000000
4132.532001,-2368.659014,-7967.393179,592.164754
4132.532325,-2368.659014,-7660.954980,370.102971
4132.532649,-2072.576638,-7660.954980,222.061783
4132.532973,-1998.556043,-7507.735880,222.061783
4132.533297,-1184.329507,-7660.954980,222.061783
4132.533622,-518.144159,-7890.783629,592.164754
4132.533946,222.061783,-8197.221829,222.061783
4132.534270,296.082377,-8350.440928,148.041188
4132.534594,222.061783,-8503.660028,0.000000
4132.534918,740.205942,-8810.098227,74.020594
4132.535243,0.000000,-8197.221829,-148.041188
4132.535567,-962.267725,-8810.098227,0.000000
4132.535891,-222.061783,-8350.440928,-296.082377
4132.536215,-1184.329507,-8886.707777,296.082377
4132.536539,-518.144159,-8044.002729,-666.185348
4132.536864,-1480.411884,-8810.098227,-814.226536
4132.537188,-1110.308913,-7890.783629,-1332.370696
4132.537512,-2368.659014,-8810.098227,-1184.329507
4132.537836,-3330.926739,-9269.755526,-1776.494261
4132.538160,-4145.153275,-9039.926876,-1184.329507
4132.538485,-3997.112087,-8656.879127,-1850.514855
4132.538809,-3404.947333,-9116.536426,-1406.391290
4132.539133,-1332.370696,-8886.707777,-1332.370696
4132.539457,0.000000,-8273.831378,-962.267725
4132.539781,2590.720797,-8503.660028,-962.267725
4132.540106,4515.256246,-8810.098227,-1702.473667
4132.540430,5773.606348,-8656.879127,-1258.350101
4132.540754,5847.626942,-8580.269578,-1406.391290
4132.541078,4293.194464,-9193.145976,-962.267725
4132.541402,1406.391290,-9346.365076,-2220.617826
4132.541727,-740.205942,-10035.851024,-1702.473667
4132.542051,-3034.844362,-9422.974625,-2294.638420
4132.542375,-3701.029710,-10112.460574,-1258.350101
4132.542699,-2812.782580,-8886.707777,-1924.535449
4132.543023,-2294.638420,-9346.365076,-1036.288319
4132.543348,740.205942,-8656.879127,-1850.514855
4132.543672,3701.029710,-9116.536426,-1702.473667
4132.543996,5847.626942,-9039.926876,-666.185348
4132.544320,6735.874072,-8197.221829,-666.185348
4132.544644,7031.956449,-9806.022374,0.000000
4132.544969,5699.585753,-9269.755526,-1110.308913
4132.545293,2146.597232,-9959.241474,888.247130
4132.545617,-666.185348,-9882.631924,-666.185348
4132.545941,-3552.988522,-10265.679673,148.041188
4132.546265,-7105.977043,-9499.584175,148.041188
4132.546589,-7698.141797,-8810.098227,0.000000
4132.546914,-7402.059420,-7584.345430,0.000000
4132.547238,-4071.132681,-7354.516781,74.020594
4132.547562,-1628.453072,-6128.763984,74.020594
4132.547886,2664.741391,-6052.154434,592.164754
4132.548210,6291.750507,-6894.859482,370.102971
4132.548535,8512.368333,-6894.859482,0.000000
4132.548859,9104.533087,-8120.612279,814.226536
4132.549183,7624.121203,-8886.707777,666.185348
4132.549507,4737.318029,-9576.193725,518.144159
4132.549831,-370.102971,-10572.117872,888.247130
4132.550156,-5551.544565,-10112.460574,518.144159
4132.550480,-6513.812290,-9576.193725,740.205942
4132.550804,-6809.894666,-8273.831378,222.061783
4132.551128,-5995.668130,-7048.078582,1110.308913
4132.551452,-2886.803174,-5975.544884,518.144159
4132.551777,1702.473667,-5745.716235,-148.041188
4132.552101,5625.565159,-5745.716235,518.144159
4132.552425,9178.553681,-6665.030833,222.061783
4132.552749,9918.759623,-6435.202183,1554.432478
4132.553073,9918.759623,-8273.831378,740.205942
4132.553398,7031.956449,-10572.117872,1110.308913
4132.553722,2590.720797,-11797.870669,0.000000
4132.554046,-2516.700203,-12257.527968,148.041188
4132.554370,-6809.894666,-11031.775171,666.185348
4132.554694,-10362.883188,-9959.241474,148.041188
4132.555019,-11103.089130,-10189.070123,296.082377
4132.555343,-10955.047942,-7737.564530,-296.082377
4132.555667,-7179.997637,-6435.202183,-740.205942
4132.555991,-3849.070898,-5515.887586,-1924.535449
4132.556315,2590.720797,-6281.983084,-370.102971
4132.556640,5995.668130,-5898.935335,-888.247130
4132.556964,9178.553681,-8580.269578,0.000000
4132.557288,10584.944971,-8503.660028,-740.205942
4132.557612,8808.450710,-10572.117872,222.061783
4132.557936,6069.688724,-11261.603821,-1776.494261
4132.558261,1480.411884,-11951.089769,-1184.329507
4132.558585,-3997.112087,-11797.870669,-1110.308913
4132.558909,-7994.224174,-10265.679673,0.000000
4132.559233,-9178.553681,-9806.022374,-1332.370696
4132.559557,-7624.121203,-7967.393179,-1554.432478
4132.559882,-3404.947333,-6971.469032,-1406.391290
4132.560206,-888.247130,-5362.668486,-2294.638420
4132.560530,2886.803174,-6281.983084,-1554.432478
4132.560854,6809.894666,-6665.030833,-1776.494261
4132.561178,10140.821405,-8120.612279,-1036.288319
4132.561503,11473.192101,-9346.365076,-962.267725
4132.561827,10510.924376,-10035.851024,-222.061783
4132.562151,4885.359217,-11721.261119,-962.267725
4132.562475,1702.473667,-12180.918418,-814.226536
4132.562799,-4737.318029,-12563.966167,-592.164754
4132.563124,-7846.182985,-10878.556072,-370.102971
4132.563448,-9696.697840,-9269.755526,814.226536
4132.563772,-9030.512492,-7660.954980,74.020594
4132.564096,-7402.059420,-6665.030833,-740.205942
4132.564420,-4737.318029,-4749.792088,-740.205942
4132.564745,0.000000,-5669.106685,-740.205942
4132.565069,3552.988522,-5362.668486,-1258.350101
4132.565393,8586.388927,-6894.859482,370.102971
4132.565717,10288.862594,-7737.564530,-666.185348
4132.566041,9474.636058,-10112.460574,962.267725
4132.566366,7254.018232,-11031.775171,-518.144159
4132.566690,2738.761985,-12257.527968,0.000000
4132.567014,-666.185348,-10955.165621,-296.082377
4132.567338,-4811.338623,-10112.460574,-74.020594
4132.567662,-6735.874072,-8810.098227,444.123565
4132.567987,-7550.100608,-6894.859482,-888.247130
4132.568311,-5181.441594,-6128.763984,-148.041188
4132.568635,-1332.370696,-4519.963438,-962.267725
4132.568959,2072.576638,-5056.230287,-518.144159
4132.569283,5477.523971,-5056.230287,-666.185348
4132.569608,7920.203579,-6894.859482,0.000000
4132.569932,9400.615463,-8503.660028,444.123565
4132.570256,9474.636058,-9806.022374,814.226536
4132.570580,7550.100608,-11491.432470,962.267725
4132.570904,3775.050304,-12334.137518,0.000000
4132.571229,-1702.473667,-12257.527968,518.144159
4132.571553,-4441.235652,-11338.213370,148.041188
4132.571877,-6439.791695,-9346.365076,814.226536
4132.572201,-8660.409521,-7354.516781,74.020594
4132.572525,-8216.285956,-6741.640382,0.000000
4132.572850,-5625.565159,-5822.325785,-222.061783
4132.573174,-2886.803174,-5362.668486,-814.226536
4132.573498,222.061783,-6435.202183,-296.082377
4132.573822,3478.967927,-7354.516781,0.000000
4132.574146,5181.441594,-8427.050478,814.226536
4132.574471,7994.224174,-10112.460574,370.102971
4132.574795,7994.224174,-11874.480219,222.061783
4132.575119,5107.421000,-11797.870669,-1258.350101
4132.575443,2368.659014,-11797.870669,-592.164754
4132.575767,-1702.473667,-10418.898773,-888.247130
4132.576092,-5625.565159,-9193.145976,0.000000
4132.576416,-6291.750507,-7354.516781,-1036.288319
4132.576740,-5625.565159,-7048.078582,-1628.453072
4132.577064,-3404.947333,-5822.325785,-666.185348
4132.577388,-592.164754,-6281.983084,-1036.288319
4132.577713,2146.597232,-6588.421283,-888.247130
4132.578037,3775.050304,-7124.688131,0.000000
4132.578361,7624.121203,-8656.879127,-888.247130
4132.578685,8068.244768,-9806.022374,0.000000
4132.579009,7920.203579,-10955.165621,-1184.329507
4132.579334,4885.359217,-12717.185267,-370.102971
4132.579658,2516.700203,-11568.042020,-518.144159
4132.579982,-1628.453072,-11568.042020,-444.123565
4132.580306,-3997.112087,-10189.070123,-370.102971
4132.580630,-5699.585753,-8044.002729,-518.144159
4132.580955,-7698.141797,-7431.126331,-666.185348
4132.581279,-6217.729913,-7201.297681,-370.102971
4132.581603,-4663.297435,-5515.887586,-740.205942
4132.581927,-2442.679609,-6511.811733,-592.164754
4132.582251,1332.370696,-6588.421283,-370.102971
4132.582576,3701.029710,-7814.174080,444.123565
4132.582900,5477.523971,-9882.631924,-592.164754
4132.583224,7328.038826,-9806.022374,-370.102971
4132.583548,5773.606348,-11491.432470,-296.082377
4132.583872,4367.215058,-11797.870669,-296.082377
4132.584197,1850.514855,-9959.241474,-222.061783
4132.584521,-1702.473667,-9806.022374,-74.020594
4132.584845,-3849.070898,-7584.345430,-222.061783
4132.585169,-5107.421000,-6205.373534,-1184.329507
4132.585493,-5181.441594,-6741.640382,0.000000
4132.585818,-2738.761985,-4673.182538,-1036.288319
4132.586142,0.000000,-5822.325785,296.082377
4132.586466,2812.782580,-6128.763984,148.041188
4132.586790,5255.462188,-6741.640382,370.102971
4132.587114,7402.059420,-8197.221829,-518.144159
4132.587439,8808.450710,-10112.460574,-370.102971
4132.587763,7624.121203,-10342.289223,-148.041188
4132.588087,5255.462188,-12027.699319,814.226536
4132.588411,2368.659014,-10725.336972,0.000000
4132.588735,-1258.350101,-10342.289223,0.000000
4132.589060,-4145.153275,-9039.926876,0.000000
4132.589384,-7402.059420,-7507.735880,-370.102971
4132.589708,-8290.306550,-6511.811733,-296.082377
4132.590032,-7105.977043,-6281.983084,0.000000
4132.590356,-4959.379811,-6128.763984,-518.144159
4132.590681,-2886.803174,-6818.249932,-370.102971
4132.591005,296.082377,-6818.249932,740.205942
4132.591329,4071.132681,-8197.221829,0.000000
4132.591653,7105.977043,-9116.536426,0.000000
4132.591977,7328.038826,-10418.898773,-74.020594
4132.592302,6513.812290,-11644.651570,-296.082377
4132.592626,4737.318029,-10878.556072,-370.102971
4132.592950,444.123565,-10572.117872,-666.185348
4132.593274,-3034.844362,-9116.536426,-1480.411884
4132.593598,-5847.626942,-8044.002729,-888.247130
4132.593923,-6513.812290,-6588.421283,-1480.411884
4132.594247,-5551.544565,-6894.859482,-1110.308913
4132.594571,-3552.988522,-5898.935335,-1036.288319
4132.594895,-814.226536,-7048.078582,-444.123565
4132.595219,2442.679609,-6818.249932,-370.102971
4132.595544,4737.318029,-8580.269578,-444.123565
4132.595868,7402.059420,-9422.974625,-296.082377
4132.596192,8734.430116,-10418.898773,0.000000
4132.596516,7328.038826,-11644.651570,-222.061783
4132.596840,3849.070898,-11261.603821,-1036.288319
4132.597165,740.205942,-11261.603821,-740.205942
4132.597489,-2960.823768,-9806.022374,-1480.411884
4132.597813,-5921.647536,-8656.879127,74.020594
4132.598137,-6513.812290,-7124.688131,-1184.329507
4132.598461,-7994.224174,-6894.859482,-666.185348
4132.598786,-7105.977043,-6281.983084,-444.123565
4132.599110,-4071.132681,-6511.811733,-1110.308913
4132.599434,-1258.350101,-6971.469032,0.000000
4132.599758,2590.720797,-7507.735880,-296.082377
4132.600082,5403.503377,-9806.022374,-370.102971
4132.600407,7772.162391,-9806.022374,0.000000
4132.600731,8512.368333,-10035.851024,518.144159
4132.601055,6735.874072,-10725.336972,74.020594
4132.601379,2220.617826,-10418.898773,-1258.350101
4132.601703,518.144159,-9729.412825,-592.164754
4132.602028,-3997.112087,-8273.831378,296.082377
4132.602352,-6883.915261,-6818.249932,-592.164754
4132.602676,-6957.935855,-7354.516781,-296.082377
4132.603000,-5329.482782,-5362.668486,-296.082377
4132.603324,-2146.597232,-6205.373534,0.000000
4132.603649,518.144159,-6741.640382,-370.102971
4132.603973,3997.112087,-7048.078582,74.020594
4132.604297,7402.059420,-8044.002729,666.185348
4132.604621,9400.615463,-9039.926876,888.247130
4132.604945,8882.471304,-10189.070123,814.226536
4132.605270,7476.080014,-10342.289223,444.123565
4132.605594,4515.256246,-10801.946522,-444.123565
4132.605918,666.185348,-10112.460574,-296.082377
4132.606242,-3108.864956,-9039.926876,296.082377
4132.606566,-5699.585753,-9039.926876,296.082377
4132.606891,-8660.409521,-7354.516781,-444.123565
4132.607215,-7920.203579,-6665.030833,-296.082377
4132.607539,-6957.935855,-6128.763984,-296.082377
4132.607863,-4885.359217,-6511.811733,-222.061783
4132.608187,-1554.432478,-7507.735880,0.000000
4132.608511,2886.803174,-8120.612279,148.041188
4132.608836,7402.059420,-9346.365076,740.205942
4132.609160,8364.327145,-10112.460574,-296.082377
4132.609484,8290.306550,-10725.336972,370.102971
4132.609808,6513.812290,-10725.336972,0.000000
4132.610132,3478.967927,-9882.631924,-962.267725
4132.610457,-1406.391290,-8810.098227,-814.226536
4132.610781,-4515.256246,-8350.440928,0.000000
4132.611105,-7328.038826,-6971.469032,-962.267725
4132.611428,-7698.141797,-6818.249932,-1036.288319
4132.611752,-5773.606348,-6665.030833,-222.061783
4132.612077,-3849.070898,-6741.640382,-1554.432478
4132.612401,444.123565,-7584.345430,-222.061783
4132.612725,4515.256246,-7967.393179,-1110.308913
4132.613050,7031.956449,-10035.851024,-518.144159
4132.613374,9252.574275,-10189.070123,74.020594
4132.613698,8734.430116,-10342.289223,-518.144159
4132.614023,6809.894666,-11414.822920,222.061783
4132.614347,3775.050304,-10035.851024,-1702.473667
4132.614671,0.000000,-10648.727422,-518.144159
4132.614995,-5107.421000,-8580.269578,-1110.308913
4132.615320,-7994.224174,-8197.221829,-888.247130
4132.615644,-10584.944971,-7354.516781,-1332.370696
4132.615968,-9992.780217,-6741.640382,-592.164754
4132.616293,-7846.182985,-7048.078582,-740.205942
4132.616617,-3849.070898,-7354.516781,-296.082377
4132.616941,1998.556043,-8044.002729,222.061783
4132.617266,5403.503377,-8810.098227,-814.226536
4132.617590,8586.388927,-9806.022374,-666.185348
4132.617914,7772.162391,-9269.755526,0.000000
4132.618239,8142.265362,-10801.946522,740.205942
4132.618563,6069.688724,-9959.241474,-1628.453072
4132.618887,1554.432478,-11108.384721,0.000000
4132.619211,-2072.576638,-8810.098227,-1110.308913
4132.619536,-7476.080014,-7507.735880,-1110.308913
4132.619860,-8068.244768,-7048.078582,-888.247130
4132.620184,-6513.812290,-6741.640382,-518.144159
4132.620509,-4145.153275,-6052.154434,-296.082377
4132.620833,-814.226536,-7048.078582,-518.144159
4132.621157,2812.782580,-7354.516781,0.000000
4132.621482,6661.853478,-7967.393179,-444.123565
4132.621806,8586.388927,-9499.584175,-592.164754
4132.622130,9474.636058,-10648.727422,740.205942
4132.622455,7550.100608,-9116.536426,814.226536
4132.622779,5921.647536,-11031.775171,-148.041188
4132.623103,2368.659014,-10035.851024,-962.267725
4132.623427,-1554.432478,-9806.022374,-592.164754
4132.623752,-5181.441594,-8810.098227,-518.144159
4132.624076,-7476.080014,-7967.393179,-370.102971
4132.624400,-8068.244768,-6435.202183,-518.144159
4132.624725,-6957.935855,-6665.030833,518.144159
4132.625049,-5255.462188,-5209.449386,-222.061783
4132.625373,-962.267725,-7124.688131,444.123565
4132.625698,2738.761985,-7354.516781,74.020594
4132.626022,6143.709319,-9193.145976,0.000000
4132.626346,8512.368333,-9729.412825,-962.267725
4132.626671,8660.409521,-9499.584175,592.164754
4132.626995,7550.100608,-10572.117872,-222.061783
4132.627319,3256.906145,-10035.851024,-1628.453072
4132.627643,-666.185348,-9959.241474,-296.082377
4132.627968,-4959.379811,-8580.269578,0.000000
4132.628292,-7105.977043,-8197.221829,-444.123565
4132.628616,-6809.894666,-7660.954980,-740.205942
4132.628941,-5921.647536,-6435.202183,-888.247130
4132.629265,-3034.844362,-6128.763984,74.020594
4132.629589,1110.308913,-6358.592633,-592.164754
4132.629914,4071.132681,-7890.783629,-222.061783
4132.630238,7550.100608,-7967.393179,0.000000
4132.630562,8808.450710,-10495.508323,-444.123565
4132.630887,8956.491898,-10801.946522,148.041188
4132.631211,6957.935855,-11184.994271,370.102971
4132.631535,4071.132681,-11184.994271,-1036.288319
4132.631859,-518.144159,-11031.775171,-888.247130
4132.632184,-4515.256246,-9422.974625,-296.082377
4132.632508,-7328.038826,-9422.974625,-148.041188
4132.632832,-9326.594869,-7507.735880,0.000000
4132.633157,-8808.450710,-7431.126331,-370.102971
4132.633481,-7254.018232,-6818.249932,0.000000
4132.633805,-4441.235652,-6281.983084,-296.082377
4132.634130,1258.350101,-7354.516781,-518.144159
4132.634454,4515.256246,-7584.345430,-592.164754
4132.634778,6883.915261,-9499.584175,222.061783
4132.635103,8364.327145,-9346.365076,814.226536
4132.635427,7846.182985,-10418.898773,-222.061783
4132.635751,6365.771101,-11261.603821,0.000000
4132.636075,1776.494261,-9576.193725,-1850.514855
4132.636400,-2516.700203,-10801.946522,222.061783
4132.636724,-5847.626942,-8044.002729,-296.082377
4132.637048,-7254.018232,-8733.488677,-296.082377
4132.637373,-6883.915261,-7507.735880,-1110.308913
4132.637697,-5403.503377,-6281.983084,0.000000
4132.638021,-1776.494261,-6665.030833,-222.061783
4132.638346,1480.411884,-6665.030833,-592.164754
4132.638670,4219.173869,-7737.564530,74.020594
4132.638994,8216.285956,-7660.954980,222.061783
4132.639319,8586.388927,-9269.755526,740.205942
4132.639643,8808.450710,-11568.042020,0.000000
4132.639967,5329.482782,-11261.603821,-222.061783
4132.640291,2590.720797,-11721.261119,-740.205942
4132.640616,-1110.308913,-9882.631924,-888.247130
4132.640940,-5181.441594,-8963.317327,222.061783
4132.641264,-7105.977043,-8044.002729,74.020594
4132.641589,-7920.203579,-7660.954980,0.000000
4132.641913,-8142.265362,-6052.154434,-296.082377
4132.642237,-5551.544565,-6052.154434,-222.061783
4132.642562,-2294.638420,-6205.373534,-814.226536
4132.642886,1480.411884,-7431.126331,518.144159
4132.643210,6291.750507,-7507.735880,74.020594
4132.643535,8808.450710,-8580.269578,814.226536
4132.643859,8808.450710,-9269.755526,-148.041188
4132.644183,8068.244768,-10572.117872,-666.185348
4132.644507,4737.318029,-10801.946522,-962.267725
4132.644832,-296.082377,-9729.412825,-592.164754
4132.645156,-3849.070898,-9346.365076,0.000000
4132.645480,-6291.750507,-8427.050478,0.000000
4132.645805,-6587.832884,-7507.735880,-1184.329507
4132.646129,-6217.729913,-6894.859482,0.000000
4132.646453,-2960.823768,-5898.935335,-666.185348
4132.646778,0.000000,-5975.544884,-518.144159
4132.647102,3256.906145,-7584.345430,-592.164754
4132.647426,6143.709319,-7507.735880,0.000000
4132.647751,8586.388927,-8120.612279,888.247130
4132.648075,9030.512492,-9269.755526,370.102971
4132.648399,7920.203579,-10572.117872,-370.102971
4132.648723,4367.215058,-11797.870669,-888.247130
4132.649048,888.247130,-11031.775171,-666.185348
4132.649372,-2812.782580,-10112.460574,-592.164754
4132.649696,-6143.709319,-8810.098227,222.061783
4132.650021,-7994.224174,-8810.098227,-296.082377
4132.650345,-8216.285956,-7431.126331,-814.226536
4132.650669,-6365.771101,-7201.297681,-740.205942
4132.650994,-4515.256246,-6052.154434,-814.226536
4132.651318,-1702.473667,-7660.954980,0.000000
4132.651642,2738.761985,-7814.174080,222.061783
4132.651967,5847.626942,-8120.612279,814.226536
4132.652291,9178.553681,-8733.488677,-222.061783
4132.652615,7920.203579,-10265.679673,-444.123565
4132.652939,7254.018232,-11031.775171,-1110.308913
4132.653264,3108.864956,-10189.070123,-1110.308913
4132.653588,-740.205942,-10725.336972,222.061783
4132.653912,-4959.379811,-8427.050478,-222.061783
4132.654237,-6291.750507,-7814.174080,-592.164754
4132.654561,-6735.874072,-8044.002729,-370.102971
4132.654885,-5847.626942,-6281.983084,-1554.432478
4132.655210,-2368.659014,-6435.202183,0.000000
4132.655534,74.020594,-6665.030833,-222.061783
4132.655858,3923.091493,-7890.783629,592.164754
4132.656183,6735.874072,-7890.783629,666.185348
4132.656507,9178.553681,-8733.488677,148.041188
4132.656831,8660.409521,-9422.974625,148.041188
4132.657155,7920.203579,-10265.679673,-518.144159
4132.657480,3627.009116,-11644.651570,444.123565
4132.657804,0.000000,-10725.336972,0.000000
4132.658128,-3627.009116,-9806.022374,740.205942
4132.658453,-6291.750507,-8197.221829,0.000000
4132.658777,-8068.244768,-8656.879127,222.061783
4132.659101,-7031.956449,-6894.859482,-814.226536
4132.659426,-5329.482782,-6894.859482,0.000000
4132.659750,-2146.597232,-6358.592633,0.000000
4132.660074,0.000000,-7048.078582,444.123565
4132.660399,4367.215058,-7814.174080,592.164754
4132.660723,7179.997637,-8350.440928,148.041188
4132.661047,8290.306550,-9039.926876,518.144159
4132.661371,8142.265362,-9422.974625,-592.164754
4132.661696,6143.709319,-11184.994271,-370.102971
4132.662020,1406.391290,-10801.946522,-296.082377
4132.662344,-2590.720797,-9806.022374,0.000000
4132.662669,-5995.668130,-9269.755526,-222.061783
4132.662993,-6809.894666,-8120.612279,-666.185348
4132.663317,-6587.832884,-7048.078582,-592.164754
4132.663642,-4441.235652,-6818.249932,-1110.308913
4132.663966,-1184.329507,-6971.469032,74.020594
4132.664290,1850.514855,-7201.297681,-222.061783
4132.664615,5181.441594,-7814.174080,444.123565
4132.664939,7476.080014,-8197.221829,0.000000
4132.665263,9400.615463,-9499.584175,0.000000
4132.665587,8734.430116,-9193.145976,0.000000
4132.665912,6291.750507,-10725.336972,-592.164754
4132.666236,2590.720797,-11261.603821,-740.205942
4132.666560,-888.247130,-10495.508323,-370.102971
4132.666885,-4441.235652,-10035.851024,-370.102971
4132.667209,-7105.977043,-8656.879127,-1110.308913
4132.667533,-8808.450710,-8273.831378,-592.164754
4132.667858,-7402.059420,-6665.030833,-740.205942
4132.668182,-6513.812290,-6665.030833,-592.164754
4132.668506,-2590.720797,-7201.297681,-296.082377
4132.668831,518.144159,-7277.907231,592.164754
4132.669155,5107.421000,-7737.564530,-814.226536
4132.669479,6957.935855,-9039.926876,-888.247130
4132.669803,8660.409521,-9729.412825,-1110.308913
4132.670128,7698.141797,-10342.289223,-296.082377
4132.670452,6143.709319,-10648.727422,-592.164754
4132.670776,1406.391290,-10035.851024,-814.226536
4132.671101,-2886.803174,-9193.145976,0.000000
4132.671425,-6587.832884,-8503.660028,0.000000
4132.671749,-7031.956449,-7890.783629,-1480.411884
4132.672074,-5625.565159,-7890.783629,-666.185348
4132.672398,-4071.132681,-5745.716235,-962.267725
4132.672722,-1776.494261,-7354.516781,-222.061783
4132.673047,2146.597232,-7201.297681,-370.102971
4132.673371,5255.462188,-8580.269578,-296.082377
4132.673695,8512.368333,-8963.317327,-666.185348
4132.674019,10732.986159,-9882.631924,-666.185348
4132.674344,8882.471304,-9576.193725,-148.041188
4132.674668,5477.523971,-10572.117872,-148.041188
4132.674992,1998.556043,-10725.336972,444.123565
4132.675317,-2368.659014,-10035.851024,74.020594
4132.675641,-5033.400406,-8656.879127,-888.247130
4132.675965,-7698.141797,-8580.269578,74.020594
4132.676290,-9696.697840,-6971.469032,-1332.370696
4132.676614,-6809.894666,-6741.640382,148.041188
4132.676938,-5625.565159,-6205.373534,-592.164754
4132.677263,-740.205942,-6971.469032,296.082377
4132.677587,1554.432478,-6588.421283,0.000000
4132.677911,6217.729913,-8427.050478,518.144159
4132.678235,8734.430116,-8044.002729,0.000000
4132.678560,9548.656652,-9806.022374,-370.102971
4132.678884,7031.956449,-10572.117872,-444.123565
4132.679208,4959.379811,-10572.117872,-296.082377
4132.679533,962.267725,-10112.460574,0.000000
4132.679857,-4219.173869,-9346.365076,-740.205942
4132.680181,-7105.977043,-7431.126331,-666.185348
4132.680506,-8290.306550,-6588.421283,-814.226536
4132.680830,-7179.997637,-7048.078582,-370.102971
4132.681154,-3552.988522,-5898.935335,-148.041188
4132.681479,-518.144159,-7201.297681,222.061783
4132.681803,3478.967927,-7660.954980,0.000000
4132.682127,6883.915261,-8580.269578,-148.041188
4132.682451,9326.594869,-8963.317327,-518.144159
4132.682776,10732.986159,-9193.145976,444.123565
4132.683100,8290.306550,-9729.412825,-740.205942
4132.683424,4737.318029,-11108.384721,222.061783
4132.683749,962.267725,-10265.679673,148.041188
4132.684073,-3478.967927,-10189.070123,-518.144159
4132.684397,-6513.812290,-9806.022374,-740.205942
4132.684722,-8512.368333,-7814.174080,-666.185348
4132.685046,-9474.636058,-8044.002729,-1332.370696
4132.685370,-7105.977043,-6818.249932,-370.102971
4132.685695,-4441.235652,-7277.907231,74.020594
4132.686019,0.000000,-7354.516781,-740.205942
4132.686343,5255.462188,-7354.516781,0.000000
4132.686668,5403.503377,-9576.193725,-1184.329507
4132.686992,10066.800811,-9729.412825,-222.061783
4132.687316,8438.347739,-8810.098227,-814.226536
4132.687640,6291.750507,-11261.603821,148.041188
4132.687965,3627.009116,-9882.631924,-814.226536
4132.688289,-1258.350101,-10725.336972,-444.123565
4132.688613,-6069.688724,-9806.022374,296.082377
4132.688938,-6883.915261,-7507.735880,-666.185348
4132.689262,-7254.018232,-8197.221829,-740.205942
4132.689586,-5847.626942,-6665.030833,-1480.411884
4132.689911,-2960.823768,-6052.154434,0.000000
4132.690235,148.041188,-7431.126331,-592.164754
4132.690559,5329.482782,-8197.221829,74.020594
4132.690884,7550.100608,-7967.393179,-592.164754
4132.691208,9326.594869,-9806.022374,-814.226536
4132.691532,8290.306550,-9959.241474,0.000000
4132.691856,6069.688724,-10648.727422,0.000000
4132.692181,2960.823768,-11261.603821,-370.102971
4132.692505,-1110.308913,-9882.631924,0.000000
4132.692829,-3701.029710,-9269.755526,0.000000
4132.693154,-7328.038826,-8273.831378,-888.247130
4132.693478,-9252.574275,-8427.050478,-518.144159
4132.693802,-8438.347739,-6818.249932,-1480.411884
4132.694127,-6069.688724,-6971.469032,148.041188
4132.694451,-4293.194464,-5745.716235,-370.102971
4132.694775,1554.432478,-8350.440928,592.164754
4132.695100,5403.503377,-6894.859482,-1184.329507
4132.695424,7624.121203,-9576.193725,222.061783
4132.695748,8512.368333,-8350.440928,-814.226536
4132.696072,7698.141797,-10265.679673,148.041188
4132.696397,5699.585753,-10035.851024,-740.205942
4132.696721,1184.329507,-9806.022374,-666.185348
4132.697045,-2812.782580,-9346.365076,-74.020594
4132.697370,-6439.791695,-8197.221829,-296.082377
4132.697694,-6957.935855,-8197.221829,-592.164754
4132.698018,-7254.018232,-7354.516781,-1554.432478
4132.698343,-5403.503377,-7124.688131,-518.144159
4132.698667,-2960.823768,-6588.421283,0.000000
4132.698991,1998.556043,-6818.249932,-222.061783
4132.699316,5625.565159,-7967.393179,74.020594
4132.699640,8290.306550,-7814.174080,-814.226536
4132.699964,10288.862594,-9729.412825,-740.205942
4132.700288,8882.471304,-9576.193725,-592.164754
4132.700613,6365.771101,-11338.213370,0.000000
4132.700937,3182.885551,-10418.898773,-962.267725
4132.701261,-740.205942,-11108.384721,74.020594
4132.701586,-5181.441594,-9116.536426,-222.061783
4132.701910,-8734.430116,-8427.050478,-370.102971
4132.702234,-9474.636058,-7354.516781,-666.185348
4132.702559,-8660.409521,-7048.078582,-296.082377
4132.702883,-6957.935855,-6665.030833,-814.226536
4132.703207,-2590.720797,-7277.907231,148.041188
4132.703532,1628.453072,-7048.078582,-518.144159
4132.703856,6439.791695,-8044.002729,-370.102971
4132.704180,9696.697840,-8886.707777,-222.061783
4132.704504,10584.944971,-9193.145976,0.000000
4132.704829,8734.430116,-10265.679673,-518.144159
4132.705153,5625.565159,-10725.336972,-592.164754
4132.705477,1406.391290,-11491.432470,370.102971
4132.705802,-3627.009116,-9193.145976,-1554.432478
4132.706126,-6365.771101,-9193.145976,0.000000
4132.706450,-9104.533087,-7431.126331,-1184.329507
4132.706775,-7920.203579,-7814.174080,-222.061783
4132.707099,-4959.379811,-6358.592633,-962.267725
4132.707423,-2368.659014,-6741.640382,-592.164754
4132.707748,1554.432478,-6741.640382,-518.144159
4132.708072,5995.668130,-7584.345430,0.000000
4132.708396,9474.636058,-8810.098227,222.061783
4132.708720,11029.068536,-9729.412825,0.000000
4132.709045,9474.636058,-9959.241474,-222.061783
4132.709369,5847.626942,-11414.822920,-222.061783
4132.709693,2590.720797,-10572.117872,74.020594
4132.710018,-2368.659014,-10265.679673,74.020594
4132.710342,-6291.750507,-9193.145976,-444.123565
4132.710666,-8586.388927,-7737.564530,-222.061783
4132.710991,-9622.677246,-6818.249932,-1110.308913
4132.711315,-8438.347739,-7354.516781,74.020594
4132.711639,-5699.585753,-5822.325785,-592.164754
4132.711964,-1850.514855,-7737.564530,222.061783
4132.712288,4737.318029,-7431.126331,444.123565
4132.712613,7105.977043,-9499.584175,-370.102971
4132.712937,10214.842000,-9806.022374,-296.082377
4132.713261,9622.677246,-9729.412825,148.041188
4132.713586,7846.182985,-10955.165621,-296.082377
4132.713910,4441.235652,-9806.022374,-444.123565
4132.714235,-962.267725,-9806.022374,-444.123565
4132.714559,-5255.462188,-8886.707777,-148.041188
4132.714884,-8512.368333,-7354.516781,-962.267725
4132.715208,-9252.574275,-7660.954980,-740.205942
4132.715533,-7476.080014,-6358.592633,-370.102971
4132.715857,-4219.173869,-6511.811733,-222.061783
4132.716181,-370.102971,-7584.345430,0.000000
4132.716506,3627.009116,-7201.297681,0.000000
4132.716830,7476.080014,-8427.050478,-74.020594
4132.717155,9770.718434,-8963.317327,-222.061783
4132.717479,11029.068536,-9882.631924,444.123565
4132.717804,8216.285956,-10648.727422,0.000000
4132.718128,5329.482782,-11414.822920,-740.205942
4132.718453,-592.164754,-9499.584175,-1258.350101
4132.718777,-3849.070898,-10035.851024,888.247130
4132.719101,-8734.430116,-7890.783629,-888.247130
4132.719426,-9178.553681,-8350.440928,-370.102971
4132.719750,-9104.533087,-6435.202183,-592.164754
4132.720075,-8364.327145,-5822.325785,-222.061783
4132.720399,-3478.967927,-6818.249932,148.041188
4132.720724,-296.082377,-7354.516781,0.000000
4132.721048,6069.688724,-7967.393179,222.061783
4132.721373,10066.800811,-7507.735880,-740.205942
4132.721697,10584.944971,-9806.022374,444.123565
4132.722021,10066.800811,-9806.022374,-666.185348
4132.722346,7254.018232,-11491.432470,-740.205942
4132.722670,2368.659014,-10648.727422,-888.247130
4132.722995,-3849.070898,-9116.536426,-1258.350101
4132.723319,-7476.080014,-8273.831378,444.123565
4132.723644,-9400.615463,-8044.002729,-740.205942
4132.723968,-9622.677246,-7277.907231,-1406.391290
4132.724293,-6439.791695,-7124.688131,-666.185348
4132.724617,-3923.091493,-6205.373534,-740.205942
4132.724941,1554.432478,-7584.345430,-444.123565
4132.725266,6809.894666,-8580.269578,-1036.288319
4132.725590,9326.594869,-8580.269578,-592.164754
4132.725915,10955.047942,-8810.098227,0.000000
4132.726239,10140.821405,-10572.117872,-222.061783
4132.726564,7476.080014,-11108.384721,-962.267725
4132.726888,3997.112087,-11338.213370,-370.102971
4132.727213,-1924.535449,-9652.803275,-1258.350101
4132.727537,-6069.688724,-9576.193725,0.000000
4132.727861,-7772.162391,-7201.297681,148.041188
4132.728186,-10140.821405,-7354.516781,74.020594
4132.728510,-8734.430116,-6818.249932,-740.205942
4132.728835,-5995.668130,-6358.592633,-740.205942
4132.729159,-1332.370696,-7507.735880,0.000000
4132.729484,3997.112087,-7584.345430,-444.123565
4132.729808,6809.894666,-9346.365076,-888.247130
4132.730133,8364.327145,-9729.412825,-444.123565
4132.730457,9104.533087,-10035.851024,-296.082377
4132.730782,7105.977043,-10725.336972,-444.123565
4132.731106,4737.318029,-11491.432470,-740.205942
4132.731430,74.020594,-9346.365076,-518.144159
4132.731755,-5033.400406,-8963.317327,518.144159
4132.732079,-7920.203579,-7354.516781,-1184.329507
4132.732404,-9400.615463,-7124.688131,444.123565
4132.732728,-8438.347739,-6358.592633,-518.144159
4132.733053,-4293.194464,-6894.859482,296.082377
4132.733377,-1332.370696,-6128.763984,-222.061783
4132.733702,3923.091493,-8273.831378,1258.350101
4132.734026,6217.729913,-7584.345430,-370.102971
4132.734350,9844.739029,-9346.365076,-222.061783
4132.734675,10140.821405,-10112.460574,222.061783
4132.734999,8734.430116,-10418.898773,-444.123565
4132.735324,5551.544565,-11951.089769,296.082377
4132.735648,1702.473667,-9882.631924,0.000000
4132.735973,-2146.597232,-9806.022374,666.185348
4132.736297,-5921.647536,-8427.050478,-296.082377
4132.736622,-8364.327145,-7354.516781,-370.102971
4132.736946,-8808.450710,-6971.469032,0.000000
4132.737270,-7994.224174,-6818.249932,148.041188
4132.737595,-4219.173869,-6665.030833,518.144159
4132.737919,-1480.411884,-7354.516781,222.061783
4132.738244,4293.194464,-8733.488677,370.102971
4132.738568,6735.874072,-8044.002729,-814.226536
4132.738893,9770.718434,-10265.679673,222.061783
4132.739217,9326.594869,-9269.755526,-296.082377
4132.739542,7328.038826,-10495.508323,74.020594
4132.739866,3849.070898,-9882.631924,0.000000
4132.740190,0.000000,-9499.584175,0.000000
4132.740515,-4589.276840,-8963.317327,222.061783
4132.740839,-7846.182985,-7277.907231,-962.267725
4132.741164,-7920.203579,-7814.174080,0.000000
4132.741488,-7624.121203,-6665.030833,-814.226536
4132.741813,-5033.400406,-6665.030833,74.020594
4132.742137,-296.082377,-7354.516781,0.000000
4132.742462,3478.967927,-8273.831378,-962.267725
4132.742786,6957.935855,-8810.098227,-666.185348
4132.743110,9326.594869,-9193.145976,-666.185348
4132.743435,9696.697840,-10955.165621,888.247130
4132.743759,8512.368333,-10112.460574,-592.164754
4132.744084,4737.318029,-11184.994271,0.000000
4132.744408,444.123565,-8963.317327,-592.164754
4132.744733,-2812.782580,-9269.755526,0.000000
4132.745057,-5995.668130,-8810.098227,-444.123565
4132.745382,-8068.244768,-7277.907231,-888.247130
4132.745706,-8364.327145,-6818.249932,-740.205942
4132.746030,-7550.100608,-6741.640382,-518.144159
4132.746355,-3108.864956,-7277.907231,0.000000
4132.746679,148.041188,-7354.516781,74.020594
4132.747004,5329.482782,-8810.098227,-370.102971
4132.747328,8364.327145,-8580.269578,-592.164754
4132.747653,8956.491898,-10112.460574,-1184.329507
4132.747977,8142.265362,-10725.336972,518.144159
4132.748302,5773.606348,-10725.336972,-962.267725
4132.748626,1850.514855,-10035.851024,-1110.308913
4132.748950,-2368.659014,-8503.660028,-370.102971
4132.749275,-5551.544565,-8810.098227,-518.144159
4132.749599,-8660.409521,-7737.564530,-814.226536
4132.749924,-8882.471304,-7201.297681,-962.267725
4132.750248,-5921.647536,-7124.688131,-518.144159
4132.750573,-4663.297435,-6894.859482,-518.144159
4132.750897,666.185348,-7507.735880,0.000000
4132.751222,4737.318029,-7201.297681,-222.061783
4132.751546,8438.347739,-9116.536426,0.000000
4132.751870,10658.965565,-9499.584175,-1110.308913
4132.752195,9770.718434,-10648.727422,-222.061783
4132.752519,7105.977043,-10955.165621,-666.185348
4132.752844,3182.885551,-9959.241474,-592.164754
4132.753168,-888.247130,-9499.584175,370.102971
4132.753493,-5033.400406,-8580.269578,222.061783
4132.753817,-8068.244768,-7814.174080,-222.061783
4132.754142,-9030.512492,-7890.783629,-1110.308913
4132.754466,-9030.512492,-6818.249932,-148.041188
4132.754790,-6809.894666,-6971.469032,-666.185348
4132.755115,-1998.556043,-7660.954980,222.061783
4132.755439,2368.659014,-7737.564530,444.123565
4132.755764,6735.874072,-7660.954980,0.000000
4132.756088,9548.656652,-8656.879127,-148.041188
4132.756413,8956.491898,-9499.584175,-74.020594
4132.756737,7772.162391,-9806.022374,222.061783
4132.757062,4811.338623,-10572.117872,74.020594
4132.757386,1184.329507,-10112.460574,-444.123565
4132.757710,-3404.947333,-8350.440928,-296.082377
4132.758035,-6809.894666,-7814.174080,0.000000
4132.758359,-8216.285956,-7890.783629,-592.164754
4132.758684,-7624.121203,-6971.469032,-888.247130
4132.759008,-5625.565159,-7354.516781,370.102971
4132.759333,-2442.679609,-6588.421283,0.000000
4132.759657,2442.679609,-7431.126331,370.102971
4132.759982,6143.709319,-7967.393179,-592.164754
4132.760306,10140.821405,-8963.317327,-222.061783
4132.760631,9178.553681,-9806.022374,-74.020594
4132.760955,8512.368333,-11108.384721,-148.041188
4132.761279,5551.544565,-10648.727422,-222.061783
4132.761604,1850.514855,-9882.631924,-296.082377
4132.761928,-2294.638420,-9422.974625,296.082377
4132.762253,-4959.379811,-8427.050478,-518.144159
4132.762577,-8364.327145,-7890.783629,-370.102971
4132.762902,-9178.553681,-7201.297681,-814.226536
4132.763226,-7772.162391,-7507.735880,-222.061783
4132.763551,-3552.988522,-7354.516781,-444.123565
4132.763875,-296.082377,-7660.954980,444.123565
4132.764199,4367.215058,-7967.393179,-148.041188
4132.764524,7624.121203,-7890.783629,0.000000
4132.764848,9104.533087,-8963.317327,0.000000
4132.765173,9252.574275,-9806.022374,-148.041188
4132.765497,6957.935855,-10878.556072,-666.185348
4132.765822,3552.988522,-10878.556072,-962.267725
4132.766146,-1554.432478,-9806.022374,-592.164754
4132.766471,-5477.523971,-9116.536426,-518.144159
4132.766795,-8364.327145,-7814.174080,-1406.391290
4132.767119,-8290.306550,-8197.221829,-370.102971
4132.767444,-7402.059420,-7354.516781,-370.102971
4132.767768,-4367.215058,-7354.516781,74.020594
4132.768093,-296.082377,-7507.735880,-222.061783
4132.768417,4515.256246,-7737.564530,0.000000
4132.768742,8364.327145,-8120.612279,-740.205942
4132.769066,11029.068536,-9039.926876,-444.123565
4132.769391,10288.862594,-9346.365076,0.000000
4132.769715,7698.141797,-9806.022374,0.000000
4132.770039,3627.009116,-10648.727422,0.000000
4132.770364,-222.061783,-10572.117872,-296.082377
4132.770688,-3701.029710,-9039.926876,222.061783
4132.771013,-6957.935855,-8580.269578,-740.205942
4132.771337,-9252.574275,-8503.660028,-1036.288319
4132.771662,-8882.471304,-7354.516781,-740.205942
4132.771986,-7254.018232,-7277.907231,0.000000
4132.772311,-4367.215058,-6894.859482,-518.144159
4132.772635,1702.473667,-7354.516781,592.164754
4132.772959,4959.379811,-6818.249932,-740.205942
4132.773284,7698.141797,-9269.755526,-296.082377
4132.773608,9474.636058,-9116.536426,-962.267725
4132.773933,8142.265362,-10418.898773,296.082377
4132.774257,5625.565159,-10342.289223,0.000000
4132.774582,1406.391290,-9499.584175,-296.082377
4132.774906,-2442.679609,-9422.974625,-296.082377
4132.775231,-5551.544565,-7967.393179,-740.205942
4132.775555,-7920.203579,-8197.221829,-148.041188
4132.775879,-9252.574275,-6741.640382,-888.247130
4132.776204,-6069.688724,-7660.954980,0.000000
4132.776528,-4071.132681,-5975.544884,-888.247130
4132.776853,962.267725,-7584.345430,370.102971
4132.777177,4885.359217,-6818.249932,-814.226536
4132.777502,9844.739029,-9116.536426,-296.082377
4132.777826,10732.986159,-9193.145976,-888.247130
4132.778151,9992.780217,-10955.165621,148.041188
4132.778475,6587.832884,-10878.556072,-814.226536
4132.778799,2590.720797,-11031.775171,0.000000
4132.779124,-2072.576638,-9193.145976,-592.164754
4132.779448,-5329.482782,-8963.317327,0.000000
4132.779773,-8216.285956,-8044.002729,-518.144159
4132.780097,-8956.491898,-7737.564530,-666.185348
4132.780422,-9030.512492,-7354.516781,-740.205942
4132.780746,-7254.018232,-6281.983084,0.000000
4132.781071,-1924.535449,-7584.345430,222.061783
4132.781395,3256.906145,-7048.078582,74.020594
4132.781719,7105.977043,-8120.612279,296.082377
4132.782044,10436.903782,-7967.393179,-1036.288319
4132.782368,10362.883188,-9652.803275,296.082377
4132.782693,7772.162391,-10725.336972,-888.247130
4132.783017,4959.379811,-11491.432470,-370.102971
4132.783342,-296.082377,-9806.022374,-1110.308913
4132.783666,-5107.421000,-9422.974625,-814.226536
4132.783991,-7328.038826,-8197.221829,0.000000
4132.784315,-8734.430116,-7890.783629,-962.267725
4132.784639,-7105.977043,-7584.345430,-1184.329507
4132.784964,-4441.235652,-6818.249932,-370.102971
4132.785288,-1924.535449,-7660.954980,-592.164754
4132.785613,2738.761985,-7048.078582,370.102971
4132.785937,7624.121203,-8044.002729,-296.082377
4132.786262,11177.109724,-8963.317327,-1480.411884
4132.786586,10288.862594,-9193.145976,-148.041188
4132.786911,8216.285956,-10648.727422,-296.082377
4132.787235,5403.503377,-11414.822920,-444.123565
4132.787559,740.205942,-10955.165621,-814.226536
4132.787884,-2368.659014,-9882.631924,0.000000
4132.788208,-6513.812290,-8350.440928,148.041188
4132.788533,-9178.553681,-7890.783629,-370.102971
4132.788857,-9696.697840,-7890.783629,-740.205942
4132.789182,-7179.997637,-6588.421283,-740.205942
4132.789506,-5181.441594,-7737.564530,0.000000
4132.789831,-592.164754,-6818.249932,-1036.288319
4132.790155,4515.256246,-8120.612279,518.144159
4132.790479,7402.059420,-8120.612279,-592.164754
4132.790804,9474.636058,-10035.851024,518.144159
4132.791128,9178.553681,-9346.365076,-888.247130
4132.791453,7772.162391,-11874.480219,518.144159
4132.791777,3849.070898,-10418.898773,-814.226536
4132.792102,-222.061783,-9269.755526,-370.102971
4132.792426,-4737.318029,-9116.536426,0.000000
4132.792751,-6661.853478,-7354.516781,-444.123565
4132.793075,-7994.224174,-7814.174080,-370.102971
4132.793400,-7254.018232,-6281.983084,-888.247130
4132.793724,-4959.379811,-6894.859482,0.000000
4132.794048,-1332.370696,-7277.907231,-962.267725
4132.794373,3182.885551,-7737.564530,444.123565
4132.794697,7105.977043,-7431.126331,-518.144159
4132.795022,11473.192101,-9806.022374,-296.082377
4132.795346,10066.800811,-9422.974625,-370.102971
4132.795671,7328.038826,-11338.213370,-666.185348
4132.795995,3404.947333,-11184.994271,-222.061783
4132.796320,0.000000,-10418.898773,0.000000
4132.796644,-3997.112087,-9346.365076,222.061783
4132.796968,-7105.977043,-8427.050478,296.082377
4132.797293,-8882.471304,-7660.954980,-148.041188
4132.797617,-8068.244768,-6818.249932,-1184.329507
4132.797942,-7624.121203,-6665.030833,0.000000
4132.798266,-3627.009116,-6435.202183,0.000000
4132.798591,814.226536,-6971.469032,148.041188
4132.798915,4219.173869,-8350.440928,-370.102971
4132.799240,8290.306550,-8273.831378,-518.144159
4132.799564,8068.244768,-10035.851024,-148.041188
4132.799888,8512.368333,-10955.165621,-1258.350101
4132.800213,5403.503377,-10495.508323,0.000000
4132.800537,1702.473667,-10189.070123,-296.082377
4132.800862,-2738.761985,-9346.365076,-592.164754
4132.801186,-5329.482782,-8350.440928,-370.102971
4132.801511,-7994.224174,-8197.221829,444.123565
4132.801835,-7328.038826,-6511.811733,-1850.514855
4132.802160,-6291.750507,-6511.811733,-444.123565
4132.802484,-4367.215058,-6741.640382,-888.247130
4132.802808,888.247130,-6971.469032,-222.061783
4132.803133,5477.523971,-7967.393179,-518.144159
4132.803457,8882.471304,-9422.974625,-1628.453072
4132.803782,9326.594869,-10035.851024,0.000000
4132.804106,9326.594869,-9806.022374,-296.082377
4132.804431,6957.935855,-11261.603821,296.082377
4132.804755,3849.070898,-10418.898773,-222.061783
4132.805080,0.000000,-9959.241474,296.082377
4132.805404,-4219.173869,-8810.098227,-444.123565
4132.805728,-7105.977043,-8273.831378,-666.185348
4132.806053,-9104.533087,-6818.249932,-518.144159
4132.806377,-8216.285956,-6741.640382,148.041188
4132.806702,-6217.729913,-6281.983084,-296.082377
4132.807026,-2738.761985,-6894.859482,-592.164754
4132.807351,2368.659014,-7737.564530,148.041188
4132.807675,6439.791695,-7584.345430,-962.267725
4132.808000,8586.388927,-9499.584175,-592.164754
4132.808324,9178.553681,-10342.289223,-444.123565
4132.808648,8364.327145,-11261.603821,-148.041188
4132.808973,4737.318029,-10342.289223,-592.164754
4132.809297,666.185348,-9806.022374,-296.082377
4132.809622,-4145.153275,-9269.755526,-222.061783
4132.809946,-6513.812290,-7967.393179,-518.144159
4132.810271,-8290.306550,-7431.126331,-148.041188
4132.810595,-8512.368333,-5745.716235,-888.247130
4132.810920,-4885.359217,-6741.640382,370.102971
4132.811244,-1332.370696,-6665.030833,-518.144159
4132.811568,2590.720797,-7967.393179,148.041188
4132.811893,7476.080014,-7431.126331,-592.164754
4132.812217,10658.965565,-9422.974625,-370.102971
4132.812542,10214.842000,-9806.022374,-814.226536
4132.812866,8882.471304,-10801.946522,148.041188
4132.813190,6143.709319,-10878.556072,0.000000
4132.813515,888.247130,-10878.556072,222.061783
4132.813839,-2442.679609,-9882.631924,148.041188
4132.814163,-6365.771101,-8580.269578,-222.061783
4132.814488,-8438.347739,-8197.221829,-666.185348
4132.814812,-9918.759623,-6741.640382,-888.247130
4132.815136,-9400.615463,-6894.859482,0.000000
4132.815460,-4811.338623,-6281.983084,-518.144159
4132.815785,0.000000,-6894.859482,-518.144159
4132.816109,3849.070898,-8656.879127,222.061783
4132.816433,7550.100608,-7431.126331,-592.164754
4132.816758,9696.697840,-9269.755526,222.061783
4132.817082,9104.533087,-10189.070123,-592.164754
4132.817406,6143.709319,-11491.432470,-888.247130
4132.817731,1998.556043,-10878.556072,-1628.453072
4132.818055,-1850.514855,-11031.775171,-296.082377
4132.818379,-7254.018232,-7354.516781,-370.102971
4132.818704,-5995.668130,-8044.002729,-370.102971
4132.819028,-8438.347739,-7354.516781,-592.164754
4132.819352,-7476.080014,-6358.592633,-740.205942
4132.819677,-3552.988522,-6511.811733,74.020594
4132.820001,-444.123565,-7048.078582,-370.102971
4132.820325,5477.523971,-8350.440928,296.082377
4132.820649,9252.574275,-7814.174080,-592.164754
4132.820974,10658.965565,-10418.898773,0.000000
4132.821298,10510.924376,-10878.556072,222.061783
4132.821622,7772.162391,-9422.974625,-148.041188
4132.821947,4293.194464,-11491.432470,444.123565
4132.822271,-666.185348,-9729.412825,-740.205942
4132.822595,-4367.215058,-9806.022374,888.247130
4132.822920,-7105.977043,-7814.174080,-148.041188
4132.823244,-9548.656652,-9116.536426,-370.102971
4132.823568,-9622.677246,-6358.592633,-1406.391290
4132.823893,-7328.038826,-7124.688131,444.123565
4132.824217,-3478.967927,-6588.421283,-222.061783
4132.824541,2368.659014,-7431.126331,0.000000
4132.824865,6069.688724,-7967.393179,0.000000
4132.825190,9178.553681,-7814.174080,-518.144159
4132.825514,9918.759623,-9729.412825,0.000000
4132.825838,8438.347739,-10035.851024,-1406.391290
4132.826163,4959.379811,-11721.261119,148.041188
4132.826487,592.164754,-10035.851024,-1258.350101
4132.826811,-3923.091493,-9652.803275,370.102971
4132.827136,-6217.729913,-8197.221829,-962.267725
4132.827460,-7402.059420,-8273.831378,0.000000
4132.827784,-9104.533087,-6435.202183,-1258.350101
4132.828109,-6439.791695,-6435.202183,-592.164754
4132.828433,-4293.194464,-6511.811733,-222.061783
4132.828757,2368.659014,-7814.174080,-444.123565
4132.829082,6809.894666,-8120.612279,-740.205942
4132.829406,10436.903782,-9039.926876,-814.226536
4132.829730,11547.212695,-8810.098227,-370.102971
4132.830054,9992.780217,-10112.460574,74.020594
4132.830379,6439.791695,-10955.165621,370.102971
4132.830703,2368.659014,-10572.117872,296.082377
4132.831027,-2590.720797,-9729.412825,592.164754
4132.831352,-5403.503377,-9193.145976,0.000000
4132.831676,-8734.430116,-7967.393179,-1036.288319
4132.832000,-9918.759623,-8120.612279,-740.205942
4132.832325,-9252.574275,-6511.811733,-1332.370696
4132.832649,-5773.606348,-7277.907231,444.123565
4132.832973,-1776.494261,-6358.592633,0.000000
4132.833298,4145.153275,-7507.735880,148.041188
4132.833622,7402.059420,-7354.516781,-592.164754
4132.833946,9844.739029,-8656.879127,-444.123565
4132.834271,9992.780217,-10189.070123,-592.164754
4132.834595,6957.935855,-12027.699319,-740.205942
4132.834919,3701.029710,-11031.775171,-814.226536
4132.835243,-1036.288319,-10495.508323,222.061783
4132.835568,-4293.194464,-8733.488677,-222.061783
4132.835892,-7772.162391,-7890.783629,-296.082377
4132.836216,-8956.491898,-7507.735880,-1184.329507
4132.836541,-7772.162391,-6281.983084,-444.123565
4132.836865,-4811.338623,-6358.592633,-666.185348
4132.837189,-814.226536,-7201.297681,444.123565
4132.837514,4737.318029,-7048.078582,-740.205942
4132.837838,9696.697840,-8350.440928,-444.123565
4132.838162,11473.192101,-8886.707777,-1184.329507
4132.838487,11103.089130,-10342.289223,-518.144159
4132.838811,8882.471304,-11338.213370,-148.041188
4132.839135,4959.379811,-11031.775171,-592.164754
4132.839459,-296.082377,-10878.556072,370.102971
4132.839784,-4737.318029,-8963.317327,814.226536
4132.840108,-6957.935855,-8044.002729,-222.061783
4132.840432,-9622.677246,-8120.612279,-888.247130
4132.840757,-9326.594869,-7354.516781,-740.205942
4132.841081,-7105.977043,-6665.030833,0.000000
4132.841405,-3701.029710,-7277.907231,0.000000
4132.841730,1110.308913,-7354.516781,222.061783
4132.842054,5625.565159,-7124.688131,-296.082377
4132.842378,9178.553681,-8197.221829,-666.185348
4132.842703,9992.780217,-9499.584175,-370.102971
4132.843027,8512.368333,-10801.946522,-370.102971
4132.843351,5551.544565,-11031.775171,-1036.288319
4132.843676,1036.288319,-11031.775171,148.041188
4132.844000,-2072.576638,-9116.536426,-222.061783
4132.844324,-6143.709319,-8963.317327,222.061783
4132.844648,-7920.203579,-8350.440928,-888.247130
4132.844973,-8882.471304,-6894.859482,-888.247130
4132.845297,-6809.894666,-6894.859482,0.000000
4132.845621,-3775.050304,-5898.935335,0.000000
4132.845946,740.205942,-7124.688131,740.205942
4132.846270,6291.750507,-7660.954980,0.000000
4132.846594,8882.471304,-8656.879127,-1184.329507
4132.846919,11399.171507,-10265.679673,-1110.308913
4132.847243,11029.068536,-10495.508323,-148.041188
4132.847567,7624.121203,-10725.336972,296.082377
4132.847892,3034.844362,-10265.679673,-370.102971
4132.848216,-1110.308913,-10035.851024,444.123565
4132.848540,-5329.482782,-9346.365076,962.267725
4132.848865,-8364.327145,-7660.954980,-888.247130
4132.849189,-9770.718434,-8273.831378,-518.144159
4132.849513,-10510.924376,-7124.688131,-518.144159
4132.849837,-7846.182985,-7890.783629,0.000000
4132.850162,-3330.926739,-7124.688131,-518.144159
4132.850486,1924.535449,-6971.469032,148.041188
4132.850810,5773.606348,-8427.050478,-1480.411884
4132.851135,9326.594869,-8733.488677,-1480.411884
4132.851459,8290.306550,-10035.851024,740.205942
4132.851783,7624.121203,-10112.460574,-296.082377
4132.852108,5033.400406,-11261.603821,0.000000
4132.852432,518.144159,-10035.851024,-1184.329507
4132.852756,-1702.473667,-9729.412825,148.041188
4132.853081,-5477.523971,-7890.783629,-222.061783
4132.853405,-8142.265362,-8427.050478,-518.144159
4132.853729,-8364.327145,-7201.297681,-1184.329507
4132.854053,-6587.832884,-7354.516781,-592.164754
4132.854378,-4145.153275,-7048.078582,-222.061783
4132.854702,2072.576638,-7584.345430,0.000000
4132.855026,5699.585753,-8120.612279,-1258.350101
4132.855351,10881.027347,-9882.631924,-1554.432478
4132.855675,10584.944971,-9806.022374,-1110.308913
4132.855999,10584.944971,-11031.775171,444.123565
4132.856324,7105.977043,-9652.803275,370.102971
4132.856648,3182.885551,-10418.898773,74.020594
4132.856972,-1776.494261,-10112.460574,296.082377
4132.857297,-5255.462188,-8350.440928,-148.041188
4132.857621,-7772.162391,-7737.564530,-814.226536
4132.857945,-9178.553681,-7737.564530,-814.226536
4132.858270,-9770.718434,-7890.783629,-1258.350101
4132.858594,-6735.874072,-7507.735880,0.000000
4132.858918,-2960.823768,-6358.592633,-518.144159
4132.859242,2516.700203,-7967.393179,-148.041188
4132.859567,8512.368333,-7354.516781,-888.247130
4132.859891,9918.759623,-9422.974625,-444.123565
4132.860215,10288.862594,-9652.803275,-1036.288319
4132.860540,7105.977043,-11261.603821,0.000000
4132.860864,4071.132681,-10725.336972,-666.185348
4132.861188,740.205942,-10189.070123,-888.247130
4132.861513,-2442.679609,-9882.631924,-518.144159
4132.861837,-7624.121203,-7431.126331,-1184.329507
4132.862161,-8068.244768,-8044.002729,-962.267725
4132.862486,-8956.491898,-7584.345430,-296.082377
4132.862810,-5995.668130,-6971.469032,0.000000
4132.863134,-2516.700203,-6665.030833,0.000000
4132.863459,3108.864956,-7354.516781,222.061783
4132.863783,7920.203579,-7660.954980,-1110.308913
4132.864107,10510.924376,-9499.584175,-1258.350101
4132.864431,11473.192101,-10495.508323,-888.247130
4132.864756,9326.594869,-10189.070123,592.164754
4132.865080,4959.379811,-10265.679673,1036.288319
4132.865404,740.205942,-11108.384721,814.226536
4132.865729,-2220.617826,-9806.022374,0.000000
4132.866053,-5921.647536,-8273.831378,74.020594
4132.866377,-8290.306550,-7890.783629,-740.205942
4132.866702,-9474.636058,-7201.297681,-444.123565
4132.867026,-8438.347739,-7124.688131,0.000000
4132.867350,-5255.462188,-7201.297681,0.000000
4132.867675,-592.164754,-6741.640382,444.123565
4132.867999,3701.029710,-7201.297681,0.000000
4132.868323,7920.203579,-7890.783629,-296.082377
4132.868648,9474.636058,-8963.317327,0.000000
4132.868972,8734.430116,-10725.336972,-148.041188
4132.869296,6217.729913,-11568.042020,0.000000
4132.869620,2664.741391,-10265.679673,-1036.288319
4132.869945,-2442.679609,-10418.898773,0.000000
4132.870269,-5625.565159,-8044.002729,-444.123565
4132.870593,-8808.450710,-7890.783629,-296.082377
4132.870918,-8882.471304,-7048.078582,-592.164754
4132.871242,-6735.874072,-6894.859482,0.000000
4132.871566,-4737.318029,-6128.763984,74.020594
4132.871891,814.226536,-6971.469032,592.164754
4132.872215,6143.709319,-7048.078582,-222.061783
4132.872539,9326.594869,-8580.269578,-740.205942
4132.872864,11991.336260,-9269.755526,-592.164754
4132.873188,10881.027347,-10265.679673,-222.061783
4132.873512,7476.080014,-11031.775171,222.061783
4132.873836,4589.276840,-10801.946522,592.164754
4132.874161,-1036.288319,-10342.289223,0.000000
4132.874485,-5107.421000,-9346.365076,-222.061783
4132.874809,-7920.203579,-8044.002729,-370.102971
4132.875134,-9030.512492,-8197.221829,-592.164754
4132.875458,-9622.677246,-6588.421283,-666.185348
4132.875782,-7698.141797,-6741.640382,-222.061783
4132.876107,-2516.700203,-6665.030833,222.061783
4132.876431,-222.061783,-6511.811733,-296.082377
4132.876755,6513.812290,-7737.564530,-370.102971
4132.877080,7624.121203,-7890.783629,-666.185348
4132.877404,9474.636058,-10035.851024,222.061783
4132.877728,9104.533087,-10878.556072,-888.247130
4132.878053,5033.400406,-11491.432470,-518.144159
4132.878377,222.061783,-9882.631924,-370.102971
4132.878701,-3701.029710,-9193.145976,-1036.288319
4132.879025,-7031.956449,-9499.584175,-222.061783
4132.879350,-9474.636058,-7354.516781,-740.205942
4132.879674,-8142.265362,-7048.078582,-296.082377
4132.879998,-7179.997637,-6588.421283,-666.185348
4132.880323,-1554.432478,-6511.811733,-370.102971
4132.880647,3108.864956,-6511.811733,-296.082377
4132.880971,8512.368333,-7048.078582,-148.041188
4132.881296,10807.006753,-8273.831378,-1184.329507
4132.881620,12953.603985,-9422.974625,-370.102971
4132.881944,10140.821405,-10495.508323,444.123565
4132.882269,5329.482782,-10801.946522,0.000000
4132.882593,2368.659014,-11108.384721,444.123565
4132.882917,-1480.411884,-9806.022374,-518.144159
4132.883242,-6143.709319,-9422.974625,-148.041188
4132.883566,-8808.450710,-7737.564530,-1406.391290
4132.883890,-10436.903782,-7967.393179,0.000000
4132.884214,-9622.677246,-6588.421283,-666.185348
4132.884539,-4885.359217,-6435.202183,0.000000
4132.884863,-2590.720797,-6588.421283,0.000000
4132.885187,4145.153275,-7354.516781,-666.185348
4132.885512,7105.977043,-8120.612279,-1110.308913
4132.885836,8956.491898,-8580.269578,-222.061783
4132.886160,9918.759623,-9499.584175,518.144159
4132.886485,7105.977043,-10725.336972,74.020594
4132.886809,4811.338623,-10572.117872,-962.267725
4132.887133,444.123565,-10342.289223,-962.267725
4132.887458,-4071.132681,-9193.145976,74.020594
4132.887782,-7328.038826,-8044.002729,-1036.288319
4132.888106,-8512.368333,-7737.564530,-370.102971
4132.888430,-7846.182985,-6971.469032,-518.144159
4132.888755,-4737.318029,-6665.030833,0.000000
4132.889079,-2368.659014,-6128.763984,74.020594
4132.889403,5181.441594,-7124.688131,740.205942
4132.889728,8364.327145,-7584.345430,-814.226536
4132.890052,11399.171507,-10265.679673,-296.082377
4132.890376,10288.862594,-9806.022374,-740.205942
4132.890701,7772.162391,-11874.480219,666.185348
4132.891025,4885.359217,-10801.946522,0.000000
4132.891349,444.123565,-10572.117872,0.000000
4132.891674,-3627.009116,-9193.145976,296.082377
4132.891998,-5995.668130,-7737.564530,-296.082377
4132.892322,-8512.368333,-7584.345430,-814.226536
4132.892647,-9252.574275,-7201.297681,-518.144159
4132.892971,-7698.141797,-6511.811733,74.020594
4132.893295,-4219.173869,-6741.640382,0.000000
4132.893619,-518.144159,-6128.763984,0.000000
4132.893944,5033.400406,-8350.440928,-444.123565
4132.894268,7105.977043,-7967.393179,-1110.308913
4132.894592,9770.718434,-9116.536426,148.041188
4132.894917,8512.368333,-9499.584175,-222.061783
4132.895241,6217.729913,-11721.261119,74.020594
4132.895565,2146.597232,-10418.898773,-888.247130
4132.895890,-2072.576638,-9959.241474,0.000000
4132.896214,-6069.688724,-8427.050478,-222.061783
4132.896538,-7254.018232,-7354.516781,-518.144159
4132.896863,-7846.182985,-7354.516781,-592.164754
4132.897187,-6735.874072,-5898.935335,-370.102971
4132.897511,-3775.050304,-6358.592633,-296.082377
4132.897836,1332.370696,-7048.078582,-518.144159
4132.898160,5625.565159,-7354.516781,370.102971
4132.898484,9326.594869,-7890.783629,-1184.329507
4132.898808,10510.924376,-10342.289223,148.041188
4132.899133,10214.842000,-10342.289223,-296.082377
4132.899457,6661.853478,-11491.432470,-222.061783
4132.899781,3256.906145,-11031.775171,-296.082377
4132.900106,-148.041188,-10035.851024,0.000000
4132.900430,-4367.215058,-9193.145976,148.041188
4132.900754,-7846.182985,-7967.393179,-370.102971
4132.901079,-8734.430116,-7584.345430,-666.185348
4132.901403,-8586.388927,-6894.859482,-148.041188
4132.901727,-6661.853478,-6205.373534,-814.226536
4132.902052,-3701.029710,-6358.592633,-370.102971
4132.902376,1702.473667,-7124.688131,0.000000
4132.902700,5477.523971,-8580.269578,-962.267725
4132.903024,8734.430116,-9269.755526,-962.267725
4132.903349,9178.553681,-9729.412825,518.144159
4132.903673,8216.285956,-9882.631924,-518.144159
4132.903997,5699.585753,-10495.508323,-888.247130
4132.904322,1998.556043,-11108.384721,-592.164754
4132.904646,-2368.659014,-8810.098227,-1036.288319
4132.904970,-5847.626942,-8503.660028,0.000000
4132.905295,-8734.430116,-7507.735880,-1110.308913
4132.905619,-8068.244768,-7201.297681,-296.082377
4132.905943,-6069.688724,-5592.497135,-148.041188
4132.906268,-2590.720797,-6971.469032,-148.041188
4132.906592,1702.473667,-6894.859482,0.000000
4132.906916,7254.018232,-7584.345430,-148.041188
4132.907241,9918.759623,-8733.488677,-740.205942
4132.907565,11251.130318,-10035.851024,-888.247130
4132.907889,9696.697840,-10955.165621,-444.123565
4132.908213,6439.791695,-11951.089769,-592.164754
4132.908538,1998.556043,-10495.508323,-518.144159
4132.908862,-1850.514855,-9882.631924,592.164754
4132.909186,-6365.771101,-7431.126331,0.000000
4132.909511,-8438.347739,-8273.831378,-962.267725
4132.909835,-9548.656652,-7507.735880,-370.102971
4132.910159,-8882.471304,-6281.983084,0.000000
4132.910484,-5477.523971,-6205.373534,-148.041188
4132.910808,-814.226536,-6741.640382,-518.144159
4132.911132,3108.864956,-7584.345430,0.000000
4132.911457,6809.894666,-8503.660028,-1184.329507
4132.911781,9104.533087,-8886.707777,0.000000
4132.912105,9326.594869,-9806.022374,296.082377
4132.912430,6513.812290,-9882.631924,0.000000
4132.912754,3330.926739,-10955.165621,-370.102971
4132.913078,-296.082377,-10495.508323,-592.164754
4132.913402,-5329.482782,-9269.755526,0.000000
4132.913727,-7550.100608,-8044.002729,-592.164754
4132.914051,-9178.553681,-8350.440928,-518.144159
4132.914375,-8586.388927,-6741.640382,-962.267725
4132.914700,-4959.379811,-5745.716235,148.041188
4132.915024,-666.185348,-6818.249932,296.082377
4132.915348,4515.256246,-7354.516781,-666.185348
4132.915673,8364.327145,-8427.050478,-370.102971
4132.915997,10288.862594,-8886.707777,-740.205942
4132.916321,11399.171507,-10035.851024,-370.102971
4132.916646,8956.491898,-10035.851024,0.000000
4132.916970,5403.503377,-11491.432470,148.041188
4132.917294,1036.288319,-9499.584175,0.000000
4132.917618,-2368.659014,-9499.584175,592.164754
4132.917943,-6809.894666,-8197.221829,-592.164754
4132.918267,-9548.656652,-8273.831378,-814.226536
4132.918591,-10288.862594,-7048.078582,-740.205942
4132.918916,-7624.121203,-7201.297681,0.000000
4132.919240,-4811.338623,-6665.030833,-888.247130
4132.919564,222.061783,-7354.516781,-370.102971
4132.919889,4071.132681,-7201.297681,-814.226536
4132.920213,8586.388927,-8580.269578,-962.267725
4132.920538,8882.471304,-9576.193725,-814.226536
4132.920862,8512.368333,-10342.289223,-296.082377
4132.921186,4515.256246,-10495.508323,-296.082377
4132.921511,2072.576638,-11184.994271,-370.102971
4132.921835,-1480.411884,-10189.070123,-888.247130
4132.922160,-4515.256246,-7890.783629,-1554.432478
4132.922484,-6069.688724,-7890.783629,-370.102971
4132.922808,-9474.636058,-7048.078582,-888.247130
4132.923133,-7550.100608,-6971.469032,74.020594
4132.923457,-4145.153275,-6358.592633,0.000000
4132.923782,666.185348,-6588.421283,-370.102971
4132.924106,6217.729913,-7814.174080,-296.082377
4132.924430,9474.636058,-8503.660028,-1554.432478
4132.924755,11843.295072,-10495.508323,-666.185348
4132.925079,10288.862594,-10265.679673,-370.102971
4132.925404,7624.121203,-11261.603821,296.082377
4132.925728,4071.132681,-10418.898773,-296.082377
4132.926052,-666.185348,-10342.289223,296.082377
4132.926377,-5403.503377,-9652.803275,-296.082377
4132.926701,-7402.059420,-8197.221829,-814.226536
4132.927026,-10066.800811,-7737.564530,-592.164754
4132.927350,-8956.491898,-7277.907231,-444.123565
4132.927674,-6735.874072,-7201.297681,0.000000
4132.927999,-2220.617826,-6818.249932,148.041188
4132.928323,1850.514855,-7354.516781,0.000000
4132.928647,7031.956449,-7277.907231,0.000000
4132.928972,9400.615463,-7967.393179,-370.102971
4132.929296,10510.924376,-9193.145976,-740.205942
4132.929621,7624.121203,-10495.508323,0.000000
4132.929945,4515.256246,-11491.432470,-1258.350101
4132.930269,0.000000,-11108.384721,-518.144159
4132.930594,-4219.173869,-9806.022374,-666.185348
4132.930918,-7402.059420,-8656.879127,-592.164754
4132.931243,-9400.615463,-7814.174080,-1110.308913
4132.931567,-7846.182985,-7354.516781,-444.123565
4132.931891,-5995.668130,-6665.030833,0.000000
4132.932216,-1406.391290,-5975.544884,74.020594
4132.932540,3627.009116,-7048.078582,592.164754
4132.932865,8882.471304,-7201.297681,-1702.473667
4132.933189,10288.862594,-8963.317327,-1184.329507
4132.933513,9474.636058,-9346.365076,-666.185348
4132.933838,8512.368333,-11031.775171,666.185348
4132.934162,4737.318029,-11108.384721,0.000000
4132.934487,740.205942,-11338.213370,-222.061783
4132.934811,-2738.761985,-10112.460574,888.247130
4132.935135,-6439.791695,-8656.879127,0.000000
4132.935460,-8660.409521,-7967.393179,-444.123565
4132.935784,-9104.533087,-7660.954980,-444.123565
4132.936109,-8290.306550,-7354.516781,0.000000
4132.936433,-4885.359217,-6511.811733,370.102971
4132.936757,-666.185348,-6588.421283,0.000000
4132.937082,3923.091493,-7890.783629,-222.061783
4132.937406,6661.853478,-7431.126331,-1998.556043
4132.937731,8142.265362,-9576.193725,-370.102971
4132.938055,7179.997637,-9806.022374,-444.123565
4132.938379,5329.482782,-11031.775171,0.000000
4132.938704,2960.823768,-10725.336972,74.020594
4132.939028,-740.205942,-10342.289223,148.041188
4132.939353,-4219.173869,-9193.145976,-592.164754
4132.939677,-6809.894666,-8197.221829,-666.185348
4132.940001,-8068.244768,-7354.516781,-962.267725
4132.940326,-7105.977043,-7584.345430,-740.205942
4132.940650,-4367.215058,-6435.202183,148.041188
4132.940974,814.226536,-6741.640382,1258.350101
4132.941299,4737.318029,-6665.030833,-888.247130
4132.941623,9474.636058,-8580.269578,-1258.350101
4132.941948,10436.903782,-8580.269578,-1184.329507
4132.942272,10140.821405,-11338.213370,814.226536
4132.942596,7031.956449,-10725.336972,-962.267725
4132.942921,4441.235652,-11951.089769,888.247130
4132.943245,-518.144159,-10725.336972,-222.061783
4132.943570,-4589.276840,-10112.460574,0.000000
4132.943894,-6587.832884,-8197.221829,-1184.329507
4132.944218,-8586.388927,-8503.660028,-370.102971
4132.944543,-8882.471304,-7584.345430,-740.205942
4132.944867,-7105.977043,-6205.373534,-148.041188
4132.945192,-3404.947333,-6894.859482,296.082377
4132.945516,1702.473667,-6281.983084,-592.164754
4132.945840,6291.750507,-7737.564530,-814.226536
4132.946165,7328.038826,-7048.078582,-1776.494261
4132.946489,8512.368333,-10495.508323,0.000000
4132.946814,7994.224174,-9729.412825,-1628.453072
4132.947138,4663.297435,-12717.185267,962.267725
4132.947462,518.144159,-9422.974625,-962.267725
4132.947787,-296.082377,-10725.336972,-148.041188
4132.948111,-5255.462188,-9039.926876,-1554.432478
4132.948436,-6217.729913,-8503.660028,-1406.391290
4132.948760,-6587.832884,-6818.249932,-444.123565
4132.949084,-6217.729913,-6818.249932,0.000000
4132.949409,-2960.823768,-6741.640382,74.020594
4132.949733,1554.432478,-5898.935335,0.000000
4132.950058,5699.585753,-8120.612279,-370.102971
4132.950382,9548.656652,-8197.221829,-370.102971
4132.950706,11325.150913,-9116.536426,-518.144159
4132.951031,9918.759623,-10955.165621,444.123565
4132.951355,6143.709319,-11108.384721,0.000000
4132.951679,2664.741391,-11721.261119,370.102971
4132.952004,-2294.638420,-10801.946522,222.061783
4132.952328,-5033.400406,-9422.974625,370.102971
4132.952653,-6661.853478,-8197.221829,-962.267725
4132.952977,-8586.388927,-8120.612279,-888.247130
4132.953301,-8142.265362,-6894.859482,0.000000
4132.953626,-6291.750507,-6128.763984,0.000000
4132.953950,-3627.009116,-6435.202183,222.061783
4132.954275,2368.659014,-7354.516781,592.164754
4132.954599,6291.750507,-7048.078582,-1184.329507
4132.954923,8438.347739,-9422.974625,148.041188
4132.955248,9474.636058,-8886.707777,-296.082377
4132.955572,7031.956449,-11108.384721,0.000000
4132.955897,4737.318029,-11491.432470,222.061783
4132.956221,222.061783,-10342.289223,-592.164754
4132.956545,-3701.029710,-9422.974625,-666.185348
4132.956870,-6291.750507,-7737.564530,222.061783
4132.957194,-8142.265362,-7814.174080,-1036.288319
4132.957519,-7698.141797,-7124.688131,0.000000
4132.957843,-5107.421000,-6128.763984,222.061783
4132.958167,-1998.556043,-6511.811733,-444.123565
4132.958492,3182.885551,-7431.126331,296.082377
4132.958816,7402.059420,-6741.640382,-370.102971
4132.959141,10214.842000,-9116.536426,-592.164754
4132.959465,11103.089130,-9193.145976,-222.061783
4132.959789,8142.265362,-11184.994271,74.020594
4132.960114,5773.606348,-12104.308868,0.000000
4132.960438,592.164754,-10418.898773,-296.082377
4132.960763,-2738.761985,-10112.460574,444.123565
4132.961087,-6513.812290,-7890.783629,0.000000
4132.961411,-9030.512492,-8503.660028,-814.226536
4132.961736,-8956.491898,-7660.954980,-962.267725
4132.962060,-7550.100608,-6818.249932,74.020594
4132.962385,-6661.853478,-6128.763984,-592.164754
4132.962709,0.000000,-7277.907231,296.082377
4132.963033,3849.070898,-6281.983084,-1258.350101
4132.963358,7328.038826,-9729.412825,-296.082377
4132.963682,7994.224174,-7660.954980,-962.267725
4132.964006,9696.697840,-10801.946522,518.144159
4132.964331,5699.585753,-10112.460574,-1036.288319
4132.964655,3034.844362,-11031.775171,-592.164754
4132.964980,-1406.391290,-9652.803275,-592.164754
4132.965304,-5255.462188,-9039.926876,-740.205942
4132.965628,-7772.162391,-8503.660028,-666.185348
4132.965953,-7402.059420,-7048.078582,-1480.411884
4132.966277,-7254.018232,-6818.249932,-592.164754
4132.966602,-4145.153275,-6128.763984,-148.041188
4132.966926,814.226536,-7124.688131,-222.061783
4132.967250,5255.462188,-7354.516781,-222.061783
4132.967575,8512.368333,-8120.612279,-740.205942
4132.967899,11103.089130,-8273.831378,-888.247130
4132.968224,9622.677246,-9959.241474,444.123565
4132.968548,7994.224174,-11261.603821,-740.205942
4132.968872,4219.173869,-12180.918418,0.000000
4132.969197,-444.123565,-10801.946522,-592.164754
4132.969521,-3775.050304,-9729.412825,148.041188
4132.969846,-7624.121203,-8580.269578,-592.164754
4132.970170,-9400.615463,-8197.221829,-666.185348
4132.970494,-8290.306550,-7354.516781,-814.226536
4132.970819,-6957.935855,-6358.592633,370.102971
4132.971143,-4219.173869,-6128.763984,0.000000
4132.971468,1480.411884,-5898.935335,0.000000
4132.971792,5699.585753,-7660.954980,-518.144159
4132.972116,7994.224174,-9193.145976,-666.185348
4132.972441,9400.615463,-9039.926876,-444.123565
4132.972765,9252.574275,-10495.508323,74.020594
4132.973090,5551.544565,-11031.775171,-370.102971
4132.973414,1110.308913,-10035.851024,-296.082377
4132.973738,-2960.823768,-9576.193725,-740.205942
4132.974063,-6587.832884,-9652.803275,-148.041188
4132.974387,-8438.347739,-7354.516781,0.000000
4132.974711,-7624.121203,-7124.688131,74.020594
4132.975036,-6217.729913,-5975.544884,-444.123565
4132.975360,-2146.597232,-6665.030833,296.082377
4132.975685,2294.638420,-6205.373534,148.041188
4132.976009,7254.018232,-7737.564530,-666.185348
4132.976333,9770.718434,-8197.221829,-814.226536
4132.976658,10362.883188,-9422.974625,0.000000
4132.976982,9622.677246,-9959.241474,666.185348
4132.977307,6587.832884,-11108.384721,74.020594
4132.977631,2516.700203,-10955.165621,814.226536
4132.977955,-2442.679609,-9959.241474,0.000000
4132.978280,-5921.647536,-9346.365076,0.000000
4132.978604,-8808.450710,-7890.783629,222.061783
4132.978929,-8660.409521,-8273.831378,-370.102971
4132.979253,-8068.244768,-6511.811733,-296.082377
4132.979577,-4737.318029,-6358.592633,666.185348
4132.979902,-1998.556043,-6281.983084,-296.082377
4132.980226,3330.926739,-7277.907231,-592.164754
4132.980551,6291.750507,-7354.516781,-814.226536
4132.980875,8068.244768,-9116.536426,222.061783
4132.981199,9178.553681,-9039.926876,-592.164754
4132.981524,7105.977043,-12104.308868,370.102971
4132.981848,3182.885551,-10725.336972,-370.102971
4132.982173,74.020594,-9499.584175,-518.144159
4132.982497,-3701.029710,-9422.974625,-592.164754
4132.982821,-6809.894666,-9652.803275,-370.102971
4132.983146,-8438.347739,-7737.564530,-444.123565
4132.983470,-7846.182985,-6894.859482,-592.164754
4132.983795,-5551.544565,-6281.983084,0.000000
4132.984119,-1776.494261,-6511.811733,74.020594
4132.984443,4367.215058,-7201.297681,-296.082377
4132.984768,7994.224174,-7737.564530,-888.247130
4132.985092,9770.718434,-9116.536426,-444.123565
4132.985417,10807.006753,-9039.926876,-592.164754
4132.985741,8660.409521,-11644.651570,370.102971
4132.986065,5699.585753,-11261.603821,-962.267725
4132.986390,1332.370696,-10878.556072,592.164754
4132.986714,-2812.782580,-9193.145976,-370.102971
4132.987038,-5403.503377,-9422.974625,-444.123565
4132.987363,-8734.430116,-8350.440928,-1332.370696
4132.987687,-9252.574275,-7814.174080,-740.205942
4132.988012,-7402.059420,-5822.325785,74.020594
4132.988336,-5033.400406,-6665.030833,0.000000
4132.988660,148.041188,-6971.469032,-814.226536
4132.988985,2886.803174,-7201.297681,-740.205942
4132.989309,7254.018232,-8120.612279,-1184.329507
4132.989634,8660.409521,-8886.707777,-666.185348
4132.989958,8660.409521,-10801.946522,-444.123565
4132.990282,6291.750507,-11797.870669,-962.267725
4132.990607,1406.391290,-10265.679673,-666.185348
4132.990931,-1554.432478,-9652.803275,-444.123565
4132.991256,-4589.276840,-8886.707777,-1332.370696
4132.991580,-6143.709319,-8580.269578,-296.082377
4132.991904,-7624.121203,-7507.735880,-370.102971
4132.992229,-7328.038826,-5822.325785,-444.123565
4132.992553,-3849.070898,-6894.859482,0.000000
4132.992878,-148.041188,-6435.202183,-962.267725
4132.993202,6143.709319,-8197.221829,592.164754
4132.993526,7994.224174,-7354.516781,-1554.432478
4132.993851,11103.089130,-9499.584175,-296.082377
4132.994175,9400.615463,-10418.898773,-518.144159
4132.994500,7550.100608,-12027.699319,0.000000
4132.994824,4663.297435,-11951.089769,148.041188
4132.995148,222.061783,-9959.241474,0.000000
4132.995473,-3775.050304,-9729.412825,888.247130
4132.995797,-6809.894666,-8503.660028,-592.164754
4132.996122,-8438.347739,-8427.050478,-222.061783
4132.996446,-8586.388927,-6588.421283,-888.247130
4132.996770,-6957.935855,-6358.592633,296.082377
4132.997095,-2664.741391,-6511.811733,0.000000
4132.997419,1184.329507,-6971.469032,-444.123565
4132.997744,3997.112087,-7814.174080,-222.061783
4132.998068,7105.977043,-8733.488677,-740.205942
4132.998392,8142.265362,-9422.974625,370.102971
4132.998717,7476.080014,-10801.946522,-444.123565
4132.999041,4219.173869,-11184.994271,-592.164754
4132.999365,1036.288319,-10725.336972,-296.082377
4132.999690,-2368.659014,-9039.926876,-962.267725
4133.000014,-5477.523971,-9346.365076,-592.164754
4133.000339,-7179.997637,-7660.954980,-962.267725
4133.000663,-7105.977043,-7277.907231,0.000000
4133.000987,-6291.750507,-5822.325785,74.020594
4133.001312,-2442.679609,-5822.325785,74.020594
4133.001636,2220.617826,-6894.859482,0.000000
4133.001961,6143.709319,-6971.469032,-370.102971
4133.002285,8512.368333,-8656.879127,-148.041188
4133.002609,9696.697840,-9422.974625,-370.102971
4133.002934,9474.636058,-10265.679673,444.123565
4133.003258,6587.832884,-11031.775171,-592.164754
4133.003583,2886.803174,-11338.213370,370.102971
4133.003907,-1702.473667,-9576.193725,0.000000
4133.004231,-4737.318029,-9729.412825,0.000000
4133.004556,-7550.100608,-8427.050478,-370.102971
4133.004880,-8586.388927,-8120.612279,-518.144159
4133.005205,-8142.265362,-6818.249932,-222.061783
4133.005529,-5995.668130,-6052.154434,148.041188
4133.005853,-962.267725,-6435.202183,-74.020594
4133.006178,1184.329507,-6971.469032,0.000000
4133.006502,5995.668130,-7431.126331,-1110.308913
4133.006827,7994.224174,-9499.584175,-518.144159
4133.007151,8216.285956,-10725.336972,-370.102971
4133.007475,6661.853478,-11874.480219,-222.061783
4133.007800,3849.070898,-10725.336972,-444.123565
4133.008124,1036.288319,-9576.193725,-814.226536
4133.008449,-2960.823768,-9576.193725,-1554.432478
4133.008773,-5773.606348,-8963.317327,-222.061783
4133.009097,-7105.977043,-7584.345430,-148.041188
4133.009422,-6883.915261,-6281.983084,-1258.350101
4133.009746,-5107.421000,-7048.078582,0.000000
4133.010070,-1998.556043,-5362.668486,-1036.288319
4133.010395,3775.050304,-7890.783629,296.082377
4133.010719,7698.141797,-7277.907231,-1998.556043
4133.011044,9844.739029,-10648.727422,-222.061783
4133.011368,9326.594869,-9346.365076,-1036.288319
4133.011692,8438.347739,-12104.308868,444.123565
4133.012017,5033.400406,-11951.089769,-222.061783
4133.012341,2368.659014,-10265.679673,222.061783
4133.012666,-2738.761985,-9729.412825,-370.102971
4133.012990,-6365.771101,-9422.974625,-1332.370696
4133.013314,-7402.059420,-8044.002729,-814.226536
4133.013639,-9770.718434,-7277.907231,-888.247130
4133.013963,-8142.265362,-7354.516781,148.041188
4133.014288,-5033.400406,-6665.030833,-148.041188
4133.014612,-1258.350101,-7354.516781,-296.082377
4133.014936,3552.988522,-6894.859482,-666.185348
4133.015261,7772.162391,-8427.050478,-518.144159
4133.015585,10288.862594,-8810.098227,-814.226536
4133.015910,9400.615463,-10112.460574,0.000000
4133.016234,6957.935855,-11338.213370,-962.267725
4133.016559,3256.906145,-11108.384721,-1110.308913
4133.016883,-518.144159,-11031.775171,-148.041188
4133.017207,-5033.400406,-8733.488677,-814.226536
4133.017532,-7476.080014,-8197.221829,-444.123565
4133.017856,-8068.244768,-7354.516781,-666.185348
4133.018181,-7772.162391,-6205.373534,-296.082377
4133.018505,-4885.359217,-6052.154434,74.020594
4133.018829,-1406.391290,-6511.811733,-222.061783
4133.019154,4515.256246,-7967.393179,296.082377
4133.019478,8734.430116,-7814.174080,-592.164754
4133.019803,10288.862594,-8810.098227,-888.247130
4133.020127,10807.006753,-10189.070123,518.144159
4133.020451,8734.430116,-10112.460574,222.061783
4133.020776,5181.441594,-12180.918418,222.061783
4133.021100,-148.041188,-9959.241474,-296.082377
4133.021425,-3034.844362,-9499.584175,740.205942
4133.021749,-7624.121203,-7967.393179,-518.144159
4133.022073,-8364.327145,-7507.735880,-444.123565
4133.022398,-10140.821405,-7048.078582,-1332.370696
4133.022722,-6439.791695,-6358.592633,962.267725
4133.023047,-6069.688724,-6281.983084,-296.082377
4133.023371,-444.123565,-7201.297681,-518.144159
4133.023695,5699.585753,-7584.345430,0.000000
4133.024020,7254.018232,-9346.365076,-814.226536
4133.024344,9696.697840,-9806.022374,-666.185348
4133.024669,9770.718434,-10189.070123,0.000000
4133.024993,6217.729913,-11797.870669,-370.102971
4133.025317,2072.576638,-10265.679673,-740.205942
4133.025642,-2072.576638,-9729.412825,-296.082377
4133.025966,-6439.791695,-8733.488677,592.164754
4133.026291,-8068.244768,-7048.078582,-740.205942
4133.026615,-9474.636058,-7431.126331,-296.082377
4133.026940,-7476.080014,-5975.544884,-740.205942
4133.027264,-3478.967927,-6205.373534,-296.082377
4133.027588,1480.411884,-7507.735880,0.000000
4133.027913,6513.812290,-7737.564530,-148.041188
4133.028237,8586.388927,-8810.098227,-296.082377
4133.028562,10584.944971,-9806.022374,0.000000
4133.028886,9178.553681,-10189.070123,-148.041188
4133.029210,7920.203579,-12334.137518,222.061783
4133.029535,3923.091493,-10265.679673,-740.205942
4133.029859,-962.267725,-10035.851024,666.185348
4133.030184,-5181.441594,-9269.755526,-518.144159
4133.030508,-7920.203579,-8273.831378,-962.267725
4133.030832,-8808.450710,-7660.954980,-888.247130
4133.031157,-8364.327145,-6435.202183,-518.144159
4133.031481,-6143.709319,-5975.544884,-222.061783
4133.031806,-2590.720797,-6665.030833,-444.123565
4133.032130,1184.329507,-7507.735880,0.000000
4133.032454,5921.647536,-7354.516781,-888.247130
4133.032779,8734.430116,-9422.974625,-814.226536
4133.033103,9622.677246,-9652.803275,-518.144159
4133.033428,7920.203579,-11644.651570,-222.061783
4133.033752,5181.441594,-11031.775171,-1702.473667
4133.034076,1036.288319,-10342.289223,-1184.329507
4133.034401,-3552.988522,-9346.365076,-592.164754
4133.034725,-6217.729913,-8427.050478,-370.102971
4133.035050,-8068.244768,-7660.954980,-222.061783
4133.035374,-7624.121203,-6894.859482,-518.144159
4133.035698,-4737.318029,-6205.373534,-296.082377
4133.036023,-1924.535449,-6665.030833,-740.205942
4133.036347,2812.782580,-7507.735880,-222.061783
4133.036672,7254.018232,-7660.954980,-444.123565
4133.036996,9252.574275,-9499.584175,-592.164754
4133.037321,10066.800811,-10342.289223,74.020594
4133.037645,9030.512492,-10801.946522,0.000000
4133.037969,5773.606348,-11644.651570,-296.082377
4133.038294,2220.617826,-10112.460574,-740.205942
4133.038618,-1628.453072,-9806.022374,222.061783
4133.038943,-6291.750507,-8273.831378,-666.185348
4133.039267,-8216.285956,-8120.612279,-148.041188
4133.039591,-9770.718434,-7124.688131,-148.041188
4133.039916,-7624.121203,-6665.030833,0.000000
4133.040240,-4589.276840,-6128.763984,74.020594
4133.040565,-1406.391290,-7124.688131,-148.041188
4133.040889,3923.091493,-7201.297681,-666.185348
4133.041213,7105.977043,-7354.516781,-666.185348
4133.041538,8660.409521,-8963.317327,0.000000
4133.041862,8290.306550,-9806.022374,-444.123565
4133.042187,6143.709319,-11491.432470,0.000000
4133.042511,3182.885551,-11491.432470,-1036.288319
4133.042835,-1184.329507,-9499.584175,-592.164754
4133.043160,-5921.647536,-9269.755526,0.000000
4133.043484,-7328.038826,-7354.516781,0.000000
4133.043809,-8216.285956,-7354.516781,-370.102971
4133.044133,-6661.853478,-6511.811733,-1036.288319
4133.044457,-3552.988522,-6052.154434,592.164754
4133.044782,74.020594,-5975.544884,-592.164754
4133.045106,4441.235652,-7584.345430,0.000000
4133.045431,7254.018232,-7660.954980,-444.123565
4133.045755,9696.697840,-9806.022374,444.123565
4133.046080,9030.512492,-9806.022374,-592.164754
4133.046404,8068.244768,-12104.308868,296.082377
4133.046728,4737.318029,-11568.042020,-740.205942
4133.047053,666.185348,-10342.289223,0.000000
4133.047377,-4219.173869,-9422.974625,-296.082377
4133.047702,-7328.038826,-8810.098227,0.000000
4133.048026,-9030.512492,-7507.735880,0.000000
4133.048350,-9844.739029,-7048.078582,-296.082377
4133.048675,-7105.977043,-6052.154434,-518.144159
4133.048999,-3997.112087,-7277.907231,0.000000
4133.049324,222.061783,-7048.078582,-740.205942
4133.049648,3775.050304,-8044.002729,74.020594
4133.049972,7624.121203,-8503.660028,-1036.288319
4133.050297,9400.615463,-9729.412825,0.000000
4133.050621,8438.347739,-10035.851024,-444.123565
4133.050946,6069.688724,-10342.289223,-592.164754
4133.051270,2146.597232,-10725.336972,-1258.350101
4133.051594,-1554.432478,-10418.898773,-1258.350101
4133.051919,-5033.400406,-8886.707777,-814.226536
4133.052243,-7994.224174,-7814.174080,-814.226536
4133.052568,-7550.100608,-7277.907231,-518.144159
4133.052892,-6143.709319,-6281.983084,-370.102971
4133.053216,-3404.947333,-6665.030833,-222.061783
4133.053541,2220.617826,-6894.859482,-296.082377
4133.053865,5625.565159,-6818.249932,-592.164754
4133.054190,9178.553681,-9193.145976,-888.247130
4133.054514,11029.068536,-9576.193725,-518.144159
4133.054838,8882.471304,-11031.775171,370.102971
4133.055163,6587.832884,-11874.480219,-962.267725
4133.055487,3775.050304,-10725.336972,0.000000
4133.055812,-444.123565,-10035.851024,-592.164754
4133.056136,-4293.194464,-9499.584175,-148.041188
4133.056461,-6735.874072,-7660.954980,-1110.308913
4133.056785,-9474.636058,-8197.221829,0.000000
4133.057109,-8882.471304,-6435.202183,-370.102971
4133.057434,-6217.729913,-6741.640382,74.020594
4133.057758,-2368.659014,-6358.592633,-296.082377
4133.058083,1184.329507,-7584.345430,74.020594
4133.058407,5921.647536,-7431.126331,-740.205942
4133.058731,9030.512492,-9193.145976,-444.123565
4133.059056,9992.780217,-8656.879127,-1184.329507
4133.059380,7402.059420,-11108.384721,1184.329507
4133.059705,4959.379811,-10342.289223,-1258.350101
4133.060029,1554.432478,-11568.042020,0.000000
4133.060353,-2368.659014,-9193.145976,-1702.473667
4133.060678,-6291.750507,-8120.612279,148.041188
4133.061002,-7772.162391,-6665.030833,-222.061783
4133.061327,-7254.018232,-6818.249932,-370.102971
4133.061651,-5181.441594,-6128.763984,222.061783
4133.061975,-1998.556043,-6205.373534,-444.123565
4133.062300,3404.947333,-6894.859482,148.041188
4133.062624,5699.585753,-7737.564530,148.041188
4133.062949,9030.512492,-8810.098227,-222.061783
4133.063273,10584.944971,-9806.022374,370.102971
4133.063597,8438.347739,-10112.460574,0.000000
4133.063922,5699.585753,-11874.480219,222.061783
4133.064246,2294.638420,-10112.460574,222.061783
4133.064571,-1850.514855,-10265.679673,0.000000
4133.064895,-6439.791695,-9193.145976,74.020594
4133.065219,-8882.471304,-7737.564530,444.123565
4133.065544,-8512.368333,-6818.249932,0.000000
4133.065868,-8142.265362,-6358.592633,74.020594
4133.066193,-4811.338623,-6205.373534,222.061783
4133.066517,-2442.679609,-6128.763984,-518.144159
4133.066842,2664.741391,-7814.174080,-222.061783
4133.067166,6291.750507,-8656.879127,-1184.329507
4133.067490,8290.306550,-10112.460574,-370.102971
4133.067815,8142.265362,-9729.412825,370.102971
4133.068139,6069.688724,-11108.384721,-370.102971
4133.068464,3108.864956,-10342.289223,-444.123565
4133.068788,-518.144159,-9806.022374,-740.205942
4133.069112,-3923.091493,-9116.536426,444.123565
4133.069437,-7179.997637,-7967.393179,-74.020594
4133.069761,-8586.388927,-7201.297681,-370.102971
4133.070086,-6587.832884,-6281.983084,-444.123565
4133.070410,-3775.050304,-5745.716235,-518.144159
4133.070734,518.144159,-6818.249932,0.000000
4133.071059,4737.318029,-7354.516781,0.000000
4133.071383,7328.038826,-8503.660028,0.000000
4133.071708,9696.697840,-9499.584175,296.082377
4133.072032,10584.944971,-10725.336972,0.000000
4133.072356,8142.265362,-11951.089769,-296.082377
4133.072681,4811.338623,-10955.165621,-370.102971
4133.073005,888.247130,-9882.631924,74.020594
4133.073330,-3701.029710,-9806.022374,0.000000
4133.073654,-6143.709319,-8503.660028,-1110.308913
4133.073978,-9252.574275,-7507.735880,222.061783
4133.074303,-9030.512492,-6588.421283,222.061783
4133.074627,-7105.977043,-6128.763984,-518.144159
4133.074952,-3701.029710,-5975.544884,-296.082377
4133.075276,370.102971,-7354.516781,-370.102971
4133.075601,4219.173869,-7584.345430,-1332.370696
4133.075925,7179.997637,-8963.317327,-740.205942
4133.076249,9622.677246,-9652.803275,888.247130
4133.076574,9326.594869,-10035.851024,-1184.329507
4133.076898,6439.791695,-12180.918418,-296.082377
4133.077223,2072.576638,-10035.851024,-1332.370696
4133.077547,-2146.597232,-9959.241474,-592.164754
4133.077871,-4737.318029,-8810.098227,-1628.453072
4133.078196,-7476.080014,-8044.002729,222.061783
4133.078520,-8512.368333,-6205.373534,-370.102971
4133.078845,-6291.750507,-6741.640382,-444.123565
4133.079169,-2812.782580,-6435.202183,-370.102971
4133.079493,2886.803174,-6588.421283,-222.061783
4133.079818,6365.771101,-7584.345430,-888.247130
4133.080142,8956.491898,-9422.974625,-666.185348
4133.080467,9474.636058,-9882.631924,74.020594
4133.080791,8216.285956,-11184.994271,370.102971
4133.081115,6439.791695,-11644.651570,-666.185348
4133.081440,2960.823768,-11568.042020,-592.164754
4133.081764,-1406.391290,-9499.584175,0.000000
4133.082089,-4515.256246,-8733.488677,-444.123565
4133.082413,-7550.100608,-8120.612279,-962.267725
4133.082737,-8512.368333,-7814.174080,0.000000
4133.083062,-8660.409521,-6128.763984,-74.020594
4133.083386,-5403.503377,-6435.202183,444.123565
4133.083711,-2368.659014,-5898.935335,-444.123565
4133.084035,2368.659014,-7967.393179,148.041188
4133.084359,4959.379811,-7660.954980,-1702.473667
4133.084684,7328.038826,-11031.775171,518.144159
4133.085008,7624.121203,-9422.974625,-1110.308913
4133.085333,7328.038826,-11491.432470,0.000000
4133.085657,4737.318029,-10878.556072,-1110.308913
4133.085982,518.144159,-9422.974625,-222.061783
4133.086306,-3034.844362,-8963.317327,-740.205942
4133.086630,-5921.647536,-9039.926876,-148.041188
4133.086955,-7772.162391,-6971.469032,-296.082377
4133.087279,-8142.265362,-6435.202183,592.164754
4133.087604,-4811.338623,-6435.202183,74.020594
4133.087928,-1258.350101,-6511.811733,74.020594
4133.088252,3997.112087,-7201.297681,-444.123565
4133.088577,7254.018232,-7737.564530,296.082377
4133.088901,9622.677246,-8427.050478,-592.164754
4133.089226,9474.636058,-10035.851024,0.000000
4133.089550,9178.553681,-10725.336972,222.061783
4133.089874,5699.585753,-12180.918418,-222.061783
4133.090199,1998.556043,-10648.727422,-518.144159
4133.090523,-1480.411884,-9499.584175,296.082377
4133.090848,-5551.544565,-8350.440928,-666.185348
4133.091172,-8364.327145,-8120.612279,-222.061783
4133.091496,-9844.739029,-6741.640382,0.000000
4133.091821,-8438.347739,-7124.688131,148.041188
4133.092145,-6217.729913,-6052.154434,-518.144159
4133.092470,-740.205942,-7048.078582,-148.041188
4133.092794,3034.844362,-7584.345430,-1184.329507
4133.093118,5921.647536,-8120.612279,-1628.453072
4133.093443,8808.450710,-9499.584175,74.020594
4133.093767,9400.615463,-9346.365076,-962.267725
4133.094092,6735.874072,-11414.822920,666.185348
4133.094416,3923.091493,-9882.631924,-1480.411884
4133.094740,-962.267725,-10189.070123,-888.247130
4133.095065,-4515.256246,-9422.974625,-1406.391290
4133.095389,-6735.874072,-8427.050478,-1110.308913
4133.095714,-7476.080014,-7354.516781,-740.205942
4133.096038,-7328.038826,-6511.811733,74.020594
4133.096363,-3701.029710,-6281.983084,0.000000
4133.096687,370.102971,-6665.030833,0.000000
4133.097011,4811.338623,-8044.002729,-370.102971
4133.097336,7772.162391,-8503.660028,-962.267725
4133.097660,10066.800811,-9269.755526,-296.082377
4133.097985,10658.965565,-10112.460574,-444.123565
4133.098309,7994.224174,-10572.117872,-222.061783
4133.098633,3701.029710,-10648.727422,148.041188
4133.098958,296.082377,-9652.803275,-296.082377
4133.099282,-3256.906145,-9806.022374,-740.205942
4133.099607,-7031.956449,-8886.707777,-592.164754
4133.099931,-9474.636058,-7277.907231,-740.205942
4133.100255,-9178.553681,-6741.640382,296.082377
4133.100580,-7476.080014,-6358.592633,-444.123565
4133.100904,-3997.112087,-7048.078582,0.000000
4133.101229,518.144159,-6435.202183,-444.123565
4133.101553,4441.235652,-7507.735880,-888.247130
4133.101877,7920.203579,-9193.145976,-74.020594
4133.102202,9030.512492,-9499.584175,-1036.288319
4133.102526,9474.636058,-10955.165621,-296.082377
4133.102851,5107.421000,-10725.336972,-1184.329507
4133.103175,2146.597232,-10418.898773,-222.061783
4133.103499,-3182.885551,-9806.022374,-296.082377
4133.103824,-6217.729913,-8120.612279,-666.185348
4133.104148,-9252.574275,-8197.221829,0.000000
4133.104473,-9030.512492,-7048.078582,74.020594
4133.104797,-6587.832884,-6588.421283,0.000000
4133.105122,-2664.741391,-6281.983084,0.000000
4133.105446,2442.679609,-7201.297681,518.144159
4133.105770,6439.791695,-7660.954980,-444.123565
4133.106095,9252.574275,-9116.536426,-370.102971
4133.106419,9918.759623,-9652.803275,-296.082377
4133.106744,9622.677246,-10572.117872,518.144159
4133.107068,6365.771101,-10342.289223,444.123565
4133.107392,2368.659014,-9806.022374,296.082377
4133.107717,-1110.308913,-10572.117872,148.041188
4133.108041,-5403.503377,-9193.145976,-592.164754
4133.108366,-7846.182985,-8580.269578,296.082377
4133.108690,-9622.677246,-6818.249932,-148.041188
4133.109014,-7994.224174,-7354.516781,740.205942
4133.109339,-5551.544565,-5898.935335,-370.102971
4133.109663,-2368.659014,-7431.126331,0.000000
4133.109988,1406.391290,-6281.983084,-888.247130
4133.110312,7105.977043,-8733.488677,0.000000
4133.110636,9178.553681,-7660.954980,-2294.638420
4133.110961,9474.636058,-11414.822920,1924.535449
4133.111285,6809.894666,-9193.145976,-2442.679609
4133.111610,2960.823768,-11261.603821,222.061783
4133.111934,1850.514855,-9806.022374,-1998.556043
4133.112258,-3404.947333,-9576.193725,-74.020594
4133.112583,-5995.668130,-7431.126331,-1184.329507
4133.112907,-8660.409521,-8120.612279,0.000000
4133.113232,-6735.874072,-7277.907231,0.000000
4133.113556,-4737.318029,-6358.592633,-296.082377
4133.113880,-888.247130,-6971.469032,0.000000
4133.114205,2812.782580,-6588.421283,-740.205942
4133.114529,6439.791695,-8810.098227,-814.226536
4133.114854,9770.718434,-9499.584175,-740.205942
4133.115178,9992.780217,-10418.898773,-222.061783
4133.115502,8586.388927,-11261.603821,-222.061783
4133.115827,5181.441594,-11338.213370,370.102971
4133.116151,1406.391290,-10572.117872,-518.144159
4133.116475,-1924.535449,-9959.241474,-666.185348
4133.116800,-5995.668130,-8963.317327,0.000000
4133.117124,-8660.409521,-7890.783629,-296.082377
4133.117448,-9474.636058,-7354.516781,0.000000
4133.117773,-7846.182985,-6665.030833,-296.082377
4133.118097,-5403.503377,-6665.030833,-222.061783
4133.118421,-518.144159,-7354.516781,0.000000
4133.118746,4367.215058,-7890.783629,0.000000
4133.119070,7031.956449,-8810.098227,-962.267725
4133.119394,8660.409521,-9269.755526,-592.164754
4133.119719,8586.388927,-10265.679673,-1110.308913
4133.120043,5773.606348,-11568.042020,-296.082377
4133.120367,2960.823768,-10112.460574,-1332.370696
4133.120692,-1184.329507,-9806.022374,-592.164754
4133.121016,-4737.318029,-9269.755526,-1480.411884
4133.121340,-7476.080014,-7660.954980,-518.144159
4133.121665,-7994.224174,-7277.907231,222.061783
4133.121989,-7254.018232,-5745.716235,-518.144159
4133.122313,-3478.967927,-6818.249932,518.144159
4133.122638,296.082377,-6741.640382,-296.082377
4133.122962,5329.482782,-8580.269578,1110.308913
4133.123286,7846.182985,-7431.126331,-296.082377
4133.123611,10288.862594,-8197.221829,370.102971
4133.123935,11103.089130,-10418.898773,74.020594
4133.124259,7105.977043,-11338.213370,296.082377
4133.124584,4071.132681,-10648.727422,-296.082377
4133.124908,0.000000,-10189.070123,-222.061783
4133.125232,-4071.132681,-10112.460574,-296.082377
4133.125557,-7105.977043,-8503.660028,-370.102971
4133.125881,-9252.574275,-7584.345430,-296.082377
4133.126205,-8512.368333,-6818.249932,0.000000
4133.126530,-6883.915261,-6205.373534,-148.041188
4133.126854,-3404.947333,-6205.373534,222.061783
4133.127178,1184.329507,-7507.735880,-518.144159
4133.127503,4293.194464,-8120.612279,444.123565
4133.127827,7772.162391,-8963.317327,-1332.370696
4133.128151,8216.285956,-9729.412825,-296.082377
4133.128476,8290.306550,-11184.994271,-370.102971
4133.128800,5033.400406,-10418.898773,-888.247130
4133.129124,1036.288319,-10418.898773,-740.205942
4133.129449,-2294.638420,-9882.631924,-962.267725
4133.129773,-5921.647536,-9039.926876,-296.082377
4133.130097,-8512.368333,-7201.297681,-814.226536
4133.130422,-8216.285956,-7507.735880,518.144159
4133.130746,-5699.585753,-6128.763984,-296.082377
4133.131070,-3182.885551,-6971.469032,148.041188
4133.131395,2590.720797,-7201.297681,814.226536
4133.131719,6291.750507,-7967.393179,0.000000
4133.132043,8956.491898,-8963.317327,-888.247130
4133.132368,9548.656652,-9959.241474,370.102971
4133.132692,8438.347739,-10189.070123,0.000000
4133.133016,5255.462188,-11338.213370,222.061783
4133.133341,2072.576638,-10572.117872,-740.205942
4133.133665,-1258.350101,-10418.898773,518.144159
4133.133989,-5773.606348,-9346.365076,-1036.288319
4133.134314,-7328.038826,-9116.536426,0.000000
4133.134638,-8882.471304,-7890.783629,-518.144159
4133.134962,-8216.285956,-5898.935335,-370.102971
4133.135287,-4219.173869,-6741.640382,0.000000
4133.135611,-814.226536,-6894.859482,-444.123565
4133.135935,1406.391290,-7431.126331,666.185348
4133.136260,5995.668130,-6971.469032,-1406.391290
4133.136584,8808.450710,-9346.365076,0.000000
4133.136908,8808.450710,-10725.336972,-1110.308913
4133.137233,6735.874072,-11261.603821,-666.185348
4133.137557,2294.638420,-10495.508323,-666.185348
4133.137881,148.041188,-10648.727422,-1628.453072
4133.138206,-2886.803174,-9422.974625,-740.205942
4133.138530,-5181.441594,-7507.735880,-740.205942
4133.138854,-7994.224174,-6741.640382,-296.082377
4133.139179,-7328.038826,-6971.469032,74.020594
4133.139503,-4219.173869,-6741.640382,-592.164754
4133.139828,-1258.350101,-6665.030833,1036.288319
4133.140152,4515.256246,-6971.469032,-444.123565
4133.140476,6957.935855,-7890.783629,-518.144159
4133.140801,9548.656652,-9269.755526,-518.144159
4133.141125,10584.944971,-11031.775171,0.000000
4133.141449,8512.368333,-10572.117872,-592.164754
4133.141774,5625.565159,-11797.870669,296.082377
4133.142098,1554.432478,-10035.851024,-1184.329507
4133.142422,-2664.741391,-10035.851024,666.185348
4133.142747,-6069.688724,-8810.098227,-666.185348
4133.143071,-7550.100608,-8656.879127,-962.267725
4133.143395,-8734.430116,-7277.907231,-592.164754
4133.143720,-7476.080014,-5286.058936,74.020594
4133.144044,-3552.988522,-6971.469032,0.000000
4133.144368,-444.123565,-6741.640382,0.000000
4133.144693,3034.844362,-7814.174080,0.000000
4133.145017,6735.874072,-7354.516781,-1924.535449
4133.145341,7846.182985,-10725.336972,148.041188
4133.145666,9770.718434,-9346.365076,-1258.350101
4133.145990,5847.626942,-11108.384721,296.082377
4133.146314,2812.782580,-9576.193725,-1776.494261
4133.146639,-1628.453072,-11184.994271,-296.082377
4133.146963,-4737.318029,-9039.926876,-814.226536
4133.147287,-7772.162391,-8656.879127,-148.041188
4133.147612,-7031.956449,-7048.078582,-518.144159
4133.147936,-6809.894666,-6052.154434,222.061783
4133.148260,-3256.906145,-6894.859482,222.061783
4133.148585,518.144159,-7048.078582,-74.020594
4133.148909,4293.194464,-7124.688131,222.061783
4133.149233,7328.038826,-8044.002729,444.123565
4133.149558,9252.574275,-8886.707777,-296.082377
4133.149882,10066.800811,-10955.165621,74.020594
4133.150206,7994.224174,-11338.213370,-592.164754
4133.150531,4293.194464,-10955.165621,296.082377
4133.150855,-518.144159,-10648.727422,-962.267725
4133.151179,-4145.153275,-10035.851024,222.061783
4133.151504,-6217.729913,-7890.783629,-296.082377
4133.151828,-8956.491898,-8273.831378,-814.226536
4133.152152,-8142.265362,-6205.373534,0.000000
4133.152477,-6217.729913,-5898.935335,222.061783
4133.152801,-4219.173869,-6741.640382,-666.185348
4133.153125,592.164754,-7277.907231,444.123565
4133.153450,3552.988522,-7124.688131,-296.082377
4133.153774,6587.832884,-9116.536426,-370.102971
4133.154098,9030.512492,-8810.098227,-888.247130
4133.154423,7994.224174,-10955.165621,-1184.329507
4133.154747,5847.626942,-10572.117872,-740.205942
4133.155071,2368.659014,-9806.022374,0.000000
4133.155396,-2368.659014,-9729.412825,-1332.370696
4133.155720,-4515.256246,-8733.488677,-666.185348
4133.156044,-7328.038826,-8733.488677,-370.102971
4133.156369,-9474.636058,-6128.763984,-74.020594
4133.156693,-5107.421000,-6741.640382,592.164754
4133.157017,-2220.617826,-5975.544884,-1184.329507
4133.157342,-296.082377,-7890.783629,1332.370696
4133.157666,5255.462188,-5669.106685,-518.144159
4133.157990,7550.100608,-10342.289223,-296.082377
4133.158315,10732.986159,-9806.022374,74.020594
4133.158639,10362.883188,-9806.022374,-740.205942
4133.158963,7031.956449,-11414.822920,148.041188
4133.159288,3552.988522,-10495.508323,-888.247130
4133.159612,-1258.350101,-10112.460574,0.000000
4133.159936,-4737.318029,-10418.898773,0.000000
4133.160261,-7105.977043,-8350.440928,-888.247130
4133.160585,-7920.203579,-7201.297681,370.102971
4133.160909,-7920.203579,-5822.325785,148.041188
4133.161234,-5181.441594,-6894.859482,-296.082377
4133.161558,-2146.597232,-7124.688131,-1110.308913
4133.161882,1258.350101,-7277.907231,74.020594
4133.162207,5847.626942,-7814.174080,-666.185348
4133.162531,7550.100608,-9422.974625,74.020594
4133.162855,9104.533087,-9806.022374,-1184.329507
4133.163180,7328.038826,-11184.994271,518.144159
4133.163504,4145.153275,-8963.317327,-1850.514855
4133.163829,666.185348,-11644.651570,-148.041188
4133.164153,-4367.215058,-9346.365076,-1702.473667
4133.164477,-5995.668130,-8810.098227,-888.247130
4133.164802,-7624.121203,-8656.879127,-444.123565
4133.165126,-7994.224174,-5056.230287,74.020594
4133.165450,-3997.112087,-6281.983084,1258.350101
4133.165775,-1110.308913,-5592.497135,-1480.411884
4133.166099,3849.070898,-7967.393179,740.205942
4133.166423,7031.956449,-6128.763984,-740.205942
4133.166748,9178.553681,-10495.508323,1628.453072
4133.167072,10214.842000,-9422.974625,-444.123565
4133.167396,8438.347739,-10878.556072,740.205942
4133.167721,4515.256246,-11184.994271,-444.123565
4133.168045,1406.391290,-11644.651570,-1184.329507
4133.168369,-2886.803174,-9806.022374,-592.164754
4133.168694,-5773.606348,-8503.660028,-592.164754
4133.169018,-7550.100608,-8427.050478,-592.164754
4133.169342,-9474.636058,-6588.421283,148.041188
4133.169667,-8068.244768,-4979.620737,0.000000
4133.169991,-4367.215058,-6281.983084,222.061783
4133.170315,-222.061783,-7048.078582,-370.102971
4133.170640,2738.761985,-7507.735880,148.041188
4133.170964,7179.997637,-7967.393179,-1998.556043
4133.171288,8142.265362,-10265.679673,592.164754
4133.171613,8660.409521,-9959.241474,-1628.453072
4133.171937,6809.894666,-11414.822920,592.164754
4133.172261,2664.741391,-9576.193725,-1776.494261
4133.172586,592.164754,-11184.994271,-444.123565
4133.172910,-3775.050304,-8886.707777,-1036.288319
4133.173234,-6735.874072,-7354.516781,-518.144159
4133.173559,-6513.812290,-7890.783629,444.123565
4133.173883,-7105.977043,-5286.058936,222.061783
4133.174207,-3849.070898,-7201.297681,518.144159
4133.174532,-1036.288319,-5362.668486,-2072.576638
4133.174856,3627.009116,-9806.022374,518.144159
4133.175180,6513.812290,-6588.421283,148.041188
4133.175505,9918.759623,-9959.241474,-666.185348
4133.175829,8290.306550,-11644.651570,0.000000
4133.176153,7031.956449,-10725.336972,-296.082377
4133.176478,3923.091493,-11721.261119,-370.102971
4133.176802,0.000000,-10648.727422,-962.267725
4133.177126,-2516.700203,-9806.022374,518.144159
4133.177451,-7550.100608,-8273.831378,-370.102971
4133.177775,-7105.977043,-7354.516781,-1184.329507
4133.178099,-6809.894666,-7431.126331,444.123565
4133.178424,-7179.997637,-5056.230287,-518.144159
4133.178748,-3404.947333,-7124.688131,962.267725
4133.179072,0.000000,-6511.811733,-888.247130
4133.179397,5107.421000,-8503.660028,-296.082377
4133.179721,6809.894666,-7890.783629,-592.164754
4133.180045,7994.224174,-11184.994271,-1036.288319
4133.180370,7994.224174,-10495.508323,-888.247130
4133.180694,5995.668130,-9882.631924,-666.185348
4133.181018,2072.576638,-10265.679673,-740.205942
4133.181343,-2442.679609,-10495.508323,-1036.288319
4133.181667,-5107.421000,-7967.393179,-1332.370696
4133.181991,-7846.182985,-9116.536426,-296.082377
4133.182316,-8438.347739,-5132.839837,-888.247130
4133.182640,-4515.256246,-6971.469032,1110.308913
4133.182964,-2368.659014,-5898.935335,-1628.453072
4133.183289,814.226536,-9269.755526,1554.432478
4133.183613,5181.441594,-5898.935335,-1332.370696
4133.183937,7550.100608,-9499.584175,-222.061783
4133.184262,10436.903782,-10725.336972,-518.144159
4133.184586,8364.327145,-10495.508323,222.061783
4133.184910,6143.709319,-11338.213370,296.082377
4133.185235,2442.679609,-10112.460574,-740.205942
4133.185559,-962.267725,-11261.603821,0.000000
4133.185883,-4811.338623,-8733.488677,-222.061783
4133.186208,-6217.729913,-7354.516781,-1406.391290
4133.186532,-8438.347739,-8273.831378,-74.020594
4133.186856,-8142.265362,-6052.154434,-518.144159
4133.187181,-4737.318029,-6588.421283,222.061783
4133.187505,-3330.926739,-7048.078582,-814.226536
4133.187829,1406.391290,-7814.174080,666.185348
4133.188154,5403.503377,-7354.516781,-1332.370696
4133.188478,7994.224174,-10418.898773,296.082377
4133.188803,8882.471304,-10342.289223,-1036.288319
4133.189127,7698.141797,-10878.556072,-740.205942
4133.189451,3997.112087,-10112.460574,-444.123565
4133.189776,1406.391290,-9959.241474,-1406.391290
4133.190100,-3330.926739,-9959.241474,-666.185348
4133.190424,-4959.379811,-7354.516781,-1480.411884
4133.190749,-6217.729913,-8350.440928,592.164754
4133.191073,-7476.080014,-4903.011187,-370.102971
4133.191397,-3627.009116,-6741.640382,222.061783
4133.191722,-1702.473667,-7048.078582,-1258.350101
4133.192046,2516.700203,-8044.002729,1480.411884
4133.192370,5921.647536,-6435.202183,-518.144159
4133.192695,9178.553681,-10035.851024,74.020594
4133.193019,9844.739029,-9576.193725,-444.123565
4133.193343,8068.244768,-10189.070123,0.000000
4133.193668,5625.565159,-10955.165621,-518.144159
4133.193992,1406.391290,-11031.775171,-592.164754
4133.194316,-2072.576638,-10495.508323,-518.144159
4133.194641,-5329.482782,-8503.660028,-666.185348
4133.194965,-7698.141797,-8580.269578,-148.041188
4133.195289,-8882.471304,-6435.202183,-518.144159
4133.195614,-6735.874072,-6588.421283,0.000000
4133.195938,-4811.338623,-7048.078582,-296.082377
4133.196262,-518.144159,-6818.249932,0.000000
4133.196587,3849.070898,-6818.249932,-222.061783
4133.196911,6439.791695,-9039.926876,-518.144159
4133.197235,8660.409521,-9346.365076,-888.247130
4133.197560,8808.450710,-9729.412825,-370.102971
4133.197884,6143.709319,-10265.679673,-1036.288319
4133.198208,2886.803174,-10495.508323,-444.123565
4133.198533,-1184.329507,-10495.508323,-1110.308913
4133.198857,-3627.009116,-9576.193725,-962.267725
4133.199181,-7476.080014,-7890.783629,-370.102971
4133.199506,-7402.059420,-6665.030833,0.000000
4133.199830,-6513.812290,-5975.544884,0.000000
4133.200154,-3775.050304,-6741.640382,-222.061783
4133.200479,1036.288319,-7124.688131,370.102971
4133.200803,4293.194464,-6052.154434,0.000000
4133.201127,9030.512492,-8886.707777,1036.288319
4133.201452,9474.636058,-9422.974625,-740.205942
4133.201776,10362.883188,-12180.918418,888.247130
4133.202100,7105.977043,-11338.213370,-1110.308913
4133.202425,2886.803174,-12180.918418,-296.082377
4133.202749,-592.164754,-10495.508323,-370.102971
4133.203073,-4145.153275,-9193.145976,-666.185348
4133.203398,-7328.038826,-9346.365076,0.000000
4133.203722,-9252.574275,-6358.592633,-666.185348
4133.204046,-7402.059420,-6818.249932,222.061783
4133.204371,-6439.791695,-5209.449386,-1184.329507
4133.204695,-1480.411884,-7354.516781,888.247130
4133.205019,0.000000,-4903.011187,-740.205942
4133.205344,5107.421000,-8350.440928,962.267725
4133.205668,7031.956449,-8044.002729,-740.205942
4133.205992,9400.615463,-10648.727422,-444.123565
4133.206317,7550.100608,-10725.336972,-1554.432478
4133.206641,5033.400406,-11644.651570,-1036.288319
4133.206965,740.205942,-10801.946522,-1110.308913
4133.207290,-2220.617826,-10189.070123,-1036.288319
4133.207614,-4737.318029,-9193.145976,-1036.288319
4133.207938,-7254.018232,-6971.469032,-74.020594
4133.208263,-6957.935855,-6128.763984,-296.082377
4133.208587,-5921.647536,-6281.983084,-962.267725
4133.208911,-444.123565,-7431.126331,-518.144159
4133.209236,-2590.720797,-6281.983084,-518.144159
4133.209560,7105.977043,-8350.440928,518.144159
4133.209884,6365.771101,-8350.440928,-962.267725
4133.210209,10436.903782,-12334.137518,222.061783
4133.210533,9400.615463,-10878.556072,-962.267725
4133.210857,6069.688724,-11951.089769,-296.082377
4133.211182,2738.761985,-10725.336972,222.061783
4133.211506,-2294.638420,-9652.803275,-1110.308913
4133.211830,-5033.400406,-10725.336972,148.041188
4133.212155,-7328.038826,-7814.174080,-1406.391290
4133.212479,-7550.100608,-7660.954980,296.082377
4133.212804,-7846.182985,-4673.182538,-592.164754
4133.213128,-4515.256246,-6588.421283,74.020594
4133.213452,-1998.556043,-6281.983084,-592.164754
4133.213777,1702.473667,-6511.811733,0.000000
4133.214101,4959.379811,-7890.783629,0.000000
4133.214425,7624.121203,-9959.241474,-518.144159
4133.214750,8808.450710,-10572.117872,-1036.288319
4133.215074,7105.977043,-11414.822920,-888.247130
4133.215398,4737.318029,-9652.803275,-592.164754
4133.215722,666.185348,-11031.775171,-888.247130
4133.216047,-3478.967927,-8810.098227,-1480.411884
4133.216371,-3330.926739,-8810.098227,592.164754
4133.216695,-8956.491898,-7201.297681,-962.267725
4133.217020,-6957.935855,-6435.202183,0.000000
4133.217344,-4663.297435,-5362.668486,-1036.288319
4133.217668,-2664.741391,-7584.345430,518.144159
4133.217993,3923.091493,-6052.154434,296.082377
4133.218317,4811.338623,-8273.831378,222.061783
4133.218641,8882.471304,-10035.851024,370.102971
4133.218966,11769.274478,-9116.536426,-592.164754
4133.219290,8808.450710,-11644.651570,-296.082377
4133.219614,7254.018232,-10648.727422,-148.041188
4133.219939,3034.844362,-10265.679673,740.205942
4133.220263,-2220.617826,-10725.336972,-740.205942
4133.220587,-5329.482782,-8580.269578,-444.123565
4133.220912,-8660.409521,-7814.174080,-222.061783
4133.221236,-9326.594869,-5592.497135,-518.144159
4133.221560,-6957.935855,-6052.154434,962.267725
4133.221885,-5921.647536,-6128.763984,-1184.329507
4133.222209,-1776.494261,-7584.345430,814.226536
4133.222533,3034.844362,-5209.449386,-888.247130
4133.222857,5699.585753,-10342.289223,518.144159
4133.223182,9252.574275,-9346.365076,-1406.391290
4133.223506,9474.636058,-10725.336972,296.082377
4133.223830,6439.791695,-10648.727422,-666.185348
4133.224155,4367.215058,-10648.727422,-1184.329507
4133.224479,74.020594,-10418.898773,-814.226536
4133.224803,-4441.235652,-8886.707777,74.020594
4133.225128,-8364.327145,-7354.516781,-1480.411884
4133.225452,-8956.491898,-7201.297681,0.000000
4133.225776,-7105.977043,-6511.811733,0.000000
4133.226101,-4219.173869,-6205.373534,0.000000
4133.226425,1184.329507,-7431.126331,-518.144159
4133.226749,4737.318029,-6665.030833,296.082377
4133.227074,6809.894666,-8427.050478,148.041188
4133.227398,9770.718434,-9576.193725,-296.082377
4133.227722,10584.944971,-11261.603821,888.247130
4133.228047,8956.491898,-10878.556072,0.000000
4133.228371,5033.400406,-10955.165621,-518.144159
4133.228695,444.123565,-10878.556072,-962.267725
4133.229020,-3182.885551,-9806.022374,-222.061783
4133.229344,-7254.018232,-7890.783629,-1110.308913
4133.229668,-9622.677246,-7967.393179,74.020594
4133.229992,-9252.574275,-5515.887586,222.061783
4133.230317,-6957.935855,-6894.859482,444.123565
4133.230641,-4071.132681,-6588.421283,-1184.329507
4133.230965,592.164754,-7048.078582,222.061783
4133.231290,4219.173869,-7660.954980,-1258.350101
4133.231614,7624.121203,-9806.022374,-962.267725
4133.231938,9696.697840,-9806.022374,-888.247130
4133.232263,7920.203579,-11338.213370,-222.061783
4133.232587,6217.729913,-10648.727422,-1628.453072
4133.232911,1998.556043,-10495.508323,-888.247130
4133.233236,-1554.432478,-9806.022374,0.000000
4133.233560,-6587.832884,-7890.783629,0.000000
4133.233884,-9474.636058,-7431.126331,-740.205942
4133.234209,-10140.821405,-6971.469032,-370.102971
4133.234533,-7105.977043,-5975.544884,0.000000
4133.234857,-3330.926739,-6358.592633,-740.205942
4133.235182,2072.576638,-7124.688131,814.226536
4133.235506,6439.791695,-7507.735880,0.000000
4133.235830,10584.944971,-9652.803275,-1036.288319
4133.236155,11843.295072,-10725.336972,-222.061783
4133.236479,11103.089130,-10725.336972,0.000000
4133.236803,8142.265362,-10725.336972,1184.329507
4133.237128,3256.906145,-10035.851024,-962.267725
4133.237452,-962.267725,-10265.679673,0.000000
4133.237776,-5995.668130,-8733.488677,-148.041188
4133.238100,-9696.697840,-8273.831378,-148.041188
4133.238425,-10436.903782,-7124.688131,0.000000
4133.238749,-9030.512492,-6894.859482,-148.041188
4133.239073,-6809.894666,-6358.592633,-592.164754
4133.239398,-3552.988522,-7124.688131,0.000000
4133.239722,1998.556043,-7507.735880,222.061783
4133.240046,6439.791695,-7890.783629,-1554.432478
4133.240371,10214.842000,-9346.365076,296.082377
4133.240695,10362.883188,-8350.440928,-814.226536
4133.241019,8290.306550,-10189.070123,0.000000
4133.241344,4959.379811,-10648.727422,-962.267725
4133.241668,222.061783,-10418.898773,-592.164754
4133.241992,-4071.132681,-9422.974625,-518.144159
4133.242317,-7772.162391,-7890.783629,-888.247130
4133.242641,-9252.574275,-8120.612279,0.000000
4133.242965,-8438.347739,-6052.154434,-888.247130
4133.243290,-5033.400406,-6818.249932,666.185348
4133.243614,-2738.761985,-7048.078582,0.000000
4133.243938,3849.070898,-7201.297681,296.082377
4133.244263,7550.100608,-7354.516781,-814.226536
4133.244587,11769.274478,-9806.022374,-296.082377
4133.244911,12953.603985,-9039.926876,-592.164754
4133.245235,9622.677246,-9806.022374,222.061783
4133.245560,6143.709319,-10955.165621,-296.082377
4133.245884,222.061783,-10495.508323,-666.185348
4133.246208,-3256.906145,-10801.946522,666.185348
4133.246533,-7772.162391,-8120.612279,-518.144159
4133.246857,-9622.677246,-8427.050478,0.000000
4133.247181,-11251.130318,-7048.078582,444.123565
4133.247506,-8290.306550,-6511.811733,-888.247130
4133.247830,-5329.482782,-7431.126331,-888.247130
4133.248154,-888.247130,-7277.907231,444.123565
4133.248479,4515.256246,-5898.935335,296.082377
4133.248803,8660.409521,-8963.317327,-296.082377
4133.249127,10658.965565,-10572.117872,-2294.638420
4133.249452,11399.171507,-10418.898773,-370.102971
4133.249776,6661.853478,-10265.679673,-1258.350101
4133.250100,3404.947333,-11414.822920,0.000000
4133.250425,-518.144159,-9039.926876,-370.102971
4133.250749,-5033.400406,-10035.851024,-148.041188
4133.251073,-7846.182985,-8197.221829,-1332.370696
4133.251398,-9252.574275,-7354.516781,222.061783
4133.251722,-8364.327145,-6128.763984,814.226536
4133.252046,-6439.791695,-6358.592633,0.000000
4133.252370,-592.164754,-7354.516781,-740.205942
4133.252695,4663.297435,-7354.516781,-370.102971
4133.253019,8586.388927,-8044.002729,74.020594
4133.253343,11029.068536,-8427.050478,-370.102971
4133.253668,12805.562797,-10725.336972,-444.123565
4133.253992,9400.615463,-11338.213370,-1036.288319
4133.254316,4811.338623,-11414.822920,-222.061783
4133.254641,888.247130,-9882.631924,518.144159
4133.254965,-4441.235652,-10342.289223,666.185348
4133.255289,-5625.565159,-8350.440928,0.000000
4133.255614,-8142.265362,-7354.516781,-296.082377
4133.255938,-10510.924376,-5898.935335,-296.082377
4133.256262,-8956.491898,-6281.983084,962.267725
4133.256587,-5699.585753,-6741.640382,-1184.329507
4133.256911,-296.082377,-8044.002729,-222.061783
4133.257235,3034.844362,-7124.688131,-740.205942
4133.257560,8364.327145,-8810.098227,-814.226536
4133.257884,9474.636058,-8580.269578,-444.123565
4133.258208,9252.574275,-10265.679673,-1554.432478
4133.258533,7920.203579,-11414.822920,-1850.514855
4133.258857,1998.556043,-10801.946522,370.102971
4133.259181,-2368.659014,-9882.631924,74.020594
4133.259506,-5255.462188,-8120.612279,-518.144159
4133.259830,-7550.100608,-8503.660028,-666.185348
4133.260154,-9548.656652,-6588.421283,-444.123565
4133.260478,-8068.244768,-5439.278036,740.205942
4133.260803,-5477.523971,-6818.249932,222.061783
4133.261127,0.000000,-7507.735880,-296.082377
4133.261451,5107.421000,-8044.002729,518.144159
4133.261776,8660.409521,-8733.488677,-1480.411884
4133.262100,11769.274478,-10035.851024,0.000000
4133.262424,12287.418637,-9806.022374,-222.061783
4133.262749,9918.759623,-10955.165621,-1036.288319
4133.263073,4515.256246,-10342.289223,-592.164754
4133.263397,-222.061783,-10112.460574,1110.308913
4133.263722,-4811.338623,-9116.536426,814.226536
4133.264046,-8068.244768,-7584.345430,-370.102971
4133.264370,-10140.821405,-7354.516781,-148.041188
4133.264695,-11695.253884,-5745.716235,-444.123565
4133.265019,-9030.512492,-7431.126331,444.123565
4133.265343,-3997.112087,-6128.763984,-1332.370696
4133.265668,740.205942,-8120.612279,1776.494261
4133.265992,6439.791695,-6665.030833,-1036.288319
4133.266316,10140.821405,-10725.336972,-888.247130
4133.266641,12139.377449,-9422.974625,-1628.453072
4133.266965,8660.409521,-11184.994271,-1850.514855
4133.267289,7624.121203,-10801.946522,-1184.329507
4133.267613,222.061783,-9806.022374,0.000000
4133.267938,-3701.029710,-9959.241474,0.000000
4133.268262,-7105.977043,-8810.098227,-370.102971
4133.268586,-9696.697840,-7354.516781,-1332.370696
4133.268911,-9770.718434,-6588.421283,814.226536
4133.269235,-7476.080014,-5822.325785,296.082377
4133.269559,-4441.235652,-6894.859482,-222.061783
4133.269884,1776.494261,-7967.393179,0.000000
4133.270208,5995.668130,-7660.954980,-518.144159
4133.270532,10584.944971,-9116.536426,-666.185348
4133.270857,14137.933492,-9729.412825,-1110.308913
4133.271181,13249.686362,-11108.384721,-1776.494261
4133.271505,9400.615463,-11261.603821,-592.164754
4133.271830,2886.803174,-10189.070123,-518.144159
4133.272154,-2664.741391,-10572.117872,814.226536
4133.272478,-7402.059420,-9346.365076,444.123565
4133.272803,-9104.533087,-7507.735880,74.020594
4133.273127,-10436.903782,-6894.859482,-1184.329507
4133.273451,-10658.965565,-6588.421283,222.061783
4133.273776,-7031.956449,-6358.592633,0.000000
4133.274100,-1036.288319,-6894.859482,-740.205942
4133.274424,2960.823768,-8197.221829,444.123565
4133.274748,8512.368333,-7124.688131,-518.144159
4133.275073,12435.459826,-8350.440928,-1184.329507
4133.275397,11547.212695,-10955.165621,-1332.370696
4133.275721,8882.471304,-10495.508323,-2664.741391
4133.276046,3627.009116,-11491.432470,-814.226536
4133.276370,-1924.535449,-9806.022374,-518.144159
4133.276694,-6069.688724,-9806.022374,0.000000
4133.277019,-8956.491898,-8427.050478,-592.164754
4133.277343,-9474.636058,-8273.831378,-666.185348
4133.277667,-9474.636058,-5669.106685,-296.082377
4133.277992,-7105.977043,-7354.516781,1110.308913
4133.278316,-296.082377,-6971.469032,-740.205942
4133.278640,3775.050304,-8503.660028,296.082377
4133.278965,9696.697840,-7507.735880,0.000000
4133.279289,12361.439231,-8044.002729,-518.144159
4133.279613,12953.603985,-10955.165621,-666.185348
4133.279938,9992.780217,-11644.651570,-888.247130
4133.280262,5107.421000,-11108.384721,-888.247130
4133.280586,0.000000,-10418.898773,444.123565
4133.280911,-5255.462188,-9346.365076,-370.102971
4133.281235,-7698.141797,-8580.269578,740.205942
4133.281559,-9770.718434,-7507.735880,444.123565
4133.281884,-10584.944971,-6052.154434,148.041188
4133.282208,-8512.368333,-7124.688131,1036.288319
4133.282532,-4663.297435,-5975.544884,-740.205942
4133.282856,592.164754,-8656.879127,74.020594
4133.283181,4811.338623,-7584.345430,74.020594
4133.283505,8438.347739,-8503.660028,-148.041188
4133.283829,10881.027347,-9422.974625,-1554.432478
4133.284154,10658.965565,-10725.336972,-1554.432478
4133.284478,6661.853478,-10572.117872,-1776.494261
4133.284802,2072.576638,-9882.631924,0.000000
4133.285127,-2886.803174,-10189.070123,0.000000
4133.285451,-6661.853478,-9116.536426,740.205942
4133.285775,-9548.656652,-7201.297681,-296.082377
4133.286100,-9770.718434,-6741.640382,-888.247130
4133.286424,-8438.347739,-6818.249932,740.205942
4133.286748,-5033.400406,-6205.373534,148.041188
4133.287073,592.164754,-7048.078582,0.000000
4133.287397,6217.729913,-8044.002729,148.041188
4133.287721,9474.636058,-7967.393179,-370.102971
4133.288046,13397.727550,-9576.193725,-814.226536
4133.288370,12361.439231,-10342.289223,-1554.432478
4133.288694,9474.636058,-12180.918418,-740.205942
4133.289019,3701.029710,-10265.679673,-74.020594
4133.289343,-1998.556043,-10035.851024,296.082377
4133.289667,-5995.668130,-9959.241474,-296.082377
4133.289991,-8364.327145,-7431.126331,-518.144159
4133.290316,-9474.636058,-7201.297681,0.000000
4133.290640,-10362.883188,-5439.278036,370.102971
4133.290964,-7179.997637,-7048.078582,148.041188
4133.291289,-2220.617826,-7048.078582,-1110.308913
4133.291613,2812.782580,-9116.536426,740.205942
4133.291937,6587.832884,-5975.544884,-740.205942
