#time,accel_x,accel_y,accel_z
4489.316432,296.082377,-8350.440928,-148.041188
4489.316756,222.061783,-8656.879127,-148.041188
4489.317081,444.123565,-8273.831378,0.000000
4489.317405,296.082377,-8427.050478,0.000000
4489.317729,222.061783,-8273.831378,0.000000
4489.318054,518.144159,-8580.269578,0.000000
4489.318378,370.102971,-8350.440928,0.000000
4489.318702,518.144159,-9116.536426,0.000000
4489.319027,296.082377,-8656.879127,148.041188
4489.319351,370.102971,-9116.536426,444.123565
4489.319675,666.185348,-8273.831378,370.102971
4489.320000,444.123565,-8580.269578,444.123565
4489.320324,222.061783,-8580.269578,296.082377
4489.320648,296.082377,-8810.098227,666.185348
4489.320973,222.061783,-8580.269578,444.123565
4489.321297,296.082377,-8427.050478,666.185348
4489.321621,740.205942,-8733.488677,740.205942
4489.321946,148.041188,-8427.050478,888.247130
4489.322270,222.061783,-8503.660028,444.123565
4489.322594,518.144159,-8580.269578,592.164754
4489.322919,444.123565,-9346.365076,1332.370696
4489.323243,444.123565,-8120.612279,1036.288319
4489.323567,222.061783,-8733.488677,814.226536
4489.323892,444.123565,-8503.660028,814.226536
4489.324216,370.102971,-8197.221829,518.144159
4489.324540,370.102971,-8427.050478,444.123565
4489.324865,518.144159,-8503.660028,666.185348
4489.325189,222.061783,-8427.050478,740.205942
4489.325513,370.102971,-8656.879127,518.144159
4489.325838,518.144159,-7814.174080,814.226536
4489.326162,592.164754,-8656.879127,148.041188
4489.326486,666.185348,-8656.879127,296.082377
4489.326811,518.144159,-8503.660028,222.061783
4489.327135,592.164754,-8580.269578,296.082377
4489.327459,518.144159,-8580.269578,370.102971
4489.327784,592.164754,-8580.269578,0.000000
4489.328108,222.061783,-8810.098227,222.061783
4489.328432,518.144159,-8580.269578,0.000000
4489.328757,592.164754,-8810.098227,-222.061783
4489.329081,518.144159,-8427.050478,-222.061783
4489.329406,444.123565,-8580.269578,-148.041188
4489.329730,222.061783,-8963.317327,-370.102971
4489.330055,1036.288319,-8197.221829,0.000000
4489.330379,370.102971,-8580.269578,-370.102971
4489.330704,296.082377,-8810.098227,-592.164754
4489.331029,222.061783,-8580.269578,-592.164754
4489.331353,296.082377,-8656.879127,-666.185348
4489.331678,370.102971,-8580.269578,-518.144159
4489.332003,222.061783,-8733.488677,-444.123565
4489.332327,370.102971,-8656.879127,-740.205942
4489.332652,518.144159,-8350.440928,-740.205942
4489.332977,666.185348,-8427.050478,-740.205942
4489.333301,444.123565,-8656.879127,-592.164754
4489.333626,814.226536,-7967.393179,-888.247130
4489.333950,518.144159,-8733.488677,-666.185348
4489.334275,444.123565,-8963.317327,-814.226536
4489.334600,518.144159,-8733.488677,-592.164754
4489.334924,518.144159,-8656.879127,-1184.329507
4489.335249,444.123565,-8810.098227,-962.267725
4489.335574,518.144159,-8427.050478,-1184.329507
4489.335898,666.185348,-8810.098227,-962.267725
4489.336223,296.082377,-8503.660028,-1258.350101
4489.336548,518.144159,-8963.317327,-1258.350101
4489.336872,444.123565,-8503.660028,-1406.391290
4489.337197,740.205942,-8656.879127,-814.226536
4489.337521,444.123565,-8733.488677,-1258.350101
4489.337846,444.123565,-8503.660028,-1258.350101
4489.338171,740.205942,-8656.879127,-1554.432478
4489.338495,814.226536,-8273.831378,-962.267725
4489.338820,444.123565,-8733.488677,-814.226536
4489.339145,370.102971,-8733.488677,-962.267725
4489.339469,222.061783,-8810.098227,-1184.329507
4489.339794,370.102971,-8886.707777,-1110.308913
4489.340119,518.144159,-8886.707777,-1258.350101
4489.340443,74.020594,-8886.707777,-888.247130
4489.340768,0.000000,-8886.707777,-888.247130
4489.341092,0.000000,-8886.707777,-962.267725
4489.341417,296.082377,-8963.317327,-962.267725
4489.341742,222.061783,-8963.317327,-1184.329507
4489.342066,592.164754,-8963.317327,-962.267725
4489.342391,148.041188,-8886.707777,-518.144159
4489.342716,370.102971,-9193.145976,-962.267725
4489.343040,296.082377,-8656.879127,-666.185348
4489.343365,148.041188,-8656.879127,-888.247130
4489.343690,222.061783,-8963.317327,-814.226536
4489.344014,222.061783,-8044.002729,-888.247130
4489.344339,666.185348,-8503.660028,-1036.288319
4489.344663,518.144159,-8810.098227,-740.205942
4489.344988,740.205942,-8886.707777,-666.185348
4489.345313,888.247130,-8656.879127,-518.144159
4489.345637,888.247130,-8886.707777,-370.102971
4489.345962,666.185348,-8427.050478,-592.164754
4489.346287,370.102971,-8733.488677,0.000000
4489.346611,444.123565,-8503.660028,-666.185348
4489.346936,296.082377,-9499.584175,-370.102971
4489.347261,444.123565,-8810.098227,-666.185348
4489.347585,222.061783,-8273.831378,-370.102971
4489.347910,296.082377,-8580.269578,0.000000
4489.348234,370.102971,-8580.269578,-148.041188
4489.348559,740.205942,-8810.098227,0.000000
4489.348884,962.267725,-8580.269578,0.000000
4489.349208,1184.329507,-8810.098227,0.000000
4489.349533,814.226536,-8733.488677,370.102971
4489.349858,592.164754,-9116.536426,444.123565
4489.350182,814.226536,-8580.269578,148.041188
4489.350507,962.267725,-8963.317327,0.000000
4489.350832,740.205942,-8427.050478,222.061783
4489.351156,518.144159,-8810.098227,518.144159
4489.351481,444.123565,-8656.879127,370.102971
4489.351805,888.247130,-8810.098227,518.144159
4489.352130,1184.329507,-8350.440928,370.102971
4489.352455,814.226536,-8810.098227,814.226536
4489.352779,296.082377,-8197.221829,444.123565
4489.353104,888.247130,-8733.488677,740.205942
4489.353429,592.164754,-8656.879127,518.144159
4489.353753,518.144159,-8656.879127,592.164754
4489.354078,518.144159,-9116.536426,814.226536
4489.354403,296.082377,-8580.269578,1110.308913
4489.354727,148.041188,-8197.221829,962.267725
4489.355052,296.082377,-8580.269578,1110.308913
4489.355376,222.061783,-8273.831378,1036.288319
4489.355701,222.061783,-8427.050478,1184.329507
4489.356026,370.102971,-8656.879127,962.267725
4489.356350,296.082377,-8197.221829,1184.329507
4489.356675,666.185348,-8580.269578,888.247130
4489.357000,74.020594,-7967.393179,1184.329507
4489.357324,148.041188,-8503.660028,962.267725
4489.357649,74.020594,-8503.660028,1036.288319
4489.357974,222.061783,-8273.831378,814.226536
4489.358298,0.000000,-8580.269578,1258.350101
4489.358623,0.000000,-8350.440928,888.247130
4489.358947,222.061783,-8427.050478,888.247130
4489.359272,74.020594,-8350.440928,740.205942
4489.359597,148.041188,-8580.269578,1110.308913
4489.359921,148.041188,-8273.831378,740.205942
4489.360246,74.020594,-8503.660028,814.226536
4489.360571,74.020594,-8350.440928,666.185348
4489.360895,148.041188,-8427.050478,666.185348
4489.361220,740.205942,-8503.660028,666.185348
4489.361545,370.102971,-8656.879127,518.144159
4489.361869,74.020594,-8733.488677,444.123565
4489.362194,74.020594,-8503.660028,592.164754
4489.362518,370.102971,-8733.488677,370.102971
4489.362843,370.102971,-8810.098227,444.123565
4489.363168,296.082377,-8656.879127,148.041188
4489.363492,296.082377,-8733.488677,444.123565
4489.363817,370.102971,-8580.269578,222.061783
4489.364142,370.102971,-8427.050478,296.082377
4489.364466,518.144159,-8810.098227,74.020594
4489.364791,296.082377,-8273.831378,222.061783
4489.365116,222.061783,-8656.879127,74.020594
4489.365440,222.061783,-8273.831378,0.000000
4489.365765,148.041188,-8427.050478,0.000000
4489.366089,0.000000,-8886.707777,74.020594
4489.366414,222.061783,-8886.707777,0.000000
4489.366739,74.020594,-8656.879127,0.000000
4489.367063,518.144159,-8580.269578,0.000000
4489.367388,444.123565,-8350.440928,0.000000
4489.367713,592.164754,-8733.488677,-222.061783
4489.368037,666.185348,-8580.269578,0.000000
4489.368362,962.267725,-8350.440928,0.000000
4489.368686,370.102971,-8503.660028,0.000000
4489.369011,148.041188,-8273.831378,-666.185348
4489.369336,296.082377,-8427.050478,-666.185348
4489.369660,444.123565,-8503.660028,-370.102971
4489.369985,518.144159,-8580.269578,-518.144159
4489.370310,222.061783,-8503.660028,-148.041188
4489.370634,666.185348,-8273.831378,-518.144159
4489.370959,518.144159,-8350.440928,-296.082377
4489.371284,740.205942,-8580.269578,-444.123565
4489.371608,740.205942,-8273.831378,-592.164754
4489.371933,444.123565,-8427.050478,-296.082377
4489.372257,296.082377,-8427.050478,-740.205942
4489.372582,222.061783,-8427.050478,-444.123565
4489.372907,296.082377,-8427.050478,-1036.288319
4489.373231,296.082377,-8656.879127,-814.226536
4489.373556,370.102971,-8580.269578,-592.164754
4489.373881,222.061783,-8197.221829,-592.164754
4489.374205,518.144159,-8580.269578,-592.164754
4489.374530,592.164754,-8427.050478,-444.123565
4489.374855,814.226536,-9116.536426,-370.102971
4489.375179,518.144159,-8273.831378,-148.041188
4489.375504,962.267725,-8427.050478,-296.082377
4489.375828,296.082377,-8810.098227,-444.123565
4489.376153,222.061783,-8886.707777,-518.144159
4489.376478,222.061783,-8656.879127,-222.061783
4489.376802,0.000000,-8197.221829,-148.041188
4489.377127,222.061783,-8733.488677,0.000000
4489.377452,370.102971,-8733.488677,-370.102971
4489.377776,296.082377,-8580.269578,-148.041188
4489.378101,518.144159,-9116.536426,-666.185348
4489.378426,666.185348,-8580.269578,-518.144159
4489.378750,666.185348,-8580.269578,-148.041188
4489.379075,592.164754,-8273.831378,-444.123565
4489.379399,370.102971,-8656.879127,-296.082377
4489.379724,666.185348,-8273.831378,-592.164754
4489.380049,444.123565,-8580.269578,-666.185348
4489.380373,0.000000,-8350.440928,-592.164754
4489.380698,444.123565,-8197.221829,-518.144159
4489.381023,296.082377,-8810.098227,-148.041188
4489.381347,370.102971,-8427.050478,-666.185348
4489.381672,444.123565,-8580.269578,-740.205942
4489.381997,666.185348,-8427.050478,-814.226536
4489.382321,592.164754,-8886.707777,-592.164754
4489.382646,370.102971,-8503.660028,-740.205942
4489.382970,222.061783,-8427.050478,-962.267725
4489.383295,296.082377,-8733.488677,-1258.350101
4489.383620,296.082377,-8733.488677,-962.267725
4489.383944,0.000000,-8427.050478,-666.185348
4489.384269,0.000000,-8656.879127,-814.226536
4489.384594,0.000000,-8350.440928,-1036.288319
4489.384918,74.020594,-8350.440928,-1036.288319
4489.385243,-296.082377,-8503.660028,-1036.288319
4489.385568,296.082377,-8580.269578,-666.185348
4489.385892,0.000000,-8580.269578,-518.144159
4489.386217,444.123565,-9116.536426,-814.226536
4489.386541,518.144159,-8503.660028,-518.144159
4489.386866,0.000000,-8810.098227,-518.144159
4489.387191,444.123565,-8273.831378,-518.144159
4489.387515,296.082377,-8503.660028,-370.102971
4489.387840,592.164754,-8963.317327,-666.185348
4489.388165,296.082377,-8503.660028,-666.185348
4489.388489,296.082377,-8810.098227,-814.226536
4489.388814,148.041188,-8656.879127,-518.144159
4489.389139,148.041188,-8120.612279,-592.164754
4489.389463,74.020594,-8886.707777,74.020594
4489.389788,370.102971,-8503.660028,-518.144159
4489.390112,444.123565,-8350.440928,-518.144159
4489.390437,370.102971,-8733.488677,-518.144159
4489.390762,296.082377,-8656.879127,0.000000
4489.391086,370.102971,-8273.831378,-444.123565
4489.391411,444.123565,-8656.879127,0.000000
4489.391736,370.102971,-8503.660028,-444.123565
4489.392060,296.082377,-8656.879127,-592.164754
4489.392385,888.247130,-8120.612279,-370.102971
4489.392710,296.082377,-8427.050478,-370.102971
4489.393034,296.082377,-8273.831378,0.000000
4489.393359,592.164754,-8427.050478,74.020594
4489.393683,962.267725,-8120.612279,0.000000
4489.394008,1036.288319,-8733.488677,0.000000
4489.394333,888.247130,-8580.269578,-148.041188
4489.394657,814.226536,-8886.707777,-296.082377
4489.394982,444.123565,-8656.879127,-296.082377
4489.395307,518.144159,-8656.879127,0.000000
4489.395631,518.144159,-8503.660028,-370.102971
4489.395956,370.102971,-8656.879127,0.000000
4489.396281,666.185348,-8580.269578,-370.102971
4489.396605,666.185348,-8427.050478,0.000000
4489.396930,370.102971,-8656.879127,0.000000
4489.397254,666.185348,-8427.050478,-444.123565
4489.397579,740.205942,-8733.488677,0.000000
4489.397904,518.144159,-8733.488677,296.082377
4489.398228,592.164754,-8656.879127,0.000000
4489.398553,518.144159,-8656.879127,-222.061783
4489.398878,740.205942,-8580.269578,-222.061783
4489.399202,666.185348,-8656.879127,-148.041188
4489.399527,518.144159,-8656.879127,-74.020594
4489.399852,222.061783,-8810.098227,0.000000
4489.400176,148.041188,-8733.488677,-222.061783
4489.400501,444.123565,-8810.098227,-296.082377
4489.400825,296.082377,-8580.269578,-666.185348
4489.401150,222.061783,-9039.926876,-222.061783
4489.401475,592.164754,-8886.707777,-370.102971
4489.401799,592.164754,-8886.707777,-518.144159
4489.402124,518.144159,-7967.393179,-518.144159
4489.402449,370.102971,-8656.879127,-666.185348
4489.402773,666.185348,-8810.098227,-888.247130
4489.403098,592.164754,-8810.098227,-888.247130
4489.403423,370.102971,-8886.707777,-814.226536
4489.403747,148.041188,-8503.660028,-962.267725
4489.404072,444.123565,-8580.269578,-888.247130
4489.404396,370.102971,-8886.707777,-888.247130
4489.404721,740.205942,-8810.098227,-888.247130
4489.405046,962.267725,-9116.536426,-740.205942
4489.405370,814.226536,-9193.145976,-888.247130
4489.405695,296.082377,-8503.660028,-1184.329507
4489.406020,518.144159,-8656.879127,-1258.350101
4489.406344,518.144159,-8886.707777,-962.267725
4489.406669,518.144159,-8580.269578,-1406.391290
4489.406994,222.061783,-9116.536426,-1110.308913
4489.407318,296.082377,-8733.488677,-1258.350101
4489.407643,592.164754,-8810.098227,-1332.370696
4489.407967,148.041188,-8733.488677,-1036.288319
4489.408292,444.123565,-8963.317327,-1184.329507
4489.408617,370.102971,-8810.098227,-1184.329507
4489.408941,518.144159,-8886.707777,-1036.288319
4489.409266,592.164754,-8810.098227,-1184.329507
4489.409591,518.144159,-8656.879127,-1184.329507
4489.409915,666.185348,-8886.707777,-1184.329507
4489.410240,370.102971,-8733.488677,-962.267725
4489.410565,296.082377,-8810.098227,-1332.370696
4489.410889,444.123565,-8580.269578,-1184.329507
4489.411214,370.102971,-8886.707777,-1554.432478
4489.411538,222.061783,-8580.269578,-1332.370696
4489.411863,222.061783,-8733.488677,-962.267725
4489.412188,666.185348,-8810.098227,-1110.308913
4489.412512,222.061783,-8503.660028,-962.267725
4489.412837,444.123565,-8656.879127,-1332.370696
4489.413162,222.061783,-8810.098227,-962.267725
4489.413486,592.164754,-8886.707777,-1258.350101
4489.413811,518.144159,-8810.098227,-1184.329507
4489.414136,444.123565,-8580.269578,-1258.350101
4489.414460,444.123565,-8427.050478,-1110.308913
4489.414785,518.144159,-8427.050478,-1332.370696
4489.415109,222.061783,-8427.050478,-1036.288319
4489.415434,592.164754,-8503.660028,-1332.370696
4489.415759,518.144159,-8350.440928,-1110.308913
4489.416083,370.102971,-8350.440928,-1036.288319
4489.416408,296.082377,-9116.536426,-592.164754
4489.416733,518.144159,-8580.269578,-888.247130
4489.417057,518.144159,-8350.440928,-888.247130
4489.417382,444.123565,-8810.098227,-1184.329507
4489.417707,444.123565,-9039.926876,-888.247130
4489.418031,444.123565,-8273.831378,-962.267725
4489.418356,222.061783,-8350.440928,-1406.391290
4489.418680,74.020594,-8273.831378,-1036.288319
4489.419005,370.102971,-8427.050478,-1184.329507
4489.419330,0.000000,-8350.440928,-740.205942
4489.419654,370.102971,-8656.879127,-740.205942
4489.419979,222.061783,-8580.269578,-592.164754
4489.420304,666.185348,-8427.050478,-444.123565
4489.420628,814.226536,-8580.269578,-518.144159
4489.420953,370.102971,-8656.879127,-296.082377
4489.421277,592.164754,-8503.660028,-296.082377
4489.421602,888.247130,-8503.660028,-370.102971
4489.421927,814.226536,-9039.926876,-222.061783
4489.422251,740.205942,-8350.440928,-444.123565
4489.422576,592.164754,-8656.879127,-444.123565
4489.422901,666.185348,-8350.440928,-370.102971
4489.423225,518.144159,-8810.098227,-148.041188
4489.423550,518.144159,-8810.098227,0.000000
4489.423875,518.144159,-8503.660028,0.000000
4489.424199,296.082377,-8580.269578,-296.082377
4489.424524,518.144159,-8656.879127,0.000000
4489.424848,296.082377,-8733.488677,148.041188
4489.425173,592.164754,-8810.098227,0.000000
4489.425498,296.082377,-8273.831378,0.000000
4489.425822,222.061783,-8503.660028,296.082377
4489.426147,148.041188,-8350.440928,0.000000
4489.426472,222.061783,-8273.831378,74.020594
4489.426796,444.123565,-8503.660028,0.000000
4489.427121,666.185348,-8733.488677,148.041188
4489.427446,592.164754,-8273.831378,444.123565
4489.427770,666.185348,-8120.612279,0.000000
4489.428095,666.185348,-8427.050478,74.020594
4489.428419,444.123565,-8273.831378,296.082377
4489.428744,370.102971,-8503.660028,222.061783
4489.429069,296.082377,-8503.660028,666.185348
4489.429393,444.123565,-8427.050478,0.000000
4489.429718,148.041188,-8810.098227,222.061783
4489.430043,148.041188,-8656.879127,0.000000
4489.430367,296.082377,-8656.879127,0.000000
4489.430692,148.041188,-8503.660028,296.082377
4489.431016,370.102971,-8580.269578,0.000000
4489.431341,518.144159,-8580.269578,0.000000
4489.431666,592.164754,-8810.098227,222.061783
4489.431990,518.144159,-8580.269578,370.102971
4489.432315,370.102971,-8810.098227,148.041188
4489.432639,444.123565,-8733.488677,296.082377
4489.432964,370.102971,-8580.269578,148.041188
4489.433289,740.205942,-8886.707777,-222.061783
4489.433613,296.082377,-8580.269578,-296.082377
4489.433938,370.102971,-8886.707777,-74.020594
4489.434262,518.144159,-8503.660028,0.000000
4489.434587,222.061783,-8810.098227,0.000000
4489.434912,518.144159,-8733.488677,-296.082377
4489.435236,518.144159,-8350.440928,-296.082377
4489.435561,814.226536,-8886.707777,-296.082377
4489.435885,370.102971,-8733.488677,0.000000
4489.436210,592.164754,-8886.707777,-222.061783
4489.436535,444.123565,-8810.098227,-518.144159
4489.436859,296.082377,-8656.879127,-740.205942
4489.437184,222.061783,-8656.879127,-740.205942
4489.437508,444.123565,-7507.735880,-592.164754
4489.437833,370.102971,-8350.440928,-592.164754
4489.438158,592.164754,-8427.050478,-740.205942
4489.438482,592.164754,-8656.879127,-518.144159
4489.438807,666.185348,-8350.440928,-592.164754
4489.439131,592.164754,-8427.050478,-740.205942
4489.439456,592.164754,-8427.050478,-222.061783
4489.439781,740.205942,-8503.660028,-296.082377
4489.440105,518.144159,-8427.050478,-518.144159
4489.440430,518.144159,-8273.831378,-370.102971
4489.440754,444.123565,-8197.221829,-814.226536
4489.441079,370.102971,-8427.050478,-666.185348
4489.441404,592.164754,-8350.440928,-962.267725
4489.441728,296.082377,-8503.660028,-1036.288319
4489.442053,518.144159,-8350.440928,-518.144159
4489.442377,518.144159,-8350.440928,-740.205942
4489.442702,444.123565,-8580.269578,-592.164754
4489.443027,592.164754,-8350.440928,-592.164754
4489.443351,148.041188,-8273.831378,-296.082377
4489.443676,666.185348,-8580.269578,-518.144159
4489.444000,444.123565,-8197.221829,-296.082377
4489.444325,740.205942,-8580.269578,-518.144159
4489.444650,518.144159,-8580.269578,-222.061783
4489.444974,222.061783,-8197.221829,-370.102971
4489.445299,444.123565,-8503.660028,-296.082377
4489.445623,222.061783,-8273.831378,-296.082377
4489.445948,370.102971,-8580.269578,-518.144159
4489.446273,74.020594,-8503.660028,-222.061783
4489.446597,222.061783,-8273.831378,0.000000
4489.446922,222.061783,-8503.660028,0.000000
4489.447246,518.144159,-8273.831378,0.000000
4489.447571,148.041188,-8656.879127,0.000000
4489.447896,592.164754,-8503.660028,0.000000
4489.448220,370.102971,-8427.050478,0.000000
4489.448545,370.102971,-8580.269578,0.000000
4489.448869,222.061783,-8273.831378,-148.041188
4489.449194,222.061783,-8044.002729,-148.041188
4489.449519,296.082377,-8503.660028,0.000000
4489.449843,222.061783,-8427.050478,74.020594
4489.450168,444.123565,-8350.440928,148.041188
4489.450492,592.164754,-8656.879127,-148.041188
4489.450817,444.123565,-8503.660028,-222.061783
4489.451142,518.144159,-8963.317327,0.000000
4489.451466,592.164754,-8503.660028,0.000000
4489.451791,518.144159,-8656.879127,-518.144159
4489.452115,0.000000,-8503.660028,-222.061783
4489.452440,222.061783,-8810.098227,0.000000
4489.452765,222.061783,-8503.660028,-370.102971
4489.453089,296.082377,-9652.803275,0.000000
4489.453414,222.061783,-8886.707777,-296.082377
4489.453738,370.102971,-8886.707777,-148.041188
4489.454063,0.000000,-8886.707777,-222.061783
4489.454388,296.082377,-8733.488677,-296.082377
4489.454712,148.041188,-8886.707777,-296.082377
4489.455037,444.123565,-8733.488677,0.000000
4489.455361,592.164754,-8886.707777,0.000000
4489.455686,592.164754,-8580.269578,0.000000
4489.456011,1036.288319,-8963.317327,-370.102971
4489.456335,592.164754,-8810.098227,-444.123565
4489.456660,666.185348,-8656.879127,0.000000
4489.456984,444.123565,-8656.879127,-296.082377
4489.457309,296.082377,-9422.974625,0.000000
4489.457634,370.102971,-8427.050478,-296.082377
4489.457958,296.082377,-8963.317327,0.000000
4489.458283,370.102971,-8580.269578,0.000000
4489.458607,444.123565,-8733.488677,0.000000
4489.458932,666.185348,-8580.269578,-148.041188
4489.459257,444.123565,-8733.488677,0.000000
4489.459581,444.123565,-8580.269578,-296.082377
4489.459906,444.123565,-8810.098227,-148.041188
4489.460230,518.144159,-9193.145976,0.000000
4489.460555,222.061783,-8580.269578,0.000000
4489.460880,296.082377,-8350.440928,-296.082377
4489.461204,444.123565,-8427.050478,74.020594
4489.461529,370.102971,-8580.269578,-444.123565
4489.461853,962.267725,-8656.879127,-222.061783
4489.462178,666.185348,-8273.831378,0.000000
4489.462503,666.185348,-9193.145976,0.000000
4489.462827,444.123565,-8503.660028,0.000000
4489.463152,592.164754,-9039.926876,518.144159
4489.463476,444.123565,-8656.879127,222.061783
4489.463801,370.102971,-8580.269578,0.000000
4489.464126,74.020594,-8427.050478,0.000000
4489.464450,0.000000,-8120.612279,518.144159
4489.464775,74.020594,-8427.050478,-148.041188
4489.465099,444.123565,-9039.926876,148.041188
4489.465424,444.123565,-8120.612279,222.061783
4489.465749,444.123565,-8580.269578,370.102971
4489.466073,444.123565,-8810.098227,296.082377
4489.466398,296.082377,-8656.879127,444.123565
4489.466722,370.102971,-8427.050478,296.082377
4489.467047,518.144159,-8580.269578,222.061783
4489.467372,444.123565,-8810.098227,518.144159
4489.467696,370.102971,-8427.050478,222.061783
4489.468021,444.123565,-8656.879127,0.000000
4489.468345,518.144159,-8580.269578,0.000000
4489.468670,444.123565,-8580.269578,0.000000
4489.468995,222.061783,-8580.269578,296.082377
4489.469319,148.041188,-8503.660028,74.020594
4489.469644,148.041188,-8656.879127,296.082377
4489.469968,222.061783,-8503.660028,74.020594
4489.470293,0.000000,-8656.879127,296.082377
4489.470618,370.102971,-8733.488677,0.000000
4489.470942,296.082377,-8656.879127,-296.082377
4489.471267,148.041188,-8656.879127,0.000000
4489.471591,518.144159,-7967.393179,222.061783
4489.471916,444.123565,-8580.269578,-370.102971
4489.472241,296.082377,-8273.831378,-296.082377
4489.472565,222.061783,-8503.660028,74.020594
4489.472890,370.102971,-8580.269578,0.000000
4489.473214,222.061783,-8427.050478,0.000000
4489.473539,666.185348,-8427.050478,-370.102971
4489.473864,592.164754,-8656.879127,0.000000
4489.474188,740.205942,-8810.098227,-222.061783
4489.474513,444.123565,-8427.050478,0.000000
4489.474837,222.061783,-8350.440928,0.000000
4489.475162,148.041188,-8886.707777,0.000000
4489.475487,148.041188,-8810.098227,-296.082377
4489.475811,666.185348,-8580.269578,-296.082377
4489.476136,148.041188,-8656.879127,-296.082377
4489.476460,148.041188,-8656.879127,-370.102971
4489.476785,370.102971,-8656.879127,-518.144159
4489.477110,666.185348,-8733.488677,-592.164754
4489.477434,888.247130,-8886.707777,-222.061783
4489.477759,222.061783,-8427.050478,0.000000
4489.478083,370.102971,-8733.488677,74.020594
4489.478408,592.164754,-8656.879127,0.000000
4489.478733,666.185348,-9039.926876,-148.041188
4489.479057,592.164754,-8580.269578,-518.144159
4489.479382,222.061783,-8427.050478,-370.102971
4489.479706,74.020594,-8810.098227,-296.082377
4489.480031,666.185348,-8503.660028,-444.123565
4489.480356,296.082377,-9039.926876,-296.082377
4489.480680,296.082377,-8733.488677,-444.123565
4489.481005,444.123565,-8886.707777,-222.061783
4489.481329,296.082377,-8580.269578,-444.123565
4489.481654,444.123565,-8656.879127,0.000000
4489.481979,370.102971,-8656.879127,-296.082377
4489.482303,370.102971,-8963.317327,-370.102971
4489.482628,444.123565,-8656.879127,-592.164754
4489.482952,148.041188,-8350.440928,74.020594
4489.483277,0.000000,-8503.660028,-518.144159
4489.483602,0.000000,-8503.660028,-296.082377
4489.483926,0.000000,-8350.440928,-370.102971
4489.484251,518.144159,-8503.660028,-296.082377
4489.484575,222.061783,-8273.831378,-296.082377
4489.484900,518.144159,-8656.879127,-296.082377
4489.485225,296.082377,-8350.440928,-148.041188
4489.485549,296.082377,-8503.660028,-222.061783
4489.485874,222.061783,-9039.926876,-666.185348
4489.486198,148.041188,-8427.050478,-444.123565
4489.486523,0.000000,-8733.488677,-444.123565
4489.486848,-222.061783,-8733.488677,-592.164754
4489.487172,0.000000,-8810.098227,-296.082377
4489.487497,0.000000,-8810.098227,-592.164754
4489.487821,74.020594,-8427.050478,-814.226536
4489.488146,518.144159,-8503.660028,-740.205942
4489.488471,444.123565,-8656.879127,-740.205942
4489.488795,592.164754,-8580.269578,-370.102971
4489.489120,740.205942,-8886.707777,-962.267725
4489.489444,666.185348,-9039.926876,-592.164754
4489.489769,148.041188,-8197.221829,-518.144159
4489.490094,74.020594,-8503.660028,-296.082377
4489.490418,148.041188,-8810.098227,-814.226536
4489.490743,444.123565,-8810.098227,-370.102971
4489.491067,74.020594,-8503.660028,-592.164754
4489.491392,296.082377,-8273.831378,-740.205942
4489.491717,740.205942,-8580.269578,-592.164754
4489.492041,444.123565,-8810.098227,-222.061783
4489.492366,296.082377,-8580.269578,-518.144159
4489.492690,444.123565,-8810.098227,-222.061783
4489.493015,666.185348,-8656.879127,-370.102971
4489.493340,370.102971,-8580.269578,-148.041188
4489.493664,148.041188,-8503.660028,-222.061783
4489.493989,444.123565,-8580.269578,-148.041188
4489.494313,888.247130,-8350.440928,-444.123565
4489.494638,518.144159,-8427.050478,-518.144159
4489.494963,592.164754,-8503.660028,-296.082377
4489.495287,740.205942,-8197.221829,-222.061783
4489.495612,666.185348,-8656.879127,-740.205942
4489.495936,518.144159,-8273.831378,0.000000
4489.496261,888.247130,-8350.440928,-296.082377
4489.496586,814.226536,-8580.269578,-222.061783
4489.496910,592.164754,-8273.831378,0.000000
4489.497235,592.164754,-8656.879127,-296.082377
4489.497559,518.144159,-8273.831378,-592.164754
4489.497884,666.185348,-8580.269578,-370.102971
4489.498209,222.061783,-8656.879127,-444.123565
4489.498533,148.041188,-8733.488677,0.000000
4489.498858,222.061783,-8273.831378,-592.164754
4489.499182,296.082377,-8503.660028,-370.102971
4489.499507,222.061783,-8580.269578,-518.144159
4489.499832,592.164754,-9576.193725,-222.061783
4489.500156,1036.288319,-8503.660028,-148.041188
4489.500481,740.205942,-8810.098227,0.000000
4489.500805,814.226536,-8427.050478,-370.102971
4489.501130,592.164754,-8503.660028,74.020594
4489.501455,370.102971,-8350.440928,0.000000
4489.501779,518.144159,-8580.269578,0.000000
4489.502104,518.144159,-8580.269578,-370.102971
4489.502428,74.020594,-8350.440928,-296.082377
4489.502753,444.123565,-8810.098227,74.020594
4489.503078,518.144159,-8580.269578,-222.061783
4489.503402,592.164754,-8810.098227,0.000000
4489.503727,296.082377,-7967.393179,0.000000
4489.504051,444.123565,-9269.755526,74.020594
4489.504376,296.082377,-8273.831378,-222.061783
4489.504701,370.102971,-8656.879127,0.000000
4489.505025,518.144159,-8733.488677,-444.123565
4489.505350,370.102971,-8733.488677,74.020594
4489.505674,370.102971,-7967.393179,-518.144159
4489.505999,148.041188,-8503.660028,-370.102971
4489.506324,296.082377,-8503.660028,-370.102971
4489.506648,296.082377,-8503.660028,-814.226536
4489.506973,296.082377,-8350.440928,-370.102971
4489.507297,666.185348,-8197.221829,-296.082377
4489.507622,740.205942,-8656.879127,-370.102971
4489.507947,592.164754,-8503.660028,-148.041188
4489.508271,888.247130,-8656.879127,-296.082377
4489.508596,592.164754,-8580.269578,-370.102971
4489.508920,740.205942,-8656.879127,-370.102971
4489.509245,444.123565,-8580.269578,-518.144159
4489.509570,444.123565,-8503.660028,-740.205942
4489.509894,222.061783,-8810.098227,-370.102971
4489.510219,518.144159,-8733.488677,-592.164754
4489.510543,444.123565,-8273.831378,-370.102971
4489.510868,666.185348,-8580.269578,-666.185348
4489.511193,296.082377,-8427.050478,-148.041188
4489.511517,592.164754,-8427.050478,-296.082377
4489.511842,814.226536,-8503.660028,-740.205942
4489.512166,296.082377,-8810.098227,-296.082377
4489.512491,518.144159,-8656.879127,-296.082377
4489.512815,444.123565,-8810.098227,-666.185348
4489.513140,666.185348,-8503.660028,-888.247130
4489.513465,592.164754,-8503.660028,-740.205942
4489.513789,740.205942,-8733.488677,-1036.288319
4489.514114,962.267725,-8350.440928,-888.247130
4489.514438,592.164754,-8656.879127,-962.267725
4489.514763,296.082377,-8580.269578,-666.185348
4489.515088,518.144159,-8503.660028,-888.247130
4489.515412,740.205942,-8886.707777,-592.164754
4489.515737,814.226536,-9039.926876,-962.267725
4489.516061,296.082377,-8810.098227,-740.205942
4489.516386,666.185348,-8810.098227,-518.144159
4489.516711,814.226536,-8350.440928,-1110.308913
4489.517035,962.267725,-9269.755526,-888.247130
4489.517360,444.123565,-8503.660028,-1258.350101
4489.517684,592.164754,-8810.098227,-1036.288319
4489.518009,518.144159,-8503.660028,-1184.329507
4489.518334,888.247130,-8273.831378,-666.185348
4489.518658,592.164754,-8350.440928,-962.267725
4489.518983,518.144159,-8503.660028,-1036.288319
4489.519307,518.144159,-8886.707777,-740.205942
4489.519632,444.123565,-9039.926876,-518.144159
4489.519957,518.144159,-8656.879127,-814.226536
4489.520281,592.164754,-8656.879127,-1036.288319
4489.520606,518.144159,-8656.879127,-962.267725
4489.520930,370.102971,-8656.879127,-962.267725
4489.521255,370.102971,-8733.488677,-888.247130
4489.521580,0.000000,-8733.488677,-1036.288319
4489.521904,0.000000,-8503.660028,-962.267725
4489.522229,296.082377,-8580.269578,-1184.329507
4489.522553,592.164754,-9422.974625,-1036.288319
4489.522878,370.102971,-8733.488677,-518.144159
4489.523203,814.226536,-8580.269578,-518.144159
4489.523527,592.164754,-8580.269578,-666.185348
4489.523852,740.205942,-8656.879127,-888.247130
4489.524176,444.123565,-8733.488677,-444.123565
4489.524501,370.102971,-8273.831378,-444.123565
4489.524826,296.082377,-8656.879127,-666.185348
4489.525150,74.020594,-8273.831378,-518.144159
4489.525475,296.082377,-8350.440928,-518.144159
4489.525799,148.041188,-8580.269578,-592.164754
4489.526124,370.102971,-8503.660028,-296.082377
4489.526449,518.144159,-8580.269578,-222.061783
4489.526773,740.205942,-8350.440928,74.020594
4489.527098,518.144159,-8427.050478,-296.082377
4489.527422,592.164754,-8810.098227,-370.102971
4489.527747,740.205942,-8656.879127,-222.061783
4489.528072,740.205942,-8580.269578,-296.082377
4489.528396,444.123565,-8120.612279,-296.082377
4489.528721,296.082377,-8580.269578,0.000000
4489.529045,296.082377,-8656.879127,-370.102971
4489.529370,296.082377,-8733.488677,-296.082377
4489.529695,222.061783,-8197.221829,-148.041188
4489.530019,592.164754,-8427.050478,0.000000
4489.530344,814.226536,-8273.831378,-222.061783
4489.530668,1036.288319,-8273.831378,0.000000
4489.530993,666.185348,-8427.050478,0.000000
4489.531317,814.226536,-8503.660028,74.020594
4489.531641,444.123565,-8580.269578,0.000000
4489.531966,148.041188,-8810.098227,0.000000
4489.532290,0.000000,-8273.831378,-148.041188
4489.532615,222.061783,-8503.660028,-444.123565
4489.532939,296.082377,-8273.831378,-222.061783
4489.533263,296.082377,-8733.488677,-296.082377
4489.533588,148.041188,-8503.660028,-148.041188
4489.533912,444.123565,-8427.050478,-148.041188
4489.534237,518.144159,-8580.269578,-148.041188
4489.534561,888.247130,-8963.317327,-222.061783
4489.534885,592.164754,-8427.050478,-74.020594
4489.535210,814.226536,-8503.660028,74.020594
4489.535534,592.164754,-8733.488677,-296.082377
4489.535859,296.082377,-8656.879127,-148.041188
4489.536183,148.041188,-8810.098227,-296.082377
4489.536507,444.123565,-8733.488677,-296.082377
4489.536832,74.020594,-8733.488677,0.000000
4489.537156,222.061783,-8580.269578,-444.123565
4489.537480,296.082377,-8810.098227,-148.041188
4489.537805,296.082377,-8886.707777,-444.123565
4489.538129,148.041188,-8963.317327,0.000000
4489.538454,370.102971,-8886.707777,-370.102971
4489.538778,222.061783,-9116.536426,-370.102971
4489.539102,518.144159,-8733.488677,-518.144159
4489.539427,444.123565,-9576.193725,-296.082377
4489.539751,296.082377,-9116.536426,-592.164754
4489.540076,444.123565,-8580.269578,-592.164754
4489.540400,148.041188,-8810.098227,-592.164754
4489.540724,74.020594,-8733.488677,-518.144159
4489.541049,74.020594,-8197.221829,-814.226536
4489.541373,370.102971,-8810.098227,-814.226536
4489.541698,518.144159,-8580.269578,-296.082377
4489.542022,666.185348,-8350.440928,-444.123565
4489.542346,740.205942,-9116.536426,-740.205942
4489.542671,518.144159,-8273.831378,-518.144159
4489.542995,592.164754,-8580.269578,-592.164754
4489.543320,370.102971,-8733.488677,-666.185348
4489.543644,518.144159,-9422.974625,-814.226536
4489.543968,148.041188,-8503.660028,-518.144159
4489.544293,444.123565,-8427.050478,-740.205942
4489.544617,222.061783,-8733.488677,-814.226536
4489.544942,444.123565,-8656.879127,-814.226536
4489.545266,444.123565,-8503.660028,-222.061783
4489.545590,740.205942,-8427.050478,-592.164754
4489.545915,518.144159,-8656.879127,-592.164754
4489.546239,666.185348,-8503.660028,-518.144159
4489.546563,592.164754,-8963.317327,148.041188
4489.546888,518.144159,-8580.269578,-518.144159
4489.547212,518.144159,-8273.831378,-518.144159
4489.547537,518.144159,-8656.879127,-666.185348
4489.547861,518.144159,-8503.660028,-814.226536
4489.548185,370.102971,-8427.050478,-444.123565
4489.548510,370.102971,-8503.660028,-296.082377
4489.548834,444.123565,-8197.221829,-370.102971
4489.549159,518.144159,-8733.488677,-444.123565
4489.549483,592.164754,-8580.269578,0.000000
4489.549807,518.144159,-8503.660028,-518.144159
4489.550132,592.164754,-8580.269578,-444.123565
4489.550456,518.144159,-8733.488677,0.000000
4489.550781,0.000000,-8656.879127,-148.041188
4489.551105,444.123565,-8580.269578,-370.102971
4489.551429,444.123565,-8580.269578,-592.164754
4489.551754,370.102971,-8810.098227,-592.164754
4489.552078,74.020594,-8427.050478,-518.144159
4489.552403,296.082377,-8197.221829,-370.102971
4489.552727,296.082377,-8503.660028,-296.082377
4489.553051,518.144159,-8350.440928,-222.061783
4489.553376,740.205942,-8656.879127,-222.061783
4489.553700,1036.288319,-8656.879127,-222.061783
4489.554024,370.102971,-8810.098227,-148.041188
4489.554349,444.123565,-8733.488677,-222.061783
4489.554673,370.102971,-8886.707777,-222.061783
4489.554998,296.082377,-9116.536426,-296.082377
4489.555322,148.041188,-8656.879127,-222.061783
4489.555646,222.061783,-8503.660028,-296.082377
4489.555971,148.041188,-8580.269578,-518.144159
4489.556295,296.082377,-8810.098227,-592.164754
4489.556620,518.144159,-9116.536426,-148.041188
4489.556944,296.082377,-8580.269578,-592.164754
4489.557268,666.185348,-9116.536426,0.000000
4489.557593,592.164754,-8886.707777,-148.041188
4489.557917,666.185348,-9039.926876,0.000000
4489.558242,296.082377,-8350.440928,0.000000
4489.558566,518.144159,-8810.098227,-296.082377
4489.558890,296.082377,-8503.660028,0.000000
4489.559215,518.144159,-8503.660028,0.000000
4489.559539,148.041188,-8503.660028,-222.061783
4489.559864,148.041188,-8580.269578,0.000000
4489.560188,296.082377,-8197.221829,-370.102971
4489.560512,148.041188,-8427.050478,0.000000
4489.560837,0.000000,-8044.002729,74.020594
4489.561161,370.102971,-8580.269578,0.000000
4489.561485,444.123565,-8580.269578,148.041188
4489.561810,296.082377,-8427.050478,0.000000
4489.562134,370.102971,-8427.050478,222.061783
4489.562459,444.123565,-8503.660028,0.000000
4489.562783,370.102971,-8580.269578,0.000000
4489.563107,222.061783,-8733.488677,0.000000
4489.563432,148.041188,-8656.879127,-148.041188
4489.563756,0.000000,-8427.050478,-222.061783
4489.564081,370.102971,-8427.050478,-296.082377
4489.564405,444.123565,-8427.050478,-148.041188
4489.564729,444.123565,-8273.831378,-222.061783
4489.565054,222.061783,-8273.831378,-222.061783
4489.565378,666.185348,-8273.831378,-148.041188
4489.565703,518.144159,-8733.488677,-148.041188
4489.566027,518.144159,-8273.831378,0.000000
4489.566351,296.082377,-8197.221829,296.082377
4489.566676,148.041188,-8427.050478,-444.123565
4489.567000,0.000000,-8427.050478,-222.061783
4489.567325,74.020594,-8273.831378,0.000000
4489.567649,148.041188,-8503.660028,-370.102971
4489.567973,222.061783,-8197.221829,74.020594
4489.568298,370.102971,-8810.098227,-222.061783
4489.568622,444.123565,-8427.050478,-148.041188
4489.568947,370.102971,-8580.269578,-74.020594
4489.569271,444.123565,-8273.831378,-518.144159
4489.569595,444.123565,-8273.831378,0.000000
4489.569920,370.102971,-8580.269578,-518.144159
4489.570244,370.102971,-8503.660028,-370.102971
4489.570568,592.164754,-8580.269578,-592.164754
4489.570893,148.041188,-8886.707777,-444.123565
4489.571217,74.020594,-8503.660028,-666.185348
4489.571542,0.000000,-8886.707777,-370.102971
4489.571866,370.102971,-8427.050478,-666.185348
4489.572190,592.164754,-8580.269578,-222.061783
4489.572515,518.144159,-8886.707777,-444.123565
4489.572839,592.164754,-8656.879127,0.000000
4489.573164,444.123565,-8427.050478,-370.102971
4489.573488,666.185348,-9039.926876,0.000000
4489.573812,444.123565,-8656.879127,-592.164754
4489.574137,296.082377,-8886.707777,-592.164754
4489.574461,222.061783,-8733.488677,-370.102971
4489.574786,148.041188,-8503.660028,74.020594
4489.575110,444.123565,-8350.440928,-296.082377
4489.575434,370.102971,-8656.879127,0.000000
4489.575759,370.102971,-8350.440928,0.000000
4489.576083,370.102971,-8503.660028,0.000000
4489.576408,518.144159,-8580.269578,0.000000
4489.576732,370.102971,-8733.488677,222.061783
4489.577056,518.144159,-8733.488677,0.000000
4489.577381,222.061783,-8580.269578,148.041188
4489.577705,740.205942,-8810.098227,-296.082377
4489.578029,222.061783,-8810.098227,74.020594
4489.578354,222.061783,-8810.098227,0.000000
4489.578678,444.123565,-8733.488677,0.000000
4489.579003,222.061783,-8427.050478,0.000000
4489.579327,370.102971,-8886.707777,148.041188
4489.579651,518.144159,-8810.098227,0.000000
4489.579976,444.123565,-8580.269578,222.061783
4489.580300,518.144159,-8656.879127,222.061783
4489.580625,518.144159,-9039.926876,518.144159
4489.580949,444.123565,-8580.269578,222.061783
4489.581273,592.164754,-8656.879127,74.020594
4489.581598,296.082377,-8427.050478,74.020594
4489.581922,370.102971,-9346.365076,370.102971
4489.582247,148.041188,-8427.050478,74.020594
4489.582571,296.082377,-8427.050478,0.000000
4489.582895,296.082377,-8503.660028,-222.061783
4489.583220,296.082377,-8580.269578,74.020594
4489.583544,148.041188,-8427.050478,148.041188
4489.583869,296.082377,-8810.098227,74.020594
4489.584193,518.144159,-8963.317327,0.000000
4489.584517,592.164754,-8580.269578,74.020594
4489.584842,444.123565,-8580.269578,0.000000
4489.585166,666.185348,-8503.660028,0.000000
4489.585491,444.123565,-8656.879127,0.000000
4489.585815,444.123565,-8733.488677,-74.020594
4489.586139,74.020594,-8350.440928,-444.123565
4489.586464,148.041188,-8810.098227,-518.144159
4489.586788,296.082377,-8503.660028,-148.041188
4489.587112,296.082377,-8350.440928,0.000000
4489.587437,444.123565,-8656.879127,-222.061783
4489.587761,518.144159,-8350.440928,-148.041188
4489.588086,592.164754,-8810.098227,-148.041188
4489.588410,444.123565,-8503.660028,-370.102971
4489.588734,296.082377,-8810.098227,-518.144159
4489.589059,592.164754,-8886.707777,-814.226536
4489.589383,0.000000,-8580.269578,-518.144159
4489.589708,0.000000,-8580.269578,-518.144159
4489.590032,0.000000,-8580.269578,-592.164754
4489.590356,222.061783,-8350.440928,-444.123565
4489.590681,518.144159,-8427.050478,-814.226536
4489.591005,370.102971,-8733.488677,-592.164754
4489.591330,370.102971,-8580.269578,-666.185348
4489.591654,592.164754,-8656.879127,-444.123565
4489.591978,740.205942,-9039.926876,-592.164754
4489.592303,444.123565,-8733.488677,-444.123565
4489.592627,296.082377,-8273.831378,-518.144159
4489.592952,148.041188,-8427.050478,-370.102971
4489.593276,592.164754,-8963.317327,-592.164754
4489.593600,444.123565,-9039.926876,-444.123565
4489.593925,296.082377,-8273.831378,-296.082377
4489.594249,444.123565,-8580.269578,-444.123565
4489.594573,592.164754,-8580.269578,-444.123565
4489.594898,518.144159,-8656.879127,-370.102971
4489.595222,444.123565,-8580.269578,-296.082377
4489.595547,370.102971,-8656.879127,74.020594
4489.595871,444.123565,-8503.660028,-296.082377
4489.596195,370.102971,-8733.488677,0.000000
4489.596520,296.082377,-8503.660028,-148.041188
4489.596844,370.102971,-8810.098227,-666.185348
4489.597169,666.185348,-8503.660028,-148.041188
4489.597493,888.247130,-8427.050478,-296.082377
4489.597817,518.144159,-8427.050478,-444.123565
4489.598142,592.164754,-8197.221829,-370.102971
4489.598466,370.102971,-8120.612279,-370.102971
4489.598791,666.185348,-8580.269578,-148.041188
4489.599115,592.164754,-8427.050478,0.000000
4489.599439,666.185348,-8656.879127,0.000000
4489.599764,888.247130,-8197.221829,0.000000
4489.600088,518.144159,-8656.879127,0.000000
4489.600413,444.123565,-8733.488677,0.000000
4489.600737,592.164754,-8197.221829,0.000000
4489.601061,444.123565,-8580.269578,-222.061783
4489.601386,296.082377,-8580.269578,0.000000
4489.601710,666.185348,-7967.393179,0.000000
4489.602034,518.144159,-8733.488677,0.000000
4489.602359,518.144159,-8580.269578,-148.041188
4489.602683,518.144159,-8963.317327,74.020594
4489.603008,888.247130,-8656.879127,-222.061783
4489.603332,518.144159,-8810.098227,148.041188
4489.603656,888.247130,-8580.269578,0.000000
4489.603981,962.267725,-9039.926876,0.000000
4489.604305,814.226536,-8427.050478,0.000000
4489.604630,222.061783,-8503.660028,-370.102971
4489.604954,296.082377,-8963.317327,-148.041188
4489.605278,148.041188,-8733.488677,-370.102971
4489.605603,296.082377,-8656.879127,-370.102971
4489.605927,222.061783,-8503.660028,148.041188
4489.606252,222.061783,-8886.707777,-444.123565
4489.606576,296.082377,-9116.536426,-222.061783
4489.606900,444.123565,-8580.269578,-296.082377
4489.607225,592.164754,-9116.536426,-222.061783
4489.607549,518.144159,-9116.536426,-296.082377
4489.607874,444.123565,-8656.879127,0.000000
4489.608198,370.102971,-9116.536426,-444.123565
4489.608522,296.082377,-8810.098227,-740.205942
4489.608847,518.144159,-9039.926876,-666.185348
4489.609171,296.082377,-8503.660028,-666.185348
4489.609496,222.061783,-8427.050478,-666.185348
4489.609820,222.061783,-8503.660028,-518.144159
4489.610144,888.247130,-8503.660028,-444.123565
4489.610469,962.267725,-8273.831378,-444.123565
4489.610793,666.185348,-8963.317327,-592.164754
4489.611117,1036.288319,-8656.879127,-666.185348
4489.611442,814.226536,-8656.879127,-740.205942
4489.611766,666.185348,-8733.488677,-592.164754
4489.612091,296.082377,-8580.269578,-740.205942
4489.612415,222.061783,-8503.660028,-962.267725
4489.612739,370.102971,-8580.269578,-888.247130
4489.613064,222.061783,-8580.269578,-518.144159
4489.613388,444.123565,-8656.879127,-888.247130
4489.613713,592.164754,-8197.221829,-740.205942
4489.614037,1036.288319,-8656.879127,-740.205942
4489.614361,666.185348,-8656.879127,-444.123565
4489.614686,814.226536,-8120.612279,-444.123565
4489.615010,1036.288319,-8656.879127,-592.164754
4489.615335,370.102971,-8656.879127,-518.144159
4489.615659,888.247130,-8197.221829,-740.205942
4489.615983,444.123565,-8503.660028,-444.123565
4489.616308,222.061783,-8197.221829,-592.164754
4489.616632,444.123565,-8350.440928,-814.226536
4489.616957,518.144159,-8197.221829,-888.247130
4489.617281,666.185348,-8427.050478,-1110.308913
4489.617605,740.205942,-8273.831378,-666.185348
4489.617930,666.185348,-8427.050478,-592.164754
4489.618254,888.247130,-8427.050478,-444.123565
4489.618578,518.144159,-8580.269578,-740.205942
4489.618903,666.185348,-8580.269578,-518.144159
4489.619227,740.205942,-8503.660028,-814.226536
4489.619552,518.144159,-8656.879127,-740.205942
4489.619876,518.144159,-8886.707777,-592.164754
4489.620200,592.164754,-8273.831378,-814.226536
4489.620525,222.061783,-8503.660028,-444.123565
4489.620849,444.123565,-8120.612279,-1036.288319
4489.621174,592.164754,-8503.660028,-666.185348
4489.621498,740.205942,-7967.393179,-814.226536
4489.621822,592.164754,-8503.660028,-370.102971
4489.622147,222.061783,-8810.098227,-592.164754
4489.622471,518.144159,-8810.098227,-222.061783
4489.622796,370.102971,-8656.879127,-666.185348
4489.623120,444.123565,-9039.926876,-518.144159
4489.623444,0.000000,-8733.488677,-592.164754
4489.623769,148.041188,-8810.098227,-592.164754
4489.624093,148.041188,-8580.269578,-814.226536
4489.624418,0.000000,-9193.145976,-222.061783
4489.624742,370.102971,-8733.488677,-814.226536
4489.625066,296.082377,-8656.879127,-592.164754
4489.625391,370.102971,-8503.660028,-740.205942
4489.625715,518.144159,-9193.145976,-370.102971
4489.626040,444.123565,-8427.050478,-148.041188
4489.626364,814.226536,-9039.926876,-666.185348
4489.626688,444.123565,-8733.488677,-370.102971
4489.627013,148.041188,-8886.707777,-370.102971
4489.627337,222.061783,-8810.098227,-666.185348
4489.627661,148.041188,-8580.269578,-222.061783
4489.627986,592.164754,-8810.098227,-888.247130
4489.628310,518.144159,-8503.660028,-370.102971
4489.628635,370.102971,-8503.660028,-148.041188
4489.628959,518.144159,-8810.098227,-518.144159
4489.629283,518.144159,-8886.707777,-518.144159
4489.629608,518.144159,-8733.488677,-444.123565
4489.629932,740.205942,-8656.879127,-296.082377
4489.630257,148.041188,-8656.879127,-296.082377
4489.630581,444.123565,-8733.488677,-370.102971
4489.630905,592.164754,-8273.831378,-444.123565
4489.631230,296.082377,-8197.221829,-814.226536
4489.631554,296.082377,-8886.707777,-296.082377
4489.631879,444.123565,-8197.221829,-370.102971
4489.632203,296.082377,-8120.612279,-444.123565
4489.632527,518.144159,-8350.440928,-518.144159
4489.632852,370.102971,-8197.221829,0.000000
4489.633176,592.164754,-8350.440928,-518.144159
4489.633501,740.205942,-8580.269578,-370.102971
4489.633825,222.061783,-8503.660028,148.041188
4489.634149,370.102971,-8580.269578,-148.041188
4489.634474,222.061783,-8273.831378,-370.102971
4489.634798,296.082377,-8580.269578,-444.123565
4489.635122,370.102971,-8580.269578,-666.185348
4489.635447,222.061783,-8427.050478,-370.102971
4489.635771,-148.041188,-7814.174080,-518.144159
4489.636095,444.123565,-8427.050478,-666.185348
4489.636420,222.061783,-8350.440928,-370.102971
4489.636744,666.185348,-8733.488677,-592.164754
4489.637068,592.164754,-8963.317327,0.000000
4489.637393,444.123565,-8350.440928,-370.102971
4489.637717,592.164754,-8656.879127,-296.082377
4489.638041,296.082377,-8350.440928,-592.164754
4489.638366,444.123565,-8580.269578,-370.102971
4489.638690,740.205942,-8886.707777,-592.164754
4489.639014,518.144159,-8350.440928,-444.123565
4489.639339,74.020594,-8580.269578,-592.164754
4489.639663,444.123565,-8350.440928,-666.185348
4489.639987,666.185348,-8886.707777,-592.164754
4489.640312,296.082377,-8733.488677,-592.164754
4489.640636,0.000000,-8580.269578,-296.082377
4489.640960,148.041188,-8733.488677,-370.102971
4489.641285,444.123565,-8886.707777,-222.061783
4489.641609,148.041188,-8733.488677,-296.082377
4489.641933,444.123565,-9039.926876,-666.185348
4489.642258,444.123565,-8427.050478,-444.123565
4489.642582,592.164754,-8810.098227,-518.144159
4489.642906,370.102971,-8350.440928,-666.185348
4489.643231,444.123565,-8350.440928,-518.144159
4489.643555,518.144159,-8733.488677,-592.164754
4489.643879,296.082377,-8427.050478,-444.123565
4489.644204,592.164754,-8656.879127,-592.164754
4489.644528,518.144159,-8503.660028,-296.082377
4489.644852,666.185348,-8503.660028,-370.102971
4489.645177,666.185348,-8733.488677,-444.123565
4489.645501,962.267725,-8963.317327,-370.102971
4489.645825,740.205942,-8350.440928,-592.164754
4489.646150,148.041188,-8503.660028,-370.102971
4489.646474,74.020594,-8963.317327,0.000000
4489.646798,370.102971,-8580.269578,-592.164754
4489.647123,592.164754,-8963.317327,-740.205942
4489.647447,370.102971,-8580.269578,-592.164754
4489.647771,518.144159,-8503.660028,-592.164754
4489.648096,518.144159,-8503.660028,-592.164754
4489.648420,666.185348,-9116.536426,0.000000
4489.648744,666.185348,-8427.050478,-370.102971
4489.649068,666.185348,-8580.269578,0.000000
4489.649393,592.164754,-8273.831378,-222.061783
4489.649717,518.144159,-8427.050478,-296.082377
4489.650041,444.123565,-8350.440928,-370.102971
4489.650366,296.082377,-8273.831378,-222.061783
4489.650690,518.144159,-8503.660028,-444.123565
4489.651014,740.205942,-8656.879127,0.000000
4489.651339,296.082377,-8503.660028,-666.185348
4489.651663,370.102971,-8810.098227,-370.102971
4489.651987,148.041188,-8427.050478,-148.041188
4489.652312,296.082377,-8963.317327,0.000000
4489.652636,592.164754,-9193.145976,-444.123565
4489.652960,518.144159,-8733.488677,74.020594
4489.653285,370.102971,-8656.879127,-148.041188
4489.653609,296.082377,-8656.879127,0.000000
4489.653933,222.061783,-8503.660028,-222.061783
4489.654258,222.061783,-8656.879127,-296.082377
4489.654582,74.020594,-8503.660028,-222.061783
4489.654906,148.041188,-8580.269578,0.000000
4489.655231,222.061783,-8503.660028,-296.082377
4489.655555,0.000000,-8810.098227,0.000000
4489.655879,518.144159,-8810.098227,-370.102971
4489.656204,444.123565,-8350.440928,-222.061783
4489.656528,370.102971,-8350.440928,-148.041188
4489.656852,518.144159,-9499.584175,-222.061783
4489.657177,370.102971,-8427.050478,-444.123565
4489.657501,370.102971,-8886.707777,-740.205942
4489.657825,148.041188,-8503.660028,-370.102971
4489.658150,74.020594,-8656.879127,-444.123565
4489.658474,0.000000,-8503.660028,-518.144159
4489.658798,222.061783,-8656.879127,-444.123565
4489.659123,0.000000,-8350.440928,-666.185348
4489.659447,370.102971,-8886.707777,-444.123565
4489.659771,222.061783,-8044.002729,-444.123565
4489.660096,444.123565,-8810.098227,-148.041188
4489.660420,296.082377,-8656.879127,-444.123565
4489.660744,296.082377,-8656.879127,74.020594
4489.661069,296.082377,-8733.488677,-814.226536
4489.661393,222.061783,-8503.660028,-148.041188
4489.661717,0.000000,-8427.050478,-444.123565
4489.662042,148.041188,-8810.098227,-222.061783
4489.662366,148.041188,-8120.612279,-666.185348
4489.662690,592.164754,-8580.269578,-592.164754
4489.663015,444.123565,-8427.050478,-444.123565
4489.663339,592.164754,-8273.831378,-296.082377
4489.663663,740.205942,-8656.879127,-592.164754
4489.663988,666.185348,-9422.974625,-222.061783
4489.664312,888.247130,-8503.660028,-666.185348
4489.664636,814.226536,-8733.488677,-518.144159
4489.664961,444.123565,-8580.269578,-666.185348
4489.665285,592.164754,-8656.879127,-222.061783
4489.665609,370.102971,-8350.440928,-888.247130
4489.665934,518.144159,-8886.707777,-518.144159
4489.666258,666.185348,-8580.269578,-814.226536
4489.666582,444.123565,-8427.050478,-518.144159
4489.666907,370.102971,-8427.050478,-592.164754
4489.667231,444.123565,-8580.269578,-296.082377
4489.667555,666.185348,-8427.050478,-444.123565
4489.667880,666.185348,-8427.050478,-296.082377
4489.668204,370.102971,-8963.317327,444.123565
4489.668528,370.102971,-8427.050478,-74.020594
4489.668853,444.123565,-8503.660028,74.020594
4489.669177,518.144159,-8656.879127,-222.061783
4489.669501,296.082377,-8733.488677,-370.102971
4489.669826,74.020594,-9039.926876,-148.041188
4489.670150,296.082377,-8273.831378,-148.041188
4489.670474,296.082377,-8427.050478,0.000000
4489.670799,592.164754,-8503.660028,-148.041188
4489.671123,740.205942,-8427.050478,0.000000
4489.671447,666.185348,-8427.050478,0.000000
4489.671772,814.226536,-8350.440928,0.000000
4489.672096,814.226536,-8580.269578,222.061783
4489.672420,296.082377,-8810.098227,222.061783
4489.672745,222.061783,-8350.440928,0.000000
4489.673069,518.144159,-8350.440928,0.000000
4489.673393,296.082377,-8427.050478,0.000000
4489.673718,296.082377,-8197.221829,0.000000
4489.674042,222.061783,-8886.707777,0.000000
4489.674366,222.061783,-8656.879127,0.000000
4489.674691,444.123565,-8580.269578,0.000000
4489.675015,296.082377,-8503.660028,0.000000
4489.675339,0.000000,-8273.831378,740.205942
4489.675664,74.020594,-8580.269578,0.000000
4489.675988,370.102971,-8886.707777,74.020594
4489.676312,222.061783,-8580.269578,222.061783
4489.676637,222.061783,-9116.536426,296.082377
4489.676961,518.144159,-8503.660028,0.000000
4489.677285,0.000000,-8503.660028,0.000000
4489.677610,148.041188,-8810.098227,0.000000
4489.677934,296.082377,-8733.488677,-222.061783
4489.678258,444.123565,-8350.440928,0.000000
4489.678583,370.102971,-8580.269578,222.061783
4489.678907,518.144159,-8427.050478,0.000000
4489.679231,592.164754,-8580.269578,-222.061783
4489.679556,962.267725,-8886.707777,-222.061783
4489.679880,370.102971,-8656.879127,-222.061783
4489.680204,518.144159,-8886.707777,0.000000
4489.680529,296.082377,-8580.269578,-370.102971
4489.680853,296.082377,-8963.317327,0.000000
4489.681177,74.020594,-8733.488677,-518.144159
4489.681502,148.041188,-8733.488677,-444.123565
4489.681826,148.041188,-8733.488677,-592.164754
4489.682150,444.123565,-8503.660028,-222.061783
4489.682475,1110.308913,-8733.488677,-518.144159
4489.682799,592.164754,-8580.269578,0.000000
4489.683123,666.185348,-8580.269578,0.000000
4489.683447,444.123565,-8656.879127,0.000000
4489.683772,962.267725,-8273.831378,370.102971
4489.684096,518.144159,-8427.050478,0.000000
4489.684420,148.041188,-8580.269578,0.000000
4489.684745,222.061783,-8656.879127,-148.041188
4489.685069,296.082377,-8503.660028,-296.082377
4489.685393,666.185348,-8580.269578,-444.123565
4489.685718,222.061783,-8427.050478,0.000000
4489.686042,740.205942,-8427.050478,-296.082377
4489.686366,518.144159,-8503.660028,0.000000
4489.686691,666.185348,-8350.440928,-222.061783
4489.687015,814.226536,-8810.098227,-222.061783
4489.687339,814.226536,-8427.050478,-148.041188
4489.687664,666.185348,-8580.269578,0.000000
4489.687988,518.144159,-8810.098227,-148.041188
4489.688312,518.144159,-8886.707777,-296.082377
4489.688637,666.185348,-8503.660028,-370.102971
4489.688961,370.102971,-8810.098227,-222.061783
4489.689285,444.123565,-8427.050478,0.000000
4489.689610,740.205942,-8120.612279,0.000000
4489.689934,370.102971,-8273.831378,-444.123565
4489.690258,444.123565,-8503.660028,-148.041188
4489.690583,222.061783,-8427.050478,-370.102971
4489.690907,888.247130,-8580.269578,666.185348
4489.691231,222.061783,-8197.221829,0.000000
4489.691556,148.041188,-9269.755526,0.000000
4489.691880,296.082377,-8503.660028,-592.164754
4489.692204,222.061783,-8963.317327,0.000000
4489.692529,0.000000,-8120.612279,-370.102971
4489.692853,74.020594,-8656.879127,0.000000
4489.693177,0.000000,-8656.879127,-444.123565
4489.693502,148.041188,-8733.488677,0.000000
4489.693826,296.082377,-8427.050478,-518.144159
4489.694150,592.164754,-8963.317327,-222.061783
4489.694475,592.164754,-8273.831378,-222.061783
4489.694799,296.082377,-8580.269578,0.000000
4489.695123,296.082377,-8273.831378,-444.123565
4489.695448,444.123565,-8810.098227,0.000000
4489.695772,148.041188,-8580.269578,-592.164754
4489.696096,0.000000,-8503.660028,-296.082377
4489.696421,74.020594,-8273.831378,-222.061783
4489.696745,296.082377,-8427.050478,-444.123565
4489.697069,518.144159,-8503.660028,-592.164754
4489.697394,444.123565,-8656.879127,-370.102971
4489.697718,592.164754,-8580.269578,-370.102971
4489.698042,222.061783,-8273.831378,-148.041188
4489.698367,444.123565,-8810.098227,-296.082377
4489.698691,592.164754,-8580.269578,-370.102971
4489.699015,296.082377,-8503.660028,-296.082377
4489.699340,296.082377,-8580.269578,-370.102971
4489.699664,222.061783,-8580.269578,-296.082377
4489.699988,370.102971,-8427.050478,-296.082377
4489.700313,148.041188,-8503.660028,-148.041188
4489.700637,666.185348,-9269.755526,-370.102971
4489.700961,666.185348,-8656.879127,-370.102971
4489.701286,1036.288319,-8427.050478,-148.041188
4489.701610,888.247130,-8427.050478,-296.082377
4489.701934,666.185348,-8656.879127,0.000000
4489.702259,814.226536,-8580.269578,-296.082377
4489.702583,666.185348,-8503.660028,-148.041188
4489.702907,592.164754,-8580.269578,-296.082377
4489.703232,518.144159,-8886.707777,-222.061783
4489.703556,592.164754,-9039.926876,-444.123565
4489.703880,296.082377,-8733.488677,-296.082377
4489.704205,370.102971,-8427.050478,-370.102971
4489.704529,666.185348,-8656.879127,-518.144159
4489.704853,740.205942,-8503.660028,-148.041188
4489.705178,740.205942,-8427.050478,-370.102971
4489.705502,592.164754,-8656.879127,-518.144159
4489.705826,592.164754,-8503.660028,-518.144159
4489.706151,740.205942,-8580.269578,-444.123565
4489.706475,444.123565,-8963.317327,-222.061783
4489.706799,370.102971,-8656.879127,0.000000
4489.707124,74.020594,-8656.879127,-518.144159
4489.707448,296.082377,-8503.660028,-296.082377
4489.707772,-148.041188,-8427.050478,-444.123565
4489.708097,444.123565,-8503.660028,-296.082377
4489.708421,296.082377,-8044.002729,-296.082377
4489.708745,370.102971,-8503.660028,-592.164754
4489.709070,74.020594,-8350.440928,-444.123565
4489.709394,222.061783,-8733.488677,0.000000
4489.709718,518.144159,-8886.707777,-222.061783
4489.710043,370.102971,-8810.098227,-148.041188
4489.710367,370.102971,-8580.269578,-296.082377
4489.710691,740.205942,-8886.707777,148.041188
4489.711016,296.082377,-8427.050478,-296.082377
4489.711340,148.041188,-8733.488677,-518.144159
4489.711664,592.164754,-8733.488677,-296.082377
4489.711989,74.020594,-8580.269578,0.000000
4489.712313,296.082377,-8427.050478,-296.082377
4489.712637,296.082377,-8197.221829,-370.102971
4489.712962,592.164754,-8350.440928,-518.144159
4489.713286,740.205942,-8120.612279,-518.144159
4489.713610,296.082377,-8580.269578,-222.061783
4489.713935,296.082377,-8810.098227,-370.102971
4489.714259,518.144159,-8580.269578,-370.102971
4489.714583,666.185348,-8580.269578,-666.185348
4489.714908,222.061783,-8197.221829,0.000000
4489.715232,370.102971,-8427.050478,-666.185348
4489.715556,0.000000,-8733.488677,-518.144159
4489.715881,148.041188,-8733.488677,-592.164754
4489.716205,370.102971,-8197.221829,-370.102971
4489.716529,740.205942,-8350.440928,-370.102971
4489.716854,888.247130,-8427.050478,-148.041188
4489.717178,592.164754,-8427.050478,-296.082377
4489.717502,666.185348,-9039.926876,0.000000
4489.717826,814.226536,-8273.831378,-518.144159
4489.718151,518.144159,-8580.269578,0.000000
4489.718475,370.102971,-8503.660028,-296.082377
4489.718799,666.185348,-8427.050478,-148.041188
4489.719124,814.226536,-8427.050478,-222.061783
4489.719448,518.144159,-8350.440928,-370.102971
4489.719772,814.226536,-8273.831378,-370.102971
4489.720097,444.123565,-8656.879127,-444.123565
4489.720421,222.061783,-8427.050478,74.020594
4489.720745,444.123565,-8656.879127,-222.061783
4489.721070,592.164754,-8733.488677,-666.185348
4489.721394,518.144159,-8733.488677,-370.102971
4489.721718,370.102971,-8963.317327,-296.082377
4489.722043,962.267725,-8733.488677,-222.061783
4489.722367,592.164754,-8273.831378,-370.102971
4489.722691,444.123565,-8886.707777,-740.205942
4489.723016,296.082377,-8120.612279,-518.144159
4489.723340,666.185348,-8963.317327,-296.082377
4489.723664,296.082377,-8503.660028,-592.164754
4489.723989,666.185348,-8503.660028,-592.164754
4489.724313,518.144159,-8656.879127,-370.102971
4489.724637,370.102971,-8350.440928,-444.123565
4489.724962,296.082377,-8733.488677,-592.164754
4489.725286,518.144159,-8886.707777,-370.102971
4489.725610,592.164754,-8427.050478,-296.082377
4489.725935,296.082377,-8580.269578,-592.164754
4489.726259,148.041188,-8656.879127,-888.247130
4489.726583,222.061783,-8886.707777,-888.247130
4489.726908,148.041188,-8733.488677,-666.185348
4489.727232,222.061783,-8810.098227,-518.144159
4489.727556,296.082377,-8273.831378,0.000000
4489.727881,444.123565,-8810.098227,-296.082377
4489.728205,444.123565,-8503.660028,-296.082377
4489.728529,518.144159,-8810.098227,-370.102971
4489.728854,370.102971,-8656.879127,-296.082377
4489.729178,740.205942,-8580.269578,-370.102971
4489.729502,222.061783,-8810.098227,-370.102971
4489.729827,296.082377,-8350.440928,-222.061783
4489.730151,296.082377,-8273.831378,-444.123565
4489.730475,370.102971,-7967.393179,-518.144159
4489.730800,444.123565,-8656.879127,-592.164754
4489.731124,148.041188,-8503.660028,-444.123565
4489.731448,444.123565,-8733.488677,-666.185348
4489.731773,148.041188,-8044.002729,-666.185348
4489.732097,370.102971,-8580.269578,-666.185348
4489.732421,518.144159,-8503.660028,-222.061783
4489.732746,148.041188,-8044.002729,-370.102971
4489.733070,518.144159,-8886.707777,-370.102971
4489.733394,666.185348,-8273.831378,-740.205942
4489.733719,592.164754,-8656.879127,-592.164754
4489.734043,370.102971,-8580.269578,-444.123565
4489.734367,296.082377,-8580.269578,-444.123565
4489.734692,518.144159,-8733.488677,-666.185348
4489.735016,222.061783,-8427.050478,-444.123565
4489.735340,74.020594,-8197.221829,-370.102971
4489.735665,740.205942,-8350.440928,-370.102971
4489.735989,962.267725,-8810.098227,-370.102971
4489.736313,814.226536,-8580.269578,-370.102971
4489.736638,444.123565,-8656.879127,-370.102971
4489.736962,592.164754,-8503.660028,-370.102971
4489.737286,592.164754,-8656.879127,-296.082377
4489.737611,148.041188,-8733.488677,-370.102971
4489.737935,222.061783,-8733.488677,-370.102971
4489.738259,74.020594,-8656.879127,-518.144159
4489.738583,222.061783,-8733.488677,-444.123565
4489.738908,814.226536,-9193.145976,-666.185348
4489.739232,666.185348,-8580.269578,-370.102971
4489.739556,666.185348,-8503.660028,-370.102971
4489.739881,666.185348,-8656.879127,-592.164754
4489.740205,666.185348,-8580.269578,-444.123565
4489.740529,518.144159,-8197.221829,-444.123565
4489.740854,518.144159,-8427.050478,-518.144159
4489.741178,370.102971,-8656.879127,-518.144159
4489.741502,148.041188,-8656.879127,-370.102971
4489.741827,222.061783,-9116.536426,-444.123565
4489.742151,296.082377,-8427.050478,-814.226536
4489.742475,444.123565,-8733.488677,-740.205942
4489.742800,666.185348,-8580.269578,-888.247130
4489.743124,370.102971,-9039.926876,-370.102971
4489.743448,444.123565,-8810.098227,-666.185348
4489.743773,518.144159,-8580.269578,-296.082377
4489.744097,518.144159,-8580.269578,-518.144159
4489.744421,370.102971,-8963.317327,-666.185348
4489.744745,74.020594,-8350.440928,-444.123565
4489.745070,148.041188,-8733.488677,-370.102971
4489.745394,296.082377,-8580.269578,-666.185348
4489.745718,148.041188,-8503.660028,-296.082377
4489.746043,888.247130,-8656.879127,-222.061783
4489.746367,518.144159,-8197.221829,-444.123565
4489.746691,222.061783,-8044.002729,-518.144159
4489.747016,370.102971,-8656.879127,-444.123565
4489.747340,592.164754,-8656.879127,-148.041188
4489.747664,370.102971,-8580.269578,-370.102971
4489.747989,444.123565,-8733.488677,-592.164754
4489.748313,518.144159,-8886.707777,-222.061783
4489.748637,518.144159,-8656.879127,-518.144159
4489.748962,444.123565,-8733.488677,-296.082377
4489.749286,296.082377,-8503.660028,-592.164754
4489.749610,370.102971,-8733.488677,-444.123565
4489.749935,592.164754,-8580.269578,-444.123565
4489.750259,444.123565,-8273.831378,-592.164754
4489.750583,518.144159,-8503.660028,-518.144159
4489.750907,740.205942,-8427.050478,-296.082377
4489.751232,592.164754,-8733.488677,-592.164754
4489.751556,666.185348,-8656.879127,0.000000
4489.751880,296.082377,-8350.440928,-148.041188
4489.752205,518.144159,-8580.269578,0.000000
4489.752529,592.164754,-8350.440928,-296.082377
4489.752853,666.185348,-8580.269578,-74.020594
4489.753178,222.061783,-8656.879127,0.000000
4489.753502,518.144159,-8197.221829,-444.123565
4489.753826,222.061783,-8656.879127,-444.123565
4489.754151,296.082377,-8427.050478,-222.061783
4489.754475,0.000000,-8273.831378,0.000000
4489.754799,444.123565,-8503.660028,-296.082377
4489.755124,444.123565,-8733.488677,0.000000
4489.755448,296.082377,-8503.660028,0.000000
4489.755772,370.102971,-8503.660028,0.000000
4489.756096,296.082377,-8503.660028,-222.061783
4489.756421,370.102971,-8580.269578,-222.061783
4489.756745,296.082377,-8503.660028,-296.082377
4489.757069,222.061783,-8350.440928,-222.061783
4489.757394,444.123565,-8733.488677,-888.247130
4489.757718,296.082377,-8197.221829,-444.123565
4489.758042,444.123565,-8197.221829,-666.185348
4489.758367,296.082377,-8503.660028,-444.123565
4489.758691,444.123565,-8350.440928,-296.082377
4489.759015,296.082377,-8503.660028,-370.102971
4489.759340,222.061783,-8656.879127,-148.041188
4489.759664,74.020594,-8580.269578,-148.041188
4489.759988,444.123565,-8810.098227,-370.102971
4489.760313,296.082377,-8656.879127,-370.102971
4489.760637,222.061783,-8580.269578,-518.144159
4489.760961,74.020594,-8656.879127,-518.144159
4489.761286,222.061783,-8350.440928,-666.185348
4489.761610,740.205942,-8273.831378,-444.123565
4489.761934,370.102971,-8580.269578,-148.041188
4489.762258,444.123565,-8733.488677,-444.123565
4489.762583,592.164754,-8886.707777,-518.144159
4489.762907,518.144159,-7967.393179,0.000000
4489.763231,518.144159,-8503.660028,-222.061783
4489.763556,740.205942,-8580.269578,-296.082377
4489.763880,518.144159,-8197.221829,-148.041188
4489.764204,148.041188,-8580.269578,-74.020594
4489.764529,370.102971,-8810.098227,-444.123565
4489.764853,296.082377,-8273.831378,-370.102971
4489.765177,666.185348,-8656.879127,-518.144159
4489.765502,666.185348,-8427.050478,-592.164754
4489.765826,740.205942,-8963.317327,-444.123565
4489.766150,518.144159,-8580.269578,-296.082377
4489.766475,444.123565,-8733.488677,-370.102971
4489.766799,518.144159,-8886.707777,-740.205942
4489.767123,1184.329507,-8580.269578,-296.082377
4489.767448,592.164754,-8580.269578,0.000000
4489.767772,518.144159,-8656.879127,-444.123565
4489.768096,740.205942,-8197.221829,-518.144159
4489.768420,518.144159,-8580.269578,-592.164754
4489.768745,592.164754,-8580.269578,-370.102971
4489.769069,444.123565,-8350.440928,-518.144159
4489.769393,222.061783,-8427.050478,-222.061783
4489.769718,222.061783,-8350.440928,-296.082377
4489.770042,518.144159,-8273.831378,0.000000
4489.770366,370.102971,-8503.660028,-592.164754
4489.770691,740.205942,-8350.440928,-148.041188
4489.771015,592.164754,-8733.488677,-370.102971
4489.771339,518.144159,-7890.783629,-296.082377
4489.771664,444.123565,-8503.660028,-222.061783
4489.771988,370.102971,-8580.269578,-296.082377
4489.772312,74.020594,-8733.488677,-296.082377
4489.772637,148.041188,-8580.269578,-296.082377
4489.772961,148.041188,-8580.269578,-296.082377
4489.773285,148.041188,-8120.612279,-222.061783
4489.773610,518.144159,-8503.660028,-370.102971
4489.773934,370.102971,-8503.660028,-222.061783
4489.774258,740.205942,-9346.365076,296.082377
4489.774582,518.144159,-8733.488677,0.000000
4489.774907,444.123565,-8733.488677,74.020594
4489.775231,296.082377,-8427.050478,0.000000
4489.775555,148.041188,-8886.707777,0.000000
4489.775880,148.041188,-8580.269578,74.020594
4489.776204,148.041188,-8503.660028,148.041188
4489.776528,148.041188,-8810.098227,-148.041188
4489.776853,148.041188,-8197.221829,-222.061783
4489.777177,0.000000,-8733.488677,0.000000
4489.777501,370.102971,-8503.660028,0.000000
4489.777826,444.123565,-8427.050478,-148.041188
4489.778150,444.123565,-8963.317327,-222.061783
4489.778474,740.205942,-9269.755526,0.000000
4489.778799,592.164754,-8656.879127,0.000000
4489.779123,518.144159,-8810.098227,-296.082377
4489.779447,370.102971,-8580.269578,0.000000
4489.779772,370.102971,-8197.221829,-370.102971
4489.780096,518.144159,-8197.221829,-222.061783
4489.780420,518.144159,-8503.660028,-370.102971
4489.780744,222.061783,-8733.488677,-296.082377
4489.781069,592.164754,-8273.831378,-74.020594
4489.781393,370.102971,-8120.612279,-370.102971
4489.781717,740.205942,-8580.269578,-444.123565
4489.782042,592.164754,-8580.269578,-296.082377
4489.782366,444.123565,-8810.098227,-370.102971
4489.782690,370.102971,-8656.879127,-296.082377
4489.783015,148.041188,-8580.269578,0.000000
4489.783339,444.123565,-8733.488677,0.000000
4489.783663,0.000000,-8580.269578,-222.061783
4489.783988,370.102971,-8656.879127,-370.102971
4489.784312,444.123565,-8656.879127,-296.082377
4489.784636,740.205942,-8580.269578,-222.061783
4489.784961,518.144159,-8427.050478,-370.102971
4489.785285,814.226536,-8733.488677,-148.041188
4489.785609,444.123565,-8810.098227,296.082377
4489.785934,814.226536,-8810.098227,-296.082377
4489.786258,592.164754,-8810.098227,0.000000
4489.786582,518.144159,-8733.488677,0.000000
4489.786906,740.205942,-8197.221829,-222.061783
4489.787231,222.061783,-8427.050478,-148.041188
4489.787555,592.164754,-8503.660028,-518.144159
4489.787879,666.185348,-8810.098227,-370.102971
4489.788204,518.144159,-8350.440928,-296.082377
4489.788528,444.123565,-8503.660028,-518.144159
4489.788852,518.144159,-8733.488677,-592.164754
4489.789177,518.144159,-8580.269578,-444.123565
4489.789501,296.082377,-8656.879127,-666.185348
4489.789825,814.226536,-8963.317327,-148.041188
4489.790150,222.061783,-8733.488677,-296.082377
4489.790474,296.082377,-9039.926876,0.000000
4489.790798,296.082377,-8120.612279,-518.144159
4489.791123,296.082377,-9422.974625,-370.102971
4489.791447,740.205942,-8580.269578,-518.144159
4489.791771,518.144159,-8427.050478,-222.061783
4489.792096,518.144159,-8656.879127,-370.102971
4489.792420,296.082377,-8503.660028,-444.123565
4489.792744,592.164754,-8886.707777,-222.061783
4489.793068,296.082377,-8197.221829,-370.102971
4489.793393,296.082377,-8427.050478,0.000000
4489.793717,148.041188,-8427.050478,-148.041188
4489.794041,0.000000,-8810.098227,666.185348
4489.794366,222.061783,-8503.660028,-444.123565
4489.794690,148.041188,-8733.488677,-296.082377
4489.795014,222.061783,-8273.831378,-148.041188
4489.795339,0.000000,-8503.660028,0.000000
4489.795663,222.061783,-8580.269578,-592.164754
4489.795987,222.061783,-8503.660028,-222.061783
4489.796312,444.123565,-8580.269578,-518.144159
4489.796636,296.082377,-8503.660028,-296.082377
4489.796960,740.205942,-8503.660028,-592.164754
4489.797285,518.144159,-8733.488677,-148.041188
4489.797609,592.164754,-8350.440928,0.000000
4489.797933,296.082377,-8580.269578,-222.061783
4489.798258,888.247130,-8733.488677,222.061783
4489.798582,592.164754,-8350.440928,-222.061783
4489.798906,444.123565,-8580.269578,0.000000
4489.799230,148.041188,-8503.660028,-296.082377
4489.799555,222.061783,-8580.269578,-296.082377
4489.799879,518.144159,-8886.707777,-296.082377
4489.800203,296.082377,-8580.269578,-296.082377
4489.800528,444.123565,-8656.879127,0.000000
4489.800852,296.082377,-8656.879127,0.000000
4489.801176,962.267725,-8963.317327,-148.041188
4489.801501,592.164754,-8656.879127,0.000000
4489.801825,740.205942,-8886.707777,222.061783
4489.802149,518.144159,-8503.660028,0.000000
4489.802474,666.185348,-8886.707777,0.000000
4489.802798,444.123565,-8656.879127,-370.102971
4489.803122,444.123565,-8580.269578,-444.123565
4489.803447,222.061783,-8580.269578,-148.041188
4489.803771,296.082377,-8350.440928,-370.102971
4489.804095,592.164754,-8273.831378,-370.102971
4489.804420,444.123565,-8197.221829,-296.082377
4489.804744,888.247130,-8273.831378,-296.082377
4489.805068,444.123565,-8580.269578,-592.164754
4489.805392,592.164754,-8044.002729,0.000000
4489.805717,518.144159,-8503.660028,-518.144159
4489.806041,222.061783,-9116.536426,-518.144159
4489.806365,296.082377,-8733.488677,-592.164754
4489.806690,222.061783,-9039.926876,74.020594
4489.807014,296.082377,-8427.050478,-666.185348
4489.807338,74.020594,-8810.098227,-296.082377
4489.807663,148.041188,-8503.660028,-518.144159
4489.807987,370.102971,-8656.879127,-370.102971
4489.808311,888.247130,-9269.755526,-592.164754
4489.808636,814.226536,-8886.707777,-296.082377
4489.808960,592.164754,-8503.660028,0.000000
4489.809284,222.061783,-8656.879127,0.000000
4489.809609,444.123565,-8273.831378,0.000000
4489.809933,444.123565,-8580.269578,-444.123565
4489.810257,222.061783,-8733.488677,-296.082377
4489.810582,296.082377,-8580.269578,0.000000
4489.810906,296.082377,-8580.269578,-148.041188
4489.811230,74.020594,-8503.660028,-222.061783
4489.811554,370.102971,-8503.660028,-296.082377
4489.811879,444.123565,-8886.707777,-370.102971
4489.812203,444.123565,-8810.098227,-296.082377
4489.812527,370.102971,-8350.440928,-296.082377
4489.812852,518.144159,-8963.317327,-222.061783
4489.813176,444.123565,-8503.660028,-222.061783
4489.813500,666.185348,-8656.879127,-148.041188
4489.813825,592.164754,-8503.660028,-148.041188
4489.814149,518.144159,-8350.440928,-296.082377
4489.814473,222.061783,-8427.050478,-148.041188
4489.814798,222.061783,-8197.221829,-370.102971
4489.815122,370.102971,-8350.440928,-592.164754
4489.815446,370.102971,-8350.440928,-444.123565
4489.815771,592.164754,-8197.221829,-222.061783
4489.816095,148.041188,-8120.612279,-148.041188
4489.816419,444.123565,-8810.098227,-592.164754
4489.816744,592.164754,-8733.488677,-592.164754
4489.817068,444.123565,-8580.269578,-222.061783
4489.817392,444.123565,-8810.098227,-592.164754
4489.817716,222.061783,-8886.707777,-296.082377
4489.818041,370.102971,-9193.145976,-370.102971
4489.818365,74.020594,-8350.440928,-444.123565
4489.818689,222.061783,-8656.879127,-370.102971
4489.819014,370.102971,-8810.098227,-370.102971
4489.819338,592.164754,-8580.269578,-222.061783
4489.819662,370.102971,-8273.831378,-444.123565
4489.819987,592.164754,-8656.879127,-370.102971
4489.820311,444.123565,-8427.050478,-222.061783
4489.820635,518.144159,-8580.269578,0.000000
4489.820960,444.123565,-8580.269578,-592.164754
4489.821284,444.123565,-8580.269578,-148.041188
4489.821608,74.020594,-8810.098227,-370.102971
4489.821933,0.000000,-8656.879127,-666.185348
4489.822257,444.123565,-8656.879127,-888.247130
4489.822581,518.144159,-8580.269578,-444.123565
4489.822906,592.164754,-8427.050478,-666.185348
4489.823230,518.144159,-8810.098227,-592.164754
4489.823554,370.102971,-8733.488677,-518.144159
4489.823878,444.123565,-8580.269578,-666.185348
4489.824203,666.185348,-8580.269578,-666.185348
4489.824527,592.164754,-8810.098227,-666.185348
4489.824851,666.185348,-8656.879127,-518.144159
4489.825176,444.123565,-8273.831378,-814.226536
4489.825500,518.144159,-8810.098227,-814.226536
4489.825824,592.164754,-8810.098227,-592.164754
4489.826149,592.164754,-8503.660028,-444.123565
4489.826473,296.082377,-8733.488677,-592.164754
4489.826797,444.123565,-8656.879127,-222.061783
4489.827122,444.123565,-8427.050478,-370.102971
4489.827446,592.164754,-8580.269578,-222.061783
4489.827770,518.144159,-8810.098227,-222.061783
4489.828095,222.061783,-8963.317327,148.041188
4489.828419,296.082377,-8580.269578,0.000000
4489.828743,74.020594,-8733.488677,0.000000
4489.829068,222.061783,-8656.879127,-444.123565
4489.829392,296.082377,-9422.974625,0.000000
4489.829716,296.082377,-8350.440928,0.000000
4489.830040,296.082377,-8427.050478,-148.041188
4489.830365,444.123565,-8656.879127,-296.082377
4489.830689,518.144159,-8120.612279,-296.082377
4489.831013,888.247130,-8810.098227,-370.102971
4489.831338,444.123565,-8656.879127,-148.041188
4489.831662,296.082377,-8656.879127,0.000000
4489.831986,444.123565,-8503.660028,-222.061783
4489.832311,444.123565,-8427.050478,-370.102971
4489.832635,518.144159,-8503.660028,-222.061783
4489.832959,444.123565,-8350.440928,-444.123565
4489.833284,518.144159,-8273.831378,-370.102971
4489.833608,592.164754,-8810.098227,-888.247130
4489.833932,370.102971,-8580.269578,-370.102971
4489.834257,592.164754,-8656.879127,-370.102971
4489.834581,296.082377,-8810.098227,-444.123565
4489.834905,444.123565,-8886.707777,-518.144159
4489.835230,518.144159,-8963.317327,-444.123565
4489.835554,222.061783,-8580.269578,-296.082377
4489.835878,370.102971,-8733.488677,0.000000
4489.836203,296.082377,-8810.098227,-370.102971
4489.836527,666.185348,-9116.536426,0.000000
4489.836852,666.185348,-8503.660028,-296.082377
4489.837176,296.082377,-8656.879127,-370.102971
4489.837501,444.123565,-8273.831378,-222.061783
4489.837825,444.123565,-8810.098227,-518.144159
4489.838150,296.082377,-8427.050478,-592.164754
4489.838474,444.123565,-8197.221829,-370.102971
4489.838798,296.082377,-8580.269578,0.000000
4489.839123,296.082377,-8350.440928,-222.061783
4489.839447,148.041188,-8580.269578,-296.082377
4489.839772,296.082377,-8810.098227,-592.164754
4489.840096,666.185348,-8350.440928,-592.164754
4489.840421,444.123565,-8427.050478,-740.205942
4489.840745,740.205942,-8886.707777,-814.226536
4489.841070,222.061783,-8427.050478,-740.205942
4489.841394,222.061783,-8886.707777,-888.247130
4489.841718,74.020594,-8427.050478,-814.226536
4489.842043,370.102971,-8656.879127,-592.164754
4489.842367,518.144159,-8503.660028,-740.205942
4489.842692,296.082377,-8656.879127,-444.123565
4489.843016,444.123565,-8427.050478,-666.185348
4489.843341,444.123565,-8580.269578,-444.123565
4489.843665,666.185348,-8120.612279,-444.123565
4489.843990,296.082377,-8656.879127,-296.082377
4489.844314,518.144159,-8503.660028,-592.164754
4489.844638,518.144159,-8580.269578,-666.185348
4489.844963,666.185348,-8656.879127,-518.144159
4489.845287,222.061783,-8580.269578,-296.082377
4489.845612,370.102971,-8886.707777,-296.082377
4489.845936,74.020594,-8733.488677,-518.144159
4489.846261,296.082377,-8733.488677,-370.102971
4489.846585,444.123565,-8810.098227,0.000000
4489.846910,592.164754,-8810.098227,0.000000
4489.847234,370.102971,-8427.050478,0.000000
4489.847558,592.164754,-8886.707777,0.000000
4489.847883,888.247130,-8120.612279,0.000000
4489.848207,666.185348,-8503.660028,-592.164754
4489.848532,740.205942,-9039.926876,-370.102971
4489.848856,444.123565,-8503.660028,-592.164754
4489.849181,222.061783,-8886.707777,-222.061783
4489.849505,444.123565,-8427.050478,-814.226536
4489.849830,444.123565,-8427.050478,-444.123565
4489.850154,740.205942,-8580.269578,-814.226536
4489.850478,592.164754,-8273.831378,-518.144159
4489.850803,444.123565,-8273.831378,-444.123565
4489.851127,666.185348,-8733.488677,-518.144159
4489.851452,518.144159,-8273.831378,-888.247130
4489.851776,740.205942,-8886.707777,-518.144159
4489.852101,666.185348,-8273.831378,-740.205942
4489.852425,148.041188,-8656.879127,-666.185348
4489.852750,148.041188,-8656.879127,-666.185348
4489.853074,74.020594,-8656.879127,-444.123565
4489.853398,518.144159,-8733.488677,-592.164754
4489.853723,592.164754,-8656.879127,-444.123565
4489.854047,1184.329507,-8503.660028,0.000000
4489.854372,888.247130,-8350.440928,-444.123565
4489.854696,814.226536,-9039.926876,-148.041188
4489.855021,962.267725,-8197.221829,-666.185348
4489.855345,444.123565,-8733.488677,-444.123565
4489.855670,296.082377,-8350.440928,-222.061783
4489.855994,444.123565,-8427.050478,-296.082377
4489.856319,296.082377,-8350.440928,-296.082377
4489.856643,666.185348,-8580.269578,-444.123565
4489.856967,370.102971,-8580.269578,-666.185348
4489.857292,592.164754,-8810.098227,-370.102971
4489.857616,740.205942,-8273.831378,-370.102971
4489.857941,444.123565,-8886.707777,-296.082377
4489.858265,222.061783,-8427.050478,-444.123565
4489.858590,148.041188,-8810.098227,-370.102971
4489.858914,222.061783,-8886.707777,-370.102971
4489.859239,148.041188,-8963.317327,0.000000
4489.859563,148.041188,-8733.488677,-148.041188
4489.859887,370.102971,-8580.269578,-592.164754
4489.860212,370.102971,-8503.660028,-222.061783
4489.860536,444.123565,-8044.002729,-148.041188
4489.860861,592.164754,-8350.440928,-444.123565
4489.861185,370.102971,-8273.831378,0.000000
4489.861510,444.123565,-8733.488677,-222.061783
4489.861834,518.144159,-8656.879127,-222.061783
4489.862159,592.164754,-8656.879127,-518.144159
4489.862483,444.123565,-8656.879127,-370.102971
4489.862807,370.102971,-8810.098227,0.000000
4489.863132,222.061783,-8810.098227,-222.061783
4489.863456,296.082377,-8963.317327,0.000000
4489.863781,370.102971,-8810.098227,-296.082377
4489.864105,592.164754,-9193.145976,0.000000
4489.864430,814.226536,-8120.612279,-444.123565
4489.864754,592.164754,-8427.050478,-296.082377
4489.865079,518.144159,-8427.050478,-518.144159
4489.865403,518.144159,-8427.050478,-148.041188
4489.865727,740.205942,-8656.879127,-592.164754
4489.866052,518.144159,-8810.098227,0.000000
4489.866376,222.061783,-8350.440928,-148.041188
4489.866701,444.123565,-8810.098227,0.000000
4489.867025,222.061783,-8273.831378,-444.123565
4489.867350,666.185348,-8503.660028,-444.123565
4489.867674,592.164754,-8197.221829,-592.164754
4489.867999,370.102971,-8044.002729,-296.082377
4489.868323,518.144159,-8580.269578,-592.164754
4489.868647,296.082377,-8503.660028,-444.123565
4489.868972,592.164754,-9576.193725,-370.102971
4489.869296,444.123565,-8810.098227,-444.123565
4489.869621,592.164754,-8656.879127,-296.082377
4489.869945,370.102971,-8580.269578,0.000000
4489.870270,814.226536,-8580.269578,-296.082377
4489.870594,814.226536,-8580.269578,-444.123565
4489.870919,814.226536,-9039.926876,-296.082377
4489.871243,1036.288319,-8503.660028,-370.102971
4489.871567,666.185348,-8197.221829,-370.102971
4489.871892,222.061783,-8810.098227,-296.082377
4489.872216,296.082377,-8580.269578,-518.144159
4489.872541,444.123565,-8580.269578,-370.102971
4489.872865,370.102971,-8580.269578,-222.061783
4489.873190,444.123565,-8273.831378,0.000000
4489.873514,296.082377,-8580.269578,-592.164754
4489.873839,370.102971,-8810.098227,-444.123565
4489.874163,370.102971,-8656.879127,-444.123565
4489.874488,222.061783,-8810.098227,-222.061783
4489.874812,370.102971,-8810.098227,-592.164754
4489.875136,222.061783,-8656.879127,-296.082377
4489.875461,0.000000,-8810.098227,-592.164754
4489.875785,0.000000,-8656.879127,-370.102971
4489.876110,370.102971,-9346.365076,-666.185348
4489.876434,296.082377,-8503.660028,-296.082377
4489.876759,444.123565,-8963.317327,-370.102971
4489.877083,296.082377,-8503.660028,-222.061783
4489.877408,666.185348,-8580.269578,-222.061783
4489.877732,444.123565,-8580.269578,-222.061783
4489.878056,518.144159,-8733.488677,-370.102971
4489.878381,296.082377,-8503.660028,-148.041188
4489.878705,370.102971,-8503.660028,-296.082377
4489.879030,296.082377,-8810.098227,0.000000
4489.879354,296.082377,-8503.660028,-518.144159
4489.879679,444.123565,-8427.050478,-666.185348
4489.880003,222.061783,-8580.269578,-148.041188
4489.880328,370.102971,-8810.098227,296.082377
4489.880652,296.082377,-8503.660028,-222.061783
4489.880976,444.123565,-8120.612279,0.000000
4489.881301,666.185348,-8503.660028,-222.061783
4489.881625,666.185348,-8810.098227,0.000000
4489.881950,592.164754,-8273.831378,0.000000
4489.882274,370.102971,-8810.098227,-222.061783
4489.882599,518.144159,-8733.488677,-222.061783
4489.882923,444.123565,-8580.269578,-148.041188
4489.883248,370.102971,-8580.269578,0.000000
4489.883572,222.061783,-8350.440928,0.000000
4489.883896,222.061783,-8656.879127,0.000000
4489.884221,814.226536,-8044.002729,-592.164754
4489.884545,296.082377,-8350.440928,0.000000
4489.884870,740.205942,-8580.269578,-222.061783
4489.885194,592.164754,-8427.050478,0.000000
4489.885519,592.164754,-8733.488677,-370.102971
4489.885843,518.144159,-8810.098227,-518.144159
4489.886168,74.020594,-8733.488677,-222.061783
4489.886492,222.061783,-8733.488677,-222.061783
4489.886816,222.061783,-8427.050478,-296.082377
4489.887141,518.144159,-8886.707777,-370.102971
4489.887465,370.102971,-8350.440928,-296.082377
4489.887790,592.164754,-8580.269578,-518.144159
4489.888114,962.267725,-8273.831378,-592.164754
4489.888439,814.226536,-8733.488677,-370.102971
4489.888763,740.205942,-8197.221829,148.041188
4489.889088,592.164754,-8733.488677,-296.082377
4489.889412,518.144159,-8656.879127,-222.061783
4489.889736,222.061783,-8503.660028,-592.164754
4489.890061,444.123565,-8963.317327,-222.061783
4489.890385,74.020594,-8810.098227,-370.102971
4489.890710,148.041188,-8427.050478,-370.102971
4489.891034,222.061783,-8733.488677,-518.144159
4489.891359,518.144159,-8427.050478,-444.123565
4489.891683,1036.288319,-8810.098227,-814.226536
4489.892008,222.061783,-9116.536426,-370.102971
4489.892332,592.164754,-8427.050478,-370.102971
4489.892657,222.061783,-8656.879127,-370.102971
4489.892981,296.082377,-8656.879127,-666.185348
4489.893305,592.164754,-8810.098227,-370.102971
4489.893630,518.144159,-8580.269578,0.000000
4489.893954,222.061783,-8733.488677,-370.102971
4489.894279,370.102971,-8810.098227,-296.082377
4489.894603,222.061783,-8427.050478,0.000000
4489.894928,370.102971,-8503.660028,-370.102971
4489.895252,518.144159,-8656.879127,-296.082377
4489.895577,370.102971,-8580.269578,-222.061783
4489.895901,592.164754,-8580.269578,0.000000
4489.896225,296.082377,-8656.879127,-222.061783
4489.896550,370.102971,-8580.269578,0.000000
4489.896874,444.123565,-8733.488677,0.000000
4489.897199,370.102971,-8810.098227,0.000000
4489.897523,296.082377,-8810.098227,0.000000
4489.897848,148.041188,-8656.879127,0.000000
4489.898172,74.020594,-8427.050478,-370.102971
4489.898497,222.061783,-8580.269578,-296.082377
4489.898821,592.164754,-8963.317327,-518.144159
4489.899145,592.164754,-8197.221829,0.000000
4489.899470,592.164754,-8580.269578,-222.061783
4489.899794,518.144159,-8580.269578,-370.102971
4489.900119,814.226536,-8810.098227,0.000000
4489.900443,370.102971,-8350.440928,-148.041188
4489.900768,592.164754,-8503.660028,222.061783
4489.901092,370.102971,-8427.050478,0.000000
4489.901417,518.144159,-8580.269578,74.020594
4489.901741,148.041188,-8350.440928,-296.082377
4489.902065,518.144159,-8427.050478,-222.061783
4489.902390,518.144159,-8580.269578,-666.185348
4489.902714,518.144159,-8503.660028,-296.082377
4489.903039,74.020594,-8350.440928,-740.205942
4489.903363,148.041188,-8810.098227,0.000000
4489.903688,592.164754,-8350.440928,-444.123565
4489.904012,518.144159,-8963.317327,-148.041188
4489.904337,518.144159,-8810.098227,0.000000
4489.904661,518.144159,-8656.879127,0.000000
4489.904985,444.123565,-8503.660028,0.000000
4489.905310,444.123565,-8503.660028,-296.082377
4489.905634,444.123565,-8580.269578,-592.164754
4489.905959,518.144159,-8503.660028,-370.102971
4489.906283,222.061783,-8350.440928,-518.144159
4489.906608,444.123565,-8810.098227,-222.061783
4489.906932,148.041188,-8350.440928,-592.164754
4489.907257,148.041188,-8963.317327,-148.041188
4489.907581,518.144159,-8580.269578,-370.102971
4489.907905,296.082377,-8810.098227,0.000000
4489.908230,296.082377,-8656.879127,-296.082377
4489.908554,518.144159,-9652.803275,-444.123565
4489.908879,74.020594,-8580.269578,-444.123565
4489.909203,444.123565,-8733.488677,-518.144159
4489.909528,296.082377,-8427.050478,-518.144159
4489.909852,148.041188,-8810.098227,-296.082377
4489.910177,-222.061783,-8427.050478,-518.144159
4489.910501,222.061783,-8656.879127,-296.082377
4489.910825,444.123565,-8656.879127,-592.164754
4489.911150,592.164754,-8580.269578,-222.061783
4489.911474,444.123565,-8580.269578,-222.061783
4489.911799,370.102971,-8733.488677,0.000000
4489.912123,518.144159,-8580.269578,0.000000
4489.912448,592.164754,-8656.879127,-444.123565
4489.912772,740.205942,-9039.926876,0.000000
4489.913097,444.123565,-8197.221829,-296.082377
4489.913421,296.082377,-8810.098227,-444.123565
4489.913746,296.082377,-8427.050478,-444.123565
4489.914070,592.164754,-8810.098227,-222.061783
4489.914394,222.061783,-8580.269578,-296.082377
4489.914719,296.082377,-8503.660028,0.000000
4489.915043,370.102971,-8656.879127,0.000000
4489.915368,370.102971,-8503.660028,-148.041188
4489.915692,740.205942,-9039.926876,222.061783
4489.916017,592.164754,-8427.050478,-296.082377
4489.916341,518.144159,-8503.660028,-148.041188
4489.916666,592.164754,-8427.050478,-444.123565
4489.916990,518.144159,-8580.269578,-296.082377
4489.917314,370.102971,-8350.440928,-592.164754
4489.917639,592.164754,-8503.660028,-296.082377
4489.917963,222.061783,-8656.879127,-592.164754
4489.918288,444.123565,-8350.440928,-296.082377
4489.918612,814.226536,-8503.660028,-296.082377
4489.918937,666.185348,-8350.440928,-296.082377
4489.919261,666.185348,-8273.831378,-444.123565
4489.919586,592.164754,-8580.269578,-74.020594
4489.919910,888.247130,-8810.098227,148.041188
4489.920234,444.123565,-8503.660028,-222.061783
4489.920559,592.164754,-8886.707777,-370.102971
4489.920883,518.144159,-8656.879127,-518.144159
4489.921208,370.102971,-8886.707777,-370.102971
4489.921532,296.082377,-8656.879127,-148.041188
4489.921857,592.164754,-8503.660028,-296.082377
4489.922181,666.185348,-8427.050478,-370.102971
4489.922506,740.205942,-8656.879127,-444.123565
4489.922830,740.205942,-8350.440928,0.000000
4489.923154,444.123565,-8503.660028,-296.082377
4489.923479,592.164754,-8580.269578,0.000000
4489.923803,296.082377,-8427.050478,-444.123565
4489.924128,222.061783,-8810.098227,-370.102971
4489.924452,296.082377,-8350.440928,-444.123565
4489.924777,296.082377,-8810.098227,-296.082377
4489.925101,0.000000,-8503.660028,-666.185348
4489.925426,148.041188,-8580.269578,-518.144159
4489.925750,444.123565,-8886.707777,-740.205942
4489.926074,370.102971,-8427.050478,-518.144159
4489.926399,222.061783,-8733.488677,-518.144159
4489.926723,296.082377,-8810.098227,-296.082377
4489.927048,666.185348,-8886.707777,-370.102971
4489.927372,222.061783,-8963.317327,-296.082377
4489.927697,148.041188,-8580.269578,-518.144159
4489.928021,592.164754,-8580.269578,-592.164754
4489.928346,296.082377,-7890.783629,-370.102971
4489.928670,296.082377,-8810.098227,-444.123565
4489.928994,370.102971,-8427.050478,-666.185348
4489.929319,148.041188,-8656.879127,-444.123565
4489.929643,296.082377,-8044.002729,-370.102971
4489.929968,370.102971,-8580.269578,-592.164754
4489.930292,296.082377,-8273.831378,-518.144159
4489.930617,518.144159,-8580.269578,-592.164754
4489.930941,296.082377,-8886.707777,-592.164754
4489.931266,666.185348,-9652.803275,0.000000
4489.931590,370.102971,-8580.269578,-370.102971
4489.931915,370.102971,-8656.879127,-370.102971
4489.932239,370.102971,-8656.879127,-370.102971
4489.932563,444.123565,-8580.269578,-370.102971
4489.932888,296.082377,-8197.221829,-148.041188
4489.933212,666.185348,-8810.098227,-444.123565
4489.933537,666.185348,-8810.098227,-444.123565
4489.933861,814.226536,-7967.393179,-222.061783
4489.934186,148.041188,-8580.269578,0.000000
4489.934510,592.164754,-8503.660028,0.000000
4489.934835,888.247130,-8503.660028,-148.041188
4489.935159,740.205942,-8733.488677,-518.144159
4489.935483,814.226536,-8656.879127,-296.082377
4489.935808,666.185348,-8273.831378,-370.102971
4489.936132,518.144159,-8273.831378,-370.102971
4489.936457,370.102971,-8350.440928,-592.164754
4489.936781,592.164754,-8273.831378,-666.185348
4489.937106,592.164754,-8733.488677,-444.123565
4489.937430,518.144159,-8197.221829,-222.061783
4489.937755,592.164754,-8503.660028,-296.082377
4489.938079,592.164754,-8503.660028,-370.102971
4489.938404,666.185348,-8503.660028,-296.082377
4489.938728,740.205942,-8580.269578,-370.102971
4489.939053,592.164754,-8733.488677,-148.041188
4489.939377,444.123565,-8427.050478,-296.082377
4489.939702,666.185348,-8886.707777,-296.082377
4489.940026,222.061783,-8427.050478,-74.020594
4489.940351,370.102971,-8656.879127,-370.102971
4489.940675,518.144159,-8503.660028,-370.102971
4489.941000,296.082377,-8350.440928,-296.082377
4489.941324,592.164754,-8810.098227,-518.144159
4489.941649,592.164754,-8197.221829,-592.164754
4489.941973,666.185348,-8427.050478,-518.144159
4489.942298,592.164754,-8810.098227,-370.102971
4489.942622,518.144159,-9346.365076,-148.041188
4489.942947,222.061783,-8810.098227,-518.144159
4489.943271,0.000000,-8810.098227,-296.082377
4489.943596,0.000000,-9039.926876,-592.164754
4489.943920,0.000000,-8656.879127,-148.041188
4489.944245,444.123565,-8503.660028,0.000000
4489.944569,370.102971,-8656.879127,-444.123565
4489.944894,296.082377,-8810.098227,-592.164754
4489.945218,592.164754,-8580.269578,-296.082377
4489.945543,444.123565,-8503.660028,-518.144159
4489.945867,444.123565,-8963.317327,-296.082377
4489.946192,222.061783,-8886.707777,-222.061783
4489.946516,74.020594,-8656.879127,-296.082377
4489.946841,74.020594,-8427.050478,-592.164754
4489.947165,296.082377,-8350.440928,-444.123565
4489.947490,518.144159,-8886.707777,-444.123565
4489.947814,592.164754,-8350.440928,-518.144159
4489.948139,666.185348,-8580.269578,-666.185348
4489.948463,666.185348,-8503.660028,-592.164754
4489.948788,962.267725,-8503.660028,-666.185348
4489.949112,518.144159,-8656.879127,-740.205942
4489.949437,222.061783,-8886.707777,0.000000
4489.949761,740.205942,-8963.317327,-296.082377
4489.950086,296.082377,-8580.269578,-148.041188
4489.950410,222.061783,-8350.440928,-296.082377
4489.950735,666.185348,-8656.879127,0.000000
4489.951059,518.144159,-8656.879127,0.000000
4489.951384,888.247130,-8503.660028,-370.102971
4489.951708,518.144159,-8503.660028,-370.102971
4489.952033,444.123565,-8350.440928,-296.082377
4489.952357,222.061783,-8350.440928,-518.144159
4489.952682,666.185348,-8656.879127,-518.144159
4489.953006,222.061783,-8197.221829,-444.123565
4489.953331,296.082377,-8503.660028,-370.102971
4489.953655,296.082377,-8427.050478,-370.102971
4489.953980,1406.391290,-8503.660028,-666.185348
4489.954304,814.226536,-8580.269578,-666.185348
4489.954629,518.144159,-8580.269578,-370.102971
4489.954953,444.123565,-8427.050478,-666.185348
4489.955278,740.205942,-8656.879127,-518.144159
4489.955602,296.082377,-8503.660028,-222.061783
4489.955927,592.164754,-8963.317327,-814.226536
4489.956251,370.102971,-8656.879127,-518.144159
4489.956576,296.082377,-8963.317327,-148.041188
4489.956900,666.185348,-8810.098227,-296.082377
4489.957225,518.144159,-8427.050478,-222.061783
4489.957549,444.123565,-8886.707777,-222.061783
4489.957874,518.144159,-8427.050478,0.000000
4489.958198,592.164754,-7814.174080,0.000000
4489.958523,444.123565,-8656.879127,-518.144159
4489.958847,148.041188,-8503.660028,-370.102971
4489.959172,74.020594,-8503.660028,-444.123565
4489.959496,0.000000,-9346.365076,-666.185348
4489.959821,0.000000,-8963.317327,-518.144159
4489.960145,74.020594,-8733.488677,-296.082377
4489.960470,0.000000,-8963.317327,-444.123565
4489.960794,222.061783,-8427.050478,-222.061783
4489.961119,148.041188,-8963.317327,-296.082377
4489.961443,592.164754,-8503.660028,-370.102971
4489.961768,518.144159,-8427.050478,-296.082377
4489.962092,222.061783,-8733.488677,-518.144159
4489.962417,222.061783,-8733.488677,0.000000
4489.962741,444.123565,-8503.660028,-666.185348
4489.963066,148.041188,-8810.098227,-74.020594
4489.963390,148.041188,-8427.050478,-444.123565
4489.963715,370.102971,-8350.440928,-444.123565
4489.964039,518.144159,-8350.440928,-666.185348
4489.964364,592.164754,-8350.440928,-740.205942
4489.964688,814.226536,-8503.660028,-592.164754
4489.965013,666.185348,-8580.269578,-444.123565
4489.965337,814.226536,-8503.660028,-518.144159
4489.965662,370.102971,-8656.879127,-296.082377
4489.965986,222.061783,-8733.488677,-370.102971
4489.966311,222.061783,-8580.269578,-518.144159
4489.966635,666.185348,-9039.926876,-296.082377
4489.966960,296.082377,-8886.707777,-222.061783
4489.967284,592.164754,-8580.269578,-518.144159
4489.967609,740.205942,-8810.098227,-592.164754
4489.967933,666.185348,-8427.050478,-370.102971
4489.968258,1036.288319,-8580.269578,0.000000
4489.968582,740.205942,-8120.612279,0.000000
4489.968907,592.164754,-8427.050478,-296.082377
4489.969231,592.164754,-8273.831378,-370.102971
4489.969556,370.102971,-8733.488677,0.000000
4489.969880,296.082377,-8427.050478,-296.082377
4489.970205,296.082377,-8503.660028,0.000000
4489.970529,296.082377,-8503.660028,-518.144159
4489.970854,518.144159,-7814.174080,0.000000
4489.971178,740.205942,-8273.831378,-592.164754
4489.971503,444.123565,-8733.488677,-370.102971
4489.971827,814.226536,-8656.879127,-666.185348
4489.972152,370.102971,-8656.879127,-370.102971
4489.972476,444.123565,-8810.098227,-444.123565
4489.972801,222.061783,-8810.098227,-222.061783
4489.973125,518.144159,-8503.660028,-296.082377
4489.973450,444.123565,-8886.707777,0.000000
4489.973774,592.164754,-8580.269578,0.000000
4489.974099,444.123565,-8886.707777,-370.102971
4489.974423,222.061783,-8350.440928,-444.123565
4489.974748,370.102971,-8350.440928,-370.102971
4489.975072,444.123565,-8044.002729,-518.144159
4489.975397,370.102971,-8580.269578,-370.102971
4489.975721,222.061783,-8273.831378,-222.061783
4489.976046,222.061783,-8733.488677,-518.144159
4489.976370,222.061783,-8733.488677,-370.102971
4489.976695,518.144159,-8503.660028,-592.164754
4489.977019,518.144159,-8580.269578,-222.061783
4489.977344,370.102971,-8810.098227,0.000000
4489.977668,370.102971,-9039.926876,-296.082377
4489.977993,296.082377,-8580.269578,-740.205942
4489.978317,222.061783,-8656.879127,-222.061783
4489.978642,74.020594,-8656.879127,-370.102971
4489.978966,148.041188,-8197.221829,-370.102971
4489.979291,222.061783,-8273.831378,-370.102971
4489.979615,370.102971,-8656.879127,-370.102971
4489.979940,888.247130,-8503.660028,-666.185348
4489.980264,740.205942,-8656.879127,-148.041188
4489.980589,666.185348,-8656.879127,-148.041188
4489.980913,592.164754,-8656.879127,-518.144159
4489.981238,370.102971,-8580.269578,-222.061783
4489.981562,444.123565,-8427.050478,-592.164754
4489.981887,444.123565,-8810.098227,-444.123565
4489.982211,592.164754,-9193.145976,-444.123565
4489.982536,148.041188,-8427.050478,-222.061783
4489.982860,222.061783,-8810.098227,-296.082377
4489.983185,518.144159,-8580.269578,-592.164754
4489.983509,592.164754,-8427.050478,-296.082377
4489.983834,518.144159,-8656.879127,-148.041188
4489.984158,592.164754,-8427.050478,74.020594
4489.984483,666.185348,-8656.879127,0.000000
4489.984807,592.164754,-8810.098227,-222.061783
4489.985132,444.123565,-9116.536426,-370.102971
4489.985456,370.102971,-8886.707777,-222.061783
4489.985781,518.144159,-8427.050478,-222.061783
4489.986105,296.082377,-8580.269578,-370.102971
4489.986430,222.061783,-9422.974625,0.000000
4489.986754,296.082377,-8427.050478,0.000000
4489.987079,666.185348,-8273.831378,-370.102971
4489.987403,740.205942,-8427.050478,-222.061783
4489.987728,444.123565,-8503.660028,0.000000
4489.988052,518.144159,-8580.269578,-296.082377
4489.988377,444.123565,-8580.269578,-444.123565
4489.988701,370.102971,-8810.098227,-370.102971
4489.989026,148.041188,-8810.098227,-518.144159
4489.989350,0.000000,-8656.879127,0.000000
4489.989675,74.020594,-8733.488677,-444.123565
4489.989999,148.041188,-8503.660028,-370.102971
4489.990324,296.082377,-8503.660028,-592.164754
4489.990648,740.205942,-8427.050478,-518.144159
4489.990973,444.123565,-8656.879127,-148.041188
4489.991297,444.123565,-8427.050478,-222.061783
4489.991622,592.164754,-8580.269578,-370.102971
4489.991946,518.144159,-8273.831378,-296.082377
4489.992271,148.041188,-8733.488677,-296.082377
4489.992595,296.082377,-8810.098227,-296.082377
4489.992920,148.041188,-8427.050478,-222.061783
4489.993244,222.061783,-8886.707777,-148.041188
4489.993569,296.082377,-7967.393179,-222.061783
4489.993893,666.185348,-8503.660028,-592.164754
4489.994218,370.102971,-8733.488677,-592.164754
4489.994542,222.061783,-8503.660028,0.000000
4489.994867,74.020594,-9193.145976,-296.082377
4489.995191,296.082377,-8656.879127,-296.082377
4489.995516,296.082377,-8580.269578,-296.082377
4489.995840,148.041188,-8886.707777,0.000000
4489.996165,666.185348,-8656.879127,-296.082377
4489.996489,592.164754,-8427.050478,0.000000
4489.996814,518.144159,-8963.317327,-444.123565
4489.997138,592.164754,-8427.050478,-444.123565
4489.997463,444.123565,-8120.612279,-444.123565
4489.997787,518.144159,-8197.221829,-222.061783
4489.998112,296.082377,-8427.050478,-148.041188
4489.998436,444.123565,-8656.879127,0.000000
4489.998761,444.123565,-8273.831378,-592.164754
4489.999085,518.144159,-8580.269578,74.020594
4489.999410,592.164754,-8427.050478,-370.102971
4489.999734,814.226536,-8273.831378,0.000000
4490.000059,592.164754,-8503.660028,-370.102971
4490.000383,666.185348,-8656.879127,-296.082377
4490.000708,370.102971,-8350.440928,-148.041188
4490.001032,222.061783,-8810.098227,-518.144159
4490.001357,222.061783,-8733.488677,-222.061783
4490.001681,296.082377,-8580.269578,-518.144159
4490.002006,888.247130,-9039.926876,-148.041188
4490.002330,592.164754,-8427.050478,-222.061783
4490.002655,740.205942,-8733.488677,-370.102971
4490.002979,666.185348,-8580.269578,0.000000
4490.003304,814.226536,-8427.050478,0.000000
4490.003628,592.164754,-8656.879127,296.082377
4490.003953,444.123565,-8656.879127,-148.041188
4490.004277,370.102971,-8273.831378,-148.041188
4490.004602,296.082377,-8733.488677,0.000000
4490.004926,444.123565,-8810.098227,-148.041188
4490.005251,444.123565,-8580.269578,-296.082377
4490.005575,296.082377,-8580.269578,-222.061783
4490.005900,296.082377,-8580.269578,-296.082377
4490.006224,222.061783,-8120.612279,-370.102971
4490.006549,666.185348,-8580.269578,0.000000
4490.006873,518.144159,-8120.612279,0.000000
4490.007198,518.144159,-9116.536426,0.000000
4490.007522,222.061783,-8656.879127,-444.123565
4490.007847,666.185348,-8886.707777,-444.123565
4490.008171,370.102971,-8656.879127,-444.123565
4490.008496,222.061783,-8580.269578,-148.041188
4490.008820,222.061783,-8350.440928,-444.123565
4490.009145,222.061783,-9116.536426,-592.164754
4490.009469,222.061783,-8350.440928,-444.123565
4490.009794,370.102971,-8810.098227,-444.123565
4490.010118,370.102971,-8273.831378,-518.144159
4490.010443,148.041188,-8963.317327,0.000000
4490.010767,296.082377,-8656.879127,-444.123565
4490.011092,518.144159,-8733.488677,-148.041188
4490.011416,222.061783,-8733.488677,-370.102971
4490.011741,296.082377,-9193.145976,-370.102971
4490.012065,0.000000,-8810.098227,-370.102971
4490.012390,370.102971,-8963.317327,-518.144159
4490.012714,222.061783,-8656.879127,-592.164754
4490.013039,444.123565,-8733.488677,-740.205942
4490.013363,518.144159,-9193.145976,-444.123565
4490.013688,740.205942,-8350.440928,-444.123565
4490.014012,592.164754,-8503.660028,-740.205942
4490.014337,518.144159,-8733.488677,-370.102971
4490.014661,740.205942,-8350.440928,-444.123565
4490.014986,740.205942,-8810.098227,-444.123565
4490.015310,444.123565,-8427.050478,-444.123565
4490.015635,222.061783,-8580.269578,-370.102971
4490.015959,370.102971,-8810.098227,-370.102971
4490.016284,222.061783,-8503.660028,-444.123565
4490.016608,444.123565,-8963.317327,-592.164754
4490.016933,592.164754,-8656.879127,-518.144159
4490.017257,518.144159,-8810.098227,-296.082377
4490.017582,74.020594,-9806.022374,-666.185348
4490.017906,296.082377,-8580.269578,-370.102971
4490.018231,518.144159,-8886.707777,-444.123565
4490.018555,370.102971,-8656.879127,-370.102971
4490.018880,518.144159,-8810.098227,0.000000
4490.019204,444.123565,-8886.707777,-296.082377
4490.019529,444.123565,-8503.660028,-592.164754
4490.019853,592.164754,-8503.660028,-296.082377
4490.020178,592.164754,-8503.660028,-518.144159
4490.020502,518.144159,-8733.488677,-222.061783
4490.020827,370.102971,-8273.831378,-296.082377
4490.021151,222.061783,-8810.098227,-296.082377
4490.021476,296.082377,-8503.660028,-370.102971
4490.021800,296.082377,-8656.879127,-592.164754
4490.022125,592.164754,-8350.440928,0.000000
4490.022449,370.102971,-8350.440928,0.000000
4490.022774,592.164754,-8733.488677,0.000000
4490.023098,296.082377,-8656.879127,-296.082377
4490.023423,370.102971,-8656.879127,-296.082377
4490.023747,518.144159,-8427.050478,-444.123565
4490.024072,296.082377,-8656.879127,0.000000
4490.024396,296.082377,-8733.488677,-296.082377
4490.024721,1036.288319,-8656.879127,-296.082377
4490.025045,370.102971,-8656.879127,-296.082377
4490.025370,518.144159,-8733.488677,0.000000
4490.025694,666.185348,-8963.317327,-222.061783
4490.026019,814.226536,-8273.831378,74.020594
4490.026343,518.144159,-8427.050478,0.000000
4490.026668,444.123565,-8503.660028,-370.102971
4490.026992,222.061783,-8580.269578,-148.041188
4490.027317,370.102971,-8580.269578,0.000000
4490.027641,222.061783,-8273.831378,-74.020594
4490.027966,222.061783,-8733.488677,-592.164754
4490.028290,74.020594,-8427.050478,-296.082377
4490.028615,296.082377,-8427.050478,-148.041188
4490.028939,740.205942,-8886.707777,-370.102971
4490.029264,296.082377,-8733.488677,0.000000
4490.029588,518.144159,-8810.098227,-74.020594
4490.029913,518.144159,-8733.488677,-148.041188
4490.030237,370.102971,-8656.879127,-222.061783
4490.030562,740.205942,-9039.926876,-222.061783
4490.030886,592.164754,-8580.269578,0.000000
4490.031211,222.061783,-8503.660028,-370.102971
4490.031535,222.061783,-8580.269578,-296.082377
4490.031860,518.144159,-8810.098227,0.000000
4490.032184,148.041188,-8580.269578,-518.144159
4490.032509,518.144159,-8350.440928,-444.123565
4490.032833,518.144159,-8273.831378,-296.082377
4490.033158,1036.288319,-9039.926876,-666.185348
4490.033482,666.185348,-8580.269578,-444.123565
4490.033807,888.247130,-8656.879127,-518.144159
4490.034131,592.164754,-8733.488677,-518.144159
4490.034456,518.144159,-8733.488677,-148.041188
4490.034780,74.020594,-8810.098227,-370.102971
4490.035105,0.000000,-8810.098227,-370.102971
4490.035429,444.123565,-8503.660028,-370.102971
4490.035754,0.000000,-8503.660028,-444.123565
4490.036078,0.000000,-8503.660028,-296.082377
4490.036403,222.061783,-8427.050478,-444.123565
4490.036727,444.123565,-8656.879127,-148.041188
4490.037052,592.164754,-8503.660028,-444.123565
4490.037376,666.185348,-7967.393179,0.000000
4490.037701,592.164754,-8580.269578,-444.123565
4490.038025,370.102971,-8350.440928,-296.082377
4490.038349,222.061783,-8503.660028,-666.185348
4490.038674,444.123565,-8810.098227,-592.164754
4490.038998,296.082377,-8427.050478,-518.144159
4490.039323,444.123565,-8427.050478,-518.144159
4490.039647,296.082377,-8503.660028,-666.185348
4490.039971,222.061783,-8656.879127,-666.185348
4490.040296,296.082377,-8580.269578,-888.247130
4490.040620,296.082377,-8427.050478,-740.205942
4490.040945,370.102971,-8580.269578,-444.123565
4490.041269,592.164754,-8656.879127,-370.102971
4490.041594,518.144159,-8810.098227,-296.082377
4490.041918,444.123565,-8810.098227,-666.185348
4490.042242,518.144159,-8580.269578,-518.144159
4490.042567,444.123565,-8427.050478,-444.123565
4490.042891,296.082377,-8580.269578,-296.082377
4490.043216,148.041188,-8273.831378,-74.020594
4490.043540,296.082377,-8197.221829,-518.144159
4490.043865,296.082377,-8350.440928,-296.082377
4490.044189,74.020594,-8273.831378,-666.185348
4490.044513,740.205942,-8656.879127,-814.226536
4490.044838,444.123565,-8197.221829,-370.102971
4490.045162,370.102971,-8427.050478,-296.082377
4490.045487,296.082377,-8580.269578,-740.205942
4490.045811,222.061783,-8273.831378,-370.102971
4490.046135,444.123565,-8733.488677,-814.226536
4490.046460,296.082377,-8503.660028,-592.164754
4490.046784,222.061783,-8580.269578,-370.102971
4490.047109,296.082377,-8733.488677,-444.123565
4490.047433,370.102971,-8503.660028,-814.226536
4490.047758,666.185348,-8427.050478,-222.061783
4490.048082,592.164754,-8580.269578,0.000000
4490.048406,1036.288319,-8427.050478,-222.061783
4490.048731,962.267725,-9269.755526,0.000000
4490.049055,888.247130,-8503.660028,-222.061783
4490.049380,740.205942,-8197.221829,-74.020594
4490.049704,444.123565,-8656.879127,0.000000
4490.050029,592.164754,-8810.098227,-222.061783
4490.050353,222.061783,-8580.269578,0.000000
4490.050677,222.061783,-8503.660028,0.000000
4490.051002,444.123565,-8350.440928,-222.061783
4490.051326,296.082377,-8963.317327,-148.041188
4490.051651,592.164754,-9039.926876,-370.102971
4490.051975,370.102971,-9039.926876,-296.082377
4490.052299,222.061783,-8886.707777,0.000000
4490.052624,518.144159,-8810.098227,-148.041188
4490.052948,222.061783,-8886.707777,74.020594
4490.053273,814.226536,-8963.317327,0.000000
4490.053597,444.123565,-8656.879127,0.000000
4490.053922,518.144159,-8656.879127,-370.102971
4490.054246,296.082377,-8810.098227,-148.041188
4490.054570,74.020594,-8503.660028,0.000000
4490.054895,148.041188,-8733.488677,-666.185348
4490.055219,370.102971,-8580.269578,-222.061783
4490.055544,74.020594,-8503.660028,-296.082377
4490.055868,0.000000,-8350.440928,-518.144159
4490.056193,296.082377,-8503.660028,-592.164754
4490.056517,296.082377,-8580.269578,-592.164754
4490.056841,444.123565,-8810.098227,-444.123565
4490.057166,666.185348,-8733.488677,-592.164754
4490.057490,444.123565,-8733.488677,-592.164754
4490.057815,296.082377,-8580.269578,-592.164754
4490.058139,148.041188,-8656.879127,-518.144159
4490.058463,444.123565,-8733.488677,-444.123565
4490.058788,370.102971,-8350.440928,-370.102971
4490.059112,370.102971,-8656.879127,-296.082377
4490.059437,518.144159,-8656.879127,-444.123565
4490.059761,518.144159,-8580.269578,-444.123565
4490.060086,814.226536,-9039.926876,-370.102971
4490.060410,666.185348,-8733.488677,-222.061783
4490.060734,222.061783,-8580.269578,-370.102971
4490.061059,444.123565,-8503.660028,0.000000
4490.061383,518.144159,-8503.660028,222.061783
4490.061708,370.102971,-8733.488677,-444.123565
4490.062032,370.102971,-8656.879127,-444.123565
4490.062356,296.082377,-8273.831378,-296.082377
4490.062681,444.123565,-8656.879127,-444.123565
4490.063005,518.144159,-8580.269578,-222.061783
4490.063330,666.185348,-8503.660028,-592.164754
4490.063654,444.123565,-8503.660028,-222.061783
4490.063979,444.123565,-8656.879127,0.000000
4490.064303,814.226536,-8656.879127,-444.123565
4490.064627,222.061783,-8580.269578,-74.020594
4490.064952,444.123565,-8427.050478,-148.041188
4490.065276,592.164754,-8427.050478,-148.041188
4490.065601,740.205942,-8503.660028,-370.102971
4490.065925,370.102971,-8120.612279,-444.123565
4490.066250,518.144159,-8350.440928,-444.123565
4490.066574,592.164754,-7890.783629,-740.205942
4490.066898,592.164754,-8427.050478,-444.123565
4490.067223,666.185348,-8044.002729,-666.185348
4490.067547,370.102971,-8580.269578,-592.164754
4490.067872,370.102971,-8580.269578,-666.185348
4490.068196,444.123565,-8427.050478,-370.102971
4490.068520,888.247130,-8350.440928,-148.041188
4490.068845,222.061783,-9039.926876,-518.144159
4490.069169,296.082377,-8273.831378,-296.082377
4490.069494,148.041188,-8580.269578,-370.102971
4490.069818,296.082377,-8580.269578,-222.061783
4490.070143,222.061783,-8580.269578,0.000000
4490.070467,444.123565,-8733.488677,-740.205942
4490.070791,518.144159,-8886.707777,-444.123565
4490.071116,74.020594,-8656.879127,-370.102971
4490.071440,222.061783,-8120.612279,-148.041188
4490.071765,592.164754,-8197.221829,-296.082377
4490.072089,444.123565,-8733.488677,0.000000
4490.072414,740.205942,-8656.879127,-222.061783
4490.072738,1036.288319,-8503.660028,-296.082377
4490.073062,370.102971,-8656.879127,-222.061783
4490.073387,370.102971,-8580.269578,-444.123565
4490.073711,370.102971,-8350.440928,-666.185348
4490.074036,518.144159,-9039.926876,-592.164754
4490.074360,296.082377,-8503.660028,-592.164754
4490.074684,296.082377,-8580.269578,-518.144159
4490.075009,222.061783,-8886.707777,-148.041188
4490.075333,444.123565,-8733.488677,-592.164754
4490.075658,740.205942,-9193.145976,-296.082377
4490.075982,740.205942,-8580.269578,-222.061783
4490.076307,518.144159,-8427.050478,0.000000
4490.076631,592.164754,-8810.098227,-370.102971
4490.076955,962.267725,-8350.440928,-148.041188
4490.077280,444.123565,-8580.269578,-444.123565
4490.077604,444.123565,-8580.269578,-444.123565
4490.077929,74.020594,-8580.269578,-74.020594
4490.078253,222.061783,-8273.831378,-370.102971
4490.078578,666.185348,-8427.050478,0.000000
4490.078902,518.144159,-7967.393179,-370.102971
4490.079226,592.164754,-8733.488677,-222.061783
4490.079551,444.123565,-7967.393179,0.000000
4490.079875,444.123565,-8427.050478,0.000000
4490.080200,222.061783,-8427.050478,-592.164754
4490.080524,518.144159,-8580.269578,-444.123565
4490.080848,518.144159,-8656.879127,-518.144159
4490.081173,592.164754,-8120.612279,0.000000
4490.081497,296.082377,-8350.440928,-444.123565
4490.081822,222.061783,-8580.269578,-296.082377
4490.082146,444.123565,-8580.269578,-444.123565
4490.082471,444.123565,-8810.098227,-370.102971
4490.082795,1184.329507,-8580.269578,-592.164754
4490.083119,740.205942,-8427.050478,-148.041188
4490.083444,666.185348,-8427.050478,-444.123565
4490.083768,296.082377,-8580.269578,0.000000
4490.084093,666.185348,-8963.317327,0.000000
4490.084417,370.102971,-8503.660028,-222.061783
4490.084742,74.020594,-8503.660028,-444.123565
4490.085066,148.041188,-8580.269578,-148.041188
4490.085390,148.041188,-8580.269578,-444.123565
4490.085715,222.061783,-8427.050478,-444.123565
4490.086039,296.082377,-8810.098227,-592.164754
4490.086364,444.123565,-8733.488677,-296.082377
4490.086688,444.123565,-8503.660028,-370.102971
4490.087012,148.041188,-8656.879127,-296.082377
4490.087337,518.144159,-8733.488677,-148.041188
4490.087661,370.102971,-8963.317327,0.000000
4490.087986,444.123565,-8963.317327,-222.061783
4490.088310,296.082377,-8120.612279,-222.061783
4490.088635,444.123565,-8656.879127,-444.123565
4490.088959,518.144159,-8273.831378,-222.061783
4490.089283,370.102971,-8503.660028,-370.102971
4490.089608,296.082377,-8197.221829,-222.061783
4490.089932,592.164754,-8197.221829,-296.082377
4490.090257,370.102971,-8427.050478,-296.082377
4490.090581,370.102971,-8503.660028,-370.102971
4490.090905,444.123565,-8350.440928,-444.123565
4490.091230,888.247130,-9039.926876,-518.144159
4490.091554,296.082377,-8733.488677,-518.144159
4490.091879,74.020594,-8810.098227,-370.102971
4490.092203,296.082377,-8810.098227,-518.144159
4490.092528,370.102971,-9422.974625,0.000000
4490.092852,370.102971,-8733.488677,-666.185348
4490.093176,444.123565,-8810.098227,-444.123565
4490.093501,592.164754,-8350.440928,-370.102971
4490.093825,592.164754,-8580.269578,-444.123565
4490.094150,666.185348,-8656.879127,-148.041188
4490.094474,666.185348,-8427.050478,-666.185348
4490.094799,666.185348,-8580.269578,-296.082377
4490.095123,740.205942,-8427.050478,-370.102971
4490.095447,148.041188,-8197.221829,-296.082377
4490.095772,222.061783,-8963.317327,-370.102971
4490.096096,296.082377,-8197.221829,-296.082377
4490.096421,296.082377,-8886.707777,-296.082377
4490.096745,444.123565,-9116.536426,-666.185348
4490.097069,222.061783,-8503.660028,0.000000
4490.097394,222.061783,-8733.488677,-444.123565
4490.097718,296.082377,-8580.269578,-296.082377
4490.098043,666.185348,-8733.488677,0.000000
4490.098367,518.144159,-8810.098227,0.000000
4490.098692,370.102971,-8733.488677,0.000000
4490.099016,444.123565,-8656.879127,0.000000
4490.099340,518.144159,-8810.098227,0.000000
4490.099665,370.102971,-8580.269578,0.000000
4490.099989,444.123565,-8656.879127,-592.164754
4490.100314,296.082377,-8273.831378,0.000000
4490.100638,148.041188,-8503.660028,0.000000
4490.100963,74.020594,-8580.269578,-296.082377
4490.101287,518.144159,-8197.221829,-296.082377
4490.101611,592.164754,-8503.660028,-296.082377
4490.101936,296.082377,-8273.831378,-296.082377
4490.102260,370.102971,-8503.660028,0.000000
4490.102585,148.041188,-8886.707777,-222.061783
4490.102909,370.102971,-8886.707777,-370.102971
4490.103233,148.041188,-8656.879127,-296.082377
4490.103558,444.123565,-8963.317327,-370.102971
4490.103882,222.061783,-8886.707777,444.123565
4490.104207,222.061783,-8656.879127,-444.123565
4490.104531,222.061783,-8810.098227,-148.041188
4490.104856,444.123565,-8580.269578,0.000000
4490.105180,518.144159,-8886.707777,-296.082377
4490.105504,592.164754,-8503.660028,0.000000
4490.105829,296.082377,-8427.050478,148.041188
4490.106153,444.123565,-8656.879127,0.000000
4490.106478,370.102971,-8580.269578,0.000000
4490.106802,814.226536,-8427.050478,0.000000
4490.107127,518.144159,-8503.660028,0.000000
4490.107451,148.041188,-8273.831378,-296.082377
4490.107775,296.082377,-8503.660028,-296.082377
4490.108100,370.102971,-8120.612279,-148.041188
4490.108424,518.144159,-8656.879127,-666.185348
4490.108749,740.205942,-8733.488677,-666.185348
4490.109073,666.185348,-8810.098227,-666.185348
4490.109397,444.123565,-8810.098227,-444.123565
4490.109722,740.205942,-8656.879127,-518.144159
4490.110046,740.205942,-8580.269578,-592.164754
4490.110371,666.185348,-8963.317327,-296.082377
4490.110695,518.144159,-8733.488677,-592.164754
4490.111020,888.247130,-9039.926876,-592.164754
4490.111344,222.061783,-8963.317327,-592.164754
4490.111668,444.123565,-8810.098227,-518.144159
4490.111993,148.041188,-8656.879127,-444.123565
4490.112317,814.226536,-8503.660028,-592.164754
4490.112642,518.144159,-8350.440928,-666.185348
4490.112966,592.164754,-8656.879127,-592.164754
4490.113291,296.082377,-8350.440928,-370.102971
4490.113615,740.205942,-8350.440928,-666.185348
4490.113939,814.226536,-8656.879127,-518.144159
4490.114264,740.205942,-8427.050478,-222.061783
4490.114588,444.123565,-8733.488677,-444.123565
4490.114913,148.041188,-8810.098227,-370.102971
4490.115237,370.102971,-8580.269578,-888.247130
4490.115561,296.082377,-8733.488677,-518.144159
4490.115886,370.102971,-8810.098227,-370.102971
4490.116210,518.144159,-8273.831378,-518.144159
4490.116535,592.164754,-8273.831378,-444.123565
4490.116859,740.205942,-8350.440928,-370.102971
4490.117184,888.247130,-8580.269578,-592.164754
4490.117508,1110.308913,-8580.269578,-370.102971
4490.117832,518.144159,-8427.050478,74.020594
4490.118157,666.185348,-8503.660028,0.000000
4490.118481,370.102971,-8273.831378,0.000000
4490.118806,518.144159,-8350.440928,0.000000
4490.119130,148.041188,-8503.660028,-370.102971
4490.119454,222.061783,-8810.098227,222.061783
4490.119779,148.041188,-8427.050478,0.000000
4490.120103,444.123565,-8656.879127,-148.041188
4490.120428,222.061783,-8503.660028,0.000000
4490.120752,444.123565,-8810.098227,0.000000
4490.121077,444.123565,-8656.879127,148.041188
4490.121401,444.123565,-8580.269578,0.000000
4490.121725,444.123565,-8886.707777,0.000000
4490.122050,518.144159,-8427.050478,0.000000
4490.122374,370.102971,-8580.269578,-370.102971
4490.122699,222.061783,-8810.098227,-370.102971
4490.123023,444.123565,-8733.488677,0.000000
4490.123348,444.123565,-8427.050478,-592.164754
4490.123672,74.020594,-7967.393179,-592.164754
4490.123996,296.082377,-8197.221829,-444.123565
4490.124321,296.082377,-8503.660028,-296.082377
4490.124645,592.164754,-8120.612279,-444.123565
4490.124970,444.123565,-8810.098227,-296.082377
4490.125294,370.102971,-8503.660028,-666.185348
4490.125618,444.123565,-8963.317327,-370.102971
4490.125943,370.102971,-8886.707777,-740.205942
4490.126267,74.020594,-8963.317327,-518.144159
4490.126592,74.020594,-8886.707777,-592.164754
4490.126916,0.000000,-8656.879127,-296.082377
4490.127241,296.082377,-8427.050478,-666.185348
4490.127565,518.144159,-8810.098227,-518.144159
4490.127889,592.164754,-9193.145976,-666.185348
4490.128214,814.226536,-8580.269578,-592.164754
4490.128538,592.164754,-8963.317327,-740.205942
4490.128863,592.164754,-8886.707777,-370.102971
4490.129187,592.164754,-8427.050478,-296.082377
4490.129512,888.247130,-8886.707777,-518.144159
4490.129836,222.061783,-8733.488677,-148.041188
4490.130160,148.041188,-8427.050478,-296.082377
4490.130485,0.000000,-8886.707777,-370.102971
4490.130809,0.000000,-8580.269578,-222.061783
4490.131134,296.082377,-8810.098227,-518.144159
4490.131458,222.061783,-8580.269578,-370.102971
4490.131782,592.164754,-8733.488677,-518.144159
4490.132107,0.000000,-8733.488677,0.000000
4490.132431,444.123565,-8273.831378,0.000000
4490.132756,666.185348,-8503.660028,-370.102971
4490.133080,518.144159,-8580.269578,-222.061783
4490.133405,666.185348,-8810.098227,0.000000
4490.133729,592.164754,-8503.660028,0.000000
4490.134053,370.102971,-8503.660028,-296.082377
4490.134378,518.144159,-8580.269578,-444.123565
4490.134702,370.102971,-8580.269578,-370.102971
4490.135027,740.205942,-7890.783629,-444.123565
4490.135351,370.102971,-7967.393179,-296.082377
4490.135676,592.164754,-8273.831378,-444.123565
4490.136000,444.123565,-7967.393179,-222.061783
4490.136324,518.144159,-8503.660028,-296.082377
4490.136649,592.164754,-8580.269578,-222.061783
4490.136973,370.102971,-8810.098227,-222.061783
4490.137297,370.102971,-8886.707777,0.000000
4490.137622,0.000000,-8810.098227,-148.041188
