#time,accel_x,accel_y,accel_z
4594.659344,370.102971,-8580.269578,-296.082377
4594.659668,296.082377,-8197.221829,0.000000
4594.659993,444.123565,-8427.050478,-518.144159
4594.660318,444.123565,-8733.488677,-370.102971
4594.660643,444.123565,-8503.660028,-222.061783
4594.660968,222.061783,-8197.221829,-222.061783
4594.661292,296.082377,-8810.098227,-444.123565
4594.661617,444.123565,-8580.269578,-518.144159
4594.661942,518.144159,-8580.269578,-518.144159
4594.662267,296.082377,-8733.488677,-296.082377
4594.662592,370.102971,-8350.440928,-370.102971
4594.662916,518.144159,-8427.050478,-444.123565
4594.663241,592.164754,-8273.831378,-444.123565
4594.663566,592.164754,-8733.488677,-444.123565
4594.663891,814.226536,-8427.050478,-666.185348
4594.664216,444.123565,-8427.050478,-296.082377
4594.664540,222.061783,-8656.879127,-296.082377
4594.664865,296.082377,-8580.269578,-296.082377
4594.665190,666.185348,-8503.660028,0.000000
4594.665515,518.144159,-8503.660028,-222.061783
4594.665839,518.144159,-8503.660028,-222.061783
4594.666164,518.144159,-8733.488677,-444.123565
4594.666489,444.123565,-8656.879127,-444.123565
4594.666814,888.247130,-8503.660028,-666.185348
4594.667139,296.082377,-8886.707777,-444.123565
4594.667463,444.123565,-8273.831378,-296.082377
4594.667788,370.102971,-8503.660028,-222.061783
4594.668113,962.267725,-8273.831378,-518.144159
4594.668438,666.185348,-8503.660028,-370.102971
4594.668763,740.205942,-8427.050478,-518.144159
4594.669087,444.123565,-8503.660028,-296.082377
4594.669412,444.123565,-8886.707777,-148.041188
4594.669737,444.123565,-8963.317327,-370.102971
4594.670062,518.144159,-8656.879127,-370.102971
4594.670387,296.082377,-8733.488677,-518.144159
4594.670711,666.185348,-8733.488677,-592.164754
4594.671036,740.205942,-8503.660028,0.000000
4594.671361,222.061783,-8656.879127,-74.020594
4594.671686,518.144159,-8503.660028,-296.082377
4594.672011,370.102971,-8427.050478,-444.123565
4594.672335,592.164754,-8810.098227,-296.082377
4594.672660,148.041188,-8810.098227,-296.082377
4594.672985,296.082377,-8503.660028,-370.102971
4594.673310,222.061783,-8580.269578,-222.061783
4594.673634,592.164754,-8733.488677,-592.164754
4594.673959,222.061783,-8427.050478,-370.102971
4594.674284,592.164754,-8733.488677,-518.144159
4594.674609,518.144159,-8503.660028,0.000000
4594.674934,444.123565,-8580.269578,-222.061783
4594.675258,444.123565,-8273.831378,-444.123565
4594.675583,518.144159,-8810.098227,-444.123565
4594.675908,518.144159,-8580.269578,-444.123565
4594.676233,370.102971,-8810.098227,-592.164754
4594.676558,518.144159,-8120.612279,74.020594
4594.676882,296.082377,-8580.269578,-296.082377
4594.677207,370.102971,-8503.660028,-444.123565
4594.677532,444.123565,-9039.926876,-518.144159
4594.677857,666.185348,-8733.488677,-592.164754
4594.678182,444.123565,-8427.050478,-370.102971
4594.678506,370.102971,-8656.879127,-370.102971
4594.678831,518.144159,-8427.050478,-592.164754
4594.679156,518.144159,-8503.660028,-962.267725
4594.679481,370.102971,-8503.660028,-740.205942
4594.679806,370.102971,-8580.269578,-518.144159
4594.680130,370.102971,-8733.488677,-592.164754
4594.680455,222.061783,-8810.098227,-740.205942
4594.680780,444.123565,-8503.660028,-814.226536
4594.681105,444.123565,-8733.488677,-888.247130
4594.681429,592.164754,-8733.488677,-592.164754
4594.681754,370.102971,-8273.831378,-740.205942
4594.682079,370.102971,-8580.269578,-740.205942
4594.682404,222.061783,-8503.660028,-740.205942
4594.682729,370.102971,-8810.098227,-666.185348
4594.683053,518.144159,-8503.660028,-888.247130
4594.683378,370.102971,-8350.440928,-518.144159
4594.683703,666.185348,-9116.536426,-666.185348
4594.684028,222.061783,-8427.050478,-814.226536
4594.684353,592.164754,-8427.050478,-1110.308913
4594.684677,592.164754,-8503.660028,-888.247130
4594.685002,370.102971,-8503.660028,-666.185348
4594.685327,518.144159,-8580.269578,-888.247130
4594.685652,444.123565,-8733.488677,-888.247130
4594.685977,666.185348,-8427.050478,-814.226536
4594.686301,518.144159,-8580.269578,-1110.308913
4594.686626,592.164754,-8580.269578,-962.267725
4594.686951,296.082377,-8656.879127,-888.247130
4594.687276,370.102971,-8503.660028,-814.226536
4594.687601,296.082377,-8503.660028,-962.267725
4594.687925,518.144159,-9422.974625,-444.123565
4594.688250,444.123565,-8503.660028,-666.185348
4594.688575,518.144159,-8273.831378,-740.205942
4594.688900,592.164754,-8580.269578,-814.226536
4594.689224,518.144159,-8580.269578,-666.185348
4594.689549,592.164754,-8427.050478,-814.226536
4594.689874,666.185348,-8656.879127,-666.185348
4594.690199,740.205942,-8503.660028,-740.205942
4594.690524,444.123565,-8656.879127,-592.164754
4594.690848,222.061783,-8197.221829,-370.102971
4594.691173,296.082377,-8503.660028,-666.185348
4594.691498,222.061783,-8886.707777,-666.185348
4594.691823,444.123565,-8503.660028,-370.102971
4594.692148,148.041188,-8350.440928,-296.082377
4594.692472,370.102971,-8580.269578,-444.123565
4594.692797,518.144159,-8503.660028,-592.164754
4594.693122,518.144159,-8656.879127,-592.164754
4594.693447,666.185348,-8580.269578,-444.123565
4594.693772,666.185348,-8656.879127,-370.102971
4594.694096,222.061783,-8886.707777,0.000000
4594.694421,444.123565,-8580.269578,0.000000
4594.694746,74.020594,-8427.050478,0.000000
4594.695071,888.247130,-8886.707777,0.000000
4594.695395,518.144159,-8273.831378,0.000000
4594.695720,444.123565,-8580.269578,-148.041188
4594.696045,148.041188,-8580.269578,0.000000
4594.696370,370.102971,-8886.707777,444.123565
4594.696695,592.164754,-8886.707777,-148.041188
4594.697019,444.123565,-8580.269578,0.000000
4594.697344,296.082377,-8580.269578,222.061783
4594.697669,370.102971,-8656.879127,0.000000
4594.697994,370.102971,-8963.317327,444.123565
4594.698319,222.061783,-8350.440928,0.000000
4594.698643,370.102971,-9039.926876,222.061783
4594.698968,296.082377,-8197.221829,222.061783
4594.699293,296.082377,-7967.393179,370.102971
4594.699618,370.102971,-8580.269578,0.000000
4594.699943,370.102971,-8580.269578,74.020594
4594.700267,444.123565,-8580.269578,0.000000
4594.700592,296.082377,-8427.050478,444.123565
4594.700917,444.123565,-8580.269578,148.041188
4594.701242,222.061783,-8580.269578,296.082377
4594.701567,370.102971,-8350.440928,148.041188
4594.701891,444.123565,-8886.707777,0.000000
4594.702216,666.185348,-8886.707777,74.020594
4594.702541,296.082377,-8350.440928,0.000000
4594.702866,444.123565,-8810.098227,0.000000
4594.703190,296.082377,-8350.440928,148.041188
4594.703515,592.164754,-9193.145976,370.102971
4594.703840,444.123565,-8580.269578,-148.041188
4594.704165,592.164754,-8810.098227,74.020594
4594.704490,666.185348,-8580.269578,148.041188
4594.704814,814.226536,-8427.050478,222.061783
4594.705139,666.185348,-8503.660028,0.000000
4594.705464,592.164754,-8733.488677,74.020594
4594.705789,518.144159,-8273.831378,74.020594
4594.706114,296.082377,-8580.269578,74.020594
4594.706438,518.144159,-8656.879127,-444.123565
4594.706763,518.144159,-8656.879127,0.000000
4594.707088,370.102971,-8350.440928,74.020594
4594.707413,444.123565,-8273.831378,74.020594
4594.707738,222.061783,-8197.221829,518.144159
4594.708062,518.144159,-8810.098227,0.000000
4594.708387,592.164754,-8503.660028,0.000000
4594.708712,444.123565,-8580.269578,0.000000
4594.709037,814.226536,-8580.269578,0.000000
4594.709362,592.164754,-8350.440928,0.000000
4594.709686,444.123565,-8580.269578,0.000000
4594.710011,296.082377,-8656.879127,0.000000
4594.710336,370.102971,-8580.269578,-296.082377
4594.710661,222.061783,-8427.050478,-370.102971
4594.710985,518.144159,-8427.050478,-148.041188
4594.711310,518.144159,-8350.440928,-370.102971
4594.711635,296.082377,-8580.269578,0.000000
4594.711960,370.102971,-9652.803275,-222.061783
4594.712285,592.164754,-8580.269578,-518.144159
4594.712609,444.123565,-8810.098227,-518.144159
4594.712934,222.061783,-8656.879127,-592.164754
4594.713259,148.041188,-8733.488677,-444.123565
4594.713584,222.061783,-8810.098227,-740.205942
4594.713909,296.082377,-8580.269578,-666.185348
4594.714233,518.144159,-8656.879127,-666.185348
4594.714558,296.082377,-8733.488677,-592.164754
4594.714883,222.061783,-9039.926876,0.000000
4594.715207,222.061783,-8503.660028,-814.226536
4594.715532,296.082377,-8580.269578,-962.267725
4594.715856,0.000000,-8886.707777,-740.205942
4594.716180,296.082377,-8656.879127,-518.144159
4594.716505,0.000000,-8733.488677,-518.144159
4594.716829,370.102971,-8656.879127,-814.226536
4594.717153,296.082377,-9193.145976,-666.185348
4594.717478,370.102971,-8580.269578,-1036.288319
4594.717802,296.082377,-9116.536426,-370.102971
4594.718127,222.061783,-8580.269578,-814.226536
4594.718451,740.205942,-8656.879127,-518.144159
4594.718775,444.123565,-8427.050478,-962.267725
4594.719100,444.123565,-8656.879127,-1110.308913
4594.719424,74.020594,-8427.050478,-962.267725
4594.719748,222.061783,-8427.050478,-1110.308913
4594.720073,148.041188,-8810.098227,-888.247130
4594.720397,444.123565,-9499.584175,-740.205942
4594.720721,592.164754,-8886.707777,-740.205942
4594.721046,740.205942,-8810.098227,-592.164754
4594.721370,666.185348,-8810.098227,-296.082377
4594.721694,814.226536,-8886.707777,-666.185348
4594.722019,592.164754,-8427.050478,-444.123565
4594.722343,444.123565,-8273.831378,-518.144159
4594.722667,518.144159,-8503.660028,-740.205942
4594.722992,370.102971,-8350.440928,-740.205942
4594.723316,0.000000,-8580.269578,74.020594
4594.723640,0.000000,-8427.050478,-740.205942
4594.723965,74.020594,-8503.660028,-518.144159
4594.724289,370.102971,-8580.269578,-370.102971
4594.724614,888.247130,-8886.707777,-296.082377
4594.724938,296.082377,-8503.660028,148.041188
4594.725262,814.226536,-8273.831378,222.061783
4594.725587,740.205942,-8273.831378,0.000000
4594.725911,592.164754,-8350.440928,-222.061783
4594.726235,962.267725,-8503.660028,-444.123565
4594.726560,222.061783,-8580.269578,-222.061783
4594.726884,74.020594,-8580.269578,-222.061783
4594.727208,74.020594,-8733.488677,-370.102971
4594.727533,0.000000,-8580.269578,222.061783
4594.727857,370.102971,-8427.050478,0.000000
4594.728181,444.123565,-8886.707777,592.164754
4594.728506,444.123565,-8503.660028,296.082377
4594.728830,888.247130,-8810.098227,222.061783
4594.729154,962.267725,-8273.831378,74.020594
4594.729479,888.247130,-8733.488677,74.020594
4594.729803,888.247130,-8656.879127,74.020594
4594.730128,518.144159,-8350.440928,148.041188
4594.730452,814.226536,-8656.879127,0.000000
4594.730776,0.000000,-8733.488677,444.123565
4594.731101,0.000000,-8810.098227,518.144159
4594.731425,0.000000,-8733.488677,222.061783
4594.731749,148.041188,-8810.098227,666.185348
4594.732074,444.123565,-8733.488677,740.205942
4594.732398,592.164754,-8503.660028,592.164754
4594.732722,888.247130,-8580.269578,740.205942
4594.733047,814.226536,-8886.707777,370.102971
4594.733371,814.226536,-8963.317327,666.185348
4594.733695,518.144159,-8273.831378,592.164754
4594.734020,74.020594,-8963.317327,666.185348
4594.734344,0.000000,-8273.831378,370.102971
4594.734668,296.082377,-8733.488677,518.144159
4594.734993,148.041188,-8427.050478,74.020594
4594.735317,296.082377,-8197.221829,444.123565
4594.735642,296.082377,-8580.269578,296.082377
4594.735966,666.185348,-8886.707777,888.247130
4594.736290,888.247130,-8427.050478,444.123565
4594.736615,666.185348,-9116.536426,592.164754
4594.736939,592.164754,-8120.612279,814.226536
4594.737263,518.144159,-8503.660028,518.144159
4594.737588,518.144159,-8503.660028,0.000000
4594.737912,296.082377,-8427.050478,74.020594
4594.738236,0.000000,-8733.488677,-370.102971
4594.738561,0.000000,-8580.269578,74.020594
4594.738885,518.144159,-8197.221829,296.082377
4594.739209,222.061783,-8350.440928,222.061783
4594.739534,296.082377,-8503.660028,222.061783
4594.739858,296.082377,-8810.098227,296.082377
4594.740182,370.102971,-8810.098227,666.185348
4594.740507,518.144159,-8120.612279,592.164754
4594.740831,222.061783,-8503.660028,222.061783
4594.741156,370.102971,-8656.879127,0.000000
4594.741480,592.164754,-8427.050478,-370.102971
4594.741804,148.041188,-8197.221829,0.000000
4594.742129,222.061783,-8580.269578,-370.102971
4594.742453,222.061783,-8503.660028,-222.061783
4594.742777,0.000000,-8503.660028,0.000000
4594.743102,444.123565,-8963.317327,-444.123565
4594.743426,148.041188,-8427.050478,-148.041188
4594.743750,814.226536,-8580.269578,-296.082377
4594.744075,518.144159,-8427.050478,-296.082377
4594.744399,666.185348,-9116.536426,-444.123565
4594.744723,444.123565,-8656.879127,-444.123565
4594.745048,592.164754,-8503.660028,-592.164754
4594.745372,592.164754,-8810.098227,-592.164754
4594.745696,222.061783,-8503.660028,-444.123565
4594.746021,518.144159,-8273.831378,-370.102971
4594.746345,74.020594,-8427.050478,-592.164754
4594.746670,74.020594,-8197.221829,-592.164754
4594.746994,444.123565,-8427.050478,-962.267725
4594.747318,814.226536,-8120.612279,-814.226536
4594.747643,444.123565,-8656.879127,-814.226536
4594.747967,592.164754,-8963.317327,-814.226536
4594.748291,518.144159,-8886.707777,-666.185348
4594.748616,592.164754,-8580.269578,-814.226536
4594.748940,370.102971,-8273.831378,-518.144159
4594.749264,222.061783,-8810.098227,-370.102971
4594.749589,0.000000,-8580.269578,-1036.288319
4594.749913,0.000000,-8580.269578,-962.267725
4594.750237,-222.061783,-8197.221829,-1110.308913
4594.750562,0.000000,-8810.098227,-1184.329507
4594.750886,74.020594,-8350.440928,-1184.329507
4594.751210,148.041188,-8503.660028,-740.205942
4594.751535,0.000000,-8810.098227,-740.205942
4594.751859,518.144159,-8733.488677,-592.164754
4594.752184,592.164754,-9116.536426,-444.123565
4594.752508,518.144159,-8656.879127,-592.164754
4594.752832,518.144159,-8656.879127,-962.267725
4594.753157,518.144159,-8427.050478,-1480.411884
4594.753481,296.082377,-8350.440928,-1332.370696
4594.753805,592.164754,-8503.660028,-1554.432478
4594.754130,444.123565,-8580.269578,-1332.370696
4594.754454,296.082377,-9039.926876,-592.164754
4594.754778,222.061783,-8733.488677,-666.185348
4594.755103,222.061783,-9039.926876,-962.267725
4594.755427,370.102971,-8273.831378,-592.164754
4594.755751,740.205942,-9039.926876,-740.205942
4594.756076,740.205942,-8656.879127,-518.144159
4594.756400,962.267725,-8580.269578,-888.247130
4594.756724,666.185348,-8427.050478,-962.267725
4594.757049,740.205942,-8503.660028,-962.267725
4594.757373,444.123565,-8580.269578,-888.247130
4594.757698,592.164754,-8427.050478,-592.164754
4594.758022,370.102971,-8197.221829,-444.123565
4594.758346,222.061783,-8656.879127,-518.144159
4594.758671,370.102971,-8350.440928,-148.041188
4594.758995,814.226536,-8580.269578,-370.102971
4594.759319,518.144159,-8733.488677,-370.102971
4594.759644,666.185348,-8503.660028,-296.082377
4594.759968,888.247130,-8810.098227,-370.102971
4594.760292,666.185348,-8580.269578,-592.164754
4594.760617,370.102971,-8733.488677,-592.164754
4594.760941,370.102971,-8580.269578,-518.144159
4594.761265,148.041188,-8120.612279,-370.102971
4594.761590,148.041188,-8273.831378,-962.267725
4594.761914,148.041188,-8733.488677,-740.205942
4594.762238,444.123565,-8427.050478,-814.226536
4594.762563,592.164754,-8810.098227,-962.267725
4594.762887,518.144159,-8350.440928,-666.185348
4594.763212,518.144159,-8503.660028,-444.123565
4594.763536,740.205942,-8886.707777,-444.123565
4594.763860,148.041188,-8580.269578,-518.144159
4594.764185,444.123565,-8503.660028,-370.102971
4594.764509,444.123565,-8580.269578,-222.061783
4594.764833,222.061783,-8197.221829,-296.082377
4594.765158,222.061783,-8273.831378,-666.185348
4594.765482,518.144159,-8350.440928,-518.144159
4594.765806,444.123565,-8810.098227,-148.041188
4594.766131,296.082377,-8733.488677,-592.164754
4594.766455,296.082377,-8580.269578,-148.041188
4594.766779,0.000000,-9039.926876,222.061783
4594.767104,296.082377,-9116.536426,222.061783
4594.767428,222.061783,-8120.612279,74.020594
4594.767752,444.123565,-9039.926876,74.020594
4594.768077,592.164754,-8656.879127,-518.144159
4594.768401,518.144159,-8886.707777,0.000000
4594.768726,296.082377,-8656.879127,-888.247130
4594.769050,370.102971,-8427.050478,-370.102971
4594.769374,518.144159,-8580.269578,-814.226536
4594.769699,296.082377,-8580.269578,-148.041188
4594.770023,0.000000,-8427.050478,-222.061783
4594.770347,592.164754,-8580.269578,0.000000
4594.770672,370.102971,-8197.221829,222.061783
4594.770996,592.164754,-8427.050478,0.000000
4594.771320,444.123565,-8733.488677,-296.082377
4594.771645,888.247130,-8580.269578,-370.102971
4594.771969,370.102971,-8656.879127,-370.102971
4594.772293,592.164754,-9039.926876,-370.102971
4594.772618,518.144159,-8503.660028,0.000000
4594.772942,518.144159,-8580.269578,-444.123565
4594.773266,740.205942,-8273.831378,-148.041188
4594.773591,370.102971,-8580.269578,0.000000
4594.773915,666.185348,-8580.269578,-222.061783
4594.774240,666.185348,-8886.707777,0.000000
4594.774564,814.226536,-8656.879127,-592.164754
4594.774888,740.205942,-8886.707777,-296.082377
4594.775213,444.123565,-8427.050478,-370.102971
4594.775537,666.185348,-9116.536426,-148.041188
4594.775861,222.061783,-8733.488677,-444.123565
4594.776186,666.185348,-8656.879127,-222.061783
4594.776510,518.144159,-8273.831378,-444.123565
4594.776834,888.247130,-8656.879127,-296.082377
4594.777159,1110.308913,-8350.440928,-1036.288319
4594.777483,814.226536,-8580.269578,-666.185348
4594.777807,666.185348,-8273.831378,-1036.288319
4594.778132,666.185348,-8963.317327,-814.226536
4594.778456,1332.370696,-9116.536426,-1184.329507
4594.778780,444.123565,-9116.536426,-370.102971
4594.779105,0.000000,-8810.098227,-444.123565
4594.779429,148.041188,-8963.317327,-370.102971
4594.779754,518.144159,-8810.098227,-962.267725
4594.780078,740.205942,-9116.536426,-740.205942
4594.780402,222.061783,-8503.660028,-962.267725
4594.780727,518.144159,-8886.707777,-1110.308913
4594.781051,518.144159,-8503.660028,-1332.370696
4594.781375,666.185348,-9499.584175,-1332.370696
4594.781700,740.205942,-8656.879127,-1110.308913
4594.782024,148.041188,-8580.269578,-740.205942
4594.782348,296.082377,-8886.707777,-814.226536
4594.782673,222.061783,-8886.707777,-814.226536
4594.782997,148.041188,-8580.269578,-740.205942
4594.783321,296.082377,-9193.145976,-1110.308913
4594.783646,444.123565,-8810.098227,-1110.308913
4594.783970,666.185348,-8810.098227,-888.247130
4594.784294,740.205942,-8503.660028,-1036.288319
4594.784619,740.205942,-8503.660028,-1036.288319
4594.784943,592.164754,-8197.221829,-814.226536
4594.785268,370.102971,-8733.488677,-814.226536
4594.785592,740.205942,-7890.783629,-666.185348
4594.785916,370.102971,-8886.707777,-814.226536
4594.786241,148.041188,-8810.098227,-1036.288319
4594.786565,222.061783,-8656.879127,-1184.329507
4594.786889,518.144159,-9039.926876,-888.247130
4594.787214,592.164754,-8580.269578,-1036.288319
4594.787538,296.082377,-8580.269578,-962.267725
4594.787862,518.144159,-8733.488677,-814.226536
4594.788187,518.144159,-8580.269578,-814.226536
4594.788511,962.267725,-8503.660028,-1036.288319
4594.788835,592.164754,-8273.831378,-888.247130
4594.789160,740.205942,-8350.440928,-592.164754
4594.789484,370.102971,-8656.879127,-1036.288319
4594.789808,888.247130,-8963.317327,-888.247130
4594.790133,296.082377,-8656.879127,-1036.288319
4594.790457,444.123565,-8886.707777,-1110.308913
4594.790781,518.144159,-8427.050478,-666.185348
4594.791106,444.123565,-7967.393179,0.000000
4594.791430,592.164754,-8273.831378,0.000000
4594.791755,518.144159,-8120.612279,-444.123565
4594.792079,592.164754,-8350.440928,-592.164754
4594.792403,740.205942,-8580.269578,-740.205942
4594.792728,1184.329507,-8273.831378,-592.164754
4594.793052,666.185348,-8580.269578,-814.226536
4594.793376,592.164754,-8197.221829,-592.164754
4594.793701,518.144159,-8733.488677,-592.164754
4594.794025,222.061783,-8120.612279,-222.061783
4594.794349,370.102971,-8273.831378,74.020594
4594.794674,296.082377,-8350.440928,-370.102971
4594.794998,444.123565,-8503.660028,-370.102971
4594.795322,370.102971,-8350.440928,-666.185348
4594.795647,148.041188,-8427.050478,-444.123565
4594.795971,592.164754,-8503.660028,-370.102971
4594.796295,666.185348,-8810.098227,-740.205942
4594.796620,518.144159,-8656.879127,-296.082377
4594.796944,370.102971,-8503.660028,-370.102971
4594.797269,296.082377,-9039.926876,-148.041188
4594.797593,74.020594,-8580.269578,0.000000
4594.797917,148.041188,-8197.221829,0.000000
4594.798242,148.041188,-9806.022374,0.000000
4594.798566,222.061783,-8427.050478,-592.164754
4594.798890,444.123565,-8810.098227,-222.061783
4594.799215,370.102971,-8656.879127,-296.082377
4594.799539,148.041188,-8810.098227,222.061783
4594.799863,444.123565,-8733.488677,0.000000
4594.800188,592.164754,-8580.269578,444.123565
4594.800512,222.061783,-8427.050478,222.061783
4594.800836,444.123565,-8810.098227,0.000000
4594.801161,0.000000,-8963.317327,148.041188
4594.801485,296.082377,-8810.098227,0.000000
4594.801809,370.102971,-9116.536426,0.000000
4594.802134,592.164754,-8810.098227,0.000000
4594.802458,518.144159,-9193.145976,-148.041188
4594.802783,740.205942,-8503.660028,296.082377
4594.803107,518.144159,-8580.269578,222.061783
4594.803431,518.144159,-8810.098227,370.102971
4594.803756,592.164754,-8427.050478,148.041188
4594.804080,222.061783,-8656.879127,0.000000
4594.804404,592.164754,-8580.269578,0.000000
4594.804729,444.123565,-8427.050478,0.000000
4594.805053,222.061783,-9039.926876,-222.061783
4594.805377,296.082377,-8580.269578,-370.102971
4594.805702,296.082377,-8503.660028,74.020594
4594.806026,444.123565,-8656.879127,148.041188
4594.806350,444.123565,-8273.831378,148.041188
4594.806675,444.123565,-8427.050478,222.061783
4594.806999,222.061783,-8427.050478,-148.041188
4594.807323,296.082377,-8503.660028,0.000000
4594.807648,444.123565,-8273.831378,-666.185348
4594.807972,814.226536,-8350.440928,-518.144159
4594.808297,740.205942,-8656.879127,-444.123565
4594.808621,740.205942,-8733.488677,-518.144159
4594.808945,666.185348,-8580.269578,0.000000
4594.809270,666.185348,-8427.050478,0.000000
4594.809594,0.000000,-9039.926876,222.061783
4594.809918,444.123565,-8427.050478,148.041188
4594.810243,518.144159,-8733.488677,-222.061783
4594.810567,444.123565,-8580.269578,-518.144159
4594.810891,592.164754,-8810.098227,-592.164754
4594.811216,666.185348,-8963.317327,-74.020594
4594.811540,444.123565,-8656.879127,-296.082377
4594.811864,148.041188,-8580.269578,0.000000
4594.812189,444.123565,-8580.269578,-222.061783
4594.812513,0.000000,-8120.612279,148.041188
4594.812837,296.082377,-8886.707777,-296.082377
4594.813162,370.102971,-8733.488677,-518.144159
4594.813486,444.123565,-8427.050478,-222.061783
4594.813811,222.061783,-9269.755526,-740.205942
4594.814135,0.000000,-8810.098227,-444.123565
4594.814459,222.061783,-8580.269578,-518.144159
4594.814784,222.061783,-8580.269578,-222.061783
4594.815108,296.082377,-8656.879127,-296.082377
4594.815432,74.020594,-8503.660028,0.000000
4594.815757,370.102971,-8273.831378,74.020594
4594.816081,0.000000,-8503.660028,-518.144159
4594.816406,74.020594,-8733.488677,-740.205942
4594.816730,0.000000,-8273.831378,-222.061783
4594.817055,296.082377,-8120.612279,-592.164754
4594.817379,148.041188,-8733.488677,-444.123565
4594.817703,222.061783,-8350.440928,-370.102971
4594.818028,740.205942,-8580.269578,0.000000
4594.818352,296.082377,-8503.660028,0.000000
4594.818677,296.082377,-8350.440928,0.000000
4594.819001,370.102971,-8273.831378,0.000000
4594.819326,666.185348,-8503.660028,-370.102971
4594.819650,888.247130,-8810.098227,-962.267725
4594.819975,962.267725,-8733.488677,-592.164754
4594.820299,444.123565,-8427.050478,-148.041188
4594.820624,370.102971,-8656.879127,-370.102971
4594.820948,518.144159,-7890.783629,148.041188
4594.821272,518.144159,-8580.269578,74.020594
4594.821597,666.185348,-8427.050478,148.041188
4594.821921,592.164754,-8427.050478,0.000000
4594.822246,592.164754,-9116.536426,-222.061783
4594.822570,888.247130,-8580.269578,-444.123565
4594.822895,666.185348,-8503.660028,-518.144159
4594.823219,666.185348,-8963.317327,-740.205942
4594.823544,444.123565,-8580.269578,-222.061783
4594.823868,370.102971,-8197.221829,222.061783
4594.824193,370.102971,-8580.269578,0.000000
4594.824517,518.144159,-8350.440928,148.041188
4594.824842,370.102971,-8580.269578,148.041188
4594.825166,444.123565,-8733.488677,296.082377
4594.825490,370.102971,-8503.660028,0.000000
4594.825815,370.102971,-8733.488677,-222.061783
4594.826139,222.061783,-8656.879127,-222.061783
4594.826464,148.041188,-8580.269578,-222.061783
4594.826788,444.123565,-9039.926876,-370.102971
4594.827113,592.164754,-8733.488677,-148.041188
4594.827437,518.144159,-8273.831378,0.000000
4594.827762,296.082377,-9116.536426,0.000000
4594.828086,592.164754,-8273.831378,-370.102971
4594.828411,518.144159,-8963.317327,0.000000
4594.828735,148.041188,-8656.879127,-518.144159
4594.829059,74.020594,-8656.879127,-518.144159
4594.829384,296.082377,-9039.926876,-518.144159
4594.829708,0.000000,-9116.536426,-370.102971
4594.830033,222.061783,-8810.098227,-444.123565
4594.830357,444.123565,-8656.879127,-148.041188
4594.830682,370.102971,-7967.393179,-296.082377
4594.831006,370.102971,-8733.488677,0.000000
4594.831331,148.041188,-8580.269578,-592.164754
4594.831655,148.041188,-8580.269578,-370.102971
4594.831980,148.041188,-8886.707777,-518.144159
4594.832304,222.061783,-9116.536426,-296.082377
4594.832628,222.061783,-8733.488677,-444.123565
4594.832953,296.082377,-9039.926876,0.000000
4594.833277,370.102971,-8273.831378,-222.061783
4594.833602,370.102971,-8273.831378,148.041188
4594.833926,592.164754,-8273.831378,222.061783
4594.834251,518.144159,-8044.002729,0.000000
4594.834575,222.061783,-8580.269578,-222.061783
4594.834900,370.102971,-8350.440928,-222.061783
4594.835224,814.226536,-8656.879127,-370.102971
4594.835549,518.144159,-8503.660028,-592.164754
4594.835873,592.164754,-8273.831378,148.041188
4594.836197,666.185348,-8580.269578,148.041188
4594.836522,444.123565,-8733.488677,370.102971
4594.836846,740.205942,-8656.879127,222.061783
4594.837171,444.123565,-8197.221829,296.082377
4594.837495,888.247130,-8350.440928,666.185348
4594.837820,962.267725,-8350.440928,-296.082377
4594.838144,814.226536,-8963.317327,0.000000
4594.838469,814.226536,-8197.221829,222.061783
4594.838793,296.082377,-8580.269578,148.041188
4594.839118,444.123565,-8503.660028,148.041188
4594.839442,370.102971,-8580.269578,888.247130
4594.839766,222.061783,-8810.098227,370.102971
4594.840091,444.123565,-8273.831378,222.061783
4594.840415,370.102971,-8503.660028,0.000000
4594.840740,740.205942,-8350.440928,518.144159
4594.841064,666.185348,-8503.660028,-222.061783
4594.841389,444.123565,-9116.536426,-518.144159
4594.841713,296.082377,-8427.050478,-296.082377
4594.842038,222.061783,-7967.393179,222.061783
4594.842362,222.061783,-8886.707777,-222.061783
4594.842687,222.061783,-8580.269578,74.020594
4594.843011,222.061783,-8733.488677,222.061783
4594.843335,222.061783,-8810.098227,0.000000
4594.843660,148.041188,-8886.707777,0.000000
4594.843984,666.185348,-8886.707777,-370.102971
4594.844309,592.164754,-8427.050478,-444.123565
4594.844633,518.144159,-8810.098227,0.000000
4594.844958,592.164754,-9116.536426,-518.144159
4594.845282,74.020594,-8656.879127,-148.041188
4594.845607,0.000000,-8120.612279,-370.102971
4594.845931,148.041188,-9039.926876,0.000000
4594.846256,0.000000,-8580.269578,-74.020594
4594.846580,370.102971,-8886.707777,-222.061783
4594.846904,222.061783,-8503.660028,-518.144159
4594.847229,370.102971,-8886.707777,-740.205942
4594.847553,370.102971,-8963.317327,-814.226536
4594.847878,0.000000,-8656.879127,-518.144159
4594.848202,222.061783,-8656.879127,0.000000
4594.848527,74.020594,-8886.707777,74.020594
4594.848851,222.061783,-8733.488677,0.000000
4594.849176,296.082377,-8656.879127,-296.082377
4594.849500,370.102971,-8427.050478,-222.061783
4594.849825,592.164754,-8656.879127,-222.061783
4594.850149,518.144159,-8580.269578,-444.123565
4594.850473,444.123565,-8580.269578,-444.123565
4594.850798,592.164754,-8503.660028,-444.123565
4594.851122,222.061783,-8580.269578,-296.082377
4594.851447,296.082377,-8273.831378,0.000000
4594.851771,222.061783,-8656.879127,148.041188
4594.852096,148.041188,-9039.926876,-518.144159
4594.852420,370.102971,-8733.488677,-740.205942
4594.852745,222.061783,-8427.050478,-370.102971
4594.853069,518.144159,-8810.098227,-444.123565
4594.853394,444.123565,-9116.536426,-370.102971
4594.853718,444.123565,-8580.269578,-814.226536
4594.854042,740.205942,-8656.879127,-592.164754
4594.854367,370.102971,-8503.660028,-444.123565
4594.854691,444.123565,-8503.660028,-222.061783
4594.855016,666.185348,-8044.002729,-148.041188
4594.855340,444.123565,-8580.269578,-296.082377
4594.855665,666.185348,-8580.269578,-592.164754
4594.855989,888.247130,-8503.660028,-962.267725
4594.856314,666.185348,-8273.831378,-148.041188
4594.856638,814.226536,-8656.879127,-740.205942
4594.856963,592.164754,-8427.050478,-444.123565
4594.857287,370.102971,-8810.098227,-370.102971
4594.857612,74.020594,-8273.831378,-222.061783
4594.857936,74.020594,-8656.879127,-592.164754
4594.858260,222.061783,-8580.269578,-444.123565
4594.858585,0.000000,-8503.660028,-740.205942
4594.858909,148.041188,-8810.098227,-962.267725
4594.859234,814.226536,-8656.879127,-1184.329507
4594.859558,296.082377,-8810.098227,-962.267725
4594.859883,222.061783,-8886.707777,-1110.308913
4594.860207,370.102971,-8427.050478,-370.102971
4594.860532,592.164754,-8733.488677,-296.082377
4594.860856,222.061783,-8580.269578,-592.164754
4594.861181,74.020594,-8350.440928,-296.082377
4594.861505,296.082377,-8503.660028,-740.205942
4594.861829,666.185348,-9039.926876,-666.185348
4594.862154,740.205942,-8427.050478,-962.267725
4594.862478,740.205942,-8963.317327,-1036.288319
4594.862803,518.144159,-8580.269578,-666.185348
4594.863127,518.144159,-8656.879127,-666.185348
4594.863452,148.041188,-8886.707777,-148.041188
4594.863776,0.000000,-8427.050478,-148.041188
4594.864101,0.000000,-8656.879127,-296.082377
4594.864425,444.123565,-8656.879127,-518.144159
4594.864750,148.041188,-8886.707777,0.000000
4594.865074,666.185348,-8963.317327,-740.205942
4594.865398,444.123565,-8273.831378,-444.123565
4594.865723,148.041188,-9193.145976,-444.123565
4594.866047,222.061783,-8427.050478,-518.144159
4594.866372,444.123565,-8733.488677,0.000000
4594.866696,74.020594,-8503.660028,-148.041188
4594.867021,148.041188,-8580.269578,0.000000
4594.867345,0.000000,-8120.612279,0.000000
4594.867670,666.185348,-8197.221829,0.000000
4594.867994,444.123565,-7967.393179,-296.082377
4594.868319,814.226536,-8733.488677,-592.164754
4594.868643,1110.308913,-8273.831378,-518.144159
4594.868967,888.247130,-8503.660028,148.041188
4594.869292,814.226536,-8733.488677,0.000000
4594.869616,518.144159,-8350.440928,296.082377
4594.869941,518.144159,-8273.831378,0.000000
4594.870265,518.144159,-8580.269578,0.000000
4594.870590,444.123565,-8503.660028,0.000000
4594.870914,666.185348,-8503.660028,-296.082377
4594.871239,518.144159,-8580.269578,-370.102971
4594.871563,888.247130,-8580.269578,-518.144159
4594.871888,296.082377,-8656.879127,0.000000
4594.872212,666.185348,-8580.269578,0.000000
4594.872536,592.164754,-8350.440928,0.000000
4594.872861,296.082377,-8656.879127,370.102971
4594.873185,370.102971,-8503.660028,592.164754
4594.873510,370.102971,-8580.269578,-148.041188
4594.873834,444.123565,-8656.879127,-148.041188
4594.874159,296.082377,-8656.879127,-222.061783
4594.874483,296.082377,-8656.879127,-592.164754
4594.874808,814.226536,-8810.098227,-666.185348
4594.875132,222.061783,-8503.660028,-296.082377
4594.875457,148.041188,-9039.926876,-148.041188
4594.875781,518.144159,-8120.612279,-148.041188
4594.876105,592.164754,-8350.440928,222.061783
4594.876430,0.000000,-8810.098227,-370.102971
4594.876754,370.102971,-8350.440928,-740.205942
4594.877079,518.144159,-8656.879127,-740.205942
4594.877403,666.185348,-7660.954980,-666.185348
4594.877728,370.102971,-8656.879127,-888.247130
4594.878052,444.123565,-8810.098227,-592.164754
4594.878377,592.164754,-8656.879127,-592.164754
4594.878701,518.144159,-8810.098227,-370.102971
4594.879026,74.020594,-8197.221829,-592.164754
4594.879350,444.123565,-8350.440928,-370.102971
4594.879674,444.123565,-8733.488677,-814.226536
4594.879999,592.164754,-8886.707777,-1110.308913
4594.880323,666.185348,-8044.002729,-666.185348
4594.880648,740.205942,-8733.488677,-1036.288319
4594.880972,370.102971,-9039.926876,-962.267725
4594.881297,666.185348,-8503.660028,-962.267725
4594.881621,444.123565,-8733.488677,-518.144159
4594.881946,518.144159,-8350.440928,-444.123565
4594.882270,444.123565,-8503.660028,-962.267725
4594.882595,296.082377,-8503.660028,-666.185348
4594.882919,666.185348,-8273.831378,-1332.370696
4594.883243,444.123565,-8810.098227,-1554.432478
4594.883568,814.226536,-8886.707777,-1258.350101
4594.883892,814.226536,-8350.440928,-1036.288319
4594.884217,592.164754,-8810.098227,-740.205942
4594.884541,518.144159,-8273.831378,-296.082377
4594.884866,518.144159,-8656.879127,-296.082377
4594.885190,444.123565,-8427.050478,-518.144159
4594.885515,592.164754,-8580.269578,-666.185348
4594.885839,814.226536,-8580.269578,-814.226536
4594.886164,444.123565,-8350.440928,-888.247130
4594.886488,592.164754,-8810.098227,-814.226536
4594.886813,518.144159,-8580.269578,-740.205942
4594.887137,666.185348,-8810.098227,-666.185348
4594.887461,740.205942,-8580.269578,-370.102971
4594.887786,296.082377,-8427.050478,0.000000
4594.888110,296.082377,-8273.831378,-222.061783
4594.888435,444.123565,-8427.050478,-296.082377
4594.888759,740.205942,-8580.269578,-666.185348
4594.889084,370.102971,-8733.488677,-962.267725
4594.889408,518.144159,-8656.879127,-1184.329507
4594.889733,370.102971,-8427.050478,-740.205942
4594.890057,370.102971,-8810.098227,-666.185348
4594.890382,592.164754,-8886.707777,-444.123565
4594.890706,222.061783,-8503.660028,-370.102971
4594.891030,148.041188,-8427.050478,-148.041188
4594.891355,296.082377,-8350.440928,0.000000
4594.891679,222.061783,-8503.660028,296.082377
4594.892004,518.144159,-8810.098227,-296.082377
4594.892328,222.061783,-8656.879127,-518.144159
4594.892653,296.082377,-9039.926876,-518.144159
4594.892977,592.164754,-8963.317327,-296.082377
4594.893302,444.123565,-8580.269578,0.000000
4594.893626,444.123565,-8810.098227,148.041188
4594.893951,444.123565,-8350.440928,0.000000
4594.894275,222.061783,-8810.098227,0.000000
4594.894599,222.061783,-8656.879127,0.000000
4594.894924,444.123565,-8810.098227,0.000000
4594.895248,222.061783,-8580.269578,-222.061783
4594.895573,370.102971,-8733.488677,-740.205942
4594.895897,518.144159,-8273.831378,-592.164754
4594.896222,518.144159,-9039.926876,-296.082377
4594.896546,296.082377,-8733.488677,-148.041188
4594.896871,370.102971,-8580.269578,0.000000
4594.897195,370.102971,-8810.098227,-74.020594
4594.897520,222.061783,-8427.050478,-296.082377
4594.897844,592.164754,-8733.488677,-518.144159
4594.898168,296.082377,-8733.488677,-592.164754
4594.898493,740.205942,-8580.269578,-592.164754
4594.898817,444.123565,-8886.707777,-518.144159
4594.899142,444.123565,-8503.660028,-666.185348
4594.899466,740.205942,-8656.879127,-370.102971
4594.899791,518.144159,-8733.488677,-222.061783
4594.900115,740.205942,-8963.317327,74.020594
4594.900440,296.082377,-8656.879127,0.000000
4594.900764,592.164754,-8580.269578,-444.123565
4594.901089,814.226536,-8273.831378,-740.205942
4594.901413,814.226536,-8580.269578,-666.185348
4594.901737,444.123565,-8656.879127,-518.144159
4594.902062,888.247130,-8580.269578,-370.102971
4594.902386,666.185348,-8810.098227,-148.041188
4594.902711,740.205942,-8350.440928,-592.164754
4594.903035,148.041188,-8503.660028,-222.061783
4594.903360,222.061783,-8656.879127,-370.102971
4594.903684,74.020594,-7890.783629,-444.123565
4594.904009,296.082377,-8580.269578,-592.164754
4594.904333,444.123565,-8197.221829,-1036.288319
4594.904658,444.123565,-8273.831378,-1036.288319
4594.904982,518.144159,-8810.098227,-740.205942
4594.905306,592.164754,-8120.612279,-592.164754
4594.905631,518.144159,-8503.660028,-370.102971
4594.905955,592.164754,-8350.440928,-370.102971
4594.906280,222.061783,-8197.221829,-148.041188
4594.906604,296.082377,-8580.269578,-592.164754
4594.906929,222.061783,-8350.440928,-370.102971
4594.907253,222.061783,-8656.879127,-370.102971
4594.907578,222.061783,-8580.269578,-518.144159
4594.907902,222.061783,-8427.050478,-592.164754
4594.908227,518.144159,-8733.488677,-518.144159
4594.908551,444.123565,-9193.145976,0.000000
4594.908875,370.102971,-8350.440928,0.000000
4594.909200,444.123565,-8427.050478,0.000000
4594.909524,222.061783,-8120.612279,0.000000
4594.909849,370.102971,-9039.926876,-296.082377
4594.910173,148.041188,-8580.269578,-444.123565
4594.910498,296.082377,-8350.440928,-370.102971
4594.910822,0.000000,-8656.879127,-370.102971
4594.911147,0.000000,-8810.098227,-592.164754
4594.911471,444.123565,-8580.269578,222.061783
4594.911796,74.020594,-8427.050478,0.000000
4594.912120,296.082377,-8580.269578,74.020594
4594.912444,296.082377,-8120.612279,-148.041188
4594.912769,444.123565,-8810.098227,0.000000
4594.913093,666.185348,-8273.831378,-444.123565
4594.913418,666.185348,-8810.098227,-814.226536
4594.913742,962.267725,-8810.098227,-518.144159
4594.914067,592.164754,-8427.050478,-518.144159
4594.914391,740.205942,-8733.488677,-666.185348
4594.914716,444.123565,-8427.050478,-296.082377
4594.915040,518.144159,-8427.050478,-296.082377
4594.915365,814.226536,-8656.879127,-592.164754
4594.915689,518.144159,-8273.831378,-444.123565
4594.916013,1184.329507,-8810.098227,-518.144159
4594.916338,962.267725,-8503.660028,-444.123565
4594.916662,814.226536,-8427.050478,-962.267725
4594.916986,814.226536,-8810.098227,-296.082377
4594.917311,962.267725,-8580.269578,-592.164754
4594.917635,444.123565,-8886.707777,74.020594
4594.917959,370.102971,-8810.098227,0.000000
4594.918284,148.041188,-8733.488677,222.061783
4594.918608,1258.350101,-9039.926876,-444.123565
4594.918932,444.123565,-8733.488677,-444.123565
4594.919257,370.102971,-8656.879127,-148.041188
4594.919581,518.144159,-8810.098227,-592.164754
4594.919905,814.226536,-9193.145976,-370.102971
4594.920229,518.144159,-8733.488677,0.000000
4594.920554,518.144159,-8886.707777,0.000000
4594.920878,370.102971,-8580.269578,222.061783
4594.921202,74.020594,-8350.440928,74.020594
4594.921527,296.082377,-8656.879127,0.000000
4594.921851,222.061783,-8733.488677,-74.020594
4594.922175,296.082377,-8580.269578,-222.061783
4594.922500,148.041188,-8580.269578,-518.144159
4594.922824,888.247130,-8886.707777,-592.164754
4594.923148,444.123565,-8656.879127,-518.144159
4594.923473,666.185348,-8503.660028,-740.205942
4594.923797,518.144159,-8886.707777,-444.123565
4594.924121,740.205942,-9039.926876,0.000000
4594.924445,296.082377,-8197.221829,0.000000
4594.924770,222.061783,-8580.269578,-148.041188
4594.925094,0.000000,-8733.488677,-370.102971
4594.925418,296.082377,-8810.098227,-592.164754
4594.925743,592.164754,-9039.926876,-666.185348
4594.926067,370.102971,-8656.879127,-518.144159
4594.926391,444.123565,-8503.660028,-296.082377
4594.926716,592.164754,-8350.440928,0.000000
4594.927040,740.205942,-8350.440928,74.020594
4594.927364,296.082377,-8656.879127,-148.041188
4594.927688,370.102971,-8350.440928,0.000000
4594.928013,0.000000,-8656.879127,-222.061783
4594.928337,148.041188,-8580.269578,-370.102971
4594.928661,0.000000,-8656.879127,0.000000
4594.928986,222.061783,-8503.660028,-740.205942
4594.929310,74.020594,-8427.050478,-370.102971
4594.929634,222.061783,-8273.831378,0.000000
4594.929959,444.123565,-8120.612279,222.061783
4594.930283,592.164754,-8197.221829,-148.041188
4594.930607,444.123565,-8503.660028,0.000000
4594.930932,370.102971,-8427.050478,-444.123565
4594.931256,740.205942,-9346.365076,-444.123565
4594.931580,148.041188,-8580.269578,-666.185348
4594.931904,0.000000,-8963.317327,-222.061783
4594.932229,296.082377,-8273.831378,-444.123565
4594.932553,444.123565,-8810.098227,-148.041188
4594.932877,444.123565,-8273.831378,0.000000
4594.933202,370.102971,-8350.440928,0.000000
4594.933526,444.123565,-8197.221829,-370.102971
4594.933850,222.061783,-8350.440928,0.000000
4594.934175,0.000000,-8580.269578,-296.082377
4594.934499,518.144159,-8580.269578,-666.185348
4594.934823,370.102971,-8580.269578,-518.144159
4594.935147,296.082377,-8580.269578,-666.185348
4594.935472,518.144159,-8656.879127,-370.102971
4594.935796,222.061783,-8733.488677,0.000000
4594.936120,518.144159,-8656.879127,0.000000
4594.936445,444.123565,-8427.050478,0.000000
4594.936769,370.102971,-8580.269578,-74.020594
4594.937093,222.061783,-8350.440928,-296.082377
4594.937418,370.102971,-8656.879127,-740.205942
4594.937742,666.185348,-8963.317327,-370.102971
4594.938066,1110.308913,-8580.269578,-444.123565
4594.938391,444.123565,-8503.660028,-222.061783
4594.938715,518.144159,-8656.879127,0.000000
4594.939039,444.123565,-8810.098227,518.144159
4594.939363,444.123565,-8656.879127,74.020594
4594.939688,296.082377,-7737.564530,296.082377
4594.940012,592.164754,-8273.831378,0.000000
4594.940336,740.205942,-8886.707777,0.000000
4594.940661,740.205942,-8427.050478,-666.185348
4594.940985,296.082377,-8810.098227,-296.082377
4594.941309,518.144159,-8656.879127,-296.082377
4594.941634,444.123565,-8656.879127,0.000000
4594.941958,148.041188,-8503.660028,148.041188
4594.942282,0.000000,-8656.879127,370.102971
4594.942606,444.123565,-8963.317327,-296.082377
4594.942931,370.102971,-8963.317327,74.020594
4594.943255,444.123565,-8580.269578,0.000000
4594.943579,222.061783,-8580.269578,-148.041188
4594.943904,518.144159,-9116.536426,-296.082377
4594.944228,296.082377,-8656.879127,0.000000
4594.944552,148.041188,-8886.707777,-148.041188
4594.944877,592.164754,-8656.879127,74.020594
4594.945201,666.185348,-8044.002729,444.123565
4594.945525,74.020594,-8656.879127,444.123565
4594.945850,370.102971,-8350.440928,0.000000
4594.946174,296.082377,-8350.440928,0.000000
4594.946498,518.144159,-8656.879127,-296.082377
4594.946822,740.205942,-8886.707777,0.000000
4594.947147,666.185348,-8580.269578,-222.061783
4594.947471,370.102971,-8580.269578,0.000000
4594.947795,370.102971,-8656.879127,222.061783
4594.948120,444.123565,-8733.488677,0.000000
4594.948444,370.102971,-8503.660028,296.082377
4594.948768,666.185348,-8273.831378,0.000000
4594.949093,296.082377,-8733.488677,-296.082377
4594.949417,518.144159,-8273.831378,-296.082377
4594.949741,962.267725,-8350.440928,-592.164754
4594.950065,666.185348,-8503.660028,-592.164754
4594.950390,518.144159,-8503.660028,-444.123565
4594.950714,222.061783,-8733.488677,-370.102971
4594.951038,74.020594,-9039.926876,74.020594
4594.951363,0.000000,-8197.221829,0.000000
4594.951687,296.082377,-8886.707777,0.000000
4594.952011,444.123565,-8427.050478,-296.082377
4594.952336,222.061783,-8810.098227,-592.164754
4594.952660,370.102971,-8963.317327,-666.185348
4594.952984,296.082377,-8503.660028,-666.185348
4594.953309,296.082377,-8810.098227,-518.144159
4594.953633,148.041188,-8503.660028,-518.144159
4594.953957,518.144159,-8886.707777,0.000000
4594.954281,222.061783,-8427.050478,0.000000
4594.954606,222.061783,-8350.440928,0.000000
4594.954930,296.082377,-8733.488677,-296.082377
4594.955254,444.123565,-9039.926876,0.000000
4594.955579,888.247130,-8503.660028,-592.164754
4594.955903,518.144159,-8580.269578,-592.164754
4594.956227,740.205942,-8963.317327,-740.205942
4594.956552,444.123565,-8350.440928,-444.123565
4594.956876,444.123565,-8810.098227,-370.102971
4594.957200,592.164754,-8350.440928,0.000000
4594.957524,296.082377,-8044.002729,-296.082377
4594.957849,222.061783,-8503.660028,-444.123565
4594.958173,0.000000,-8503.660028,0.000000
4594.958497,370.102971,-8580.269578,-962.267725
4594.958822,518.144159,-8503.660028,-740.205942
4594.959146,592.164754,-8733.488677,-740.205942
4594.959470,592.164754,-8656.879127,-814.226536
4594.959795,74.020594,-8503.660028,-370.102971
4594.960119,592.164754,-8580.269578,-296.082377
4594.960443,444.123565,-8580.269578,-444.123565
4594.960768,518.144159,-8427.050478,-296.082377
4594.961092,518.144159,-8197.221829,0.000000
4594.961416,518.144159,-8810.098227,-444.123565
4594.961740,740.205942,-8656.879127,-814.226536
4594.962065,444.123565,-8733.488677,-814.226536
4594.962389,666.185348,-8810.098227,-444.123565
4594.962713,370.102971,-8733.488677,-296.082377
4594.963038,518.144159,-8886.707777,0.000000
4594.963362,370.102971,-8350.440928,148.041188
4594.963686,592.164754,-8656.879127,74.020594
4594.964011,296.082377,-8733.488677,74.020594
4594.964335,370.102971,-8350.440928,0.000000
4594.964659,222.061783,-8963.317327,0.000000
4594.964983,222.061783,-8656.879127,-296.082377
4594.965308,0.000000,-8733.488677,0.000000
4594.965632,148.041188,-8810.098227,222.061783
4594.965956,296.082377,-8503.660028,148.041188
4594.966281,0.000000,-8503.660028,0.000000
4594.966605,0.000000,-7584.345430,592.164754
4594.966929,222.061783,-8273.831378,296.082377
4594.967254,444.123565,-8580.269578,0.000000
4594.967578,592.164754,-8580.269578,-518.144159
4594.967902,444.123565,-8886.707777,-518.144159
4594.968227,370.102971,-8503.660028,-592.164754
4594.968551,296.082377,-8810.098227,-296.082377
4594.968875,518.144159,-8350.440928,-370.102971
4594.969199,518.144159,-8656.879127,0.000000
4594.969524,518.144159,-7814.174080,0.000000
4594.969848,148.041188,-8733.488677,0.000000
4594.970172,370.102971,-8350.440928,-148.041188
4594.970497,296.082377,-8656.879127,-518.144159
4594.970821,1036.288319,-8580.269578,-740.205942
4594.971145,518.144159,-8733.488677,-592.164754
4594.971470,370.102971,-8427.050478,-518.144159
4594.971794,444.123565,-8810.098227,0.000000
4594.972118,222.061783,-8273.831378,-296.082377
4594.972442,444.123565,-9116.536426,-148.041188
4594.972767,296.082377,-8503.660028,0.000000
4594.973091,518.144159,-8427.050478,0.000000
4594.973415,592.164754,-8656.879127,-370.102971
4594.973740,1258.350101,-8963.317327,-444.123565
4594.974064,888.247130,-8580.269578,-1036.288319
4594.974388,962.267725,-8427.050478,-518.144159
4594.974713,592.164754,-8427.050478,-740.205942
4594.975037,592.164754,-8120.612279,0.000000
4594.975361,296.082377,-8197.221829,-370.102971
4594.975686,518.144159,-8886.707777,-444.123565
4594.976010,370.102971,-8503.660028,-962.267725
4594.976334,518.144159,-8656.879127,-222.061783
4594.976658,666.185348,-8656.879127,-1036.288319
4594.976983,518.144159,-8810.098227,-1110.308913
4594.977307,666.185348,-8580.269578,-814.226536
4594.977631,592.164754,-8580.269578,-962.267725
4594.977956,1036.288319,-8963.317327,-370.102971
4594.978280,296.082377,-8656.879127,-444.123565
4594.978604,370.102971,-8810.098227,-518.144159
4594.978929,296.082377,-8503.660028,-222.061783
4594.979253,740.205942,-8656.879127,-740.205942
4594.979577,518.144159,-8886.707777,-444.123565
4594.979902,592.164754,-8503.660028,-592.164754
4594.980226,444.123565,-9116.536426,-666.185348
4594.980550,666.185348,-8580.269578,-740.205942
4594.980874,1184.329507,-8656.879127,-444.123565
4594.981199,814.226536,-8580.269578,-666.185348
4594.981523,444.123565,-8580.269578,-222.061783
4594.981847,222.061783,-8503.660028,-370.102971
4594.982172,666.185348,-9116.536426,-148.041188
4594.982496,148.041188,-8656.879127,-740.205942
4594.982820,296.082377,-8580.269578,-592.164754
4594.983145,444.123565,-8120.612279,-666.185348
4594.983469,592.164754,-8733.488677,-296.082377
4594.983793,148.041188,-8656.879127,-740.205942
4594.984117,592.164754,-8580.269578,-296.082377
4594.984442,370.102971,-8350.440928,-444.123565
4594.984766,222.061783,-8656.879127,-148.041188
4594.985090,148.041188,-8273.831378,-222.061783
4594.985415,148.041188,-8733.488677,-444.123565
4594.985739,296.082377,-8733.488677,-592.164754
4594.986063,592.164754,-8656.879127,-740.205942
4594.986388,444.123565,-9576.193725,-740.205942
4594.986712,518.144159,-8656.879127,-518.144159
4594.987036,296.082377,-8427.050478,-444.123565
4594.987361,296.082377,-8733.488677,0.000000
4594.987685,444.123565,-8120.612279,-296.082377
4594.988009,592.164754,-8886.707777,-296.082377
4594.988333,518.144159,-8656.879127,-592.164754
4594.988658,666.185348,-8733.488677,-518.144159
4594.988982,296.082377,-8503.660028,-444.123565
4594.989306,370.102971,-9193.145976,0.000000
4594.989631,444.123565,-8810.098227,-444.123565
4594.989955,592.164754,-8656.879127,-370.102971
4594.990279,222.061783,-8427.050478,-370.102971
4594.990604,370.102971,-8273.831378,0.000000
4594.990928,74.020594,-8427.050478,-222.061783
4594.991252,370.102971,-8427.050478,-370.102971
4594.991576,592.164754,-8350.440928,-814.226536
4594.991901,74.020594,-8427.050478,-370.102971
4594.992225,296.082377,-8580.269578,-962.267725
4594.992549,296.082377,-8427.050478,-592.164754
4594.992874,444.123565,-8733.488677,-370.102971
4594.993198,296.082377,-8656.879127,-518.144159
4594.993522,296.082377,-8656.879127,-370.102971
4594.993847,518.144159,-8273.831378,-370.102971
4594.994171,592.164754,-8580.269578,-518.144159
4594.994495,518.144159,-8580.269578,-740.205942
4594.994820,888.247130,-8733.488677,-1258.350101
4594.995144,444.123565,-8810.098227,-962.267725
4594.995468,814.226536,-8963.317327,-666.185348
4594.995792,222.061783,-8656.879127,-370.102971
4594.996117,592.164754,-8733.488677,-592.164754
4594.996441,444.123565,-8810.098227,-592.164754
4594.996765,370.102971,-8580.269578,-370.102971
4594.997090,370.102971,-8580.269578,-296.082377
4594.997414,592.164754,-8580.269578,-666.185348
4594.997738,74.020594,-9729.412825,0.000000
4594.998063,148.041188,-8733.488677,-962.267725
4594.998387,222.061783,-9039.926876,-888.247130
4594.998711,518.144159,-8963.317327,-666.185348
4594.999035,222.061783,-8580.269578,-592.164754
4594.999360,222.061783,-8810.098227,0.000000
4594.999684,222.061783,-8350.440928,-370.102971
4595.000008,0.000000,-8810.098227,-222.061783
4595.000333,518.144159,-8810.098227,-592.164754
4595.000657,222.061783,-8427.050478,-296.082377
4595.000981,592.164754,-8580.269578,-740.205942
4595.001306,444.123565,-8656.879127,-666.185348
4595.001630,518.144159,-8886.707777,-740.205942
4595.001954,148.041188,-8810.098227,74.020594
4595.002279,296.082377,-8427.050478,-222.061783
4595.002603,518.144159,-8273.831378,0.000000
4595.002927,296.082377,-8427.050478,-222.061783
4595.003251,222.061783,-8810.098227,-222.061783
4595.003576,592.164754,-8350.440928,-888.247130
4595.003900,370.102971,-8733.488677,-592.164754
4595.004224,592.164754,-8273.831378,-740.205942
4595.004549,370.102971,-8733.488677,-888.247130
4595.004873,444.123565,-8580.269578,-592.164754
4595.005197,370.102971,-8273.831378,-296.082377
4595.005522,370.102971,-8427.050478,-370.102971
4595.005846,518.144159,-8350.440928,0.000000
4595.006170,148.041188,-8503.660028,0.000000
4595.006494,592.164754,-8350.440928,-296.082377
4595.006819,666.185348,-8197.221829,-444.123565
4595.007143,666.185348,-8886.707777,-444.123565
4595.007467,814.226536,-8427.050478,-592.164754
4595.007792,592.164754,-8963.317327,-592.164754
4595.008116,222.061783,-8580.269578,-666.185348
4595.008440,592.164754,-8273.831378,-148.041188
4595.008765,592.164754,-8273.831378,0.000000
4595.009089,74.020594,-8197.221829,296.082377
4595.009413,444.123565,-8350.440928,0.000000
4595.009738,444.123565,-8810.098227,-296.082377
4595.010062,222.061783,-8427.050478,-370.102971
4595.010386,518.144159,-9116.536426,0.000000
4595.010710,370.102971,-8810.098227,-296.082377
4595.011035,518.144159,-8427.050478,0.000000
4595.011359,74.020594,-8580.269578,0.000000
4595.011683,74.020594,-8810.098227,148.041188
4595.012008,296.082377,-8120.612279,74.020594
4595.012332,518.144159,-8656.879127,0.000000
4595.012656,444.123565,-8503.660028,0.000000
4595.012981,518.144159,-8810.098227,0.000000
4595.013305,518.144159,-8044.002729,0.000000
4595.013629,444.123565,-8656.879127,-370.102971
4595.013953,444.123565,-8963.317327,-370.102971
4595.014278,518.144159,-8503.660028,-296.082377
4595.014602,518.144159,-8273.831378,0.000000
4595.014926,74.020594,-8503.660028,0.000000
4595.015251,370.102971,-8197.221829,-222.061783
4595.015575,444.123565,-8656.879127,-370.102971
4595.015899,592.164754,-8810.098227,-740.205942
4595.016224,518.144159,-8503.660028,-888.247130
4595.016548,222.061783,-8733.488677,-888.247130
4595.016872,370.102971,-8656.879127,-592.164754
4595.017196,148.041188,-8503.660028,-666.185348
4595.017521,1184.329507,-8810.098227,-370.102971
4595.017845,222.061783,-8273.831378,-296.082377
4595.018169,222.061783,-8810.098227,-222.061783
4595.018493,296.082377,-8656.879127,-592.164754
4595.018818,518.144159,-8963.317327,-370.102971
4595.019142,296.082377,-8580.269578,-666.185348
4595.019466,518.144159,-8733.488677,-222.061783
4595.019790,518.144159,-8503.660028,-740.205942
4595.020115,370.102971,-8810.098227,-222.061783
4595.020439,518.144159,-8580.269578,-518.144159
4595.020763,148.041188,-8580.269578,-222.061783
4595.021087,74.020594,-8656.879127,-222.061783
4595.021411,518.144159,-8810.098227,-370.102971
4595.021736,592.164754,-8273.831378,-666.185348
4595.022060,444.123565,-8580.269578,-592.164754
4595.022384,518.144159,-8580.269578,-592.164754
4595.022708,518.144159,-8580.269578,-814.226536
4595.023033,740.205942,-8886.707777,-370.102971
4595.023357,518.144159,-8427.050478,-370.102971
4595.023681,444.123565,-8656.879127,-222.061783
4595.024005,296.082377,-8273.831378,0.000000
4595.024330,444.123565,-8503.660028,-296.082377
4595.024654,888.247130,-8886.707777,-370.102971
4595.024978,814.226536,-8503.660028,-666.185348
4595.025302,666.185348,-8656.879127,-888.247130
4595.025627,666.185348,-9039.926876,-592.164754
4595.025951,666.185348,-8503.660028,-592.164754
4595.026275,592.164754,-8810.098227,-222.061783
4595.026599,296.082377,-8044.002729,0.000000
4595.026923,148.041188,-8886.707777,0.000000
4595.027248,0.000000,-8503.660028,-148.041188
4595.027572,0.000000,-8580.269578,-148.041188
4595.027896,370.102971,-8733.488677,-740.205942
4595.028220,222.061783,-8810.098227,-518.144159
4595.028545,444.123565,-8580.269578,-444.123565
4595.028869,148.041188,-8580.269578,-444.123565
4595.029193,444.123565,-8580.269578,-148.041188
4595.029517,518.144159,-8427.050478,74.020594
4595.029842,370.102971,-8427.050478,-148.041188
4595.030166,370.102971,-8350.440928,370.102971
4595.030490,666.185348,-8197.221829,74.020594
4595.030814,740.205942,-8580.269578,-444.123565
4595.031139,666.185348,-8810.098227,-444.123565
4595.031463,518.144159,-8656.879127,-444.123565
4595.031787,0.000000,-8580.269578,0.000000
4595.032111,444.123565,-8733.488677,-370.102971
4595.032436,222.061783,-8656.879127,222.061783
4595.032760,296.082377,-8273.831378,296.082377
4595.033084,74.020594,-8273.831378,-296.082377
4595.033408,222.061783,-8656.879127,148.041188
4595.033732,444.123565,-8733.488677,0.000000
4595.034057,444.123565,-8810.098227,-518.144159
4595.034381,222.061783,-8886.707777,-518.144159
4595.034705,444.123565,-8733.488677,-518.144159
4595.035029,444.123565,-9193.145976,-518.144159
4595.035354,222.061783,-8273.831378,0.000000
4595.035678,518.144159,-8886.707777,0.000000
4595.036002,0.000000,-8273.831378,-148.041188
4595.036326,0.000000,-8733.488677,-296.082377
4595.036651,518.144159,-8350.440928,-370.102971
4595.036975,592.164754,-8580.269578,-148.041188
4595.037299,518.144159,-8580.269578,-740.205942
4595.037623,592.164754,-8503.660028,-666.185348
4595.037948,592.164754,-8580.269578,-370.102971
4595.038272,666.185348,-8810.098227,-222.061783
4595.038596,222.061783,-8503.660028,0.000000
4595.038920,74.020594,-8273.831378,-148.041188
4595.039244,74.020594,-8503.660028,0.000000
4595.039569,222.061783,-8886.707777,-148.041188
4595.039893,592.164754,-9039.926876,-518.144159
4595.040217,888.247130,-9269.755526,-518.144159
4595.040541,592.164754,-8733.488677,-222.061783
4595.040866,592.164754,-8810.098227,-370.102971
4595.041190,666.185348,-8427.050478,0.000000
4595.041514,74.020594,-8733.488677,444.123565
4595.041838,666.185348,-8503.660028,148.041188
4595.042163,444.123565,-8427.050478,0.000000
4595.042487,296.082377,-8350.440928,0.000000
4595.042811,518.144159,-8580.269578,-296.082377
4595.043135,888.247130,-8580.269578,-592.164754
4595.043460,444.123565,-8733.488677,-814.226536
4595.043784,518.144159,-8427.050478,-518.144159
4595.044108,444.123565,-8503.660028,-370.102971
4595.044432,444.123565,-8197.221829,148.041188
4595.044756,370.102971,-8656.879127,148.041188
4595.045081,518.144159,-8197.221829,-148.041188
4595.045405,518.144159,-8886.707777,-222.061783
4595.045729,444.123565,-8197.221829,-296.082377
4595.046053,740.205942,-8886.707777,-148.041188
4595.046378,518.144159,-8427.050478,-666.185348
4595.046702,592.164754,-8810.098227,-592.164754
4595.047026,296.082377,-8427.050478,-518.144159
4595.047350,444.123565,-8886.707777,74.020594
4595.047675,296.082377,-8273.831378,-148.041188
4595.047999,296.082377,-8810.098227,444.123565
4595.048323,370.102971,-8044.002729,148.041188
4595.048647,518.144159,-8427.050478,-666.185348
4595.048972,518.144159,-8427.050478,-444.123565
4595.049296,666.185348,-8503.660028,-370.102971
4595.049620,444.123565,-8810.098227,-370.102971
4595.049944,296.082377,-8580.269578,-222.061783
4595.050269,444.123565,-8580.269578,-444.123565
4595.050593,74.020594,-8427.050478,-222.061783
4595.050917,0.000000,-8503.660028,0.000000
4595.051241,0.000000,-8427.050478,-444.123565
4595.051565,370.102971,-8810.098227,0.000000
4595.051890,296.082377,-8273.831378,-666.185348
4595.052214,370.102971,-9116.536426,-814.226536
4595.052538,222.061783,-8273.831378,-518.144159
4595.052862,814.226536,-8273.831378,0.000000
4595.053187,148.041188,-8886.707777,-592.164754
4595.053511,370.102971,-8503.660028,-148.041188
4595.053835,518.144159,-8503.660028,-148.041188
4595.054159,222.061783,-8886.707777,0.000000
4595.054484,296.082377,-8580.269578,0.000000
4595.054808,296.082377,-8656.879127,0.000000
4595.055132,370.102971,-8580.269578,-518.144159
4595.055456,518.144159,-8733.488677,-592.164754
4595.055781,814.226536,-8427.050478,-888.247130
4595.056105,370.102971,-8656.879127,-222.061783
4595.056429,444.123565,-9116.536426,0.000000
4595.056753,0.000000,-8503.660028,0.000000
4595.057077,444.123565,-8503.660028,370.102971
4595.057402,370.102971,-8350.440928,0.000000
4595.057726,370.102971,-8733.488677,-148.041188
4595.058050,148.041188,-8656.879127,-370.102971
4595.058374,518.144159,-8580.269578,-370.102971
4595.058699,518.144159,-8427.050478,-518.144159
4595.059023,222.061783,-8963.317327,-666.185348
4595.059347,814.226536,-8733.488677,0.000000
4595.059671,592.164754,-8273.831378,0.000000
4595.059996,666.185348,-8656.879127,0.000000
4595.060320,518.144159,-8350.440928,-222.061783
4595.060644,666.185348,-8503.660028,-148.041188
4595.060968,518.144159,-8580.269578,-370.102971
4595.061293,666.185348,-8273.831378,-518.144159
4595.061617,444.123565,-8810.098227,-444.123565
4595.061941,740.205942,-8656.879127,-666.185348
4595.062265,444.123565,-8580.269578,-444.123565
4595.062589,444.123565,-8656.879127,-370.102971
4595.062914,444.123565,-8580.269578,222.061783
4595.063238,370.102971,-8503.660028,-74.020594
4595.063562,222.061783,-8656.879127,-370.102971
4595.063886,370.102971,-8656.879127,-296.082377
4595.064211,444.123565,-8580.269578,-592.164754
4595.064535,518.144159,-8963.317327,-666.185348
4595.064859,592.164754,-8963.317327,-296.082377
4595.065183,296.082377,-8580.269578,-370.102971
4595.065508,222.061783,-8810.098227,0.000000
4595.065832,222.061783,-8733.488677,-222.061783
4595.066156,0.000000,-8580.269578,0.000000
4595.066480,444.123565,-8120.612279,0.000000
4595.066805,296.082377,-8503.660028,-296.082377
4595.067129,518.144159,-8503.660028,-814.226536
4595.067453,666.185348,-8273.831378,-518.144159
4595.067777,592.164754,-9039.926876,-740.205942
4595.068102,296.082377,-8503.660028,-518.144159
4595.068426,444.123565,-8580.269578,0.000000
4595.068750,74.020594,-8273.831378,0.000000
4595.069074,222.061783,-8197.221829,0.000000
4595.069398,296.082377,-8503.660028,-370.102971
4595.069723,518.144159,-8503.660028,0.000000
4595.070047,444.123565,-8350.440928,-518.144159
4595.070371,592.164754,-8733.488677,-888.247130
4595.070695,370.102971,-8503.660028,-518.144159
4595.071020,740.205942,-8503.660028,-740.205942
4595.071344,296.082377,-9116.536426,0.000000
4595.071668,444.123565,-8503.660028,0.000000
4595.071992,148.041188,-8197.221829,148.041188
4595.072317,222.061783,-8580.269578,0.000000
4595.072641,444.123565,-8963.317327,222.061783
4595.072965,296.082377,-8810.098227,-518.144159
4595.073289,444.123565,-8503.660028,-296.082377
4595.073614,296.082377,-8503.660028,-518.144159
4595.073938,444.123565,-9193.145976,-518.144159
4595.074262,370.102971,-8503.660028,-222.061783
4595.074586,592.164754,-8656.879127,-148.041188
4595.074910,148.041188,-8427.050478,0.000000
4595.075235,296.082377,-8580.269578,0.000000
4595.075559,0.000000,-8120.612279,0.000000
4595.075883,444.123565,-8580.269578,-592.164754
4595.076207,592.164754,-8656.879127,-370.102971
4595.076532,592.164754,-8733.488677,-666.185348
4595.076856,666.185348,-8656.879127,-666.185348
4595.077180,592.164754,-8120.612279,-592.164754
4595.077504,370.102971,-8350.440928,-222.061783
4595.077829,370.102971,-8427.050478,148.041188
4595.078153,518.144159,-8503.660028,0.000000
4595.078477,592.164754,-8656.879127,0.000000
4595.078801,444.123565,-8503.660028,-592.164754
4595.079126,518.144159,-8656.879127,-518.144159
4595.079450,444.123565,-8427.050478,-962.267725
4595.079774,444.123565,-8963.317327,-444.123565
4595.080098,592.164754,-8886.707777,-592.164754
4595.080422,444.123565,-8733.488677,-592.164754
4595.080747,370.102971,-8886.707777,-444.123565
4595.081071,518.144159,-8886.707777,-148.041188
4595.081395,222.061783,-8503.660028,0.000000
4595.081719,148.041188,-8580.269578,-444.123565
4595.082044,222.061783,-8656.879127,-296.082377
4595.082368,444.123565,-8733.488677,-518.144159
4595.082692,370.102971,-8733.488677,-370.102971
4595.083016,444.123565,-8656.879127,-888.247130
4595.083341,296.082377,-8886.707777,-518.144159
4595.083665,222.061783,-8273.831378,-444.123565
4595.083989,0.000000,-8733.488677,74.020594
4595.084313,0.000000,-8580.269578,-222.061783
4595.084638,370.102971,-8580.269578,-370.102971
4595.084962,370.102971,-8580.269578,-370.102971
4595.085286,592.164754,-8810.098227,-666.185348
4595.085610,666.185348,-8656.879127,-666.185348
4595.085935,296.082377,-8733.488677,-370.102971
4595.086259,444.123565,-8656.879127,-444.123565
4595.086583,444.123565,-8580.269578,-370.102971
4595.086907,444.123565,-8273.831378,0.000000
4595.087231,148.041188,-8350.440928,0.000000
4595.087556,74.020594,-8273.831378,0.000000
4595.087880,222.061783,-8350.440928,-518.144159
4595.088204,666.185348,-7967.393179,0.000000
4595.088528,666.185348,-8656.879127,-740.205942
4595.088853,666.185348,-8656.879127,-740.205942
4595.089177,740.205942,-8580.269578,-370.102971
4595.089501,740.205942,-8733.488677,-370.102971
4595.089825,518.144159,-8503.660028,-370.102971
4595.090150,0.000000,-8503.660028,-296.082377
4595.090474,148.041188,-8733.488677,-592.164754
4595.090798,444.123565,-8427.050478,-518.144159
4595.091122,518.144159,-8273.831378,-740.205942
4595.091447,518.144159,-8580.269578,-666.185348
4595.091771,1110.308913,-8427.050478,-888.247130
4595.092095,888.247130,-8810.098227,-666.185348
4595.092419,1110.308913,-8656.879127,-592.164754
4595.092743,370.102971,-8503.660028,-296.082377
4595.093068,222.061783,-8733.488677,0.000000
4595.093392,222.061783,-8503.660028,-370.102971
4595.093716,222.061783,-8810.098227,-370.102971
4595.094040,518.144159,-8197.221829,-444.123565
4595.094365,444.123565,-8580.269578,-740.205942
4595.094689,444.123565,-8580.269578,-814.226536
4595.095013,518.144159,-8580.269578,-888.247130
4595.095337,1036.288319,-9039.926876,-518.144159
4595.095662,518.144159,-8350.440928,-296.082377
4595.095986,370.102971,-8427.050478,0.000000
4595.096310,444.123565,-8273.831378,-148.041188
4595.096634,888.247130,-8350.440928,-296.082377
4595.096959,370.102971,-9039.926876,-592.164754
4595.097283,444.123565,-8427.050478,-666.185348
4595.097607,814.226536,-9039.926876,-740.205942
4595.097931,296.082377,-8427.050478,-962.267725
4595.098255,296.082377,-8810.098227,-740.205942
4595.098580,444.123565,-8733.488677,-666.185348
4595.098904,296.082377,-8733.488677,-740.205942
4595.099228,666.185348,-8656.879127,-296.082377
4595.099552,0.000000,-8197.221829,-222.061783
4595.099877,814.226536,-8733.488677,-592.164754
4595.100201,444.123565,-8656.879127,-740.205942
4595.100525,814.226536,-8810.098227,-1036.288319
4595.100849,518.144159,-8044.002729,-592.164754
4595.101174,666.185348,-8503.660028,-888.247130
4595.101498,296.082377,-8963.317327,-592.164754
4595.101822,74.020594,-8580.269578,-370.102971
4595.102146,222.061783,-8656.879127,-296.082377
4595.102471,74.020594,-8350.440928,-740.205942
4595.102795,222.061783,-8427.050478,-518.144159
4595.103119,518.144159,-8656.879127,-592.164754
4595.103443,444.123565,-8656.879127,-888.247130
4595.103768,592.164754,-8350.440928,-518.144159
4595.104092,888.247130,-9116.536426,-592.164754
4595.104416,888.247130,-8503.660028,-740.205942
4595.104740,814.226536,-8273.831378,0.000000
4595.105064,370.102971,-8503.660028,-148.041188
4595.105389,370.102971,-8733.488677,148.041188
4595.105713,444.123565,-8044.002729,-370.102971
4595.106037,148.041188,-8503.660028,-518.144159
4595.106361,592.164754,-8733.488677,-592.164754
4595.106686,666.185348,-8886.707777,-888.247130
4595.107010,666.185348,-8656.879127,-592.164754
4595.107334,518.144159,-8350.440928,-444.123565
4595.107658,740.205942,-9346.365076,-666.185348
4595.107983,740.205942,-8810.098227,0.000000
4595.108307,444.123565,-8580.269578,0.000000
4595.108631,148.041188,-8656.879127,-370.102971
4595.108955,74.020594,-8503.660028,-592.164754
4595.109280,222.061783,-8733.488677,-592.164754
4595.109604,296.082377,-8580.269578,-592.164754
4595.109928,222.061783,-8886.707777,-592.164754
4595.110252,222.061783,-8350.440928,-592.164754
4595.110576,370.102971,-8580.269578,0.000000
4595.110901,370.102971,-8886.707777,0.000000
4595.111225,666.185348,-8350.440928,0.000000
4595.111549,518.144159,-8044.002729,148.041188
4595.111873,296.082377,-8580.269578,0.000000
4595.112198,370.102971,-8810.098227,-296.082377
4595.112522,592.164754,-8733.488677,-148.041188
4595.112846,148.041188,-8273.831378,-444.123565
4595.113170,444.123565,-9116.536426,0.000000
4595.113495,370.102971,-8197.221829,-222.061783
4595.113819,518.144159,-8656.879127,148.041188
4595.114143,444.123565,-8350.440928,0.000000
4595.114467,296.082377,-8580.269578,148.041188
4595.114792,592.164754,-8350.440928,-74.020594
4595.115116,74.020594,-8120.612279,444.123565
4595.115440,592.164754,-8886.707777,-370.102971
4595.115764,148.041188,-8580.269578,-666.185348
4595.116088,444.123565,-8810.098227,-740.205942
4595.116413,222.061783,-9346.365076,-148.041188
4595.116737,296.082377,-8810.098227,-296.082377
4595.117061,222.061783,-8580.269578,-222.061783
4595.117385,444.123565,-8273.831378,0.000000
4595.117710,296.082377,-8580.269578,-222.061783
4595.118034,444.123565,-8810.098227,-444.123565
4595.118358,666.185348,-8427.050478,-370.102971
4595.118682,444.123565,-8656.879127,-518.144159
4595.119007,814.226536,-8886.707777,-740.205942
4595.119331,222.061783,-8886.707777,148.041188
4595.119655,444.123565,-9116.536426,-222.061783
4595.119979,444.123565,-8580.269578,0.000000
4595.120304,148.041188,-8580.269578,0.000000
4595.120628,296.082377,-8963.317327,-296.082377
4595.120952,666.185348,-8427.050478,-370.102971
4595.121276,518.144159,-8656.879127,-666.185348
4595.121601,740.205942,-8810.098227,-962.267725
4595.121925,444.123565,-8120.612279,-666.185348
4595.122249,444.123565,-8886.707777,-222.061783
4595.122573,296.082377,-8503.660028,-740.205942
4595.122898,666.185348,-8733.488677,-222.061783
4595.123222,592.164754,-8503.660028,0.000000
4595.123546,370.102971,-8427.050478,222.061783
4595.123870,444.123565,-8656.879127,-370.102971
4595.124195,370.102971,-8733.488677,-666.185348
4595.124519,444.123565,-8197.221829,-814.226536
4595.124843,666.185348,-8810.098227,-888.247130
4595.125167,740.205942,-8580.269578,-962.267725
4595.125492,518.144159,-8503.660028,-370.102971
4595.125816,296.082377,-8886.707777,-740.205942
4595.126140,296.082377,-8197.221829,-296.082377
4595.126464,888.247130,-8427.050478,-592.164754
4595.126789,370.102971,-8886.707777,-370.102971
4595.127113,222.061783,-8733.488677,-592.164754
4595.127437,222.061783,-8656.879127,-666.185348
4595.127761,518.144159,-8963.317327,-444.123565
4595.128086,370.102971,-8963.317327,-814.226536
4595.128410,222.061783,-8886.707777,-740.205942
4595.128734,444.123565,-8273.831378,-444.123565
4595.129058,222.061783,-8197.221829,0.000000
4595.129383,222.061783,-8886.707777,0.000000
4595.129707,444.123565,-7967.393179,-296.082377
4595.130031,444.123565,-8580.269578,-296.082377
4595.130355,444.123565,-8656.879127,-518.144159
4595.130680,296.082377,-8350.440928,-296.082377
4595.131004,296.082377,-8810.098227,-444.123565
4595.131328,518.144159,-8503.660028,-296.082377
4595.131652,370.102971,-8350.440928,-444.123565
4595.131977,370.102971,-8503.660028,-296.082377
4595.132301,296.082377,-8273.831378,74.020594
4595.132625,296.082377,-8503.660028,296.082377
4595.132949,296.082377,-8350.440928,-296.082377
4595.133274,444.123565,-8350.440928,-296.082377
4595.133598,518.144159,-8656.879127,-444.123565
4595.133922,444.123565,-8810.098227,-370.102971
4595.134246,0.000000,-8810.098227,-370.102971
4595.134571,370.102971,-8886.707777,0.000000
4595.134895,74.020594,-8197.221829,74.020594
4595.135219,444.123565,-8427.050478,0.000000
4595.135543,592.164754,-8503.660028,0.000000
4595.135868,666.185348,-8503.660028,148.041188
4595.136192,444.123565,-8810.098227,296.082377
4595.136516,888.247130,-8427.050478,-370.102971
4595.136840,740.205942,-8733.488677,-370.102971
4595.137165,740.205942,-8733.488677,0.000000
4595.137489,444.123565,-8580.269578,-296.082377
4595.137813,518.144159,-9116.536426,0.000000
4595.138137,444.123565,-8656.879127,0.000000
4595.138462,222.061783,-8656.879127,0.000000
4595.138786,444.123565,-8580.269578,0.000000
4595.139110,962.267725,-8580.269578,0.000000
4595.139434,592.164754,-8503.660028,-518.144159
4595.139759,444.123565,-8810.098227,-444.123565
4595.140083,370.102971,-8503.660028,-666.185348
4595.140407,518.144159,-9039.926876,-296.082377
4595.140731,518.144159,-8427.050478,-666.185348
4595.141056,148.041188,-8656.879127,0.000000
4595.141380,296.082377,-8427.050478,74.020594
4595.141704,222.061783,-8963.317327,0.000000
4595.142028,518.144159,-8427.050478,-518.144159
4595.142353,222.061783,-8656.879127,-148.041188
4595.142677,518.144159,-8197.221829,-592.164754
4595.143001,296.082377,-8503.660028,-592.164754
4595.143325,666.185348,-9116.536426,-740.205942
4595.143650,370.102971,-8656.879127,-370.102971
4595.143974,518.144159,-8733.488677,-518.144159
4595.144298,370.102971,-8656.879127,0.000000
4595.144622,0.000000,-8503.660028,-148.041188
4595.144947,370.102971,-8810.098227,0.000000
4595.145271,296.082377,-8350.440928,-518.144159
4595.145595,444.123565,-8733.488677,-370.102971
4595.145919,296.082377,-8580.269578,-666.185348
4595.146244,1036.288319,-8886.707777,-518.144159
4595.146568,370.102971,-8733.488677,-666.185348
4595.146892,444.123565,-8963.317327,-296.082377
4595.147216,370.102971,-8503.660028,-296.082377
4595.147541,666.185348,-8120.612279,0.000000
4595.147865,296.082377,-8273.831378,0.000000
4595.148189,296.082377,-8580.269578,0.000000
4595.148513,592.164754,-8427.050478,-592.164754
4595.148838,518.144159,-8503.660028,-370.102971
4595.149162,592.164754,-8580.269578,-888.247130
4595.149486,666.185348,-8656.879127,-518.144159
4595.149810,370.102971,-8427.050478,-222.061783
4595.150135,222.061783,-8733.488677,0.000000
4595.150459,592.164754,-8810.098227,0.000000
4595.150783,444.123565,-8580.269578,-74.020594
4595.151107,444.123565,-8350.440928,-296.082377
4595.151432,444.123565,-8580.269578,-370.102971
4595.151756,296.082377,-9116.536426,-370.102971
4595.152080,296.082377,-8503.660028,-814.226536
4595.152404,296.082377,-8350.440928,-592.164754
4595.152729,518.144159,-8503.660028,-518.144159
4595.153053,370.102971,-8427.050478,0.000000
4595.153377,666.185348,-8120.612279,-148.041188
4595.153702,148.041188,-8503.660028,74.020594
4595.154026,222.061783,-8197.221829,-296.082377
4595.154350,296.082377,-8886.707777,-296.082377
4595.154674,0.000000,-8427.050478,0.000000
4595.154999,518.144159,-8503.660028,-296.082377
4595.155323,814.226536,-8810.098227,-592.164754
4595.155647,370.102971,-8886.707777,-370.102971
4595.155971,740.205942,-8733.488677,-740.205942
4595.156296,666.185348,-8656.879127,0.000000
4595.156620,444.123565,-8427.050478,0.000000
4595.156944,444.123565,-8656.879127,222.061783
4595.157268,518.144159,-8273.831378,-444.123565
4595.157593,740.205942,-8886.707777,-814.226536
4595.157917,814.226536,-8580.269578,-666.185348
4595.158241,444.123565,-8886.707777,-296.082377
4595.158565,444.123565,-8886.707777,-296.082377
4595.158890,592.164754,-9039.926876,-740.205942
4595.159214,222.061783,-8580.269578,0.000000
4595.159538,222.061783,-8963.317327,74.020594
4595.159862,370.102971,-8656.879127,-148.041188
4595.160187,518.144159,-8810.098227,-148.041188
4595.160511,666.185348,-8656.879127,-444.123565
4595.160835,444.123565,-8810.098227,-370.102971
4595.161159,370.102971,-8503.660028,-444.123565
4595.161484,592.164754,-9039.926876,-370.102971
4595.161808,444.123565,-8810.098227,0.000000
4595.162132,370.102971,-9039.926876,0.000000
4595.162456,222.061783,-8503.660028,296.082377
4595.162781,222.061783,-8503.660028,-148.041188
4595.163105,-148.041188,-9269.755526,-148.041188
4595.163429,518.144159,-8273.831378,-148.041188
4595.163753,222.061783,-8656.879127,-148.041188
4595.164078,370.102971,-9039.926876,-148.041188
4595.164402,444.123565,-8350.440928,-518.144159
4595.164726,666.185348,-9269.755526,-444.123565
4595.165050,592.164754,-8503.660028,0.000000
4595.165375,148.041188,-8733.488677,148.041188
4595.165699,296.082377,-8733.488677,0.000000
4595.166023,0.000000,-8044.002729,666.185348
4595.166347,74.020594,-8580.269578,-296.082377
4595.166672,444.123565,-8580.269578,-518.144159
4595.166996,518.144159,-8427.050478,-296.082377
4595.167320,222.061783,-9116.536426,0.000000
4595.167644,222.061783,-8733.488677,-666.185348
4595.167969,518.144159,-8350.440928,-148.041188
4595.168293,296.082377,-8427.050478,-148.041188
4595.168617,444.123565,-8427.050478,74.020594
4595.168941,148.041188,-8580.269578,222.061783
4595.169266,370.102971,-8580.269578,0.000000
4595.169590,296.082377,-8350.440928,-296.082377
4595.169914,444.123565,-8580.269578,-666.185348
4595.170238,740.205942,-8273.831378,-296.082377
4595.170563,592.164754,-8427.050478,-370.102971
4595.170887,518.144159,-8656.879127,-518.144159
4595.171211,222.061783,-8427.050478,-148.041188
4595.171535,518.144159,-8580.269578,296.082377
4595.171860,370.102971,-8350.440928,0.000000
4595.172184,74.020594,-8503.660028,74.020594
4595.172508,444.123565,-8810.098227,-518.144159
4595.172832,666.185348,-8963.317327,-592.164754
4595.173157,740.205942,-8733.488677,-814.226536
4595.173481,296.082377,-8656.879127,-518.144159
4595.173805,370.102971,-8656.879127,-370.102971
4595.174129,444.123565,-8580.269578,0.000000
4595.174454,0.000000,-8427.050478,0.000000
4595.174778,222.061783,-8503.660028,0.000000
4595.175102,296.082377,-8580.269578,-222.061783
4595.175426,296.082377,-8656.879127,-518.144159
4595.175751,370.102971,-8656.879127,-740.205942
4595.176075,518.144159,-8656.879127,-666.185348
4595.176399,444.123565,-8656.879127,-592.164754
4595.176723,592.164754,-8810.098227,-1110.308913
4595.177048,592.164754,-8733.488677,-296.082377
4595.177372,666.185348,-8120.612279,-592.164754
4595.177696,444.123565,-8810.098227,0.000000
4595.178020,222.061783,-8120.612279,-222.061783
4595.178345,740.205942,-8580.269578,-148.041188
4595.178669,740.205942,-8273.831378,-666.185348
4595.178993,592.164754,-8733.488677,-666.185348
4595.179317,444.123565,-8503.660028,-666.185348
4595.179642,592.164754,-8886.707777,-666.185348
4595.179966,296.082377,-8580.269578,-666.185348
4595.180290,518.144159,-8733.488677,-296.082377
4595.180614,592.164754,-8656.879127,0.000000
4595.180939,296.082377,-8427.050478,0.000000
4595.181263,370.102971,-8427.050478,-444.123565
4595.181587,666.185348,-8810.098227,-222.061783
4595.181911,666.185348,-8580.269578,-888.247130
4595.182236,666.185348,-8886.707777,-814.226536
4595.182560,518.144159,-8810.098227,-592.164754
4595.182884,814.226536,-8810.098227,-296.082377
4595.183208,370.102971,-8580.269578,-296.082377
4595.183533,370.102971,-8350.440928,0.000000
4595.183857,296.082377,-8733.488677,0.000000
4595.184181,444.123565,-8656.879127,-222.061783
4595.184505,222.061783,-8273.831378,0.000000
4595.184830,666.185348,-8503.660028,-518.144159
4595.185154,592.164754,-8427.050478,-592.164754
4595.185478,740.205942,-9193.145976,-592.164754
4595.185802,666.185348,-8503.660028,-518.144159
4595.186127,444.123565,-8810.098227,0.000000
4595.186451,370.102971,-8733.488677,0.000000
4595.186775,148.041188,-8810.098227,222.061783
4595.187099,222.061783,-7967.393179,74.020594
4595.187424,222.061783,-8503.660028,0.000000
4595.187748,444.123565,-8503.660028,-148.041188
4595.188072,666.185348,-8963.317327,-518.144159
4595.188396,74.020594,-8886.707777,-444.123565
4595.188721,444.123565,-8733.488677,-148.041188
4595.189045,222.061783,-8503.660028,-666.185348
4595.189369,518.144159,-8580.269578,0.000000
4595.189693,222.061783,-8273.831378,0.000000
4595.190018,666.185348,-8503.660028,0.000000
4595.190342,666.185348,-8350.440928,-296.082377
4595.190666,518.144159,-8580.269578,-592.164754
4595.190990,740.205942,-8733.488677,-666.185348
4595.191315,888.247130,-8580.269578,-814.226536
4595.191639,444.123565,-8963.317327,-814.226536
4595.191963,592.164754,-8733.488677,-370.102971
4595.192287,518.144159,-8427.050478,-592.164754
4595.192612,296.082377,-8886.707777,-296.082377
4595.192936,296.082377,-8656.879127,0.000000
4595.193260,296.082377,-8886.707777,0.000000
4595.193584,370.102971,-8656.879127,-444.123565
4595.193909,518.144159,-8273.831378,-444.123565
4595.194233,370.102971,-9346.365076,-518.144159
4595.194557,518.144159,-8503.660028,-518.144159
4595.194881,444.123565,-8503.660028,-370.102971
4595.195206,222.061783,-8656.879127,-296.082377
4595.195530,296.082377,-8656.879127,0.000000
4595.195854,296.082377,-8197.221829,-296.082377
4595.196178,222.061783,-8503.660028,-222.061783
4595.196503,444.123565,-8427.050478,-370.102971
4595.196827,666.185348,-8656.879127,-592.164754
4595.197151,962.267725,-8733.488677,-518.144159
4595.197475,814.226536,-8503.660028,-888.247130
4595.197800,888.247130,-8810.098227,-888.247130
4595.198124,518.144159,-8120.612279,-592.164754
4595.198448,0.000000,-8810.098227,-222.061783
4595.198772,222.061783,-8580.269578,-666.185348
4595.199097,296.082377,-8503.660028,-370.102971
4595.199421,444.123565,-8656.879127,-518.144159
4595.199745,296.082377,-8810.098227,-1110.308913
4595.200069,222.061783,-8886.707777,-740.205942
4595.200394,518.144159,-8427.050478,-814.226536
4595.200718,370.102971,-8733.488677,-814.226536
4595.201042,370.102971,-8733.488677,-888.247130
4595.201366,296.082377,-8503.660028,-222.061783
4595.201691,370.102971,-8350.440928,-222.061783
4595.202015,370.102971,-8350.440928,-296.082377
4595.202339,148.041188,-8350.440928,-444.123565
4595.202663,370.102971,-8427.050478,-444.123565
4595.202988,444.123565,-8503.660028,-888.247130
4595.203312,740.205942,-8733.488677,-888.247130
4595.203636,444.123565,-8580.269578,-888.247130
4595.203960,370.102971,-9116.536426,-444.123565
4595.204285,518.144159,-8197.221829,-814.226536
4595.204609,296.082377,-8733.488677,-666.185348
4595.204933,518.144159,-8197.221829,-222.061783
4595.205257,148.041188,-8427.050478,0.000000
4595.205582,518.144159,-8810.098227,-814.226536
4595.205906,370.102971,-8427.050478,-666.185348
4595.206230,444.123565,-8427.050478,-666.185348
4595.206554,518.144159,-9116.536426,-740.205942
4595.206879,444.123565,-8810.098227,0.000000
4595.207203,444.123565,-8503.660028,-444.123565
4595.207527,148.041188,-8503.660028,-296.082377
4595.207851,148.041188,-8580.269578,0.000000
4595.208176,0.000000,-8273.831378,0.000000
4595.208500,592.164754,-8427.050478,0.000000
4595.208824,148.041188,-8350.440928,-444.123565
4595.209148,74.020594,-8350.440928,-518.144159
4595.209473,370.102971,-8580.269578,-592.164754
4595.209797,814.226536,-8427.050478,-814.226536
4595.210121,296.082377,-8503.660028,-444.123565
4595.210445,296.082377,-8427.050478,0.000000
4595.210770,296.082377,-8656.879127,0.000000
4595.211094,148.041188,-8733.488677,0.000000
4595.211418,666.185348,-8810.098227,0.000000
4595.211742,518.144159,-8427.050478,-74.020594
4595.212067,666.185348,-8580.269578,-296.082377
4595.212391,518.144159,-8886.707777,-444.123565
4595.212715,888.247130,-9269.755526,0.000000
4595.213039,370.102971,-8427.050478,-296.082377
4595.213364,444.123565,-8733.488677,74.020594
4595.213688,592.164754,-8580.269578,0.000000
4595.214012,888.247130,-8350.440928,444.123565
4595.214336,296.082377,-8427.050478,0.000000
4595.214661,74.020594,-8503.660028,74.020594
4595.214985,370.102971,-8733.488677,-74.020594
4595.215309,518.144159,-8810.098227,-370.102971
4595.215633,444.123565,-8273.831378,-296.082377
4595.215958,370.102971,-9116.536426,-370.102971
4595.216282,444.123565,-8427.050478,-222.061783
4595.216606,592.164754,-8580.269578,0.000000
4595.216930,666.185348,-8427.050478,-444.123565
4595.217255,592.164754,-8350.440928,-222.061783
4595.217579,518.144159,-8580.269578,-148.041188
4595.217905,444.123565,-8427.050478,-592.164754
4595.218229,444.123565,-8120.612279,-296.082377
4595.218553,814.226536,-8733.488677,-962.267725
4595.218878,592.164754,-8733.488677,-518.144159
4595.219202,222.061783,-8427.050478,-370.102971
4595.219526,444.123565,-8810.098227,-518.144159
4595.219850,444.123565,-8427.050478,-222.061783
4595.220175,296.082377,-8427.050478,0.000000
4595.220499,296.082377,-8810.098227,0.000000
4595.220823,444.123565,-8656.879127,-296.082377
4595.221147,370.102971,-8503.660028,-592.164754
4595.221472,222.061783,-8580.269578,-444.123565
4595.221796,518.144159,-9039.926876,-518.144159
4595.222120,592.164754,-8886.707777,-370.102971
4595.222444,444.123565,-8427.050478,0.000000
4595.222769,222.061783,-8580.269578,-222.061783
4595.223093,222.061783,-8656.879127,0.000000
4595.223417,296.082377,-8273.831378,-370.102971
4595.223742,296.082377,-8656.879127,-666.185348
4595.224066,592.164754,-8656.879127,-888.247130
4595.224390,370.102971,-8427.050478,-666.185348
4595.224714,444.123565,-8427.050478,-740.205942
4595.225039,444.123565,-8733.488677,-518.144159
4595.225363,1036.288319,-8810.098227,-518.144159
4595.225687,296.082377,-8733.488677,-444.123565
4595.226011,518.144159,-8120.612279,-296.082377
4595.226336,296.082377,-8580.269578,-370.102971
4595.226660,222.061783,-8503.660028,-740.205942
4595.226984,370.102971,-8273.831378,-666.185348
4595.227308,370.102971,-8580.269578,-962.267725
4595.227633,518.144159,-8656.879127,-888.247130
4595.227957,444.123565,-8427.050478,-888.247130
4595.228281,296.082377,-8350.440928,-666.185348
4595.228605,518.144159,-7967.393179,-518.144159
4595.228930,592.164754,-8656.879127,0.000000
4595.229254,592.164754,-8273.831378,-222.061783
4595.229578,592.164754,-8810.098227,-296.082377
4595.229902,370.102971,-8427.050478,-592.164754
4595.230227,296.082377,-8503.660028,-666.185348
4595.230551,666.185348,-8656.879127,-666.185348
4595.230875,518.144159,-8656.879127,-592.164754
4595.231199,296.082377,-8503.660028,-370.102971
4595.231524,370.102971,-8733.488677,0.000000
4595.231848,296.082377,-8120.612279,0.000000
4595.232172,518.144159,-8733.488677,0.000000
4595.232497,444.123565,-8656.879127,296.082377
4595.232821,296.082377,-8580.269578,0.000000
4595.233145,296.082377,-8733.488677,-592.164754
4595.233469,148.041188,-8810.098227,-518.144159
4595.233794,296.082377,-8733.488677,-222.061783
4595.234118,444.123565,-8656.879127,-518.144159
4595.234442,370.102971,-9116.536426,0.000000
4595.234766,148.041188,-8273.831378,0.000000
4595.235091,296.082377,-8580.269578,0.000000
4595.235415,444.123565,-8273.831378,-148.041188
4595.235739,518.144159,-8580.269578,-444.123565
4595.236063,962.267725,-8886.707777,-444.123565
4595.236388,740.205942,-8503.660028,-518.144159
4595.236712,592.164754,-8810.098227,-370.102971
4595.237036,444.123565,-8810.098227,-666.185348
4595.237360,518.144159,-8503.660028,-518.144159
4595.237685,74.020594,-8580.269578,0.000000
4595.238009,518.144159,-8580.269578,222.061783
4595.238333,222.061783,-8503.660028,0.000000
4595.238657,592.164754,-8503.660028,0.000000
4595.238982,370.102971,-8733.488677,-296.082377
4595.239306,444.123565,-9269.755526,-370.102971
4595.239630,666.185348,-8503.660028,0.000000
4595.239954,370.102971,-9116.536426,-148.041188
4595.240279,222.061783,-8963.317327,-370.102971
4595.240603,222.061783,-8886.707777,0.000000
4595.240927,518.144159,-8733.488677,296.082377
4595.241252,296.082377,-8580.269578,0.000000
4595.241576,370.102971,-8810.098227,74.020594
4595.241900,740.205942,-8427.050478,0.000000
4595.242224,444.123565,-8963.317327,-296.082377
4595.242549,592.164754,-9193.145976,-592.164754
4595.242873,592.164754,-8656.879127,-1110.308913
4595.243197,666.185348,-8886.707777,-296.082377
4595.243521,0.000000,-8656.879127,-592.164754
4595.243846,0.000000,-8733.488677,296.082377
4595.244170,74.020594,-8580.269578,-148.041188
4595.244494,296.082377,-8656.879127,-148.041188
4595.244818,444.123565,-8656.879127,-444.123565
4595.245143,296.082377,-8273.831378,0.000000
4595.245467,518.144159,-8656.879127,-962.267725
4595.245791,666.185348,-8810.098227,-518.144159
4595.246115,740.205942,-8886.707777,-666.185348
4595.246440,296.082377,-8656.879127,-148.041188
4595.246764,814.226536,-8580.269578,0.000000
4595.247088,370.102971,-8427.050478,0.000000
4595.247412,370.102971,-8580.269578,148.041188
4595.247737,592.164754,-8197.221829,0.000000
4595.248061,222.061783,-8120.612279,0.000000
4595.248385,740.205942,-8580.269578,-222.061783
4595.248709,888.247130,-8580.269578,-370.102971
4595.249034,666.185348,-8656.879127,-740.205942
4595.249358,518.144159,-8810.098227,0.000000
4595.249682,444.123565,-8427.050478,0.000000
4595.250007,296.082377,-8580.269578,0.000000
4595.250331,296.082377,-8350.440928,-148.041188
4595.250655,74.020594,-8656.879127,0.000000
4595.250979,370.102971,-8350.440928,-444.123565
4595.251304,444.123565,-8580.269578,-1036.288319
4595.251628,592.164754,-8580.269578,-888.247130
4595.251952,666.185348,-8580.269578,-592.164754
4595.252276,740.205942,-8350.440928,-222.061783
4595.252601,148.041188,-8350.440928,-370.102971
4595.252925,74.020594,-8350.440928,-222.061783
4595.253249,296.082377,-8427.050478,-444.123565
4595.253573,148.041188,-7584.345430,0.000000
4595.253898,0.000000,-8580.269578,-370.102971
4595.254222,0.000000,-8656.879127,-740.205942
4595.254546,296.082377,-8656.879127,-814.226536
4595.254870,444.123565,-8810.098227,-814.226536
4595.255195,444.123565,-8197.221829,-370.102971
4595.255519,740.205942,-8580.269578,-296.082377
4595.255843,666.185348,-8350.440928,-148.041188
4595.256167,444.123565,-8044.002729,0.000000
4595.256492,444.123565,-8197.221829,0.000000
4595.256816,222.061783,-8656.879127,-296.082377
4595.257140,370.102971,-8427.050478,-296.082377
4595.257464,444.123565,-8733.488677,-666.185348
4595.257789,1110.308913,-8886.707777,-444.123565
4595.258113,814.226536,-8427.050478,-592.164754
4595.258437,814.226536,-8427.050478,0.000000
4595.258761,814.226536,-8503.660028,0.000000
4595.259086,666.185348,-8656.879127,0.000000
4595.259410,444.123565,-8580.269578,148.041188
4595.259734,370.102971,-8427.050478,-370.102971
4595.260059,296.082377,-8963.317327,-592.164754
4595.260383,148.041188,-8886.707777,-444.123565
4595.260707,296.082377,-9346.365076,-592.164754
4595.261031,0.000000,-8886.707777,-592.164754
4595.261356,370.102971,-8656.879127,-296.082377
4595.261680,296.082377,-8810.098227,-222.061783
4595.262004,592.164754,-8580.269578,0.000000
4595.262328,518.144159,-8273.831378,74.020594
4595.262653,296.082377,-8656.879127,0.000000
4595.262977,592.164754,-8503.660028,0.000000
4595.263301,518.144159,-8427.050478,-296.082377
4595.263625,666.185348,-8810.098227,-666.185348
4595.263950,666.185348,-8350.440928,-370.102971
4595.264274,370.102971,-8963.317327,0.000000
4595.264598,370.102971,-8656.879127,-148.041188
4595.264922,740.205942,-8656.879127,-222.061783
4595.265247,666.185348,-8197.221829,0.000000
4595.265571,518.144159,-8580.269578,74.020594
4595.265895,518.144159,-8350.440928,0.000000
4595.266219,518.144159,-8810.098227,-444.123565
4595.266544,666.185348,-8656.879127,-296.082377
4595.266868,296.082377,-9039.926876,-666.185348
4595.267192,370.102971,-8963.317327,-740.205942
4595.267516,222.061783,-8963.317327,0.000000
4595.267841,296.082377,-8963.317327,-148.041188
4595.268165,148.041188,-8963.317327,148.041188
4595.268489,148.041188,-8273.831378,0.000000
4595.268814,370.102971,-8810.098227,0.000000
4595.269138,148.041188,-9269.755526,-444.123565
4595.269462,740.205942,-8656.879127,-370.102971
4595.269786,370.102971,-8580.269578,-888.247130
4595.270111,740.205942,-8580.269578,-592.164754
4595.270435,444.123565,-8886.707777,-666.185348
4595.270759,222.061783,-8197.221829,-74.020594
4595.271083,444.123565,-8427.050478,-148.041188
4595.271408,148.041188,-8733.488677,-518.144159
4595.271732,296.082377,-8580.269578,-222.061783
4595.272056,74.020594,-9039.926876,-148.041188
4595.272380,222.061783,-8580.269578,-1036.288319
4595.272705,444.123565,-8656.879127,-666.185348
4595.273029,370.102971,-8503.660028,-740.205942
4595.273353,444.123565,-8886.707777,-592.164754
4595.273677,518.144159,-8580.269578,-518.144159
4595.274002,370.102971,-8656.879127,-370.102971
4595.274326,666.185348,-8656.879127,-444.123565
4595.274650,74.020594,-8350.440928,-148.041188
4595.274974,518.144159,-8810.098227,-518.144159
4595.275299,296.082377,-8427.050478,-592.164754
4595.275623,592.164754,-8656.879127,-962.267725
4595.275947,666.185348,-8427.050478,-518.144159
4595.276271,740.205942,-9116.536426,-296.082377
4595.276596,740.205942,-8656.879127,-518.144159
4595.276920,518.144159,-8120.612279,-370.102971
4595.277244,518.144159,-8427.050478,-370.102971
4595.277569,370.102971,-9039.926876,-296.082377
4595.277893,370.102971,-8580.269578,0.000000
4595.278217,222.061783,-8810.098227,-296.082377
4595.278541,296.082377,-8580.269578,-814.226536
4595.278866,592.164754,-8886.707777,-814.226536
4595.279190,444.123565,-8810.098227,-444.123565
4595.279514,370.102971,-8810.098227,-444.123565
4595.279838,296.082377,-8427.050478,-148.041188
4595.280163,592.164754,-8350.440928,0.000000
4595.280487,148.041188,-8886.707777,222.061783
4595.280811,518.144159,-8810.098227,-222.061783
4595.281135,444.123565,-8656.879127,-296.082377
4595.281460,296.082377,-8427.050478,-148.041188
4595.281784,518.144159,-8656.879127,-740.205942
4595.282108,518.144159,-8580.269578,-370.102971
4595.282432,518.144159,-8427.050478,-444.123565
4595.282757,296.082377,-8886.707777,0.000000
4595.283081,0.000000,-8656.879127,74.020594
4595.283405,74.020594,-8580.269578,0.000000
4595.283729,222.061783,-8580.269578,0.000000
4595.284054,74.020594,-8350.440928,-222.061783
4595.284378,518.144159,-8886.707777,-222.061783
4595.284702,592.164754,-8810.098227,-148.041188
4595.285026,296.082377,-8810.098227,-296.082377
4595.285351,296.082377,-8810.098227,-592.164754
4595.285675,296.082377,-8886.707777,74.020594
4595.285999,148.041188,-8810.098227,0.000000
4595.286324,222.061783,-8733.488677,0.000000
4595.286648,296.082377,-8503.660028,74.020594
4595.286972,74.020594,-8656.879127,74.020594
4595.287296,222.061783,-8503.660028,-222.061783
4595.287621,740.205942,-8733.488677,-148.041188
4595.287945,814.226536,-8580.269578,-666.185348
4595.288269,740.205942,-8580.269578,-148.041188
4595.288593,592.164754,-8733.488677,0.000000
4595.288918,592.164754,-9039.926876,296.082377
4595.289242,666.185348,-8503.660028,-148.041188
4595.289566,222.061783,-8197.221829,0.000000
4595.289890,444.123565,-8810.098227,-222.061783
4595.290215,370.102971,-8427.050478,-592.164754
4595.290539,666.185348,-8886.707777,-518.144159
4595.290863,814.226536,-8503.660028,-666.185348
4595.291187,666.185348,-9193.145976,-740.205942
4595.291512,592.164754,-8810.098227,-592.164754
4595.291836,888.247130,-8044.002729,74.020594
4595.292160,370.102971,-8427.050478,0.000000
4595.292484,296.082377,-8580.269578,74.020594
4595.292809,444.123565,-8350.440928,74.020594
4595.293133,592.164754,-8963.317327,0.000000
4595.293457,518.144159,-8350.440928,-518.144159
4595.293781,444.123565,-8886.707777,-370.102971
4595.294106,592.164754,-8810.098227,-444.123565
4595.294430,592.164754,-8580.269578,-370.102971
4595.294754,1036.288319,-8580.269578,-518.144159
4595.295079,666.185348,-8350.440928,0.000000
4595.295403,222.061783,-8427.050478,0.000000
4595.295727,-74.020594,-8656.879127,0.000000
4595.296051,814.226536,-8810.098227,-370.102971
4595.296376,222.061783,-8886.707777,-814.226536
4595.296700,444.123565,-8580.269578,-740.205942
4595.297024,370.102971,-8733.488677,-592.164754
4595.297348,370.102971,-9193.145976,-222.061783
4595.297673,296.082377,-8810.098227,-666.185348
4595.297997,518.144159,-8656.879127,-518.144159
4595.298321,222.061783,-8886.707777,-444.123565
4595.298645,222.061783,-8350.440928,-444.123565
4595.298970,0.000000,-8197.221829,0.000000
4595.299294,222.061783,-8656.879127,-814.226536
4595.299618,444.123565,-8580.269578,-1258.350101
4595.299942,296.082377,-8427.050478,-1110.308913
4595.300267,592.164754,-8963.317327,-592.164754
4595.300591,296.082377,-8656.879127,-592.164754
4595.300915,370.102971,-8810.098227,-666.185348
4595.301239,296.082377,-8350.440928,-370.102971
4595.301564,296.082377,-8733.488677,-518.144159
4595.301888,518.144159,-8810.098227,-296.082377
4595.302212,296.082377,-8427.050478,-518.144159
4595.302536,370.102971,-8656.879127,-740.205942
4595.302861,592.164754,-8656.879127,-814.226536
4595.303185,592.164754,-8503.660028,-1184.329507
4595.303509,666.185348,-8580.269578,-444.123565
4595.303833,814.226536,-8427.050478,-222.061783
4595.304158,814.226536,-8656.879127,0.000000
4595.304482,666.185348,-7354.516781,296.082377
4595.304806,296.082377,-8503.660028,0.000000
4595.305131,148.041188,-8120.612279,-222.061783
4595.305455,518.144159,-8580.269578,-296.082377
4595.305779,296.082377,-8503.660028,-444.123565
4595.306103,666.185348,-8810.098227,-592.164754
4595.306428,592.164754,-8350.440928,-444.123565
4595.306752,962.267725,-8733.488677,-444.123565
4595.307076,592.164754,-8427.050478,0.000000
4595.307400,888.247130,-8350.440928,444.123565
4595.307725,370.102971,-8273.831378,0.000000
4595.308049,740.205942,-8656.879127,74.020594
4595.308373,518.144159,-8273.831378,-518.144159
4595.308697,444.123565,-8427.050478,-370.102971
4595.309022,518.144159,-8580.269578,-592.164754
4595.309346,296.082377,-8580.269578,-444.123565
4595.309670,444.123565,-8810.098227,-370.102971
4595.309994,740.205942,-8503.660028,-370.102971
4595.310319,740.205942,-8503.660028,-296.082377
4595.310643,296.082377,-8427.050478,74.020594
4595.310967,444.123565,-8427.050478,0.000000
4595.311291,666.185348,-8733.488677,-296.082377
4595.311616,592.164754,-8886.707777,-888.247130
4595.311940,592.164754,-8886.707777,-444.123565
4595.312264,370.102971,-8963.317327,-666.185348
4595.312588,370.102971,-8656.879127,-74.020594
4595.312913,148.041188,-9193.145976,0.000000
4595.313237,148.041188,-8580.269578,0.000000
4595.313561,148.041188,-8656.879127,0.000000
4595.313886,0.000000,-8810.098227,74.020594
4595.314210,74.020594,-8733.488677,-222.061783
4595.314534,222.061783,-8886.707777,0.000000
4595.314858,370.102971,-8810.098227,-666.185348
4595.315183,444.123565,-8580.269578,-518.144159
4595.315507,296.082377,-8733.488677,-888.247130
4595.315831,740.205942,-9729.412825,-370.102971
4595.316155,370.102971,-8580.269578,-148.041188
4595.316480,0.000000,-8963.317327,0.000000
4595.316804,222.061783,-8810.098227,-296.082377
4595.317128,222.061783,-8656.879127,-370.102971
4595.317452,370.102971,-8886.707777,-814.226536
4595.317777,444.123565,-9039.926876,-518.144159
4595.318101,666.185348,-8656.879127,-1036.288319
4595.318425,740.205942,-8580.269578,-666.185348
4595.318749,444.123565,-8810.098227,-666.185348
4595.319074,666.185348,-8656.879127,-148.041188
4595.319398,814.226536,-8197.221829,-444.123565
4595.319722,370.102971,-8656.879127,0.000000
4595.320047,444.123565,-9193.145976,-444.123565
4595.320371,518.144159,-8580.269578,-296.082377
4595.320695,370.102971,-8656.879127,-814.226536
4595.321019,592.164754,-8656.879127,-740.205942
4595.321344,740.205942,-8580.269578,-666.185348
4595.321668,740.205942,-8580.269578,-666.185348
4595.321992,592.164754,-8120.612279,-518.144159
4595.322316,296.082377,-8197.221829,-222.061783
4595.322641,296.082377,-8427.050478,0.000000
4595.322965,518.144159,-7814.174080,222.061783
4595.323289,296.082377,-8197.221829,-444.123565
4595.323614,518.144159,-8810.098227,-518.144159
4595.323938,296.082377,-8427.050478,-740.205942
4595.324262,962.267725,-9116.536426,-592.164754
4595.324586,666.185348,-8503.660028,-370.102971
4595.324911,592.164754,-8733.488677,-296.082377
4595.325235,666.185348,-8580.269578,-296.082377
4595.325559,444.123565,-7967.393179,-222.061783
4595.325883,666.185348,-8503.660028,-444.123565
4595.326208,518.144159,-8427.050478,-370.102971
4595.326532,592.164754,-8350.440928,-370.102971
4595.326856,444.123565,-8810.098227,-814.226536
4595.327181,592.164754,-8810.098227,-888.247130
4595.327505,740.205942,-8963.317327,-740.205942
4595.327829,814.226536,-8656.879127,-962.267725
4595.328153,666.185348,-8580.269578,-296.082377
4595.328478,444.123565,-8810.098227,-74.020594
4595.328802,370.102971,-8427.050478,-222.061783
4595.329126,370.102971,-8733.488677,-370.102971
4595.329451,0.000000,-8733.488677,-666.185348
4595.329775,148.041188,-8963.317327,-444.123565
4595.330099,-222.061783,-8197.221829,-740.205942
4595.330423,370.102971,-9039.926876,-518.144159
4595.330748,370.102971,-8503.660028,-370.102971
4595.331072,740.205942,-8810.098227,-370.102971
4595.331396,518.144159,-9116.536426,-370.102971
4595.331720,370.102971,-8810.098227,-74.020594
4595.332045,148.041188,-8886.707777,0.000000
4595.332369,148.041188,-8580.269578,-444.123565
4595.332693,370.102971,-8733.488677,-518.144159
4595.333018,592.164754,-9039.926876,-740.205942
4595.333342,740.205942,-8810.098227,-370.102971
4595.333666,518.144159,-9039.926876,-518.144159
4595.333990,296.082377,-8733.488677,-296.082377
4595.334315,518.144159,-9039.926876,222.061783
4595.334639,296.082377,-8580.269578,0.000000
4595.334963,370.102971,-8503.660028,0.000000
4595.335287,222.061783,-8656.879127,-222.061783
4595.335612,592.164754,-8886.707777,-518.144159
4595.335936,444.123565,-8580.269578,-666.185348
4595.336260,444.123565,-8656.879127,-666.185348
4595.336585,444.123565,-8886.707777,-296.082377
4595.336909,666.185348,-8656.879127,0.000000
4595.337233,444.123565,-8427.050478,0.000000
4595.337557,740.205942,-8580.269578,148.041188
4595.337882,666.185348,-8197.221829,148.041188
4595.338206,296.082377,-8580.269578,-74.020594
4595.338530,74.020594,-8810.098227,370.102971
4595.338854,592.164754,-8427.050478,-444.123565
4595.339179,370.102971,-8580.269578,-370.102971
4595.339503,370.102971,-8810.098227,-518.144159
4595.339827,444.123565,-8656.879127,0.000000
4595.340152,888.247130,-8580.269578,-222.061783
4595.340476,518.144159,-8427.050478,74.020594
4595.340800,444.123565,-8580.269578,444.123565
4595.341124,444.123565,-8273.831378,296.082377
4595.341449,962.267725,-8656.879127,0.000000
4595.341773,518.144159,-8886.707777,-296.082377
4595.342097,592.164754,-8733.488677,-296.082377
4595.342422,296.082377,-8656.879127,-296.082377
4595.342746,222.061783,-9039.926876,0.000000
4595.343070,0.000000,-8733.488677,0.000000
4595.343394,0.000000,-8810.098227,0.000000
4595.343719,0.000000,-8427.050478,0.000000
4595.344043,0.000000,-8656.879127,-74.020594
4595.344367,0.000000,-8580.269578,-296.082377
4595.344691,222.061783,-8733.488677,-370.102971
4595.345016,444.123565,-8427.050478,-740.205942
4595.345340,370.102971,-8886.707777,-814.226536
4595.345664,666.185348,-8503.660028,-370.102971
4595.345989,222.061783,-8810.098227,-592.164754
4595.346313,148.041188,-8503.660028,-518.144159
4595.346637,222.061783,-8427.050478,-592.164754
4595.346961,444.123565,-8273.831378,0.000000
4595.347286,148.041188,-8044.002729,-296.082377
4595.347610,370.102971,-8273.831378,-666.185348
4595.347934,370.102971,-8733.488677,-888.247130
4595.348258,666.185348,-8427.050478,-1110.308913
4595.348583,666.185348,-8733.488677,-592.164754
4595.348907,518.144159,-8350.440928,-740.205942
4595.349231,592.164754,-8427.050478,-222.061783
4595.349556,296.082377,-8427.050478,-222.061783
4595.349880,296.082377,-8044.002729,0.000000
4595.350204,0.000000,-8580.269578,-74.020594
4595.350528,444.123565,-8503.660028,-296.082377
4595.350853,518.144159,-8273.831378,-592.164754
4595.351177,592.164754,-8427.050478,-148.041188
4595.351501,740.205942,-8503.660028,-666.185348
4595.351825,592.164754,-8656.879127,-296.082377
4595.352150,814.226536,-8580.269578,-444.123565
4595.352474,370.102971,-8273.831378,74.020594
4595.352798,222.061783,-8427.050478,222.061783
4595.353123,444.123565,-8656.879127,0.000000
4595.353447,370.102971,-8656.879127,-370.102971
4595.353771,518.144159,-8733.488677,-518.144159
4595.354095,592.164754,-8350.440928,-1110.308913
4595.354420,592.164754,-8656.879127,-592.164754
4595.354744,592.164754,-9039.926876,-518.144159
4595.355068,666.185348,-8427.050478,-444.123565
4595.355393,666.185348,-8197.221829,0.000000
4595.355717,370.102971,-8503.660028,0.000000
4595.356041,370.102971,-8580.269578,0.000000
4595.356365,444.123565,-8810.098227,0.000000
4595.356690,592.164754,-8427.050478,-296.082377
4595.357014,592.164754,-8733.488677,0.000000
4595.357338,814.226536,-8427.050478,-444.123565
4595.357662,592.164754,-8427.050478,-296.082377
4595.357987,444.123565,-8350.440928,0.000000
4595.358311,444.123565,-8580.269578,74.020594
4595.358635,444.123565,-8503.660028,0.000000
4595.358960,222.061783,-8503.660028,0.000000
4595.359284,148.041188,-8656.879127,296.082377
4595.359608,74.020594,-8503.660028,0.000000
4595.359932,444.123565,-8886.707777,-666.185348
4595.360257,222.061783,-8656.879127,-370.102971
4595.360581,296.082377,-8733.488677,-518.144159
4595.360905,592.164754,-8886.707777,-518.144159
4595.361229,296.082377,-7660.954980,-518.144159
4595.361554,296.082377,-8810.098227,-148.041188
4595.361878,148.041188,-8427.050478,0.000000
4595.362202,148.041188,-8427.050478,-74.020594
4595.362527,0.000000,-8427.050478,-444.123565
4595.362851,296.082377,-8427.050478,-666.185348
4595.363175,444.123565,-8810.098227,-666.185348
4595.363499,592.164754,-8656.879127,-592.164754
4595.363824,444.123565,-8810.098227,-444.123565
4595.364148,740.205942,-9193.145976,-444.123565
4595.364472,296.082377,-8120.612279,-296.082377
4595.364796,296.082377,-9116.536426,0.000000
4595.365121,0.000000,-8580.269578,-222.061783
4595.365445,148.041188,-9422.974625,0.000000
4595.365769,74.020594,-8503.660028,-592.164754
4595.366094,74.020594,-9116.536426,-740.205942
4595.366418,518.144159,-8810.098227,-518.144159
4595.366742,666.185348,-9499.584175,0.000000
4595.367066,518.144159,-8350.440928,-296.082377
4595.367391,740.205942,-8273.831378,-518.144159
4595.367715,518.144159,-8580.269578,-222.061783
4595.368039,444.123565,-8350.440928,74.020594
4595.368364,0.000000,-8273.831378,0.000000
4595.368688,222.061783,-8656.879127,-592.164754
4595.369012,888.247130,-8273.831378,-592.164754
4595.369336,518.144159,-8580.269578,-888.247130
4595.369661,592.164754,-8963.317327,-518.144159
4595.369985,888.247130,-8273.831378,-740.205942
4595.370309,592.164754,-8810.098227,-222.061783
4595.370633,444.123565,-8197.221829,-296.082377
4595.370958,518.144159,-8044.002729,-296.082377
4595.371282,518.144159,-8427.050478,0.000000
4595.371606,296.082377,-8120.612279,-518.144159
4595.371931,222.061783,-8656.879127,-296.082377
4595.372255,296.082377,-8427.050478,-740.205942
4595.372579,962.267725,-8580.269578,-740.205942
4595.372903,814.226536,-8886.707777,-666.185348
4595.373228,740.205942,-8427.050478,-370.102971
4595.373552,814.226536,-8427.050478,-370.102971
4595.373876,666.185348,-8580.269578,0.000000
4595.374200,222.061783,-8733.488677,0.000000
4595.374525,370.102971,-8350.440928,-592.164754
4595.374849,444.123565,-8580.269578,-296.082377
4595.375173,148.041188,-8503.660028,-370.102971
4595.375498,444.123565,-8810.098227,-740.205942
4595.375822,592.164754,-8886.707777,-296.082377
4595.376146,592.164754,-8656.879127,-370.102971
4595.376470,370.102971,-8886.707777,0.000000
4595.376795,518.144159,-8580.269578,370.102971
4595.377119,222.061783,-8810.098227,74.020594
4595.377443,148.041188,-8427.050478,0.000000
4595.377767,148.041188,-8503.660028,-148.041188
4595.378092,-74.020594,-9039.926876,-296.082377
4595.378416,444.123565,-8810.098227,-518.144159
4595.378740,74.020594,-8656.879127,-666.185348
4595.379065,370.102971,-8810.098227,-222.061783
4595.379389,444.123565,-8656.879127,-296.082377
4595.379713,296.082377,-8733.488677,-222.061783
4595.380037,0.000000,-8656.879127,0.000000
4595.380362,74.020594,-8733.488677,0.000000
4595.380686,148.041188,-8580.269578,-518.144159
4595.381010,74.020594,-8580.269578,-74.020594
4595.381334,444.123565,-8503.660028,-814.226536
4595.381659,592.164754,-8733.488677,-814.226536
4595.381983,370.102971,-8350.440928,-370.102971
4595.382307,0.000000,-8963.317327,370.102971
4595.382632,0.000000,-8427.050478,0.000000
4595.382956,0.000000,-8273.831378,0.000000
4595.383280,296.082377,-8810.098227,0.000000
4595.383604,74.020594,-8427.050478,0.000000
4595.383929,148.041188,-8963.317327,-444.123565
4595.384253,296.082377,-8886.707777,-592.164754
4595.384577,666.185348,-8656.879127,-370.102971
4595.384902,666.185348,-8733.488677,-444.123565
4595.385226,1110.308913,-8427.050478,-222.061783
4595.385550,666.185348,-8503.660028,222.061783
4595.385874,296.082377,-8656.879127,74.020594
4595.386199,444.123565,-8580.269578,296.082377
4595.386523,592.164754,-8810.098227,518.144159
4595.386847,814.226536,-8656.879127,-296.082377
4595.387171,814.226536,-8580.269578,-666.185348
4595.387496,888.247130,-8810.098227,-666.185348
4595.387820,666.185348,-8810.098227,-740.205942
4595.388144,592.164754,-8580.269578,-296.082377
4595.388469,666.185348,-8810.098227,0.000000
4595.388793,518.144159,-8427.050478,148.041188
4595.389117,148.041188,-8350.440928,0.000000
4595.389441,-592.164754,-8580.269578,222.061783
4595.389766,0.000000,-8503.660028,-370.102971
4595.390090,222.061783,-8810.098227,-666.185348
4595.390414,222.061783,-8733.488677,-518.144159
4595.390738,740.205942,-8810.098227,0.000000
4595.391063,444.123565,-8886.707777,-222.061783
4595.391387,518.144159,-8886.707777,0.000000
4595.391711,296.082377,-8427.050478,0.000000
4595.392036,222.061783,-8810.098227,0.000000
4595.392360,74.020594,-8427.050478,0.000000
4595.392684,74.020594,-8503.660028,-222.061783
4595.393008,370.102971,-8656.879127,-444.123565
4595.393333,222.061783,-8350.440928,-740.205942
4595.393657,1110.308913,-8810.098227,-962.267725
4595.393981,518.144159,-8503.660028,-592.164754
4595.394305,518.144159,-8580.269578,-592.164754
4595.394630,814.226536,-8350.440928,-518.144159
4595.394954,518.144159,-8350.440928,-444.123565
4595.395278,518.144159,-8427.050478,-518.144159
4595.395603,296.082377,-8503.660028,-592.164754
4595.395927,296.082377,-8350.440928,-814.226536
4595.396251,74.020594,-8886.707777,-666.185348
4595.396575,370.102971,-8580.269578,-740.205942
4595.396900,518.144159,-8810.098227,-592.164754
4595.397224,518.144159,-8733.488677,-370.102971
4595.397548,444.123565,-8503.660028,148.041188
4595.397873,666.185348,-8044.002729,0.000000
4595.398197,222.061783,-8273.831378,74.020594
4595.398521,74.020594,-8350.440928,0.000000
4595.398845,222.061783,-8656.879127,-518.144159
4595.399170,444.123565,-8810.098227,-518.144159
4595.399494,74.020594,-8580.269578,-370.102971
4595.399818,296.082377,-9422.974625,-740.205942
4595.400142,296.082377,-8273.831378,-814.226536
4595.400467,666.185348,-8886.707777,0.000000
4595.400791,518.144159,-8197.221829,-518.144159
4595.401115,592.164754,-8350.440928,0.000000
4595.401440,518.144159,-8580.269578,0.000000
4595.401764,592.164754,-8580.269578,-444.123565
4595.402088,518.144159,-8197.221829,-148.041188
4595.402412,740.205942,-8656.879127,-1036.288319
4595.402737,740.205942,-8580.269578,-296.082377
4595.403061,518.144159,-8733.488677,-592.164754
4595.403385,444.123565,-8580.269578,148.041188
4595.403709,592.164754,-8503.660028,222.061783
4595.404034,444.123565,-8427.050478,0.000000
4595.404358,148.041188,-8580.269578,74.020594
4595.404682,296.082377,-8427.050478,0.000000
4595.405007,666.185348,-8427.050478,-666.185348
4595.405331,370.102971,-8656.879127,-518.144159
4595.405655,444.123565,-8733.488677,-814.226536
4595.405979,444.123565,-8656.879127,-370.102971
4595.406304,814.226536,-8810.098227,-222.061783
4595.406628,518.144159,-8656.879127,-222.061783
4595.406952,444.123565,-8503.660028,-148.041188
4595.407276,148.041188,-8197.221829,-148.041188
4595.407601,592.164754,-8350.440928,-370.102971
4595.407925,222.061783,-8580.269578,-740.205942
4595.408249,370.102971,-8886.707777,-666.185348
4595.408574,666.185348,-8810.098227,-888.247130
4595.408898,444.123565,-8350.440928,-814.226536
4595.409222,814.226536,-9576.193725,-740.205942
4595.409546,666.185348,-8810.098227,-222.061783
4595.409871,370.102971,-8503.660028,0.000000
4595.410195,444.123565,-8886.707777,-148.041188
4595.410519,296.082377,-8886.707777,74.020594
4595.410844,370.102971,-8886.707777,-74.020594
4595.411168,296.082377,-8733.488677,-666.185348
4595.411492,148.041188,-8886.707777,-370.102971
4595.411816,296.082377,-8963.317327,-592.164754
4595.412141,0.000000,-8810.098227,-370.102971
4595.412465,296.082377,-8733.488677,-592.164754
4595.412789,296.082377,-8656.879127,0.000000
4595.413113,222.061783,-8503.660028,74.020594
4595.413438,518.144159,-8656.879127,0.000000
4595.413762,222.061783,-8656.879127,-370.102971
4595.414086,370.102971,-8503.660028,-444.123565
4595.414411,518.144159,-8810.098227,-1036.288319
4595.414735,444.123565,-8810.098227,-592.164754
4595.415059,444.123565,-8656.879127,-518.144159
4595.415383,370.102971,-8503.660028,-296.082377
4595.415708,666.185348,-8503.660028,-370.102971
4595.416032,148.041188,-8273.831378,-296.082377
4595.416356,740.205942,-8503.660028,74.020594
4595.416680,296.082377,-8273.831378,0.000000
4595.417005,444.123565,-8580.269578,-518.144159
4595.417329,444.123565,-8580.269578,-592.164754
4595.417653,666.185348,-8886.707777,-74.020594
4595.417978,592.164754,-8810.098227,-814.226536
4595.418302,592.164754,-8580.269578,-444.123565
4595.418626,444.123565,-8580.269578,0.000000
4595.418950,444.123565,-8656.879127,0.000000
4595.419275,296.082377,-8656.879127,-148.041188
4595.419599,444.123565,-8427.050478,-444.123565
4595.419923,518.144159,-8503.660028,-370.102971
4595.420248,666.185348,-8273.831378,-740.205942
4595.420572,370.102971,-8503.660028,-444.123565
4595.420896,592.164754,-8656.879127,-518.144159
4595.421221,592.164754,-8580.269578,-814.226536
4595.421545,592.164754,-8580.269578,-444.123565
4595.421869,0.000000,-8350.440928,-74.020594
4595.422193,444.123565,-8273.831378,-148.041188
4595.422518,444.123565,-8350.440928,-296.082377
4595.422842,222.061783,-8197.221829,-148.041188
4595.423166,370.102971,-8886.707777,-370.102971
4595.423491,518.144159,-8580.269578,-518.144159
4595.423815,370.102971,-8733.488677,-666.185348
4595.424139,148.041188,-9116.536426,-444.123565
4595.424464,370.102971,-8733.488677,0.000000
4595.424788,740.205942,-8656.879127,-592.164754
4595.425112,444.123565,-8503.660028,0.000000
4595.425437,370.102971,-8427.050478,0.000000
4595.425761,296.082377,-8580.269578,0.000000
4595.426085,444.123565,-8580.269578,-296.082377
4595.426409,888.247130,-9039.926876,-740.205942
4595.426734,814.226536,-8580.269578,-666.185348
4595.427058,740.205942,-8120.612279,-518.144159
4595.427382,444.123565,-8580.269578,-444.123565
4595.427707,740.205942,-8580.269578,-592.164754
4595.428031,518.144159,-8273.831378,-370.102971
4595.428355,370.102971,-8350.440928,-370.102971
4595.428680,370.102971,-8503.660028,-222.061783
4595.429004,518.144159,-7814.174080,-370.102971
4595.429328,296.082377,-8810.098227,-666.185348
4595.429653,222.061783,-8656.879127,-962.267725
4595.429977,296.082377,-8886.707777,-592.164754
4595.430301,296.082377,-9039.926876,-370.102971
4595.430625,444.123565,-8656.879127,0.000000
4595.430950,444.123565,-8733.488677,0.000000
4595.431274,148.041188,-8503.660028,0.000000
4595.431598,518.144159,-8350.440928,0.000000
4595.431923,74.020594,-9116.536426,0.000000
4595.432247,222.061783,-8733.488677,0.000000
4595.432571,518.144159,-8580.269578,-444.123565
4595.432896,740.205942,-8810.098227,-296.082377
4595.433220,370.102971,-8044.002729,0.000000
4595.433544,740.205942,-8733.488677,-444.123565
4595.433869,370.102971,-8580.269578,296.082377
4595.434193,0.000000,-8350.440928,0.000000
4595.434517,222.061783,-8963.317327,0.000000
4595.434841,222.061783,-8197.221829,-370.102971
4595.435166,444.123565,-8580.269578,-518.144159
4595.435490,148.041188,-8656.879127,-666.185348
4595.435814,222.061783,-8733.488677,-592.164754
4595.436139,296.082377,-8273.831378,-592.164754
4595.436463,518.144159,-8656.879127,-296.082377
4595.436787,444.123565,-8733.488677,0.000000
4595.437112,444.123565,-8656.879127,0.000000
4595.437436,296.082377,-8120.612279,296.082377
4595.437760,370.102971,-8810.098227,-222.061783
4595.438084,296.082377,-8580.269578,-444.123565
4595.438409,444.123565,-8503.660028,-518.144159
4595.438733,592.164754,-8733.488677,-518.144159
4595.439057,814.226536,-8963.317327,-444.123565
4595.439382,666.185348,-8580.269578,-518.144159
4595.439706,888.247130,-8503.660028,-296.082377
4595.440030,814.226536,-8580.269578,-148.041188
4595.440355,518.144159,-8273.831378,-740.205942
4595.440679,518.144159,-8580.269578,-370.102971
4595.441003,370.102971,-8656.879127,-296.082377
4595.441328,222.061783,-8580.269578,-814.226536
4595.441652,592.164754,-8120.612279,-740.205942
4595.441976,666.185348,-8886.707777,-814.226536
4595.442300,444.123565,-8656.879127,-666.185348
4595.442625,296.082377,-8963.317327,-222.061783
4595.442949,444.123565,-8580.269578,-296.082377
4595.443273,296.082377,-8273.831378,0.000000
4595.443598,0.000000,-8350.440928,0.000000
4595.443922,0.000000,-8580.269578,-222.061783
4595.444246,222.061783,-8580.269578,-444.123565
4595.444571,518.144159,-8350.440928,-444.123565
4595.444895,518.144159,-8886.707777,-962.267725
4595.445219,296.082377,-8350.440928,-444.123565
4595.445544,740.205942,-8656.879127,-518.144159
4595.445868,888.247130,-8656.879127,-370.102971
4595.446192,370.102971,-8427.050478,-222.061783
4595.446516,296.082377,-8427.050478,-222.061783
4595.446841,370.102971,-8503.660028,-296.082377
4595.447165,518.144159,-8427.050478,-962.267725
4595.447489,740.205942,-8886.707777,-814.226536
4595.447814,222.061783,-8656.879127,-888.247130
4595.448138,444.123565,-8810.098227,-666.185348
4595.448462,518.144159,-8810.098227,-740.205942
4595.448787,592.164754,-9039.926876,0.000000
4595.449111,444.123565,-8656.879127,-148.041188
4595.449435,148.041188,-8886.707777,74.020594
4595.449760,222.061783,-8503.660028,0.000000
4595.450084,296.082377,-8580.269578,-222.061783
4595.450408,444.123565,-8503.660028,-222.061783
4595.450732,296.082377,-8656.879127,-370.102971
4595.451057,666.185348,-8886.707777,-370.102971
4595.451381,592.164754,-8580.269578,0.000000
4595.451705,518.144159,-8197.221829,-222.061783
4595.452030,296.082377,-8427.050478,74.020594
4595.452354,444.123565,-8580.269578,222.061783
4595.452678,222.061783,-8350.440928,0.000000
4595.453003,592.164754,-8886.707777,-666.185348
4595.453327,518.144159,-8350.440928,-222.061783
4595.453651,666.185348,-8810.098227,-666.185348
4595.453976,666.185348,-8273.831378,-666.185348
4595.454300,666.185348,-9193.145976,-592.164754
4595.454624,1036.288319,-8580.269578,-518.144159
4595.454948,222.061783,-8273.831378,74.020594
4595.455273,296.082377,-8503.660028,74.020594
4595.455597,0.000000,-8427.050478,74.020594
4595.455921,518.144159,-9116.536426,-222.061783
4595.456246,370.102971,-8580.269578,-444.123565
4595.456570,370.102971,-8733.488677,-444.123565
4595.456894,592.164754,-8503.660028,-666.185348
4595.457219,518.144159,-9039.926876,-296.082377
4595.457543,814.226536,-8503.660028,-296.082377
4595.457867,370.102971,-8580.269578,-148.041188
4595.458191,592.164754,-8580.269578,148.041188
4595.458516,148.041188,-8350.440928,0.000000
4595.458840,74.020594,-8963.317327,74.020594
4595.459164,222.061783,-8580.269578,-518.144159
4595.459489,296.082377,-9039.926876,-518.144159
4595.459813,370.102971,-9039.926876,-740.205942
4595.460137,0.000000,-9422.974625,-370.102971
4595.460462,518.144159,-8963.317327,-370.102971
4595.460786,518.144159,-8503.660028,-222.061783
4595.461110,444.123565,-8733.488677,-370.102971
4595.461435,518.144159,-8656.879127,74.020594
4595.461759,296.082377,-8197.221829,-148.041188
4595.462083,222.061783,-8580.269578,-222.061783
4595.462407,296.082377,-8656.879127,-592.164754
4595.462732,666.185348,-8503.660028,-814.226536
4595.463056,962.267725,-9269.755526,-888.247130
4595.463380,370.102971,-8810.098227,-666.185348
4595.463705,592.164754,-8810.098227,-370.102971
4595.464029,296.082377,-8810.098227,0.000000
4595.464353,222.061783,-8963.317327,518.144159
4595.464678,222.061783,-8656.879127,0.000000
4595.465002,74.020594,-8580.269578,-592.164754
4595.465326,222.061783,-8656.879127,-444.123565
4595.465651,0.000000,-9499.584175,-740.205942
4595.465975,370.102971,-9116.536426,-296.082377
4595.466299,592.164754,-8580.269578,-1036.288319
4595.466623,740.205942,-8810.098227,-148.041188
4595.466948,592.164754,-8350.440928,-370.102971
4595.467272,740.205942,-8733.488677,74.020594
4595.467596,296.082377,-8197.221829,148.041188
4595.467921,222.061783,-8350.440928,-296.082377
4595.468245,296.082377,-8580.269578,-666.185348
4595.468569,0.000000,-8733.488677,0.000000
4595.468894,592.164754,-8350.440928,-814.226536
4595.469218,370.102971,-8580.269578,-518.144159
4595.469542,518.144159,-8503.660028,-740.205942
4595.469867,444.123565,-8580.269578,-370.102971
4595.470191,444.123565,-8044.002729,0.000000
4595.470515,222.061783,-8427.050478,148.041188
4595.470839,370.102971,-8580.269578,0.000000
4595.471164,148.041188,-8427.050478,-296.082377
4595.471488,74.020594,-8273.831378,-666.185348
4595.471812,444.123565,-8963.317327,-296.082377
4595.472137,518.144159,-8350.440928,-518.144159
4595.472461,666.185348,-8810.098227,-444.123565
4595.472785,888.247130,-8886.707777,74.020594
4595.473110,666.185348,-8656.879127,-296.082377
4595.473434,814.226536,-8350.440928,-222.061783
4595.473758,370.102971,-8273.831378,148.041188
4595.474083,296.082377,-8273.831378,0.000000
4595.474407,592.164754,-8503.660028,-518.144159
4595.474731,370.102971,-8503.660028,-518.144159
4595.475055,814.226536,-8963.317327,-666.185348
4595.475380,740.205942,-8656.879127,-888.247130
4595.475704,1332.370696,-9039.926876,148.041188
4595.476028,518.144159,-8427.050478,-296.082377
4595.476353,592.164754,-8656.879127,0.000000
4595.476677,444.123565,-8580.269578,-222.061783
4595.477001,222.061783,-9346.365076,518.144159
4595.477326,148.041188,-8656.879127,-296.082377
4595.477650,370.102971,-8963.317327,-888.247130
4595.477974,592.164754,-8503.660028,-592.164754
4595.478298,444.123565,-8580.269578,-444.123565
4595.478623,518.144159,-8810.098227,-222.061783
4595.478947,666.185348,-8503.660028,-74.020594
4595.479271,370.102971,-8427.050478,74.020594
4595.479596,444.123565,-8503.660028,370.102971
4595.479920,370.102971,-7814.174080,296.082377
4595.480244,370.102971,-8886.707777,-370.102971
4595.480569,148.041188,-8580.269578,-370.102971
4595.480893,296.082377,-8963.317327,-296.082377
4595.481217,370.102971,-8733.488677,-518.144159
4595.481542,370.102971,-8810.098227,-296.082377
4595.481866,296.082377,-8656.879127,-370.102971
4595.482190,370.102971,-8733.488677,0.000000
4595.482514,296.082377,-8197.221829,74.020594
4595.482839,222.061783,-8427.050478,-370.102971
