#time,accel_x,accel_y,accel_z
4648.333654,222.061783,-8427.050478,-296.082377
4648.333979,740.205942,-8503.660028,-222.061783
4648.334303,148.041188,-8350.440928,-370.102971
4648.334628,592.164754,-8273.831378,-148.041188
4648.334953,296.082377,-8350.440928,-296.082377
4648.335277,518.144159,-8427.050478,-222.061783
4648.335602,518.144159,-8656.879127,-592.164754
4648.335926,1036.288319,-8580.269578,-740.205942
4648.336251,666.185348,-8656.879127,-296.082377
4648.336575,296.082377,-8580.269578,0.000000
4648.336900,370.102971,-8503.660028,0.000000
4648.337224,370.102971,-8656.879127,-148.041188
4648.337549,592.164754,-8733.488677,-592.164754
4648.337874,296.082377,-8733.488677,-296.082377
4648.338198,444.123565,-8810.098227,-444.123565
4648.338523,370.102971,-8197.221829,0.000000
4648.338847,888.247130,-9116.536426,-296.082377
4648.339172,444.123565,-8733.488677,-518.144159
4648.339496,222.061783,-8503.660028,-370.102971
4648.339821,666.185348,-8810.098227,-444.123565
4648.340146,222.061783,-7890.783629,-444.123565
4648.340470,444.123565,-8656.879127,-148.041188
4648.340795,444.123565,-8656.879127,-370.102971
4648.341119,444.123565,-8656.879127,-370.102971
4648.341444,444.123565,-8503.660028,-740.205942
4648.341768,444.123565,-8810.098227,-148.041188
4648.342093,370.102971,-8197.221829,-296.082377
4648.342417,518.144159,-8733.488677,-222.061783
4648.342742,370.102971,-8580.269578,-518.144159
4648.343067,740.205942,-8580.269578,-1110.308913
4648.343391,518.144159,-8580.269578,-518.144159
4648.343716,222.061783,-8656.879127,0.000000
4648.344040,148.041188,-8810.098227,-222.061783
4648.344365,296.082377,-8044.002729,0.000000
4648.344689,444.123565,-8503.660028,-666.185348
4648.345014,296.082377,-8580.269578,-444.123565
4648.345338,296.082377,-8656.879127,-518.144159
4648.345663,296.082377,-8427.050478,-296.082377
4648.345988,370.102971,-8810.098227,-666.185348
4648.346312,222.061783,-8656.879127,-296.082377
4648.346637,296.082377,-8273.831378,-370.102971
4648.346961,592.164754,-8810.098227,-444.123565
4648.347286,740.205942,-9729.412825,-444.123565
4648.347610,518.144159,-8580.269578,-370.102971
4648.347935,444.123565,-8580.269578,-370.102971
4648.348259,518.144159,-8580.269578,-444.123565
4648.348584,518.144159,-8656.879127,-518.144159
4648.348909,444.123565,-8503.660028,-592.164754
4648.349233,518.144159,-8733.488677,0.000000
4648.349558,222.061783,-8427.050478,-74.020594
4648.349882,666.185348,-8350.440928,-296.082377
4648.350207,74.020594,-8733.488677,-222.061783
4648.350531,518.144159,-8656.879127,-444.123565
4648.350856,148.041188,-8656.879127,-444.123565
4648.351180,444.123565,-8733.488677,-222.061783
4648.351505,444.123565,-8503.660028,-296.082377
4648.351830,296.082377,-8810.098227,-296.082377
4648.352154,518.144159,-8503.660028,-296.082377
4648.352479,0.000000,-8197.221829,-148.041188
4648.352803,296.082377,-8503.660028,-592.164754
4648.353128,370.102971,-8503.660028,-370.102971
4648.353452,740.205942,-8656.879127,-592.164754
4648.353777,370.102971,-8656.879127,-518.144159
4648.354101,518.144159,-8580.269578,-444.123565
4648.354426,148.041188,-8810.098227,-296.082377
4648.354751,296.082377,-8580.269578,-148.041188
4648.355075,0.000000,-8427.050478,-592.164754
4648.355400,222.061783,-8656.879127,-814.226536
4648.355724,740.205942,-8886.707777,-518.144159
4648.356049,518.144159,-8656.879127,-518.144159
4648.356373,370.102971,-8733.488677,-592.164754
4648.356698,296.082377,-8350.440928,-888.247130
4648.357023,592.164754,-8656.879127,-666.185348
4648.357347,296.082377,-8580.269578,-740.205942
4648.357672,518.144159,-8580.269578,-444.123565
4648.357996,222.061783,-8580.269578,-740.205942
4648.358321,592.164754,-8733.488677,-814.226536
4648.358645,0.000000,-8580.269578,-222.061783
4648.358970,444.123565,-8580.269578,-888.247130
4648.359294,222.061783,-8120.612279,-962.267725
4648.359619,444.123565,-8733.488677,-888.247130
4648.359944,444.123565,-9193.145976,-814.226536
4648.360268,518.144159,-8503.660028,-888.247130
4648.360593,518.144159,-8503.660028,-1110.308913
4648.360917,296.082377,-8503.660028,-888.247130
4648.361242,666.185348,-8656.879127,-1110.308913
4648.361566,296.082377,-8427.050478,-1036.288319
4648.361891,666.185348,-8656.879127,-740.205942
4648.362215,370.102971,-8503.660028,-962.267725
4648.362540,666.185348,-8963.317327,-888.247130
4648.362865,444.123565,-8810.098227,-518.144159
4648.363189,444.123565,-8580.269578,-666.185348
4648.363514,370.102971,-8273.831378,-962.267725
4648.363838,518.144159,-8503.660028,-814.226536
4648.364163,370.102971,-9039.926876,-1036.288319
4648.364487,222.061783,-8656.879127,-444.123565
4648.364812,518.144159,-8503.660028,-592.164754
4648.365136,444.123565,-8733.488677,-592.164754
4648.365461,592.164754,-8503.660028,-814.226536
4648.365786,518.144159,-8810.098227,-296.082377
4648.366110,740.205942,-8427.050478,-666.185348
4648.366435,740.205942,-8427.050478,-592.164754
4648.366759,444.123565,-8503.660028,-592.164754
4648.367084,0.000000,-8886.707777,148.041188
4648.367408,370.102971,-8503.660028,-444.123565
4648.367733,222.061783,-8503.660028,-370.102971
4648.368057,518.144159,-8503.660028,-296.082377
4648.368382,666.185348,-8580.269578,0.000000
4648.368707,518.144159,-8273.831378,-296.082377
4648.369031,740.205942,-8503.660028,-296.082377
4648.369356,518.144159,-8733.488677,-518.144159
4648.369680,666.185348,-8427.050478,0.000000
4648.370005,296.082377,-8656.879127,0.000000
4648.370329,370.102971,-8963.317327,-222.061783
4648.370654,222.061783,-8350.440928,0.000000
4648.370979,222.061783,-8810.098227,-222.061783
4648.371303,-74.020594,-8503.660028,-148.041188
4648.371628,148.041188,-8350.440928,74.020594
4648.371952,444.123565,-8503.660028,0.000000
4648.372277,518.144159,-8427.050478,0.000000
4648.372601,1036.288319,-8963.317327,-296.082377
4648.372926,518.144159,-8503.660028,0.000000
4648.373250,592.164754,-8273.831378,-148.041188
4648.373575,370.102971,-8810.098227,148.041188
4648.373900,148.041188,-8810.098227,74.020594
4648.374224,814.226536,-8580.269578,0.000000
4648.374549,296.082377,-8580.269578,0.000000
4648.374873,222.061783,-8656.879127,370.102971
4648.375198,222.061783,-8580.269578,296.082377
4648.375522,518.144159,-8886.707777,370.102971
4648.375847,518.144159,-8733.488677,74.020594
4648.376171,740.205942,-8733.488677,222.061783
4648.376496,814.226536,-8503.660028,148.041188
4648.376821,592.164754,-8427.050478,370.102971
4648.377145,370.102971,-8733.488677,0.000000
4648.377470,148.041188,-8580.269578,0.000000
4648.377794,370.102971,-8810.098227,0.000000
4648.378119,296.082377,-8580.269578,0.000000
4648.378443,888.247130,-8963.317327,-296.082377
4648.378768,444.123565,-8580.269578,74.020594
4648.379092,518.144159,-8427.050478,0.000000
4648.379417,518.144159,-8503.660028,-148.041188
4648.379742,370.102971,-8656.879127,0.000000
4648.380066,962.267725,-8503.660028,0.000000
4648.380391,666.185348,-8580.269578,74.020594
4648.380715,740.205942,-8963.317327,-296.082377
4648.381040,740.205942,-8503.660028,0.000000
4648.381364,1110.308913,-8886.707777,-296.082377
4648.381689,296.082377,-8810.098227,-296.082377
4648.382013,370.102971,-8350.440928,0.000000
4648.382338,148.041188,-8733.488677,0.000000
4648.382663,518.144159,-8810.098227,74.020594
4648.382987,370.102971,-8580.269578,-370.102971
4648.383312,444.123565,-8656.879127,0.000000
4648.383636,518.144159,-8427.050478,0.000000
4648.383961,592.164754,-8503.660028,0.000000
4648.384285,740.205942,-8733.488677,0.000000
4648.384610,740.205942,-8273.831378,74.020594
4648.384934,518.144159,-8580.269578,-296.082377
4648.385259,518.144159,-8580.269578,0.000000
4648.385584,444.123565,-8733.488677,0.000000
4648.385908,148.041188,-8503.660028,0.000000
4648.386233,518.144159,-8273.831378,-296.082377
4648.386557,222.061783,-8427.050478,-370.102971
4648.386882,1184.329507,-8580.269578,-444.123565
4648.387206,444.123565,-8350.440928,-296.082377
4648.387530,444.123565,-8886.707777,-296.082377
4648.387854,592.164754,-8427.050478,-444.123565
4648.388179,518.144159,-8733.488677,-444.123565
4648.388503,592.164754,-8503.660028,-666.185348
4648.388827,222.061783,-8580.269578,-444.123565
4648.389151,148.041188,-8580.269578,-518.144159
4648.389476,222.061783,-8963.317327,-740.205942
4648.389800,814.226536,-8580.269578,-740.205942
4648.390124,222.061783,-8886.707777,-740.205942
4648.390449,0.000000,-8656.879127,-666.185348
4648.390773,74.020594,-8580.269578,-666.185348
4648.391097,222.061783,-8886.707777,-444.123565
4648.391421,444.123565,-8656.879127,-296.082377
4648.391746,370.102971,-8656.879127,-814.226536
4648.392070,296.082377,-9116.536426,-592.164754
4648.392394,518.144159,-8503.660028,-666.185348
4648.392718,814.226536,-8963.317327,-444.123565
4648.393043,518.144159,-8656.879127,-740.205942
4648.393367,518.144159,-8886.707777,-888.247130
4648.393691,518.144159,-8503.660028,-740.205942
4648.394015,518.144159,-8273.831378,-148.041188
4648.394340,296.082377,-8350.440928,-962.267725
4648.394664,148.041188,-8503.660028,-962.267725
4648.394988,222.061783,-8503.660028,-592.164754
4648.395313,296.082377,-8044.002729,-814.226536
4648.395637,444.123565,-8963.317327,-1036.288319
4648.395961,666.185348,-8656.879127,-666.185348
4648.396285,518.144159,-8733.488677,-814.226536
4648.396610,518.144159,-9116.536426,-370.102971
4648.396934,1036.288319,-9116.536426,-740.205942
4648.397258,814.226536,-8656.879127,-592.164754
4648.397582,518.144159,-8197.221829,-592.164754
4648.397907,222.061783,-8350.440928,-962.267725
4648.398231,296.082377,-9346.365076,-740.205942
4648.398555,148.041188,-8503.660028,-888.247130
4648.398879,148.041188,-8503.660028,-962.267725
4648.399204,296.082377,-8273.831378,-444.123565
4648.399528,444.123565,-9116.536426,-370.102971
4648.399852,592.164754,-8273.831378,-148.041188
4648.400177,740.205942,-8580.269578,0.000000
4648.400501,814.226536,-8656.879127,-148.041188
4648.400825,1332.370696,-8273.831378,0.000000
4648.401149,1036.288319,-8656.879127,-740.205942
4648.401474,518.144159,-8427.050478,-148.041188
4648.401798,222.061783,-8197.221829,-518.144159
4648.402122,222.061783,-8580.269578,-518.144159
4648.402446,0.000000,-8273.831378,0.000000
4648.402771,0.000000,-8810.098227,0.000000
4648.403095,148.041188,-8733.488677,296.082377
4648.403419,518.144159,-8350.440928,74.020594
4648.403744,444.123565,-8886.707777,0.000000
4648.404068,740.205942,-8810.098227,296.082377
4648.404392,888.247130,-8350.440928,222.061783
4648.404716,814.226536,-8273.831378,148.041188
4648.405041,888.247130,-8810.098227,148.041188
4648.405365,1036.288319,-8503.660028,222.061783
4648.405689,222.061783,-8503.660028,0.000000
4648.406013,0.000000,-8273.831378,0.000000
4648.406338,148.041188,-8733.488677,444.123565
4648.406662,148.041188,-8656.879127,74.020594
4648.406986,148.041188,-8733.488677,518.144159
4648.407310,74.020594,-8656.879127,296.082377
4648.407635,444.123565,-8963.317327,592.164754
4648.407959,814.226536,-8350.440928,518.144159
4648.408283,518.144159,-8733.488677,296.082377
4648.408608,444.123565,-8656.879127,148.041188
4648.408932,370.102971,-8503.660028,296.082377
4648.409256,518.144159,-8503.660028,-370.102971
4648.409580,0.000000,-8733.488677,74.020594
4648.409905,148.041188,-8503.660028,148.041188
4648.410229,0.000000,-8580.269578,148.041188
4648.410553,148.041188,-8503.660028,74.020594
4648.410877,370.102971,-8963.317327,0.000000
4648.411202,1036.288319,-8656.879127,148.041188
4648.411526,666.185348,-8427.050478,296.082377
4648.411850,888.247130,-8580.269578,0.000000
4648.412175,740.205942,-8273.831378,74.020594
4648.412499,666.185348,-8580.269578,0.000000
4648.412823,666.185348,-8580.269578,-296.082377
4648.413147,518.144159,-8886.707777,0.000000
4648.413472,296.082377,-8503.660028,-296.082377
4648.413796,296.082377,-8886.707777,0.000000
4648.414120,74.020594,-8427.050478,-592.164754
4648.414444,148.041188,-8886.707777,-296.082377
4648.414769,222.061783,-8427.050478,0.000000
4648.415093,74.020594,-8656.879127,0.000000
4648.415417,518.144159,-8886.707777,0.000000
4648.415741,814.226536,-8733.488677,0.000000
4648.416066,666.185348,-8733.488677,0.000000
4648.416390,814.226536,-8733.488677,0.000000
4648.416714,518.144159,-8503.660028,0.000000
4648.417039,666.185348,-8733.488677,-148.041188
4648.417363,222.061783,-7890.783629,-592.164754
4648.417687,74.020594,-8656.879127,-518.144159
4648.418011,296.082377,-8120.612279,-740.205942
4648.418336,74.020594,-8197.221829,-148.041188
4648.418660,296.082377,-8197.221829,-370.102971
4648.418984,592.164754,-8580.269578,-296.082377
4648.419308,814.226536,-8580.269578,-222.061783
4648.419633,740.205942,-8503.660028,-222.061783
4648.419957,740.205942,-8963.317327,0.000000
4648.420281,518.144159,-8656.879127,-148.041188
4648.420605,296.082377,-8963.317327,0.000000
4648.420930,296.082377,-8350.440928,-444.123565
4648.421254,74.020594,-8503.660028,-444.123565
4648.421578,444.123565,-8273.831378,-296.082377
4648.421903,148.041188,-8120.612279,-296.082377
4648.422227,666.185348,-8580.269578,-370.102971
4648.422551,444.123565,-8963.317327,-222.061783
4648.422875,222.061783,-8503.660028,148.041188
4648.423200,518.144159,-8886.707777,0.000000
4648.423524,0.000000,-8427.050478,296.082377
4648.423848,222.061783,-8580.269578,0.000000
4648.424172,74.020594,-8580.269578,0.000000
4648.424497,296.082377,-8580.269578,-148.041188
4648.424821,370.102971,-8580.269578,-296.082377
4648.425145,814.226536,-8427.050478,-370.102971
4648.425470,74.020594,-8197.221829,-296.082377
4648.425794,222.061783,-8427.050478,-222.061783
4648.426118,0.000000,-8427.050478,-370.102971
4648.426442,518.144159,-8963.317327,-444.123565
4648.426767,296.082377,-8733.488677,0.000000
4648.427091,444.123565,-8963.317327,74.020594
4648.427415,444.123565,-8656.879127,0.000000
4648.427739,444.123565,-8886.707777,222.061783
4648.428064,740.205942,-8733.488677,0.000000
4648.428388,518.144159,-8810.098227,0.000000
4648.428712,740.205942,-8197.221829,0.000000
4648.429036,444.123565,-8503.660028,0.000000
4648.429361,666.185348,-9193.145976,222.061783
4648.429685,740.205942,-8503.660028,-296.082377
4648.430009,370.102971,-8273.831378,-148.041188
4648.430334,222.061783,-8810.098227,222.061783
4648.430658,296.082377,-8503.660028,0.000000
4648.430982,74.020594,-8580.269578,592.164754
4648.431306,444.123565,-8580.269578,0.000000
4648.431631,518.144159,-9039.926876,-222.061783
4648.431955,296.082377,-8656.879127,-148.041188
4648.432279,222.061783,-8656.879127,296.082377
4648.432603,148.041188,-8656.879127,-370.102971
4648.432928,296.082377,-8427.050478,-592.164754
4648.433252,444.123565,-8197.221829,-518.144159
4648.433576,0.000000,-8733.488677,296.082377
4648.433900,444.123565,-8580.269578,-370.102971
4648.434225,592.164754,-9193.145976,-370.102971
4648.434549,666.185348,-8580.269578,-370.102971
4648.434873,518.144159,-8503.660028,0.000000
4648.435198,518.144159,-8656.879127,0.000000
4648.435522,740.205942,-8273.831378,-74.020594
4648.435846,592.164754,-8580.269578,-296.082377
4648.436170,518.144159,-8810.098227,-962.267725
4648.436495,518.144159,-8503.660028,-518.144159
4648.436819,518.144159,-8427.050478,-1110.308913
4648.437143,740.205942,-8580.269578,-1110.308913
4648.437467,370.102971,-8503.660028,-888.247130
4648.437792,0.000000,-8886.707777,-518.144159
4648.438116,148.041188,-8197.221829,-666.185348
4648.438440,222.061783,-8580.269578,-740.205942
4648.438765,296.082377,-8886.707777,-666.185348
4648.439089,444.123565,-8733.488677,-962.267725
4648.439413,518.144159,-8503.660028,-740.205942
4648.439737,222.061783,-8656.879127,-1110.308913
4648.440062,444.123565,-8580.269578,-962.267725
4648.440386,148.041188,-8580.269578,-1332.370696
4648.440710,666.185348,-8963.317327,-814.226536
4648.441034,370.102971,-8656.879127,-1110.308913
4648.441359,222.061783,-8503.660028,-888.247130
4648.441683,296.082377,-8350.440928,-1110.308913
4648.442007,444.123565,-9039.926876,-518.144159
4648.442331,370.102971,-8656.879127,-370.102971
4648.442656,296.082377,-8580.269578,-740.205942
4648.442980,0.000000,-8503.660028,-666.185348
4648.443304,74.020594,-8580.269578,-814.226536
4648.443629,296.082377,-9116.536426,-814.226536
4648.443953,148.041188,-8656.879127,-1332.370696
4648.444277,222.061783,-8580.269578,-1036.288319
4648.444601,0.000000,-8197.221829,-1036.288319
4648.444926,740.205942,-7660.954980,-518.144159
4648.445250,518.144159,-8580.269578,-666.185348
4648.445574,518.144159,-8886.707777,-444.123565
4648.445898,814.226536,-8656.879127,-814.226536
4648.446223,370.102971,-9269.755526,-740.205942
4648.446547,74.020594,-8350.440928,-370.102971
4648.446871,148.041188,-8886.707777,-444.123565
4648.447196,222.061783,-8273.831378,-518.144159
4648.447520,148.041188,-8273.831378,-296.082377
4648.447844,370.102971,-8580.269578,-296.082377
4648.448168,518.144159,-8656.879127,-518.144159
4648.448493,740.205942,-8427.050478,-518.144159
4648.448817,592.164754,-8273.831378,-518.144159
4648.449141,666.185348,-8810.098227,0.000000
4648.449465,814.226536,-8197.221829,-592.164754
4648.449790,296.082377,-8503.660028,-666.185348
4648.450114,444.123565,-8580.269578,-370.102971
4648.450438,370.102971,-8886.707777,-444.123565
4648.450762,666.185348,-9193.145976,-666.185348
4648.451087,296.082377,-8580.269578,-518.144159
4648.451411,592.164754,-9039.926876,-518.144159
4648.451735,444.123565,-8810.098227,-370.102971
4648.452060,1036.288319,-8580.269578,-740.205942
4648.452384,1036.288319,-8503.660028,-444.123565
4648.452708,740.205942,-8733.488677,-518.144159
4648.453032,518.144159,-8733.488677,-592.164754
4648.453357,1406.391290,-9039.926876,-592.164754
4648.453681,592.164754,-8733.488677,-518.144159
4648.454005,370.102971,-8810.098227,-148.041188
4648.454329,740.205942,-8580.269578,-666.185348
4648.454654,370.102971,-8656.879127,0.000000
4648.454978,444.123565,-9116.536426,-222.061783
4648.455302,592.164754,-9039.926876,-518.144159
4648.455626,518.144159,-8733.488677,-518.144159
4648.455951,592.164754,-8656.879127,-370.102971
4648.456275,1258.350101,-9193.145976,-592.164754
4648.456599,666.185348,-8350.440928,0.000000
4648.456924,740.205942,-8656.879127,-296.082377
4648.457248,518.144159,-8886.707777,-296.082377
4648.457572,518.144159,-8886.707777,-444.123565
4648.457896,592.164754,-8733.488677,-370.102971
4648.458221,518.144159,-8503.660028,-296.082377
4648.458545,370.102971,-8810.098227,-370.102971
4648.458869,518.144159,-8350.440928,-296.082377
4648.459193,814.226536,-8427.050478,-148.041188
4648.459518,444.123565,-8580.269578,-518.144159
4648.459842,444.123565,-8810.098227,-370.102971
4648.460166,296.082377,-8503.660028,-370.102971
4648.460491,592.164754,-8886.707777,-296.082377
4648.460815,74.020594,-8427.050478,-518.144159
4648.461139,74.020594,-8427.050478,-444.123565
4648.461463,74.020594,-8580.269578,-222.061783
4648.461788,0.000000,-8580.269578,74.020594
4648.462112,-222.061783,-8886.707777,-666.185348
4648.462436,222.061783,-8427.050478,-148.041188
4648.462760,0.000000,-8273.831378,-666.185348
4648.463085,148.041188,-8733.488677,-370.102971
4648.463409,518.144159,-7967.393179,-296.082377
4648.463733,592.164754,-8273.831378,-222.061783
4648.464057,370.102971,-8503.660028,-222.061783
4648.464382,592.164754,-8273.831378,-444.123565
4648.464706,666.185348,-8810.098227,74.020594
4648.465030,444.123565,-8350.440928,-518.144159
4648.465355,518.144159,-8580.269578,-148.041188
4648.465679,148.041188,-8427.050478,-592.164754
4648.466003,370.102971,-8427.050478,-666.185348
4648.466327,592.164754,-8350.440928,-740.205942
4648.466652,222.061783,-8503.660028,-666.185348
4648.466976,518.144159,-8427.050478,-592.164754
4648.467300,666.185348,-8656.879127,-888.247130
4648.467624,666.185348,-8656.879127,-814.226536
4648.467949,592.164754,-8273.831378,-740.205942
4648.468273,518.144159,-8273.831378,-518.144159
4648.468597,0.000000,-8273.831378,-592.164754
4648.468922,888.247130,-8886.707777,-666.185348
4648.469246,370.102971,-8886.707777,-666.185348
4648.469570,148.041188,-8427.050478,-888.247130
4648.469894,444.123565,-8810.098227,-1110.308913
4648.470219,518.144159,-8580.269578,-444.123565
4648.470543,518.144159,-8197.221829,-666.185348
4648.470867,592.164754,-8580.269578,-592.164754
4648.471191,740.205942,-7890.783629,-666.185348
4648.471516,888.247130,-8886.707777,-666.185348
4648.471840,1258.350101,-8733.488677,-888.247130
4648.472164,740.205942,-8503.660028,-888.247130
4648.472488,814.226536,-8810.098227,-814.226536
4648.472813,370.102971,-8427.050478,-1184.329507
4648.473137,666.185348,-8810.098227,-888.247130
4648.473461,296.082377,-8427.050478,-1258.350101
4648.473786,222.061783,-8656.879127,-592.164754
4648.474110,148.041188,-8810.098227,-888.247130
4648.474434,222.061783,-8886.707777,-1332.370696
4648.474758,444.123565,-8503.660028,-518.144159
4648.475083,370.102971,-8580.269578,-1110.308913
4648.475407,592.164754,-8580.269578,-592.164754
4648.475731,222.061783,-8273.831378,-814.226536
4648.476055,592.164754,-8886.707777,-814.226536
4648.476380,222.061783,-8733.488677,-814.226536
4648.476704,148.041188,-8963.317327,-740.205942
4648.477028,370.102971,-8963.317327,-592.164754
4648.477352,518.144159,-8427.050478,-370.102971
4648.477677,370.102971,-8656.879127,-444.123565
4648.478001,296.082377,-8580.269578,-296.082377
4648.478325,814.226536,-8656.879127,-222.061783
4648.478650,740.205942,-8886.707777,-814.226536
4648.478974,592.164754,-8810.098227,-296.082377
4648.479298,518.144159,-8503.660028,0.000000
4648.479622,518.144159,-8503.660028,0.000000
4648.479947,296.082377,-8427.050478,-444.123565
4648.480271,666.185348,-9039.926876,-296.082377
4648.480595,592.164754,-8656.879127,-296.082377
4648.480919,296.082377,-8733.488677,0.000000
4648.481244,370.102971,-9116.536426,-148.041188
4648.481568,296.082377,-8656.879127,-222.061783
4648.481892,444.123565,-8656.879127,222.061783
4648.482217,370.102971,-8273.831378,0.000000
4648.482541,148.041188,-8427.050478,74.020594
4648.482865,74.020594,-8427.050478,0.000000
4648.483189,222.061783,-8503.660028,74.020594
4648.483514,370.102971,-8427.050478,74.020594
4648.483838,370.102971,-8350.440928,-370.102971
4648.484162,518.144159,-8350.440928,0.000000
4648.484486,74.020594,-7967.393179,296.082377
4648.484811,296.082377,-8580.269578,0.000000
4648.485135,740.205942,-7967.393179,-148.041188
4648.485459,666.185348,-8427.050478,-222.061783
4648.485783,740.205942,-8503.660028,-222.061783
4648.486108,518.144159,-8120.612279,0.000000
4648.486432,814.226536,-8197.221829,0.000000
4648.486756,740.205942,-8350.440928,0.000000
4648.487081,962.267725,-8273.831378,-444.123565
4648.487405,592.164754,-8503.660028,-148.041188
4648.487729,740.205942,-7814.174080,74.020594
4648.488054,592.164754,-9039.926876,148.041188
4648.488378,592.164754,-8733.488677,-444.123565
4648.488703,814.226536,-8120.612279,-222.061783
4648.489027,740.205942,-8656.879127,0.000000
4648.489351,296.082377,-8580.269578,0.000000
4648.489676,444.123565,-8810.098227,-296.082377
4648.490000,222.061783,-8350.440928,-370.102971
4648.490325,222.061783,-8810.098227,222.061783
4648.490649,666.185348,-9193.145976,-888.247130
4648.490974,814.226536,-8886.707777,-962.267725
4648.491298,888.247130,-8580.269578,-370.102971
4648.491622,370.102971,-8810.098227,-444.123565
4648.491947,370.102971,-8810.098227,-740.205942
4648.492271,296.082377,-8733.488677,-222.061783
4648.492596,222.061783,-8886.707777,-666.185348
4648.492920,370.102971,-8886.707777,-444.123565
4648.493244,592.164754,-8580.269578,-1258.350101
4648.493569,518.144159,-8733.488677,-444.123565
4648.493893,518.144159,-8580.269578,-814.226536
4648.494218,148.041188,-8886.707777,-888.247130
4648.494542,666.185348,-8656.879127,-370.102971
4648.494866,296.082377,-8427.050478,-370.102971
4648.495191,370.102971,-9039.926876,-518.144159
4648.495515,222.061783,-8503.660028,-740.205942
4648.495840,740.205942,-8350.440928,0.000000
4648.496164,666.185348,-8810.098227,-370.102971
4648.496489,592.164754,-8733.488677,-296.082377
4648.496813,666.185348,-8273.831378,0.000000
4648.497137,518.144159,-8503.660028,0.000000
4648.497462,888.247130,-9039.926876,-740.205942
4648.497786,518.144159,-8733.488677,-666.185348
4648.498111,444.123565,-8197.221829,0.000000
4648.498435,0.000000,-8733.488677,-296.082377
4648.498759,74.020594,-8427.050478,-592.164754
4648.499084,0.000000,-8503.660028,-74.020594
4648.499408,518.144159,-7967.393179,-148.041188
4648.499733,444.123565,-8580.269578,0.000000
4648.500057,444.123565,-8427.050478,-666.185348
4648.500382,518.144159,-8503.660028,-148.041188
4648.500706,296.082377,-8350.440928,0.000000
4648.501030,296.082377,-8427.050478,-518.144159
4648.501355,444.123565,-8273.831378,-74.020594
4648.501679,148.041188,-8273.831378,74.020594
4648.502004,370.102971,-8580.269578,0.000000
4648.502328,444.123565,-8733.488677,-296.082377
4648.502652,814.226536,-8350.440928,-74.020594
4648.502977,1110.308913,-8503.660028,148.041188
4648.503301,444.123565,-8580.269578,148.041188
4648.503626,592.164754,-8580.269578,296.082377
4648.503950,518.144159,-7967.393179,296.082377
4648.504274,666.185348,-8656.879127,74.020594
4648.504599,666.185348,-8810.098227,-444.123565
4648.504923,1110.308913,-8503.660028,0.000000
4648.505248,740.205942,-8350.440928,370.102971
4648.505572,296.082377,-8963.317327,0.000000
4648.505897,296.082377,-8427.050478,-222.061783
4648.506221,370.102971,-8350.440928,74.020594
4648.506545,222.061783,-8656.879127,-296.082377
4648.506870,74.020594,-8886.707777,-296.082377
4648.507194,518.144159,-9116.536426,-518.144159
4648.507519,74.020594,-8963.317327,-296.082377
4648.507843,74.020594,-8963.317327,-370.102971
4648.508167,370.102971,-8886.707777,-296.082377
4648.508492,518.144159,-9116.536426,0.000000
4648.508816,222.061783,-8886.707777,-296.082377
4648.509141,296.082377,-9116.536426,-370.102971
4648.509465,814.226536,-8656.879127,-222.061783
4648.509790,444.123565,-8656.879127,-666.185348
4648.510114,370.102971,-8963.317327,222.061783
4648.510438,74.020594,-8273.831378,-296.082377
4648.510763,444.123565,-8733.488677,0.000000
4648.511087,296.082377,-8427.050478,-444.123565
4648.511412,666.185348,-9652.803275,-370.102971
4648.511736,370.102971,-8963.317327,-296.082377
4648.512060,370.102971,-8656.879127,-74.020594
4648.512385,296.082377,-8810.098227,0.000000
4648.512709,74.020594,-9422.974625,148.041188
4648.513034,740.205942,-8580.269578,-370.102971
4648.513358,666.185348,-8580.269578,-296.082377
4648.513682,444.123565,-8963.317327,-148.041188
4648.514007,222.061783,-8503.660028,0.000000
4648.514331,444.123565,-8733.488677,-296.082377
4648.514656,148.041188,-8886.707777,-74.020594
4648.514980,518.144159,-8580.269578,0.000000
4648.515305,592.164754,-8427.050478,74.020594
4648.515629,148.041188,-8886.707777,296.082377
4648.515953,518.144159,-8427.050478,0.000000
4648.516278,592.164754,-8427.050478,0.000000
4648.516602,814.226536,-8580.269578,0.000000
4648.516927,370.102971,-8503.660028,-296.082377
4648.517251,222.061783,-8733.488677,0.000000
4648.517575,222.061783,-8120.612279,-222.061783
4648.517900,0.000000,-8656.879127,0.000000
4648.518224,74.020594,-8427.050478,-148.041188
4648.518549,370.102971,-9039.926876,-148.041188
4648.518873,666.185348,-8656.879127,-296.082377
4648.519198,370.102971,-8733.488677,-296.082377
4648.519522,518.144159,-8810.098227,0.000000
4648.519846,740.205942,-8810.098227,222.061783
4648.520171,592.164754,-8427.050478,0.000000
4648.520495,370.102971,-8350.440928,0.000000
4648.520820,222.061783,-8503.660028,148.041188
4648.521144,222.061783,-8810.098227,0.000000
4648.521468,592.164754,-8886.707777,-148.041188
4648.521793,148.041188,-8273.831378,0.000000
4648.522117,370.102971,-8503.660028,296.082377
4648.522442,592.164754,-8273.831378,74.020594
4648.522766,888.247130,-8886.707777,148.041188
4648.523090,296.082377,-8427.050478,222.061783
4648.523415,444.123565,-8656.879127,74.020594
4648.523739,296.082377,-8810.098227,-370.102971
4648.524064,-222.061783,-8886.707777,592.164754
4648.524388,0.000000,-8427.050478,148.041188
4648.524713,444.123565,-8503.660028,0.000000
4648.525037,0.000000,-8273.831378,-592.164754
4648.525361,222.061783,-8886.707777,0.000000
4648.525686,370.102971,-8886.707777,-148.041188
4648.526010,592.164754,-8656.879127,-222.061783
4648.526335,592.164754,-8656.879127,-370.102971
4648.526659,222.061783,-8656.879127,-222.061783
4648.526983,296.082377,-8733.488677,0.000000
4648.527308,296.082377,-8580.269578,-666.185348
4648.527632,74.020594,-8273.831378,-148.041188
4648.527957,0.000000,-8886.707777,-296.082377
4648.528281,222.061783,-8580.269578,-518.144159
4648.528605,370.102971,-8580.269578,-518.144159
4648.528930,444.123565,-8656.879127,-666.185348
4648.529254,444.123565,-8580.269578,-370.102971
4648.529579,222.061783,-8427.050478,-296.082377
4648.529903,222.061783,-8656.879127,-148.041188
4648.530228,296.082377,-8580.269578,-370.102971
4648.530552,296.082377,-9269.755526,-370.102971
4648.530876,0.000000,-8886.707777,-518.144159
4648.531201,962.267725,-8733.488677,-444.123565
4648.531525,296.082377,-8427.050478,-444.123565
4648.531850,592.164754,-8656.879127,0.000000
4648.532174,222.061783,-8350.440928,-296.082377
4648.532498,592.164754,-8733.488677,0.000000
4648.532823,814.226536,-8197.221829,-296.082377
4648.533147,370.102971,-8580.269578,-518.144159
4648.533472,444.123565,-8503.660028,-370.102971
4648.533796,444.123565,-8503.660028,-444.123565
4648.534121,962.267725,-8503.660028,-666.185348
4648.534445,0.000000,-8044.002729,-296.082377
4648.534769,0.000000,-8656.879127,0.000000
4648.535094,0.000000,-8427.050478,-370.102971
4648.535418,0.000000,-8350.440928,-370.102971
4648.535743,370.102971,-8733.488677,-666.185348
4648.536067,370.102971,-8350.440928,-592.164754
4648.536391,370.102971,-8733.488677,-296.082377
4648.536716,296.082377,-8273.831378,-592.164754
4648.537040,444.123565,-8273.831378,0.000000
4648.537365,518.144159,-8733.488677,-296.082377
4648.537689,444.123565,-8656.879127,-370.102971
4648.538013,518.144159,-8963.317327,0.000000
4648.538338,1258.350101,-8580.269578,0.000000
4648.538662,740.205942,-8427.050478,0.000000
4648.538987,592.164754,-8197.221829,0.000000
4648.539311,518.144159,-8273.831378,-370.102971
4648.539636,1036.288319,-9116.536426,296.082377
4648.539960,370.102971,-8120.612279,-222.061783
4648.540284,666.185348,-8886.707777,-222.061783
4648.540609,740.205942,-8273.831378,-592.164754
4648.540933,296.082377,-8503.660028,-296.082377
4648.541258,222.061783,-8656.879127,-296.082377
4648.541582,0.000000,-8273.831378,-444.123565
4648.541906,296.082377,-8886.707777,-148.041188
4648.542231,74.020594,-8810.098227,-222.061783
4648.542555,444.123565,-9116.536426,-740.205942
4648.542880,296.082377,-8656.879127,-592.164754
4648.543204,370.102971,-8656.879127,-370.102971
4648.543529,296.082377,-8503.660028,-148.041188
4648.543853,148.041188,-8350.440928,-740.205942
4648.544177,296.082377,-8810.098227,-296.082377
4648.544502,370.102971,-8656.879127,-740.205942
4648.544826,518.144159,-9116.536426,-296.082377
4648.545151,370.102971,-8656.879127,-370.102971
4648.545475,814.226536,-8503.660028,-148.041188
4648.545799,740.205942,-8580.269578,-592.164754
4648.546124,296.082377,-8197.221829,-740.205942
4648.546448,666.185348,-8733.488677,-296.082377
4648.546773,1258.350101,-8580.269578,-518.144159
4648.547097,74.020594,-8886.707777,-740.205942
4648.547421,444.123565,-8273.831378,-888.247130
4648.547746,444.123565,-8427.050478,-666.185348
4648.548070,296.082377,-8886.707777,-1036.288319
4648.548395,370.102971,-8886.707777,-444.123565
4648.548719,148.041188,-8350.440928,-518.144159
4648.549044,296.082377,-8810.098227,0.000000
4648.549368,370.102971,-8503.660028,-518.144159
4648.549692,814.226536,-8580.269578,-814.226536
4648.550017,666.185348,-8350.440928,-518.144159
4648.550341,296.082377,-8580.269578,0.000000
4648.550666,592.164754,-8656.879127,-592.164754
4648.550990,296.082377,-7814.174080,-296.082377
4648.551314,740.205942,-8503.660028,-444.123565
4648.551639,222.061783,-8350.440928,-888.247130
4648.551963,518.144159,-8733.488677,-518.144159
4648.552288,518.144159,-8427.050478,-666.185348
4648.552612,592.164754,-8656.879127,-592.164754
4648.552937,592.164754,-8503.660028,-518.144159
4648.553261,148.041188,-8503.660028,-814.226536
4648.553585,666.185348,-8656.879127,0.000000
4648.553910,518.144159,-8197.221829,-888.247130
4648.554234,666.185348,-9346.365076,-592.164754
4648.554559,370.102971,-8427.050478,-814.226536
4648.554883,666.185348,-8810.098227,-666.185348
4648.555207,222.061783,-8503.660028,-666.185348
4648.555532,444.123565,-8503.660028,-370.102971
4648.555856,370.102971,-8733.488677,0.000000
4648.556181,444.123565,-8350.440928,-370.102971
4648.556505,518.144159,-8580.269578,-592.164754
4648.556829,666.185348,-8350.440928,-296.082377
4648.557154,666.185348,-7814.174080,0.000000
4648.557478,666.185348,-8503.660028,-370.102971
4648.557803,370.102971,-8427.050478,-370.102971
4648.558127,740.205942,-8120.612279,-370.102971
4648.558452,518.144159,-8810.098227,-370.102971
4648.558776,148.041188,-8810.098227,-518.144159
4648.559100,296.082377,-8580.269578,0.000000
4648.559425,814.226536,-8503.660028,0.000000
4648.559749,370.102971,-8427.050478,0.000000
4648.560074,444.123565,-8810.098227,0.000000
4648.560398,592.164754,-8350.440928,-296.082377
4648.560722,592.164754,-8427.050478,0.000000
4648.561047,518.144159,-8963.317327,-444.123565
4648.561371,518.144159,-8810.098227,-370.102971
4648.561696,444.123565,-8273.831378,-296.082377
4648.562020,296.082377,-8733.488677,-666.185348
4648.562345,518.144159,-8656.879127,-370.102971
4648.562669,74.020594,-8427.050478,-592.164754
4648.562993,148.041188,-8810.098227,-296.082377
4648.563318,296.082377,-8656.879127,-666.185348
4648.563642,592.164754,-9039.926876,-1110.308913
4648.563967,666.185348,-8503.660028,-518.144159
4648.564291,370.102971,-8427.050478,-592.164754
4648.564615,0.000000,-9193.145976,-518.144159
4648.564940,666.185348,-7967.393179,-814.226536
4648.565264,518.144159,-8886.707777,-444.123565
4648.565589,296.082377,-8963.317327,-740.205942
4648.565913,444.123565,-8963.317327,-740.205942
4648.566237,370.102971,-8963.317327,-666.185348
4648.566562,666.185348,-9116.536426,-222.061783
4648.566886,444.123565,-8733.488677,-666.185348
4648.567211,444.123565,-8886.707777,-296.082377
4648.567535,666.185348,-8427.050478,-296.082377
4648.567860,592.164754,-8886.707777,-296.082377
4648.568184,666.185348,-8810.098227,-222.061783
4648.568508,814.226536,-8810.098227,-518.144159
4648.568833,444.123565,-8503.660028,-370.102971
4648.569157,74.020594,-8427.050478,0.000000
4648.569482,0.000000,-8503.660028,74.020594
4648.569806,370.102971,-8197.221829,-962.267725
4648.570130,296.082377,-8963.317327,-444.123565
4648.570455,518.144159,-8580.269578,-666.185348
4648.570779,888.247130,-9039.926876,-814.226536
4648.571104,888.247130,-8197.221829,-296.082377
4648.571428,518.144159,-8656.879127,-222.061783
4648.571753,444.123565,-8656.879127,-444.123565
4648.572077,296.082377,-8197.221829,-888.247130
4648.572401,444.123565,-8350.440928,-518.144159
4648.572726,222.061783,-8656.879127,-518.144159
4648.573050,74.020594,-8503.660028,-888.247130
4648.573375,148.041188,-8273.831378,-592.164754
4648.573699,666.185348,-8886.707777,-666.185348
4648.574023,592.164754,-8733.488677,-666.185348
4648.574348,592.164754,-8044.002729,-666.185348
4648.574672,592.164754,-8197.221829,-296.082377
4648.574997,444.123565,-9729.412825,-148.041188
4648.575321,444.123565,-8427.050478,-592.164754
4648.575645,592.164754,-8656.879127,-666.185348
4648.575970,222.061783,-8350.440928,-222.061783
4648.576294,296.082377,-8350.440928,-444.123565
4648.576619,444.123565,-8273.831378,-444.123565
4648.576943,296.082377,-8197.221829,-370.102971
4648.577268,296.082377,-8580.269578,-296.082377
4648.577592,148.041188,-8656.879127,-666.185348
4648.577916,74.020594,-8810.098227,0.000000
4648.578241,444.123565,-8350.440928,0.000000
4648.578565,0.000000,-8427.050478,-444.123565
4648.578890,444.123565,-8503.660028,-592.164754
4648.579214,296.082377,-8580.269578,-296.082377
4648.579538,222.061783,-8733.488677,-296.082377
4648.579863,296.082377,-8886.707777,-444.123565
4648.580187,74.020594,-8656.879127,-666.185348
4648.580512,296.082377,-8120.612279,-444.123565
4648.580836,296.082377,-8350.440928,-222.061783
4648.581161,222.061783,-8427.050478,-518.144159
4648.581485,444.123565,-7967.393179,-592.164754
4648.581809,444.123565,-8503.660028,-370.102971
4648.582134,296.082377,-8273.831378,-518.144159
4648.582458,444.123565,-8810.098227,-592.164754
4648.582783,666.185348,-8733.488677,-296.082377
4648.583107,740.205942,-8580.269578,-148.041188
4648.583431,444.123565,-8580.269578,-148.041188
4648.583756,592.164754,-8427.050478,-296.082377
4648.584080,370.102971,-8580.269578,-370.102971
4648.584405,518.144159,-9116.536426,-592.164754
4648.584729,444.123565,-8656.879127,-592.164754
4648.585053,518.144159,-9039.926876,-296.082377
4648.585378,148.041188,-8886.707777,-444.123565
4648.585702,222.061783,-8580.269578,-518.144159
4648.586027,370.102971,-8350.440928,-148.041188
4648.586351,444.123565,-8886.707777,518.144159
4648.586676,666.185348,-8810.098227,-222.061783
4648.587000,518.144159,-8580.269578,-592.164754
4648.587324,666.185348,-8427.050478,-296.082377
4648.587649,518.144159,-8503.660028,-666.185348
4648.587973,518.144159,-8886.707777,-740.205942
4648.588298,444.123565,-8197.221829,-518.144159
4648.588622,444.123565,-8503.660028,-370.102971
4648.588946,592.164754,-8580.269578,-962.267725
4648.589271,666.185348,-8580.269578,-296.082377
4648.589595,666.185348,-9193.145976,-296.082377
4648.589920,888.247130,-8733.488677,-740.205942
4648.590244,666.185348,-8810.098227,-518.144159
4648.590569,148.041188,-8886.707777,0.000000
4648.590893,592.164754,-8427.050478,-592.164754
4648.591217,444.123565,-8810.098227,-518.144159
4648.591542,592.164754,-8580.269578,-296.082377
4648.591866,962.267725,-8273.831378,-370.102971
4648.592191,444.123565,-8656.879127,-592.164754
4648.592515,518.144159,-8503.660028,-222.061783
4648.592840,666.185348,-8427.050478,0.000000
4648.593164,666.185348,-8427.050478,-296.082377
4648.593489,1184.329507,-8503.660028,-370.102971
4648.593813,444.123565,-8580.269578,-296.082377
4648.594138,444.123565,-9039.926876,0.000000
4648.594462,222.061783,-8427.050478,-592.164754
4648.594786,592.164754,-9422.974625,-370.102971
4648.595111,296.082377,-7967.393179,0.000000
4648.595435,370.102971,-8733.488677,-74.020594
4648.595760,444.123565,-8503.660028,-666.185348
4648.596084,592.164754,-8733.488677,74.020594
4648.596409,592.164754,-8580.269578,-666.185348
4648.596733,592.164754,-8810.098227,-592.164754
4648.597058,592.164754,-8580.269578,-370.102971
4648.597382,370.102971,-8733.488677,-148.041188
4648.597707,592.164754,-8273.831378,-518.144159
4648.598031,296.082377,-8810.098227,-592.164754
4648.598356,74.020594,-8810.098227,-592.164754
4648.598680,370.102971,-8810.098227,-518.144159
4648.599004,444.123565,-9039.926876,-518.144159
4648.599329,222.061783,-8580.269578,-888.247130
4648.599653,444.123565,-8503.660028,-518.144159
4648.599978,518.144159,-8886.707777,-444.123565
4648.600302,222.061783,-8503.660028,-740.205942
4648.600627,592.164754,-8350.440928,-518.144159
4648.600951,444.123565,-8733.488677,-370.102971
4648.601276,592.164754,-8810.098227,-666.185348
4648.601600,592.164754,-8886.707777,-518.144159
4648.601925,1406.391290,-8886.707777,0.000000
4648.602249,518.144159,-8503.660028,0.000000
4648.602574,222.061783,-8580.269578,-518.144159
4648.602898,518.144159,-8733.488677,-444.123565
4648.603222,666.185348,-8580.269578,-370.102971
4648.603547,740.205942,-8886.707777,-518.144159
4648.603871,888.247130,-8427.050478,-962.267725
4648.604196,592.164754,-8273.831378,-370.102971
4648.604520,370.102971,-8350.440928,-222.061783
4648.604845,666.185348,-7890.783629,-370.102971
4648.605169,296.082377,-8350.440928,-370.102971
4648.605494,592.164754,-8273.831378,0.000000
4648.605818,666.185348,-8580.269578,-296.082377
4648.606143,370.102971,-8427.050478,-370.102971
4648.606467,740.205942,-8197.221829,-296.082377
4648.606792,666.185348,-8427.050478,-444.123565
4648.607116,370.102971,-8427.050478,-518.144159
4648.607440,370.102971,-8427.050478,-296.082377
4648.607765,592.164754,-8273.831378,74.020594
4648.608089,296.082377,-8810.098227,-296.082377
4648.608414,444.123565,-8963.317327,-222.061783
4648.608738,592.164754,-8656.879127,0.000000
4648.609063,666.185348,-8427.050478,-444.123565
4648.609387,592.164754,-8427.050478,74.020594
4648.609712,444.123565,-8656.879127,0.000000
4648.610036,592.164754,-8656.879127,74.020594
4648.610361,888.247130,-8273.831378,-148.041188
4648.610685,518.144159,-8733.488677,74.020594
4648.611010,518.144159,-8503.660028,0.000000
4648.611334,444.123565,-8427.050478,222.061783
4648.611658,370.102971,-8503.660028,0.000000
4648.611983,296.082377,-8733.488677,148.041188
4648.612307,296.082377,-8656.879127,222.061783
4648.612632,222.061783,-8810.098227,0.000000
4648.612956,148.041188,-8963.317327,74.020594
4648.613281,222.061783,-8810.098227,-296.082377
4648.613605,74.020594,-8503.660028,296.082377
4648.613930,-148.041188,-8350.440928,0.000000
4648.614254,0.000000,-8580.269578,74.020594
4648.614579,666.185348,-8273.831378,0.000000
4648.614903,74.020594,-8733.488677,0.000000
4648.615228,148.041188,-8810.098227,-296.082377
4648.615552,74.020594,-8886.707777,0.000000
4648.615876,370.102971,-8656.879127,0.000000
4648.616201,74.020594,-8503.660028,222.061783
4648.616525,74.020594,-8427.050478,0.000000
4648.616850,74.020594,-8656.879127,0.000000
4648.617174,222.061783,-8656.879127,-222.061783
4648.617499,148.041188,-8733.488677,-444.123565
4648.617823,296.082377,-8886.707777,-148.041188
4648.618148,740.205942,-8886.707777,0.000000
4648.618472,518.144159,-8580.269578,-370.102971
4648.618797,296.082377,-7814.174080,-296.082377
4648.619121,74.020594,-8350.440928,-296.082377
4648.619446,518.144159,-8503.660028,-222.061783
4648.619770,370.102971,-8503.660028,-222.061783
4648.620094,296.082377,-8886.707777,-370.102971
4648.620419,74.020594,-8197.221829,-592.164754
4648.620743,444.123565,-8350.440928,-222.061783
4648.621068,370.102971,-8044.002729,-444.123565
4648.621392,296.082377,-8427.050478,-296.082377
4648.621717,222.061783,-8350.440928,0.000000
4648.622041,222.061783,-8733.488677,-296.082377
4648.622366,592.164754,-8580.269578,-592.164754
4648.622690,444.123565,-8427.050478,-444.123565
4648.623015,518.144159,-8273.831378,-296.082377
4648.623339,296.082377,-8427.050478,-296.082377
4648.623664,444.123565,-8273.831378,-370.102971
4648.623988,518.144159,-8350.440928,-444.123565
4648.624312,666.185348,-8656.879127,-444.123565
4648.624637,1036.288319,-8580.269578,-444.123565
4648.624961,666.185348,-8963.317327,-666.185348
4648.625286,518.144159,-8810.098227,0.000000
4648.625610,444.123565,-8580.269578,-592.164754
4648.625935,518.144159,-8120.612279,0.000000
4648.626259,592.164754,-8427.050478,-222.061783
4648.626584,370.102971,-8656.879127,-222.061783
4648.626908,370.102971,-8886.707777,-296.082377
4648.627233,518.144159,-8886.707777,-592.164754
4648.627557,592.164754,-8656.879127,-666.185348
4648.627882,518.144159,-7890.783629,-148.041188
4648.628206,222.061783,-8503.660028,0.000000
4648.628530,222.061783,-8503.660028,-222.061783
4648.628855,0.000000,-7967.393179,0.000000
4648.629179,74.020594,-8503.660028,-222.061783
4648.629504,222.061783,-9116.536426,-444.123565
4648.629828,222.061783,-8656.879127,-370.102971
4648.630153,222.061783,-8427.050478,-444.123565
4648.630477,0.000000,-8580.269578,0.000000
4648.630802,0.000000,-7967.393179,-296.082377
4648.631126,296.082377,-8350.440928,-148.041188
4648.631451,222.061783,-8427.050478,-222.061783
4648.631775,518.144159,-8656.879127,-148.041188
4648.632100,444.123565,-8886.707777,-444.123565
4648.632424,666.185348,-8886.707777,-370.102971
4648.632748,296.082377,-8503.660028,-518.144159
4648.633073,666.185348,-8580.269578,-518.144159
4648.633397,444.123565,-8273.831378,-296.082377
4648.633722,296.082377,-8733.488677,0.000000
4648.634046,444.123565,-8886.707777,-296.082377
4648.634371,518.144159,-9729.412825,-518.144159
4648.634695,814.226536,-8733.488677,-444.123565
4648.635020,518.144159,-8656.879127,-370.102971
4648.635344,666.185348,-8656.879127,-148.041188
4648.635669,296.082377,-8427.050478,-296.082377
4648.635993,740.205942,-8963.317327,-370.102971
4648.636318,222.061783,-8733.488677,-592.164754
4648.636642,370.102971,-9269.755526,0.000000
4648.636966,740.205942,-8273.831378,-370.102971
4648.637291,0.000000,-9193.145976,296.082377
4648.637615,518.144159,-8197.221829,0.000000
4648.637940,666.185348,-8427.050478,0.000000
4648.638264,444.123565,-8273.831378,-296.082377
4648.638589,666.185348,-9729.412825,0.000000
4648.638913,740.205942,-8580.269578,0.000000
4648.639238,740.205942,-8886.707777,-222.061783
4648.639562,740.205942,-8273.831378,0.000000
4648.639887,518.144159,-8963.317327,148.041188
4648.640211,962.267725,-8733.488677,-370.102971
4648.640536,592.164754,-8427.050478,0.000000
4648.640860,148.041188,-8810.098227,148.041188
4648.641184,592.164754,-8733.488677,0.000000
4648.641509,740.205942,-8427.050478,-370.102971
4648.641833,814.226536,-8503.660028,-148.041188
4648.642158,444.123565,-8503.660028,0.000000
4648.642482,518.144159,-8810.098227,-370.102971
4648.642807,222.061783,-8273.831378,-592.164754
4648.643131,444.123565,-8963.317327,-296.082377
4648.643456,148.041188,-8810.098227,-592.164754
4648.643780,370.102971,-8580.269578,-518.144159
4648.644105,222.061783,-8503.660028,-370.102971
4648.644429,296.082377,-8886.707777,-370.102971
4648.644754,296.082377,-8656.879127,-518.144159
4648.645078,370.102971,-8350.440928,-592.164754
4648.645402,444.123565,-8120.612279,-518.144159
4648.645727,814.226536,-8733.488677,-592.164754
4648.646051,74.020594,-8503.660028,-444.123565
4648.646376,444.123565,-8580.269578,-518.144159
4648.646700,148.041188,-8273.831378,-666.185348
4648.647025,296.082377,-9039.926876,-444.123565
4648.647349,370.102971,-8197.221829,-370.102971
4648.647674,518.144159,-8580.269578,-74.020594
4648.647998,222.061783,-8733.488677,-444.123565
4648.648323,814.226536,-8273.831378,-296.082377
4648.648647,814.226536,-8120.612279,-370.102971
4648.648972,518.144159,-8120.612279,0.000000
4648.649296,592.164754,-8580.269578,222.061783
4648.649620,444.123565,-8350.440928,-444.123565
4648.649945,444.123565,-8886.707777,-370.102971
4648.650269,592.164754,-8580.269578,-296.082377
4648.650594,592.164754,-8656.879127,-148.041188
4648.650918,296.082377,-8273.831378,-370.102971
4648.651243,814.226536,-8197.221829,-148.041188
4648.651567,666.185348,-8350.440928,-370.102971
4648.651892,296.082377,-8656.879127,-370.102971
4648.652216,222.061783,-8350.440928,-518.144159
4648.652541,222.061783,-8580.269578,0.000000
4648.652865,888.247130,-8656.879127,-444.123565
4648.653190,444.123565,-8886.707777,-518.144159
4648.653514,518.144159,-8503.660028,-444.123565
4648.653838,296.082377,-8656.879127,-518.144159
4648.654163,592.164754,-8503.660028,-518.144159
4648.654487,518.144159,-8120.612279,-370.102971
4648.654812,592.164754,-8656.879127,0.000000
4648.655136,740.205942,-8503.660028,-444.123565
4648.655461,740.205942,-8656.879127,-814.226536
4648.655785,1258.350101,-8427.050478,0.000000
4648.656110,814.226536,-8580.269578,-296.082377
4648.656434,370.102971,-9116.536426,-148.041188
4648.656759,592.164754,-8273.831378,-592.164754
4648.657083,1036.288319,-7814.174080,74.020594
4648.657408,592.164754,-8963.317327,-518.144159
4648.657732,888.247130,-8656.879127,-592.164754
4648.658056,888.247130,-8580.269578,-592.164754
4648.658381,666.185348,-8810.098227,-592.164754
4648.658705,518.144159,-8810.098227,-444.123565
4648.659030,74.020594,-8886.707777,-888.247130
4648.659354,-222.061783,-8656.879127,-296.082377
4648.659679,-148.041188,-8810.098227,-296.082377
4648.660003,0.000000,-9039.926876,-296.082377
4648.660328,0.000000,-8427.050478,-740.205942
4648.660652,518.144159,-8580.269578,-370.102971
4648.660977,370.102971,-8580.269578,-666.185348
4648.661301,666.185348,-8120.612279,0.000000
4648.661626,518.144159,-8427.050478,-740.205942
4648.661950,296.082377,-8810.098227,-444.123565
4648.662274,370.102971,-8733.488677,-518.144159
4648.662599,74.020594,-8886.707777,-666.185348
4648.662923,518.144159,-8656.879127,0.000000
4648.663248,74.020594,-8810.098227,0.000000
4648.663572,592.164754,-8503.660028,-370.102971
4648.663897,592.164754,-8503.660028,-370.102971
4648.664221,962.267725,-9039.926876,0.000000
4648.664546,888.247130,-8886.707777,-222.061783
4648.664870,740.205942,-8197.221829,-296.082377
4648.665195,444.123565,-8886.707777,-370.102971
4648.665519,592.164754,-8273.831378,-444.123565
4648.665844,148.041188,-8810.098227,-296.082377
4648.666168,74.020594,-8427.050478,-148.041188
4648.666492,222.061783,-8197.221829,-148.041188
4648.666817,148.041188,-8810.098227,-148.041188
4648.667141,296.082377,-9039.926876,0.000000
4648.667466,592.164754,-8656.879127,-370.102971
4648.667790,592.164754,-8503.660028,-370.102971
4648.668115,296.082377,-8273.831378,-222.061783
4648.668439,518.144159,-8886.707777,0.000000
4648.668764,222.061783,-8427.050478,0.000000
4648.669088,296.082377,-8580.269578,-518.144159
4648.669413,370.102971,-8580.269578,-518.144159
4648.669737,0.000000,-8580.269578,-518.144159
4648.670062,518.144159,-8733.488677,-148.041188
4648.670386,592.164754,-8427.050478,-666.185348
4648.670710,444.123565,-8427.050478,-444.123565
4648.671035,592.164754,-8273.831378,-518.144159
4648.671359,1036.288319,-8580.269578,0.000000
4648.671684,592.164754,-8656.879127,-592.164754
4648.672008,666.185348,-8810.098227,-740.205942
4648.672333,740.205942,-8503.660028,-592.164754
4648.672657,296.082377,-8044.002729,-296.082377
4648.672982,444.123565,-8350.440928,-370.102971
4648.673306,222.061783,-8503.660028,-74.020594
4648.673631,222.061783,-8886.707777,0.000000
4648.673955,296.082377,-8656.879127,-444.123565
4648.674280,74.020594,-8810.098227,-370.102971
4648.674604,518.144159,-8810.098227,-592.164754
4648.674928,518.144159,-8580.269578,-592.164754
4648.675253,222.061783,-8503.660028,-592.164754
4648.675577,222.061783,-8503.660028,-296.082377
4648.675902,222.061783,-8580.269578,-592.164754
4648.676226,518.144159,-9039.926876,-444.123565
4648.676551,444.123565,-8503.660028,-888.247130
4648.676875,518.144159,-8427.050478,-296.082377
4648.677200,222.061783,-8197.221829,-814.226536
4648.677524,444.123565,-8733.488677,-666.185348
4648.677849,444.123565,-8350.440928,-666.185348
4648.678173,370.102971,-8733.488677,-740.205942
4648.678498,592.164754,-8197.221829,-888.247130
4648.678822,370.102971,-8886.707777,-888.247130
4648.679146,814.226536,-8810.098227,-1110.308913
4648.679471,592.164754,-8580.269578,-814.226536
4648.679795,444.123565,-8350.440928,-592.164754
4648.680120,518.144159,-8656.879127,-592.164754
4648.680444,518.144159,-8503.660028,-666.185348
4648.680769,592.164754,-8810.098227,-370.102971
4648.681093,518.144159,-8350.440928,-666.185348
4648.681418,814.226536,-8886.707777,-666.185348
4648.681742,740.205942,-8427.050478,-592.164754
4648.682067,370.102971,-8427.050478,-222.061783
4648.682391,296.082377,-8580.269578,-296.082377
4648.682716,370.102971,-8503.660028,-296.082377
4648.683040,370.102971,-8503.660028,0.000000
4648.683364,222.061783,-8656.879127,-222.061783
4648.683689,444.123565,-8656.879127,-222.061783
4648.684013,592.164754,-8503.660028,0.000000
4648.684338,444.123565,-8273.831378,74.020594
4648.684662,148.041188,-8580.269578,0.000000
4648.684987,444.123565,-8427.050478,-740.205942
4648.685311,370.102971,-8963.317327,0.000000
4648.685636,222.061783,-8044.002729,-370.102971
4648.685960,0.000000,-9116.536426,-222.061783
4648.686285,74.020594,-8427.050478,-518.144159
4648.686609,222.061783,-8273.831378,-296.082377
4648.686934,148.041188,-8197.221829,-370.102971
4648.687258,296.082377,-8350.440928,-592.164754
4648.687582,518.144159,-8580.269578,-148.041188
4648.687907,370.102971,-8580.269578,-148.041188
4648.688231,74.020594,-8427.050478,-518.144159
4648.688556,222.061783,-9039.926876,-444.123565
4648.688880,518.144159,-8580.269578,-222.061783
4648.689205,370.102971,-8427.050478,-296.082377
4648.689529,222.061783,-8503.660028,-222.061783
4648.689854,518.144159,-8427.050478,-592.164754
4648.690178,666.185348,-8810.098227,-222.061783
4648.690503,444.123565,-8656.879127,-370.102971
4648.690827,296.082377,-8810.098227,-296.082377
4648.691152,666.185348,-8580.269578,-444.123565
4648.691476,444.123565,-8503.660028,-444.123565
4648.691800,74.020594,-8503.660028,-148.041188
4648.692125,222.061783,-8656.879127,-518.144159
4648.692449,592.164754,-9193.145976,-296.082377
4648.692773,296.082377,-8350.440928,-592.164754
4648.693098,518.144159,-9422.974625,-296.082377
4648.693422,666.185348,-8580.269578,-814.226536
4648.693746,1036.288319,-8963.317327,-592.164754
4648.694071,666.185348,-8350.440928,-666.185348
4648.694395,518.144159,-8656.879127,-148.041188
4648.694719,370.102971,-8350.440928,-444.123565
4648.695044,592.164754,-8580.269578,-74.020594
4648.695368,444.123565,-8963.317327,-518.144159
4648.695692,592.164754,-8886.707777,-444.123565
4648.696017,518.144159,-8503.660028,-592.164754
4648.696341,444.123565,-8656.879127,-370.102971
4648.696665,518.144159,-8963.317327,-740.205942
4648.696990,370.102971,-8580.269578,-444.123565
4648.697314,814.226536,-8810.098227,-740.205942
4648.697638,666.185348,-8810.098227,-592.164754
4648.697963,296.082377,-8733.488677,-592.164754
4648.698287,444.123565,-9039.926876,0.000000
4648.698611,296.082377,-8273.831378,-592.164754
4648.698936,444.123565,-8810.098227,-296.082377
4648.699260,592.164754,-8580.269578,-296.082377
4648.699584,740.205942,-8810.098227,-148.041188
4648.699909,296.082377,-8733.488677,-592.164754
4648.700233,666.185348,-8503.660028,-148.041188
4648.700557,444.123565,-8503.660028,-444.123565
4648.700882,518.144159,-9193.145976,-370.102971
4648.701206,222.061783,-8197.221829,-370.102971
4648.701530,296.082377,-8273.831378,-148.041188
4648.701855,740.205942,-8350.440928,-592.164754
4648.702179,592.164754,-8503.660028,-518.144159
4648.702503,666.185348,-8656.879127,-962.267725
4648.702828,888.247130,-8350.440928,-518.144159
4648.703152,592.164754,-8427.050478,-666.185348
4648.703476,370.102971,-8350.440928,-592.164754
4648.703801,148.041188,-8120.612279,-444.123565
4648.704125,74.020594,-8580.269578,-814.226536
4648.704449,444.123565,-8810.098227,0.000000
4648.704773,296.082377,-8503.660028,-296.082377
4648.705098,296.082377,-9039.926876,-518.144159
4648.705422,518.144159,-8427.050478,-296.082377
4648.705746,444.123565,-8733.488677,-148.041188
4648.706071,592.164754,-8427.050478,-296.082377
4648.706395,370.102971,-7814.174080,0.000000
4648.706719,222.061783,-9346.365076,148.041188
4648.707044,0.000000,-8580.269578,-592.164754
4648.707368,518.144159,-8580.269578,-370.102971
4648.707692,74.020594,-8273.831378,0.000000
4648.708017,0.000000,-8350.440928,370.102971
4648.708341,222.061783,-8503.660028,0.000000
4648.708665,296.082377,-8350.440928,0.000000
4648.708990,148.041188,-8656.879127,0.000000
4648.709314,148.041188,-8427.050478,-444.123565
4648.709638,370.102971,-8503.660028,-444.123565
4648.709963,370.102971,-8427.050478,0.000000
4648.710287,148.041188,-8503.660028,-370.102971
4648.710611,444.123565,-8580.269578,-222.061783
4648.710936,740.205942,-8044.002729,-740.205942
4648.711260,222.061783,-8886.707777,-148.041188
4648.711584,222.061783,-8580.269578,0.000000
4648.711909,296.082377,-8886.707777,-592.164754
4648.712233,666.185348,-8427.050478,-370.102971
4648.712557,370.102971,-8503.660028,-222.061783
4648.712882,444.123565,-8733.488677,-370.102971
4648.713206,518.144159,-7890.783629,-370.102971
4648.713530,592.164754,-8273.831378,-148.041188
4648.713855,888.247130,-9116.536426,0.000000
4648.714179,370.102971,-8656.879127,-370.102971
4648.714503,518.144159,-8733.488677,-370.102971
4648.714828,518.144159,-8350.440928,-148.041188
4648.715152,740.205942,-9039.926876,0.000000
4648.715476,296.082377,-8810.098227,-148.041188
4648.715801,444.123565,-8810.098227,0.000000
4648.716125,666.185348,-8733.488677,-296.082377
4648.716449,740.205942,-8886.707777,0.000000
4648.716774,592.164754,-8503.660028,-296.082377
4648.717098,740.205942,-8733.488677,0.000000
4648.717422,444.123565,-8503.660028,-444.123565
4648.717747,666.185348,-8580.269578,-370.102971
4648.718071,592.164754,-8197.221829,-444.123565
4648.718395,370.102971,-8886.707777,74.020594
4648.718720,518.144159,-8656.879127,-592.164754
4648.719044,296.082377,-8886.707777,-296.082377
4648.719368,888.247130,-8044.002729,0.000000
4648.719693,296.082377,-8963.317327,-518.144159
4648.720017,592.164754,-8656.879127,-296.082377
4648.720341,296.082377,-7890.783629,0.000000
4648.720666,592.164754,-9039.926876,74.020594
4648.720990,148.041188,-8503.660028,-370.102971
4648.721314,518.144159,-8810.098227,-370.102971
4648.721639,592.164754,-8810.098227,-148.041188
4648.721963,222.061783,-8427.050478,-370.102971
4648.722287,148.041188,-8503.660028,0.000000
4648.722612,74.020594,-8503.660028,-222.061783
4648.722936,296.082377,-8503.660028,-296.082377
4648.723260,296.082377,-8503.660028,-370.102971
4648.723585,518.144159,-8197.221829,444.123565
4648.723909,148.041188,-8503.660028,0.000000
4648.724233,370.102971,-8350.440928,-222.061783
4648.724558,148.041188,-8273.831378,0.000000
4648.724882,296.082377,-8733.488677,-296.082377
4648.725206,296.082377,-8580.269578,-592.164754
4648.725531,148.041188,-8503.660028,-296.082377
4648.725855,222.061783,-8886.707777,-370.102971
4648.726179,444.123565,-8656.879127,-592.164754
4648.726504,814.226536,-8503.660028,-370.102971
4648.726828,592.164754,-8656.879127,-740.205942
4648.727152,592.164754,-8120.612279,-296.082377
4648.727477,74.020594,-8350.440928,-296.082377
4648.727801,814.226536,-8656.879127,-222.061783
4648.728125,296.082377,-8427.050478,-370.102971
4648.728450,444.123565,-8656.879127,-518.144159
4648.728774,518.144159,-8810.098227,-296.082377
4648.729098,74.020594,-8580.269578,-296.082377
4648.729423,444.123565,-8427.050478,0.000000
4648.729747,148.041188,-8197.221829,-148.041188
4648.730071,222.061783,-8656.879127,0.000000
4648.730396,444.123565,-8886.707777,-222.061783
4648.730720,740.205942,-8273.831378,-296.082377
4648.731044,666.185348,-8810.098227,-296.082377
4648.731369,592.164754,-8656.879127,-222.061783
4648.731693,814.226536,-8503.660028,-296.082377
4648.732017,1110.308913,-8810.098227,-296.082377
4648.732342,370.102971,-8350.440928,222.061783
4648.732666,666.185348,-8733.488677,-148.041188
4648.732990,518.144159,-8656.879127,-370.102971
4648.733315,296.082377,-8733.488677,-592.164754
4648.733639,518.144159,-8963.317327,-370.102971
4648.733963,444.123565,-8427.050478,-148.041188
4648.734288,518.144159,-8427.050478,-370.102971
4648.734612,444.123565,-8580.269578,-370.102971
4648.734936,814.226536,-8656.879127,-222.061783
4648.735260,592.164754,-8886.707777,-518.144159
4648.735585,444.123565,-8733.488677,-888.247130
4648.735909,518.144159,-8810.098227,0.000000
4648.736233,370.102971,-7814.174080,-148.041188
4648.736558,518.144159,-8580.269578,-444.123565
4648.736882,0.000000,-8886.707777,-222.061783
4648.737206,444.123565,-8810.098227,0.000000
4648.737531,296.082377,-8580.269578,-222.061783
4648.737855,592.164754,-8733.488677,-444.123565
4648.738179,592.164754,-8656.879127,-518.144159
4648.738504,592.164754,-8580.269578,0.000000
4648.738828,444.123565,-8810.098227,-444.123565
4648.739152,296.082377,-8273.831378,0.000000
4648.739477,444.123565,-8733.488677,0.000000
4648.739801,370.102971,-9269.755526,-296.082377
4648.740125,296.082377,-8963.317327,0.000000
4648.740450,370.102971,-8733.488677,-222.061783
4648.740774,518.144159,-8810.098227,0.000000
4648.741098,296.082377,-8350.440928,0.000000
4648.741423,296.082377,-8733.488677,-148.041188
4648.741747,222.061783,-8273.831378,0.000000
4648.742071,222.061783,-8733.488677,0.000000
4648.742396,518.144159,-8886.707777,-222.061783
4648.742720,296.082377,-8886.707777,0.000000
4648.743044,370.102971,-8886.707777,0.000000
4648.743369,370.102971,-8273.831378,-444.123565
4648.743693,222.061783,-8273.831378,-222.061783
4648.744017,148.041188,-8580.269578,-74.020594
4648.744342,222.061783,-8350.440928,0.000000
4648.744666,370.102971,-8580.269578,0.000000
4648.744990,518.144159,-8503.660028,-518.144159
4648.745315,666.185348,-8656.879127,0.000000
4648.745639,740.205942,-7967.393179,-444.123565
4648.745963,444.123565,-8810.098227,0.000000
4648.746288,518.144159,-8350.440928,-148.041188
4648.746612,222.061783,-8273.831378,74.020594
4648.746936,444.123565,-8963.317327,-370.102971
4648.747261,296.082377,-8503.660028,-518.144159
4648.747585,592.164754,-9652.803275,-148.041188
4648.747909,666.185348,-8580.269578,0.000000
4648.748234,518.144159,-8427.050478,0.000000
4648.748558,296.082377,-8810.098227,-370.102971
4648.748882,518.144159,-8197.221829,0.000000
4648.749207,148.041188,-8810.098227,-370.102971
4648.749531,518.144159,-8503.660028,-518.144159
4648.749855,518.144159,-8580.269578,-370.102971
4648.750180,222.061783,-8733.488677,-148.041188
4648.750504,74.020594,-9039.926876,0.000000
4648.750828,370.102971,-8273.831378,-518.144159
4648.751153,666.185348,-8810.098227,-222.061783
4648.751477,370.102971,-8503.660028,-370.102971
4648.751801,814.226536,-9806.022374,-370.102971
4648.752126,666.185348,-8656.879127,-888.247130
4648.752450,814.226536,-8503.660028,-296.082377
4648.752774,296.082377,-8656.879127,-814.226536
4648.753099,444.123565,-8656.879127,-222.061783
4648.753423,370.102971,-8120.612279,-518.144159
4648.753747,296.082377,-9039.926876,-444.123565
4648.754072,518.144159,-8580.269578,-666.185348
4648.754396,296.082377,-9269.755526,-888.247130
4648.754720,888.247130,-8810.098227,-592.164754
4648.755045,666.185348,-8197.221829,-222.061783
4648.755369,148.041188,-8656.879127,-370.102971
4648.755693,370.102971,-8656.879127,-666.185348
4648.756018,444.123565,-8580.269578,-518.144159
4648.756342,370.102971,-9116.536426,-666.185348
4648.756666,370.102971,-8656.879127,-888.247130
4648.756991,592.164754,-8963.317327,-518.144159
4648.757315,518.144159,-8580.269578,-518.144159
4648.757639,74.020594,-8733.488677,-518.144159
4648.757964,222.061783,-8810.098227,-888.247130
4648.758288,222.061783,-7967.393179,-222.061783
4648.758612,370.102971,-8427.050478,-296.082377
4648.758937,444.123565,-8503.660028,-814.226536
4648.759261,370.102971,-8197.221829,-666.185348
4648.759585,740.205942,-8350.440928,-592.164754
4648.759910,74.020594,-8350.440928,-740.205942
4648.760234,444.123565,-8503.660028,-444.123565
4648.760558,518.144159,-8273.831378,-444.123565
4648.760883,74.020594,-8733.488677,-296.082377
4648.761207,148.041188,-8656.879127,-740.205942
4648.761531,222.061783,-8503.660028,-296.082377
4648.761856,444.123565,-8427.050478,444.123565
4648.762180,518.144159,-8810.098227,-296.082377
4648.762504,444.123565,-8427.050478,-222.061783
4648.762829,444.123565,-8656.879127,74.020594
4648.763153,148.041188,-9269.755526,148.041188
4648.763477,666.185348,-8656.879127,0.000000
4648.763802,518.144159,-8886.707777,0.000000
4648.764126,592.164754,-8503.660028,148.041188
4648.764450,444.123565,-8580.269578,-74.020594
4648.764774,370.102971,-8656.879127,0.000000
4648.765099,814.226536,-8350.440928,148.041188
4648.765423,296.082377,-8427.050478,74.020594
4648.765747,296.082377,-8656.879127,-148.041188
4648.766072,296.082377,-8733.488677,296.082377
4648.766396,592.164754,-8580.269578,-518.144159
4648.766720,370.102971,-8656.879127,0.000000
4648.767045,0.000000,-8733.488677,0.000000
4648.767369,74.020594,-8580.269578,-296.082377
4648.767693,222.061783,-8580.269578,-222.061783
4648.768018,74.020594,-8656.879127,-370.102971
4648.768342,444.123565,-8733.488677,-518.144159
4648.768666,592.164754,-8733.488677,-444.123565
4648.768991,74.020594,-8350.440928,-222.061783
4648.769315,444.123565,-8503.660028,-370.102971
4648.769639,444.123565,-8044.002729,-592.164754
4648.769964,444.123565,-8427.050478,-592.164754
4648.770288,740.205942,-8580.269578,-592.164754
4648.770612,740.205942,-8580.269578,-592.164754
4648.770937,518.144159,-8273.831378,-666.185348
4648.771261,666.185348,-8503.660028,-444.123565
4648.771585,518.144159,-8580.269578,-740.205942
4648.771910,592.164754,-8427.050478,-740.205942
4648.772234,962.267725,-8273.831378,-222.061783
4648.772558,518.144159,-8580.269578,-444.123565
4648.772883,444.123565,-8580.269578,-740.205942
4648.773207,296.082377,-8733.488677,-444.123565
4648.773531,888.247130,-8580.269578,-518.144159
4648.773856,222.061783,-8733.488677,-518.144159
4648.774180,222.061783,-8886.707777,-444.123565
4648.774504,222.061783,-7584.345430,0.000000
4648.774829,370.102971,-8427.050478,-666.185348
4648.775153,370.102971,-8963.317327,-740.205942
4648.775477,518.144159,-8963.317327,-444.123565
4648.775802,740.205942,-8273.831378,-444.123565
4648.776126,370.102971,-8656.879127,-666.185348
4648.776450,592.164754,-8273.831378,-518.144159
4648.776775,296.082377,-8273.831378,-296.082377
4648.777099,592.164754,-8963.317327,0.000000
4648.777423,370.102971,-8120.612279,-148.041188
4648.777748,592.164754,-8656.879127,-592.164754
4648.778072,518.144159,-8886.707777,-592.164754
4648.778396,518.144159,-8350.440928,-592.164754
4648.778721,888.247130,-9193.145976,0.000000
4648.779045,740.205942,-8120.612279,-592.164754
4648.779369,666.185348,-8503.660028,0.000000
4648.779694,518.144159,-8886.707777,-592.164754
4648.780018,444.123565,-8733.488677,-740.205942
4648.780342,740.205942,-8580.269578,-518.144159
4648.780667,444.123565,-8580.269578,-444.123565
4648.780991,222.061783,-8733.488677,-296.082377
4648.781315,444.123565,-8273.831378,-518.144159
4648.781640,370.102971,-8733.488677,-370.102971
4648.781964,296.082377,-8503.660028,0.000000
4648.782288,222.061783,-8656.879127,-444.123565
4648.782613,222.061783,-8733.488677,-444.123565
4648.782937,148.041188,-8044.002729,-370.102971
4648.783261,0.000000,-8656.879127,-148.041188
4648.783586,74.020594,-8273.831378,-370.102971
4648.783910,148.041188,-8350.440928,-518.144159
4648.784234,74.020594,-8503.660028,-222.061783
4648.784559,222.061783,-8273.831378,-222.061783
4648.784883,518.144159,-8656.879127,-444.123565
4648.785207,296.082377,-8273.831378,-444.123565
4648.785532,518.144159,-8733.488677,-444.123565
4648.785856,666.185348,-8350.440928,-222.061783
4648.786180,370.102971,-8044.002729,-296.082377
4648.786505,222.061783,-8810.098227,0.000000
4648.786829,370.102971,-8273.831378,-370.102971
4648.787153,1036.288319,-9116.536426,-592.164754
4648.787478,814.226536,-8503.660028,-444.123565
4648.787802,518.144159,-8580.269578,0.000000
4648.788126,592.164754,-8580.269578,-148.041188
4648.788451,814.226536,-8427.050478,-222.061783
4648.788775,740.205942,-8273.831378,-222.061783
4648.789099,518.144159,-8886.707777,-666.185348
4648.789424,444.123565,-8963.317327,-148.041188
4648.789748,148.041188,-8886.707777,-370.102971
4648.790072,370.102971,-10112.460574,-444.123565
4648.790397,222.061783,-8886.707777,0.000000
4648.790721,222.061783,-8656.879127,-370.102971
4648.791045,518.144159,-8580.269578,-444.123565
4648.791370,518.144159,-8810.098227,-148.041188
4648.791694,222.061783,-9193.145976,-222.061783
4648.792018,296.082377,-8733.488677,-740.205942
4648.792343,444.123565,-8656.879127,-518.144159
4648.792667,370.102971,-8810.098227,-518.144159
4648.792991,518.144159,-8197.221829,-222.061783
4648.793316,74.020594,-8427.050478,-296.082377
4648.793640,370.102971,-8656.879127,-148.041188
4648.793965,222.061783,-8427.050478,-370.102971
4648.794289,740.205942,-8886.707777,-962.267725
4648.794614,740.205942,-8197.221829,-592.164754
4648.794938,444.123565,-8886.707777,-444.123565
4648.795262,592.164754,-8273.831378,-592.164754
4648.795587,370.102971,-8197.221829,-592.164754
4648.795911,370.102971,-8733.488677,-518.144159
4648.796236,518.144159,-8886.707777,-444.123565
4648.796560,370.102971,-9116.536426,-592.164754
4648.796885,148.041188,-8656.879127,-518.144159
4648.797209,444.123565,-8810.098227,-370.102971
4648.797533,222.061783,-8656.879127,-148.041188
4648.797858,370.102971,-8427.050478,-888.247130
4648.798182,592.164754,-8656.879127,-444.123565
4648.798507,518.144159,-9729.412825,-444.123565
4648.798831,888.247130,-8733.488677,-518.144159
4648.799155,518.144159,-8656.879127,-592.164754
4648.799480,444.123565,-8886.707777,-444.123565
4648.799804,518.144159,-8580.269578,-444.123565
4648.800129,296.082377,-8810.098227,-296.082377
4648.800453,444.123565,-8273.831378,-370.102971
4648.800778,740.205942,-8656.879127,-666.185348
4648.801102,518.144159,-8580.269578,-888.247130
4648.801426,592.164754,-8886.707777,-296.082377
4648.801751,444.123565,-8350.440928,-518.144159
4648.802075,444.123565,-8733.488677,-370.102971
4648.802400,296.082377,-8503.660028,-518.144159
4648.802724,148.041188,-8503.660028,-444.123565
4648.803049,222.061783,-8580.269578,-370.102971
4648.803373,370.102971,-8580.269578,-370.102971
4648.803697,370.102971,-8733.488677,-518.144159
4648.804022,222.061783,-8656.879127,-444.123565
4648.804346,74.020594,-8427.050478,-296.082377
4648.804671,370.102971,-8580.269578,-370.102971
4648.804995,592.164754,-8197.221829,-666.185348
4648.805319,370.102971,-8350.440928,0.000000
4648.805644,740.205942,-8350.440928,-518.144159
4648.805968,222.061783,-8273.831378,-740.205942
4648.806293,666.185348,-8580.269578,-740.205942
4648.806617,370.102971,-8350.440928,-518.144159
4648.806942,148.041188,-8273.831378,-518.144159
4648.807266,370.102971,-8350.440928,-814.226536
4648.807590,0.000000,-8197.221829,-666.185348
4648.807915,518.144159,-8810.098227,-444.123565
4648.808239,518.144159,-8427.050478,-740.205942
4648.808564,592.164754,-9193.145976,-592.164754
4648.808888,444.123565,-8427.050478,-370.102971
4648.809213,296.082377,-8886.707777,-370.102971
4648.809537,222.061783,-8427.050478,-592.164754
4648.809861,444.123565,-8580.269578,-666.185348
4648.810186,518.144159,-8886.707777,-370.102971
4648.810510,518.144159,-8656.879127,0.000000
4648.810835,296.082377,-9039.926876,-370.102971
4648.811159,518.144159,-8733.488677,0.000000
4648.811483,592.164754,-8427.050478,0.000000
4648.811808,666.185348,-8580.269578,74.020594
4648.812132,592.164754,-8044.002729,0.000000
4648.812457,592.164754,-8733.488677,0.000000
4648.812781,74.020594,-8656.879127,148.041188
4648.813106,296.082377,-8656.879127,-370.102971
4648.813430,518.144159,-8580.269578,-222.061783
4648.813754,444.123565,-8580.269578,148.041188
4648.814079,666.185348,-9193.145976,-296.082377
4648.814403,148.041188,-8886.707777,-296.082377
4648.814728,370.102971,-8273.831378,148.041188
4648.815052,666.185348,-8733.488677,0.000000
4648.815377,518.144159,-8580.269578,-148.041188
4648.815701,666.185348,-8580.269578,-222.061783
4648.816025,814.226536,-8273.831378,0.000000
4648.816350,370.102971,-8580.269578,0.000000
4648.816674,296.082377,-8350.440928,-222.061783
4648.816999,1184.329507,-8733.488677,0.000000
4648.817323,370.102971,-8580.269578,0.000000
4648.817647,148.041188,-8733.488677,0.000000
4648.817972,444.123565,-8810.098227,-370.102971
4648.818296,592.164754,-8503.660028,0.000000
4648.818621,518.144159,-8733.488677,-296.082377
4648.818945,222.061783,-8350.440928,-296.082377
4648.819270,296.082377,-8580.269578,-148.041188
4648.819594,222.061783,-8886.707777,-370.102971
4648.819918,296.082377,-9116.536426,-444.123565
4648.820243,370.102971,-9116.536426,-592.164754
4648.820567,666.185348,-8427.050478,-296.082377
4648.820892,444.123565,-8427.050478,-222.061783
4648.821216,592.164754,-8886.707777,-444.123565
4648.821541,518.144159,-8503.660028,-222.061783
4648.821865,222.061783,-8580.269578,-370.102971
4648.822189,518.144159,-8656.879127,-370.102971
4648.822514,592.164754,-9193.145976,74.020594
4648.822838,370.102971,-8580.269578,-296.082377
4648.823163,370.102971,-8580.269578,-222.061783
4648.823487,518.144159,-8580.269578,-370.102971
4648.823811,0.000000,-8503.660028,-296.082377
4648.824136,666.185348,-8886.707777,0.000000
4648.824460,296.082377,-8656.879127,-666.185348
4648.824785,222.061783,-8886.707777,-370.102971
4648.825109,296.082377,-8427.050478,-518.144159
4648.825434,222.061783,-9269.755526,148.041188
4648.825758,296.082377,-8350.440928,-740.205942
4648.826082,370.102971,-8427.050478,-370.102971
4648.826407,222.061783,-8427.050478,-592.164754
4648.826731,296.082377,-8810.098227,-592.164754
4648.827056,592.164754,-8656.879127,-740.205942
4648.827380,666.185348,-8733.488677,-518.144159
4648.827705,444.123565,-8350.440928,-592.164754
4648.828029,444.123565,-8656.879127,-370.102971
4648.828353,814.226536,-8197.221829,-518.144159
4648.828678,592.164754,-8197.221829,-370.102971
4648.829002,592.164754,-8427.050478,-148.041188
4648.829327,740.205942,-8427.050478,-222.061783
4648.829651,1406.391290,-9039.926876,-518.144159
4648.829975,592.164754,-8427.050478,-444.123565
4648.830300,666.185348,-8197.221829,-148.041188
4648.830624,296.082377,-8273.831378,-370.102971
4648.830949,592.164754,-8580.269578,-444.123565
4648.831273,518.144159,-8273.831378,0.000000
4648.831598,222.061783,-8733.488677,-296.082377
4648.831922,74.020594,-8656.879127,-666.185348
4648.832246,444.123565,-8580.269578,-888.247130
4648.832571,518.144159,-9193.145976,-222.061783
4648.832895,444.123565,-8580.269578,-370.102971
4648.833220,74.020594,-8656.879127,-370.102971
4648.833544,296.082377,-8656.879127,-444.123565
4648.833869,518.144159,-8350.440928,-444.123565
4648.834193,444.123565,-9193.145976,-814.226536
4648.834517,444.123565,-8427.050478,-740.205942
4648.834842,296.082377,-8427.050478,0.000000
4648.835166,74.020594,-8810.098227,-296.082377
4648.835491,148.041188,-8656.879127,-444.123565
4648.835815,296.082377,-8120.612279,-296.082377
4648.836139,0.000000,-8810.098227,-74.020594
4648.836464,370.102971,-8963.317327,0.000000
4648.836788,444.123565,-8580.269578,-148.041188
4648.837113,444.123565,-8963.317327,0.000000
4648.837437,370.102971,-8733.488677,0.000000
4648.837762,148.041188,-8963.317327,-296.082377
4648.838086,592.164754,-8733.488677,148.041188
4648.838410,518.144159,-8656.879127,0.000000
4648.838735,148.041188,-9193.145976,-74.020594
4648.839059,370.102971,-8886.707777,-740.205942
4648.839384,444.123565,-8733.488677,-370.102971
4648.839708,592.164754,-8963.317327,-296.082377
4648.840033,370.102971,-8656.879127,-222.061783
4648.840357,296.082377,-8350.440928,-370.102971
4648.840681,222.061783,-8427.050478,0.000000
4648.841006,740.205942,-8503.660028,0.000000
4648.841330,592.164754,-8503.660028,-370.102971
4648.841655,592.164754,-8273.831378,0.000000
4648.841979,370.102971,-8810.098227,0.000000
4648.842303,444.123565,-7660.954980,-222.061783
4648.842628,296.082377,-8197.221829,-370.102971
4648.842952,518.144159,-8350.440928,-148.041188
4648.843277,296.082377,-8580.269578,0.000000
4648.843601,370.102971,-8427.050478,-222.061783
4648.843926,444.123565,-8503.660028,-370.102971
4648.844250,592.164754,-8350.440928,0.000000
4648.844574,370.102971,-8503.660028,-148.041188
4648.844899,740.205942,-8733.488677,0.000000
4648.845223,444.123565,-7967.393179,296.082377
4648.845548,740.205942,-8733.488677,0.000000
4648.845872,592.164754,-8656.879127,0.000000
4648.846197,666.185348,-8733.488677,0.000000
4648.846521,962.267725,-8733.488677,0.000000
4648.846845,592.164754,-8580.269578,0.000000
4648.847170,370.102971,-8580.269578,0.000000
4648.847494,518.144159,-8273.831378,-222.061783
4648.847819,444.123565,-8656.879127,0.000000
4648.848143,296.082377,-8963.317327,-222.061783
4648.848467,296.082377,-8810.098227,-296.082377
4648.848792,74.020594,-8503.660028,-296.082377
4648.849116,0.000000,-8810.098227,-370.102971
4648.849441,222.061783,-9269.755526,-444.123565
4648.849765,0.000000,-8733.488677,-222.061783
4648.850090,222.061783,-8733.488677,0.000000
4648.850414,222.061783,-8810.098227,-222.061783
4648.850738,222.061783,-8886.707777,-518.144159
4648.851063,296.082377,-8350.440928,-518.144159
4648.851387,0.000000,-8656.879127,-296.082377
4648.851712,74.020594,-8580.269578,-370.102971
4648.852036,148.041188,-8044.002729,-296.082377
4648.852361,0.000000,-8350.440928,-370.102971
4648.852685,0.000000,-8656.879127,-518.144159
4648.853009,370.102971,-8656.879127,-296.082377
4648.853334,888.247130,-8503.660028,-740.205942
4648.853658,814.226536,-8656.879127,-740.205942
4648.853983,814.226536,-8810.098227,-518.144159
4648.854307,444.123565,-8427.050478,-666.185348
4648.854631,222.061783,-8733.488677,-518.144159
4648.854956,296.082377,-8580.269578,-518.144159
4648.855280,296.082377,-8733.488677,-740.205942
4648.855605,222.061783,-8656.879127,-370.102971
4648.855929,296.082377,-8580.269578,-518.144159
4648.856254,518.144159,-8886.707777,-222.061783
4648.856578,518.144159,-8427.050478,-518.144159
4648.856902,666.185348,-8580.269578,-444.123565
4648.857227,518.144159,-8503.660028,0.000000
4648.857551,296.082377,-8733.488677,-296.082377
4648.857876,740.205942,-9652.803275,-222.061783
4648.858200,148.041188,-7890.783629,-296.082377
4648.858525,370.102971,-8886.707777,-370.102971
4648.858849,518.144159,-8044.002729,-370.102971
4648.859173,518.144159,-8197.221829,-148.041188
4648.859498,370.102971,-8963.317327,0.000000
4648.859822,518.144159,-8580.269578,0.000000
4648.860147,666.185348,-8656.879127,-222.061783
4648.860471,592.164754,-8427.050478,0.000000
4648.860795,222.061783,-9269.755526,222.061783
4648.861120,666.185348,-8580.269578,-148.041188
4648.861444,370.102971,-8197.221829,-296.082377
4648.861769,370.102971,-8580.269578,0.000000
4648.862093,444.123565,-8886.707777,-296.082377
4648.862418,370.102971,-8656.879127,0.000000
4648.862742,592.164754,-8656.879127,-370.102971
4648.863066,444.123565,-8580.269578,-222.061783
4648.863391,518.144159,-8273.831378,74.020594
4648.863715,74.020594,-8273.831378,-370.102971
4648.864040,518.144159,-8427.050478,0.000000
4648.864364,222.061783,-8810.098227,0.000000
4648.864689,296.082377,-9193.145976,-444.123565
4648.865013,370.102971,-8886.707777,-740.205942
4648.865337,0.000000,-8503.660028,-296.082377
4648.865662,0.000000,-8656.879127,-222.061783
4648.865986,148.041188,-8273.831378,0.000000
4648.866311,74.020594,-8810.098227,-370.102971
4648.866635,296.082377,-8197.221829,-296.082377
4648.866960,296.082377,-8886.707777,-222.061783
4648.867284,518.144159,-8733.488677,-1184.329507
4648.867608,740.205942,-8427.050478,-518.144159
4648.867933,666.185348,-8580.269578,0.000000
4648.868257,296.082377,-8580.269578,-296.082377
4648.868582,0.000000,-8197.221829,-518.144159
4648.868906,222.061783,-8963.317327,-296.082377
4648.869230,444.123565,-8044.002729,-370.102971
4648.869555,518.144159,-8886.707777,-814.226536
4648.869879,370.102971,-8580.269578,-592.164754
4648.870204,444.123565,-8503.660028,-518.144159
4648.870528,148.041188,-8580.269578,-666.185348
4648.870853,370.102971,-8350.440928,-740.205942
4648.871177,148.041188,-8427.050478,-74.020594
4648.871501,296.082377,-8963.317327,-444.123565
4648.871826,296.082377,-8656.879127,-666.185348
4648.872150,148.041188,-8120.612279,-222.061783
4648.872475,222.061783,-8503.660028,-518.144159
4648.872799,370.102971,-8503.660028,-296.082377
4648.873124,222.061783,-8810.098227,-296.082377
4648.873448,296.082377,-8427.050478,-518.144159
4648.873772,592.164754,-8656.879127,-666.185348
4648.874097,592.164754,-8656.879127,-962.267725
4648.874421,962.267725,-8273.831378,-666.185348
4648.874746,740.205942,-8427.050478,-222.061783
4648.875070,592.164754,-8350.440928,-222.061783
4648.875394,592.164754,-8427.050478,-148.041188
4648.875719,518.144159,-8120.612279,-814.226536
4648.876043,666.185348,-8886.707777,-222.061783
4648.876368,888.247130,-8120.612279,-592.164754
4648.876692,518.144159,-9039.926876,-666.185348
4648.877017,888.247130,-8273.831378,-666.185348
4648.877341,888.247130,-8197.221829,-370.102971
4648.877665,518.144159,-8350.440928,-592.164754
4648.877990,814.226536,-8503.660028,-444.123565
4648.878314,592.164754,-8273.831378,-296.082377
4648.878639,888.247130,-8656.879127,-592.164754
4648.878963,444.123565,-8810.098227,-888.247130
4648.879288,962.267725,-8733.488677,-592.164754
4648.879612,518.144159,-8427.050478,-296.082377
4648.879936,962.267725,-8503.660028,-444.123565
4648.880261,444.123565,-8580.269578,-518.144159
4648.880585,740.205942,-8733.488677,-370.102971
4648.880910,518.144159,-8580.269578,-370.102971
4648.881234,518.144159,-8810.098227,-444.123565
4648.881558,592.164754,-8503.660028,-666.185348
4648.881883,444.123565,-8273.831378,-518.144159
4648.882207,74.020594,-8656.879127,-592.164754
4648.882532,74.020594,-8580.269578,-666.185348
4648.882856,148.041188,-8656.879127,-740.205942
4648.883181,148.041188,-8427.050478,-444.123565
4648.883505,74.020594,-8963.317327,-444.123565
4648.883829,148.041188,-8810.098227,-444.123565
4648.884154,222.061783,-8350.440928,-370.102971
4648.884478,518.144159,-8656.879127,-592.164754
4648.884803,592.164754,-7737.564530,-222.061783
4648.885127,370.102971,-8427.050478,-370.102971
4648.885452,296.082377,-8656.879127,74.020594
4648.885776,74.020594,-8580.269578,-518.144159
4648.886100,74.020594,-8886.707777,-370.102971
4648.886425,592.164754,-8656.879127,-222.061783
4648.886749,518.144159,-8427.050478,0.000000
4648.887074,518.144159,-8580.269578,0.000000
4648.887398,666.185348,-8733.488677,0.000000
4648.887722,666.185348,-8810.098227,148.041188
4648.888047,444.123565,-9039.926876,0.000000
4648.888371,370.102971,-8963.317327,148.041188
4648.888696,148.041188,-8810.098227,-296.082377
4648.889020,518.144159,-8963.317327,-148.041188
4648.889345,74.020594,-8580.269578,0.000000
4648.889669,296.082377,-8656.879127,0.000000
4648.889993,370.102971,-8427.050478,0.000000
4648.890318,444.123565,-8503.660028,0.000000
4648.890642,74.020594,-8886.707777,74.020594
4648.890967,592.164754,-8427.050478,-296.082377
4648.891291,666.185348,-8427.050478,0.000000
4648.891616,148.041188,-8580.269578,0.000000
4648.891940,518.144159,-8120.612279,444.123565
4648.892264,222.061783,-8273.831378,-222.061783
4648.892589,296.082377,-8350.440928,370.102971
4648.892913,370.102971,-8427.050478,-296.082377
4648.893238,518.144159,-7814.174080,-222.061783
4648.893562,814.226536,-8350.440928,0.000000
4648.893886,888.247130,-8503.660028,0.000000
4648.894211,148.041188,-8580.269578,-370.102971
4648.894535,592.164754,-8120.612279,-296.082377
4648.894860,74.020594,-8580.269578,-148.041188
4648.895184,222.061783,-8733.488677,-296.082377
4648.895509,370.102971,-8656.879127,-740.205942
4648.895833,296.082377,-8886.707777,-74.020594
4648.896157,592.164754,-9269.755526,-296.082377
4648.896482,666.185348,-8580.269578,-518.144159
4648.896806,444.123565,-8427.050478,-666.185348
4648.897131,814.226536,-8427.050478,0.000000
4648.897455,518.144159,-8656.879127,-740.205942
4648.897779,518.144159,-9039.926876,-740.205942
4648.898104,666.185348,-8273.831378,-518.144159
4648.898428,370.102971,-8580.269578,-740.205942
4648.898753,370.102971,-8656.879127,-666.185348
4648.899077,0.000000,-8120.612279,-370.102971
4648.899402,296.082377,-8656.879127,-666.185348
4648.899726,222.061783,-8656.879127,-888.247130
4648.900050,222.061783,-9039.926876,-740.205942
4648.900375,222.061783,-8656.879127,-1332.370696
4648.900699,370.102971,-8580.269578,-518.144159
4648.901024,296.082377,-8656.879127,-888.247130
4648.901348,444.123565,-8810.098227,-888.247130
4648.901673,370.102971,-8273.831378,-962.267725
4648.901997,296.082377,-8963.317327,-444.123565
4648.902321,592.164754,-8886.707777,-666.185348
4648.902646,444.123565,-9039.926876,-740.205942
4648.902970,518.144159,-8810.098227,-592.164754
4648.903295,370.102971,-8580.269578,-518.144159
4648.903619,444.123565,-8733.488677,-592.164754
4648.903943,370.102971,-8350.440928,-370.102971
4648.904268,370.102971,-8350.440928,-148.041188
4648.904592,444.123565,-9422.974625,-962.267725
4648.904917,666.185348,-8810.098227,-740.205942
4648.905241,814.226536,-8427.050478,-370.102971
4648.905566,592.164754,-8580.269578,-666.185348
4648.905890,444.123565,-8350.440928,-222.061783
4648.906214,148.041188,-8427.050478,-444.123565
4648.906539,370.102971,-8350.440928,-148.041188
4648.906863,148.041188,-8503.660028,-592.164754
4648.907188,148.041188,-8656.879127,-444.123565
4648.907512,74.020594,-8427.050478,148.041188
4648.907836,518.144159,-8503.660028,-296.082377
4648.908161,666.185348,-8273.831378,-518.144159
4648.908485,666.185348,-8350.440928,-518.144159
4648.908810,814.226536,-8810.098227,-518.144159
4648.909134,592.164754,-8580.269578,-74.020594
4648.909459,370.102971,-8810.098227,-148.041188
4648.909783,444.123565,-8810.098227,-518.144159
4648.910107,666.185348,-8350.440928,-222.061783
4648.910432,148.041188,-8350.440928,0.000000
4648.910756,444.123565,-8350.440928,-148.041188
4648.911081,666.185348,-8197.221829,-222.061783
4648.911405,666.185348,-8503.660028,-222.061783
4648.911730,370.102971,-8810.098227,-222.061783
4648.912054,592.164754,-8733.488677,-740.205942
4648.912378,592.164754,-8427.050478,-444.123565
4648.912703,370.102971,-8656.879127,148.041188
4648.913027,148.041188,-8580.269578,-148.041188
4648.913352,222.061783,-8503.660028,-296.082377
4648.913676,222.061783,-8503.660028,0.000000
4648.914000,148.041188,-8580.269578,-296.082377
4648.914325,740.205942,-9039.926876,-296.082377
4648.914649,592.164754,-8503.660028,-296.082377
4648.914974,296.082377,-8886.707777,0.000000
4648.915298,518.144159,-8044.002729,-518.144159
4648.915623,444.123565,-8810.098227,-592.164754
4648.915947,518.144159,-8810.098227,222.061783
4648.916271,0.000000,-8503.660028,-222.061783
4648.916596,296.082377,-9193.145976,74.020594
4648.916920,444.123565,-8273.831378,-666.185348
4648.917245,518.144159,-8733.488677,-222.061783
4648.917569,296.082377,-8427.050478,-592.164754
4648.917893,74.020594,-8044.002729,-74.020594
4648.918218,74.020594,-8503.660028,-444.123565
4648.918542,148.041188,-8733.488677,-740.205942
4648.918867,518.144159,-9039.926876,-666.185348
4648.919191,296.082377,-8656.879127,-888.247130
4648.919516,296.082377,-8810.098227,-148.041188
4648.919840,518.144159,-8427.050478,-148.041188
4648.920164,888.247130,-8503.660028,-370.102971
4648.920489,148.041188,-8350.440928,-222.061783
4648.920813,518.144159,-8503.660028,0.000000
4648.921138,444.123565,-9039.926876,-222.061783
4648.921462,666.185348,-8350.440928,-296.082377
4648.921787,296.082377,-8273.831378,-370.102971
4648.922111,222.061783,-8503.660028,-222.061783
4648.922435,0.000000,-8120.612279,-148.041188
4648.922760,0.000000,-8733.488677,-222.061783
4648.923084,444.123565,-8733.488677,0.000000
4648.923409,370.102971,-8810.098227,0.000000
4648.923733,518.144159,-8733.488677,-370.102971
4648.924057,666.185348,-8273.831378,-444.123565
4648.924382,740.205942,-8580.269578,-222.061783
4648.924706,888.247130,-8273.831378,-296.082377
4648.925031,518.144159,-8197.221829,-370.102971
4648.925355,518.144159,-8733.488677,-222.061783
4648.925680,370.102971,-8580.269578,-370.102971
4648.926004,444.123565,-8963.317327,-222.061783
4648.926328,444.123565,-8350.440928,-444.123565
4648.926653,370.102971,-8503.660028,0.000000
4648.926977,296.082377,-8197.221829,-296.082377
4648.927302,148.041188,-8044.002729,0.000000
4648.927626,444.123565,-8427.050478,0.000000
4648.927950,222.061783,-8503.660028,-370.102971
4648.928275,518.144159,-8580.269578,-444.123565
4648.928599,740.205942,-8427.050478,0.000000
4648.928924,370.102971,-8580.269578,-222.061783
4648.929248,814.226536,-8580.269578,-148.041188
4648.929573,740.205942,-8273.831378,-592.164754
4648.929897,296.082377,-8886.707777,0.000000
4648.930221,740.205942,-7967.393179,-370.102971
4648.930546,296.082377,-8810.098227,-222.061783
4648.930870,370.102971,-8427.050478,-296.082377
4648.931195,444.123565,-8503.660028,-148.041188
4648.931519,962.267725,-8273.831378,296.082377
4648.931844,518.144159,-8044.002729,-296.082377
4648.932168,518.144159,-9039.926876,-148.041188
4648.932492,296.082377,-8580.269578,0.000000
4648.932817,444.123565,-8733.488677,-148.041188
4648.933141,740.205942,-8810.098227,-296.082377
4648.933466,222.061783,-8503.660028,-296.082377
4648.933790,518.144159,-9039.926876,0.000000
4648.934114,74.020594,-8427.050478,-518.144159
4648.934439,296.082377,-8963.317327,-518.144159
4648.934763,222.061783,-8427.050478,-518.144159
4648.935088,444.123565,-8503.660028,-518.144159
4648.935412,740.205942,-8656.879127,-592.164754
4648.935737,814.226536,-8810.098227,-740.205942
4648.936061,296.082377,-8656.879127,-370.102971
4648.936385,370.102971,-8427.050478,-592.164754
4648.936710,444.123565,-8810.098227,-444.123565
4648.937034,370.102971,-8427.050478,-592.164754
4648.937359,666.185348,-8886.707777,-222.061783
4648.937683,148.041188,-9039.926876,-444.123565
4648.938008,444.123565,-8656.879127,-1110.308913
4648.938332,444.123565,-8810.098227,-518.144159
4648.938656,592.164754,-8273.831378,0.000000
4648.938981,222.061783,-8580.269578,-296.082377
4648.939305,296.082377,-8810.098227,-148.041188
4648.939630,370.102971,-8350.440928,74.020594
4648.939954,888.247130,-9116.536426,0.000000
4648.940278,592.164754,-8656.879127,-370.102971
4648.940603,666.185348,-8886.707777,148.041188
4648.940927,888.247130,-8886.707777,0.000000
4648.941252,518.144159,-8580.269578,-222.061783
4648.941576,0.000000,-8656.879127,0.000000
4648.941901,444.123565,-8503.660028,0.000000
4648.942225,370.102971,-8503.660028,0.000000
4648.942549,222.061783,-8810.098227,-222.061783
4648.942874,518.144159,-8963.317327,0.000000
4648.943198,296.082377,-8886.707777,0.000000
4648.943523,296.082377,-8580.269578,0.000000
4648.943847,518.144159,-8350.440928,0.000000
4648.944171,296.082377,-8503.660028,0.000000
4648.944496,296.082377,-9116.536426,0.000000
4648.944820,222.061783,-8427.050478,-222.061783
4648.945145,148.041188,-8503.660028,-370.102971
4648.945469,518.144159,-8350.440928,-222.061783
4648.945794,296.082377,-8350.440928,-296.082377
4648.946118,222.061783,-8656.879127,-148.041188
4648.946442,518.144159,-8197.221829,-370.102971
4648.946767,222.061783,-8350.440928,-222.061783
4648.947091,296.082377,-8273.831378,0.000000
4648.947416,222.061783,-8350.440928,-444.123565
4648.947740,592.164754,-8810.098227,-148.041188
4648.948065,370.102971,-7967.393179,-148.041188
4648.948389,518.144159,-8733.488677,-370.102971
4648.948713,592.164754,-8580.269578,-814.226536
4648.949038,444.123565,-8350.440928,0.000000
4648.949362,148.041188,-8503.660028,-296.082377
4648.949687,518.144159,-8963.317327,-814.226536
4648.950011,0.000000,-8197.221829,-222.061783
4648.950335,222.061783,-8810.098227,-296.082377
4648.950660,296.082377,-8120.612279,-518.144159
4648.950984,74.020594,-8427.050478,-222.061783
4648.951309,740.205942,-8810.098227,-222.061783
4648.951633,518.144159,-8963.317327,0.000000
4648.951958,296.082377,-8733.488677,-962.267725
4648.952282,518.144159,-9039.926876,-222.061783
4648.952606,518.144159,-8120.612279,-370.102971
4648.952931,518.144159,-9039.926876,-518.144159
4648.953255,0.000000,-8197.221829,-666.185348
4648.953580,592.164754,-8656.879127,0.000000
4648.953904,74.020594,-8886.707777,-666.185348
4648.954228,592.164754,-8810.098227,-222.061783
4648.954553,518.144159,-8810.098227,-444.123565
4648.954877,518.144159,-8733.488677,-444.123565
4648.955202,518.144159,-8350.440928,-518.144159
4648.955526,592.164754,-9039.926876,-518.144159
4648.955851,370.102971,-8503.660028,-148.041188
4648.956175,296.082377,-8580.269578,0.000000
4648.956499,666.185348,-8733.488677,-518.144159
4648.956824,518.144159,-8733.488677,-370.102971
4648.957148,814.226536,-8580.269578,-740.205942
4648.957473,296.082377,-8656.879127,-148.041188
4648.957797,370.102971,-8197.221829,-370.102971
4648.958122,0.000000,-8120.612279,-296.082377
4648.958446,592.164754,-8197.221829,0.000000
4648.958770,296.082377,-8273.831378,-296.082377
4648.959095,444.123565,-8733.488677,-592.164754
4648.959419,740.205942,-8197.221829,0.000000
4648.959744,444.123565,-8350.440928,0.000000
4648.960068,222.061783,-8350.440928,0.000000
4648.960392,370.102971,-8273.831378,-296.082377
4648.960717,518.144159,-8503.660028,-518.144159
4648.961041,370.102971,-8580.269578,-370.102971
4648.961366,518.144159,-8886.707777,-518.144159
4648.961690,296.082377,-8273.831378,-296.082377
4648.962015,222.061783,-8273.831378,-296.082377
4648.962339,148.041188,-8733.488677,74.020594
4648.962663,814.226536,-8733.488677,-296.082377
4648.962988,666.185348,-8120.612279,74.020594
4648.963312,518.144159,-8656.879127,-148.041188
4648.963637,592.164754,-9116.536426,-444.123565
4648.963961,518.144159,-8580.269578,-148.041188
4648.964285,518.144159,-8810.098227,0.000000
4648.964610,296.082377,-8656.879127,0.000000
4648.964934,222.061783,-8427.050478,0.000000
4648.965259,296.082377,-8273.831378,148.041188
4648.965583,592.164754,-8810.098227,0.000000
4648.965908,592.164754,-8733.488677,-222.061783
4648.966232,666.185348,-8886.707777,74.020594
4648.966556,740.205942,-8120.612279,74.020594
4648.966881,148.041188,-9499.584175,0.000000
4648.967205,444.123565,-8503.660028,0.000000
4648.967530,296.082377,-8656.879127,222.061783
4648.967854,518.144159,-8656.879127,0.000000
4648.968179,296.082377,-8810.098227,0.000000
4648.968503,296.082377,-8886.707777,-148.041188
4648.968827,148.041188,-8733.488677,0.000000
4648.969152,518.144159,-8503.660028,-296.082377
4648.969476,444.123565,-8580.269578,-296.082377
4648.969801,444.123565,-7890.783629,-296.082377
4648.970125,444.123565,-8273.831378,-444.123565
4648.970449,518.144159,-8580.269578,-814.226536
4648.970774,296.082377,-8580.269578,-740.205942
4648.971098,814.226536,-8350.440928,-1036.288319
4648.971423,444.123565,-8733.488677,-518.144159
4648.971747,148.041188,-8503.660028,-666.185348
4648.972072,222.061783,-8733.488677,-814.226536
4648.972396,296.082377,-8120.612279,-592.164754
4648.972720,296.082377,-8580.269578,-370.102971
4648.973045,518.144159,-8733.488677,-962.267725
4648.973369,296.082377,-8580.269578,-888.247130
4648.973694,74.020594,-8656.879127,0.000000
4648.974018,74.020594,-9116.536426,0.000000
4648.974342,222.061783,-8503.660028,-666.185348
4648.974667,296.082377,-8733.488677,0.000000
4648.974991,444.123565,-9039.926876,0.000000
4648.975316,296.082377,-9499.584175,-370.102971
4648.975640,74.020594,-9039.926876,0.000000
4648.975965,222.061783,-8197.221829,0.000000
4648.976289,592.164754,-8810.098227,-296.082377
4648.976613,370.102971,-8427.050478,-370.102971
4648.976938,444.123565,-8350.440928,-222.061783
4648.977262,296.082377,-8273.831378,-296.082377
4648.977587,518.144159,-8810.098227,-370.102971
4648.977911,740.205942,-8427.050478,-962.267725
4648.978236,296.082377,-8503.660028,0.000000
4648.978560,518.144159,-8350.440928,-592.164754
4648.978884,222.061783,-8580.269578,-296.082377
4648.979209,296.082377,-8273.831378,-74.020594
4648.979533,444.123565,-8810.098227,-518.144159
4648.979858,740.205942,-8733.488677,-740.205942
4648.980182,666.185348,-8580.269578,-444.123565
4648.980506,814.226536,-8427.050478,-518.144159
4648.980831,518.144159,-8733.488677,-296.082377
4648.981155,962.267725,-8427.050478,-592.164754
4648.981480,518.144159,-8273.831378,-518.144159
4648.981804,222.061783,-8120.612279,-444.123565
4648.982129,518.144159,-8810.098227,0.000000
4648.982453,666.185348,-8197.221829,0.000000
4648.982777,222.061783,-8656.879127,-444.123565
4648.983102,444.123565,-8273.831378,-370.102971
4648.983426,370.102971,-8503.660028,-444.123565
4648.983751,666.185348,-8350.440928,-296.082377
4648.984075,592.164754,-8120.612279,-370.102971
4648.984399,444.123565,-8656.879127,-370.102971
4648.984724,740.205942,-8503.660028,-370.102971
4648.985048,740.205942,-8733.488677,-740.205942
4648.985373,370.102971,-8197.221829,-592.164754
4648.985697,518.144159,-8656.879127,-592.164754
4648.986022,296.082377,-8503.660028,-518.144159
4648.986346,148.041188,-8656.879127,-518.144159
4648.986670,666.185348,-8886.707777,0.000000
4648.986995,740.205942,-9193.145976,-518.144159
4648.987319,222.061783,-8656.879127,-370.102971
4648.987644,592.164754,-8733.488677,-370.102971
4648.987968,148.041188,-8427.050478,-222.061783
4648.988293,592.164754,-8580.269578,-444.123565
4648.988617,222.061783,-8656.879127,-666.185348
4648.988941,74.020594,-8733.488677,-296.082377
4648.989266,370.102971,-8963.317327,-518.144159
4648.989590,0.000000,-8503.660028,-296.082377
4648.989915,74.020594,-8427.050478,-296.082377
4648.990239,296.082377,-8733.488677,-222.061783
4648.990563,370.102971,-8580.269578,-222.061783
4648.990888,592.164754,-8350.440928,-592.164754
4648.991212,222.061783,-8427.050478,-592.164754
4648.991536,592.164754,-8810.098227,-222.061783
4648.991861,444.123565,-8656.879127,-518.144159
4648.992185,370.102971,-8963.317327,-592.164754
4648.992509,740.205942,-8656.879127,-222.061783
4648.992834,370.102971,-8810.098227,0.000000
4648.993158,370.102971,-8580.269578,0.000000
4648.993482,296.082377,-8427.050478,-296.082377
4648.993807,1258.350101,-9116.536426,0.000000
4648.994131,592.164754,-8350.440928,0.000000
4648.994455,518.144159,-9039.926876,-148.041188
4648.994780,592.164754,-8427.050478,-74.020594
4648.995104,444.123565,-8503.660028,444.123565
4648.995428,444.123565,-8580.269578,-222.061783
4648.995753,444.123565,-8350.440928,-222.061783
4648.996077,222.061783,-8427.050478,296.082377
4648.996401,444.123565,-8580.269578,-148.041188
4648.996726,592.164754,-8273.831378,-148.041188
4648.997050,592.164754,-8350.440928,-444.123565
4648.997374,592.164754,-8580.269578,0.000000
4648.997699,666.185348,-8273.831378,-148.041188
4648.998023,444.123565,-8580.269578,-296.082377
4648.998347,296.082377,-8427.050478,-370.102971
4648.998672,740.205942,-8503.660028,-222.061783
4648.998996,370.102971,-8656.879127,-444.123565
4648.999320,592.164754,-8733.488677,0.000000
4648.999645,370.102971,-8656.879127,0.000000
4648.999969,518.144159,-8810.098227,0.000000
4649.000293,370.102971,-8044.002729,-370.102971
4649.000618,814.226536,-8733.488677,0.000000
4649.000942,666.185348,-8733.488677,0.000000
4649.001266,444.123565,-8580.269578,-444.123565
4649.001591,296.082377,-8656.879127,-518.144159
4649.001915,592.164754,-8197.221829,-222.061783
4649.002239,888.247130,-8197.221829,148.041188
4649.002564,148.041188,-8503.660028,-814.226536
4649.002888,222.061783,-8656.879127,-148.041188
4649.003212,592.164754,-8656.879127,-444.123565
4649.003537,518.144159,-8886.707777,-666.185348
4649.003861,592.164754,-8580.269578,-888.247130
4649.004185,296.082377,-8503.660028,-814.226536
4649.004510,296.082377,-8503.660028,-148.041188
4649.004834,148.041188,-8350.440928,-1110.308913
4649.005158,444.123565,-8963.317327,-740.205942
4649.005483,296.082377,-8427.050478,-370.102971
4649.005807,222.061783,-8656.879127,-1110.308913
4649.006131,296.082377,-8580.269578,-888.247130
4649.006456,592.164754,-8656.879127,-296.082377
4649.006780,148.041188,-8963.317327,-370.102971
4649.007104,296.082377,-8733.488677,-666.185348
4649.007429,222.061783,-8350.440928,-592.164754
4649.007753,370.102971,-9039.926876,-518.144159
4649.008077,518.144159,-8427.050478,-370.102971
4649.008402,296.082377,-9039.926876,-888.247130
4649.008726,666.185348,-8197.221829,-296.082377
4649.009050,592.164754,-8273.831378,-296.082377
4649.009375,962.267725,-8963.317327,0.000000
4649.009699,592.164754,-8273.831378,-518.144159
4649.010023,444.123565,-9039.926876,148.041188
4649.010348,222.061783,-8580.269578,-148.041188
4649.010672,666.185348,-8503.660028,-222.061783
4649.010996,370.102971,-8656.879127,-370.102971
4649.011321,296.082377,-8733.488677,0.000000
4649.011645,370.102971,-8427.050478,74.020594
4649.011969,148.041188,-8350.440928,-518.144159
4649.012294,518.144159,-8350.440928,-296.082377
4649.012618,666.185348,-8197.221829,-148.041188
4649.012942,592.164754,-8580.269578,-296.082377
4649.013267,296.082377,-8580.269578,-296.082377
4649.013591,222.061783,-8273.831378,-370.102971
4649.013915,518.144159,-8733.488677,-148.041188
4649.014240,444.123565,-8197.221829,-444.123565
4649.014564,518.144159,-8580.269578,-444.123565
4649.014888,666.185348,-8503.660028,0.000000
4649.015213,518.144159,-8427.050478,-148.041188
4649.015537,592.164754,-8656.879127,-518.144159
4649.015861,962.267725,-8120.612279,-222.061783
4649.016186,740.205942,-8503.660028,-148.041188
4649.016510,518.144159,-8350.440928,-222.061783
4649.016834,444.123565,-8273.831378,-222.061783
4649.017159,444.123565,-8733.488677,0.000000
4649.017483,444.123565,-8810.098227,-666.185348
4649.017807,370.102971,-8886.707777,-296.082377
4649.018132,666.185348,-8886.707777,-592.164754
4649.018456,592.164754,-8350.440928,-370.102971
4649.018780,296.082377,-8427.050478,-592.164754
4649.019105,444.123565,-8350.440928,-666.185348
4649.019429,222.061783,-8120.612279,-370.102971
4649.019753,740.205942,-8656.879127,-666.185348
4649.020078,740.205942,-8656.879127,-666.185348
4649.020402,444.123565,-8733.488677,-666.185348
4649.020726,222.061783,-8656.879127,0.000000
4649.021051,0.000000,-8427.050478,-518.144159
4649.021375,370.102971,-8886.707777,-666.185348
4649.021699,222.061783,-8733.488677,-518.144159
4649.022024,518.144159,-8503.660028,74.020594
4649.022348,0.000000,-8886.707777,-444.123565
4649.022672,444.123565,-8810.098227,-592.164754
4649.022997,666.185348,-8580.269578,-518.144159
4649.023321,518.144159,-9116.536426,-148.041188
4649.023645,222.061783,-7967.393179,-370.102971
4649.023970,444.123565,-8656.879127,-444.123565
4649.024294,148.041188,-8886.707777,-296.082377
4649.024618,444.123565,-8733.488677,-518.144159
4649.024943,666.185348,-8810.098227,-962.267725
4649.025267,518.144159,-8350.440928,-370.102971
4649.025591,370.102971,-8656.879127,-370.102971
4649.025916,0.000000,-8580.269578,-740.205942
4649.026240,370.102971,-9039.926876,-1110.308913
4649.026564,814.226536,-8197.221829,-518.144159
4649.026889,222.061783,-8886.707777,-592.164754
4649.027213,444.123565,-8656.879127,-666.185348
4649.027537,148.041188,-8886.707777,-518.144159
4649.027862,222.061783,-8273.831378,-444.123565
4649.028186,74.020594,-8427.050478,-666.185348
4649.028510,444.123565,-8503.660028,-666.185348
4649.028835,222.061783,-7967.393179,0.000000
4649.029159,370.102971,-8273.831378,-592.164754
4649.029483,666.185348,-8733.488677,-296.082377
4649.029808,592.164754,-8273.831378,-222.061783
4649.030132,666.185348,-8580.269578,-370.102971
4649.030456,444.123565,-8503.660028,0.000000
4649.030781,222.061783,-8197.221829,0.000000
4649.031105,0.000000,-8044.002729,-370.102971
4649.031429,222.061783,-8580.269578,0.000000
4649.031754,444.123565,-8350.440928,-370.102971
4649.032078,592.164754,-8503.660028,-444.123565
4649.032403,518.144159,-8273.831378,0.000000
4649.032727,222.061783,-8427.050478,0.000000
4649.033051,222.061783,-8503.660028,-222.061783
4649.033376,518.144159,-8503.660028,0.000000
4649.033700,592.164754,-8503.660028,0.000000
4649.034024,518.144159,-8580.269578,0.000000
4649.034349,592.164754,-8733.488677,-370.102971
4649.034673,1036.288319,-8503.660028,74.020594
4649.034997,666.185348,-8733.488677,222.061783
4649.035322,740.205942,-8886.707777,74.020594
4649.035646,666.185348,-8273.831378,0.000000
4649.035970,666.185348,-8503.660028,296.082377
4649.036295,370.102971,-8886.707777,370.102971
4649.036619,740.205942,-8656.879127,-296.082377
4649.036943,592.164754,-8503.660028,-148.041188
4649.037268,888.247130,-8350.440928,-148.041188
4649.037592,1036.288319,-8733.488677,0.000000
4649.037916,666.185348,-8656.879127,-296.082377
4649.038241,444.123565,-8580.269578,-370.102971
4649.038565,592.164754,-8963.317327,-370.102971
4649.038889,296.082377,-8733.488677,-814.226536
4649.039214,592.164754,-8963.317327,-296.082377
4649.039538,296.082377,-8656.879127,-222.061783
4649.039862,222.061783,-8886.707777,0.000000
4649.040187,222.061783,-8656.879127,-444.123565
4649.040511,518.144159,-8810.098227,0.000000
4649.040835,370.102971,-9039.926876,0.000000
4649.041160,444.123565,-8656.879127,-444.123565
4649.041484,592.164754,-8580.269578,-518.144159
4649.041808,222.061783,-8963.317327,-222.061783
4649.042133,370.102971,-8886.707777,-296.082377
4649.042457,370.102971,-8427.050478,-370.102971
4649.042781,444.123565,-8427.050478,-148.041188
4649.043106,222.061783,-8580.269578,148.041188
4649.043430,592.164754,-8810.098227,-222.061783
4649.043754,370.102971,-8886.707777,-740.205942
4649.044079,666.185348,-8656.879127,-370.102971
4649.044403,296.082377,-8580.269578,74.020594
4649.044727,1036.288319,-8886.707777,0.000000
4649.045052,370.102971,-8197.221829,-518.144159
4649.045376,74.020594,-8503.660028,-148.041188
4649.045700,222.061783,-8733.488677,-592.164754
4649.046025,296.082377,-8733.488677,0.000000
4649.046349,296.082377,-8580.269578,-518.144159
4649.046673,296.082377,-8656.879127,-296.082377
4649.046998,296.082377,-8427.050478,-222.061783
4649.047322,222.061783,-8273.831378,-444.123565
4649.047646,296.082377,-8273.831378,0.000000
4649.047971,222.061783,-8427.050478,-296.082377
4649.048295,296.082377,-8656.879127,0.000000
4649.048619,296.082377,-8427.050478,-370.102971
4649.048944,296.082377,-8503.660028,-148.041188
4649.049268,296.082377,-8656.879127,-370.102971
4649.049592,74.020594,-8044.002729,-370.102971
4649.049917,370.102971,-8273.831378,-444.123565
4649.050241,148.041188,-8503.660028,-370.102971
4649.050565,592.164754,-8733.488677,-296.082377
4649.050890,518.144159,-8886.707777,-814.226536
4649.051214,666.185348,-8350.440928,-592.164754
4649.051538,518.144159,-8197.221829,-296.082377
4649.051863,1036.288319,-8503.660028,-592.164754
4649.052187,444.123565,-8120.612279,-592.164754
4649.052511,296.082377,-8656.879127,-518.144159
4649.052836,518.144159,-8733.488677,-444.123565
4649.053160,814.226536,-8120.612279,-296.082377
4649.053484,296.082377,-8733.488677,-666.185348
4649.053809,222.061783,-8427.050478,-148.041188
4649.054133,148.041188,-8044.002729,-592.164754
4649.054457,370.102971,-8273.831378,-592.164754
4649.054782,222.061783,-8044.002729,0.000000
4649.055106,296.082377,-8656.879127,-370.102971
4649.055430,370.102971,-8886.707777,-370.102971
4649.055755,222.061783,-8580.269578,-370.102971
4649.056079,518.144159,-8810.098227,0.000000
4649.056403,370.102971,-8580.269578,0.000000
4649.056728,148.041188,-8350.440928,-148.041188
4649.057052,148.041188,-9039.926876,0.000000
4649.057376,222.061783,-8120.612279,-296.082377
4649.057701,740.205942,-9269.755526,-592.164754
4649.058025,740.205942,-8580.269578,-592.164754
4649.058349,962.267725,-8427.050478,-148.041188
4649.058674,814.226536,-8580.269578,-518.144159
4649.058998,740.205942,-8580.269578,-296.082377
4649.059322,518.144159,-8350.440928,-296.082377
4649.059647,444.123565,-8810.098227,-370.102971
4649.059971,740.205942,-8427.050478,-444.123565
4649.060295,296.082377,-8656.879127,-296.082377
4649.060620,370.102971,-9039.926876,-296.082377
4649.060944,518.144159,-8503.660028,0.000000
4649.061268,518.144159,-8350.440928,-296.082377
4649.061593,592.164754,-9039.926876,-888.247130
4649.061917,518.144159,-8656.879127,-222.061783
4649.062241,592.164754,-8810.098227,-148.041188
4649.062566,518.144159,-8733.488677,-296.082377
4649.062890,888.247130,-8810.098227,-370.102971
4649.063214,592.164754,-8886.707777,-370.102971
4649.063539,444.123565,-8503.660028,222.061783
4649.063863,222.061783,-8580.269578,-296.082377
4649.064187,518.144159,-8580.269578,-296.082377
4649.064512,740.205942,-9193.145976,0.000000
4649.064836,592.164754,-9039.926876,-222.061783
4649.065160,518.144159,-8656.879127,-518.144159
4649.065485,370.102971,-8273.831378,-148.041188
4649.065809,444.123565,-8963.317327,0.000000
4649.066133,74.020594,-8273.831378,-296.082377
4649.066458,222.061783,-8350.440928,-518.144159
4649.066782,370.102971,-8503.660028,0.000000
4649.067106,148.041188,-8503.660028,0.000000
4649.067431,74.020594,-8733.488677,-370.102971
4649.067755,222.061783,-8580.269578,-370.102971
4649.068079,444.123565,-8656.879127,0.000000
4649.068404,740.205942,-8350.440928,-222.061783
4649.068728,0.000000,-8733.488677,0.000000
4649.069052,296.082377,-8350.440928,74.020594
4649.069377,296.082377,-8886.707777,0.000000
4649.069701,296.082377,-8733.488677,-222.061783
4649.070025,444.123565,-8810.098227,-222.061783
4649.070350,518.144159,-8810.098227,0.000000
4649.070674,148.041188,-8273.831378,296.082377
4649.070998,222.061783,-9039.926876,-296.082377
4649.071323,74.020594,-8273.831378,-370.102971
4649.071647,444.123565,-8733.488677,0.000000
4649.071971,148.041188,-8503.660028,-370.102971
4649.072296,222.061783,-8810.098227,0.000000
4649.072620,222.061783,-8197.221829,-148.041188
4649.072944,296.082377,-8580.269578,296.082377
4649.073269,74.020594,-7890.783629,-592.164754
4649.073593,518.144159,-8656.879127,-370.102971
4649.073917,814.226536,-8580.269578,-592.164754
4649.074242,444.123565,-8810.098227,-296.082377
4649.074566,592.164754,-8810.098227,-740.205942
4649.074890,592.164754,-8427.050478,-444.123565
4649.075215,592.164754,-8503.660028,-444.123565
4649.075539,666.185348,-8350.440928,0.000000
4649.075863,888.247130,-8120.612279,-666.185348
4649.076188,592.164754,-8580.269578,0.000000
4649.076512,740.205942,-8350.440928,-444.123565
4649.076836,888.247130,-8963.317327,-962.267725
4649.077161,962.267725,-8273.831378,-518.144159
4649.077485,444.123565,-8580.269578,-148.041188
4649.077809,296.082377,-8733.488677,-370.102971
4649.078134,444.123565,-8427.050478,-444.123565
4649.078458,518.144159,-8733.488677,-592.164754
4649.078782,222.061783,-8656.879127,-518.144159
4649.079107,370.102971,-8963.317327,-666.185348
4649.079431,518.144159,-8656.879127,-814.226536
4649.079755,296.082377,-8580.269578,-370.102971
4649.080080,518.144159,-8197.221829,0.000000
4649.080404,296.082377,-8810.098227,-592.164754
4649.080728,666.185348,-8580.269578,0.000000
4649.081053,444.123565,-8886.707777,-370.102971
4649.081377,370.102971,-9116.536426,0.000000
4649.081701,296.082377,-8503.660028,-740.205942
4649.082026,296.082377,-8656.879127,-296.082377
4649.082350,370.102971,-8580.269578,-444.123565
4649.082674,148.041188,-8503.660028,-222.061783
4649.082999,444.123565,-8580.269578,-444.123565
4649.083323,296.082377,-8810.098227,-444.123565
4649.083647,444.123565,-8810.098227,-444.123565
4649.083972,444.123565,-9346.365076,-814.226536
4649.084296,296.082377,-7967.393179,-592.164754
4649.084620,222.061783,-8733.488677,-222.061783
4649.084945,296.082377,-8580.269578,-518.144159
4649.085269,518.144159,-8350.440928,-592.164754
4649.085593,444.123565,-8044.002729,-296.082377
4649.085918,370.102971,-8733.488677,0.000000
4649.086242,222.061783,-8886.707777,-370.102971
4649.086566,370.102971,-8427.050478,-592.164754
4649.086891,222.061783,-8427.050478,0.000000
4649.087215,222.061783,-8427.050478,-148.041188
4649.087539,444.123565,-8197.221829,-222.061783
4649.087864,518.144159,-8503.660028,148.041188
4649.088188,222.061783,-8273.831378,-148.041188
4649.088512,962.267725,-8963.317327,0.000000
4649.088837,666.185348,-8350.440928,-370.102971
4649.089161,444.123565,-8580.269578,0.000000
4649.089485,444.123565,-8503.660028,0.000000
4649.089810,222.061783,-8350.440928,0.000000
4649.090134,370.102971,-8580.269578,222.061783
4649.090458,148.041188,-8503.660028,0.000000
4649.090783,370.102971,-8810.098227,-370.102971
4649.091107,814.226536,-8350.440928,-222.061783
4649.091431,0.000000,-8120.612279,0.000000
4649.091756,518.144159,-8656.879127,-222.061783
4649.092080,666.185348,-8273.831378,-296.082377
4649.092404,666.185348,-8427.050478,-296.082377
4649.092728,666.185348,-9193.145976,-592.164754
4649.093053,444.123565,-8886.707777,-222.061783
4649.093377,518.144159,-9193.145976,-518.144159
4649.093701,222.061783,-8427.050478,-592.164754
4649.094025,74.020594,-8810.098227,0.000000
4649.094350,74.020594,-8044.002729,-444.123565
4649.094674,666.185348,-8656.879127,0.000000
4649.094998,518.144159,-8427.050478,-370.102971
4649.095323,444.123565,-9039.926876,-222.061783
4649.095647,444.123565,-8580.269578,0.000000
4649.095971,444.123565,-8733.488677,-814.226536
4649.096295,222.061783,-8886.707777,-296.082377
4649.096620,222.061783,-8427.050478,-296.082377
4649.096944,222.061783,-8733.488677,-296.082377
4649.097268,296.082377,-8810.098227,-740.205942
4649.097592,296.082377,-9193.145976,-740.205942
4649.097917,814.226536,-8810.098227,-592.164754
4649.098241,296.082377,-8350.440928,-740.205942
4649.098565,962.267725,-8580.269578,-592.164754
4649.098890,296.082377,-8273.831378,-740.205942
4649.099214,666.185348,-8580.269578,-1036.288319
4649.099538,518.144159,-8350.440928,-888.247130
4649.099862,518.144159,-8503.660028,-814.226536
4649.100187,296.082377,-9039.926876,-1036.288319
4649.100511,148.041188,-8656.879127,-1036.288319
4649.100835,0.000000,-8656.879127,-518.144159
4649.101159,148.041188,-9193.145976,-518.144159
4649.101484,444.123565,-8656.879127,-740.205942
4649.101808,148.041188,-8350.440928,-666.185348
4649.102132,518.144159,-8656.879127,-592.164754
4649.102457,296.082377,-8580.269578,-666.185348
4649.102781,74.020594,-8886.707777,-518.144159
4649.103105,592.164754,-8580.269578,-592.164754
4649.103429,296.082377,-8427.050478,-370.102971
4649.103754,444.123565,-8656.879127,-222.061783
4649.104078,296.082377,-8197.221829,74.020594
4649.104402,296.082377,-8886.707777,0.000000
4649.104726,592.164754,-8656.879127,0.000000
4649.105051,814.226536,-8503.660028,-370.102971
4649.105375,740.205942,-8273.831378,0.000000
4649.105699,444.123565,-8273.831378,0.000000
4649.106024,592.164754,-8197.221829,74.020594
4649.106348,518.144159,-8350.440928,-296.082377
4649.106672,518.144159,-8503.660028,0.000000
4649.106996,740.205942,-8656.879127,-148.041188
4649.107321,296.082377,-8886.707777,148.041188
4649.107645,370.102971,-8120.612279,0.000000
4649.107969,222.061783,-8427.050478,0.000000
4649.108293,814.226536,-8810.098227,370.102971
4649.108618,444.123565,-8273.831378,0.000000
4649.108942,444.123565,-8273.831378,0.000000
4649.109266,592.164754,-8273.831378,-222.061783
4649.109591,666.185348,-8503.660028,-222.061783
4649.109915,296.082377,-8810.098227,-222.061783
4649.110239,518.144159,-8886.707777,0.000000
4649.110563,222.061783,-8427.050478,-222.061783
4649.110888,148.041188,-8503.660028,-370.102971
4649.111212,518.144159,-8273.831378,-296.082377
4649.111536,370.102971,-8886.707777,-296.082377
4649.111860,1036.288319,-8580.269578,-74.020594
4649.112185,666.185348,-8656.879127,-296.082377
4649.112509,1110.308913,-8197.221829,-222.061783
4649.112833,592.164754,-7967.393179,-444.123565
4649.113158,592.164754,-8733.488677,-518.144159
4649.113482,444.123565,-8580.269578,-518.144159
4649.113806,222.061783,-9116.536426,-222.061783
4649.114130,296.082377,-8963.317327,-592.164754
4649.114455,74.020594,-9039.926876,-740.205942
4649.114779,74.020594,-8733.488677,-296.082377
4649.115103,222.061783,-8810.098227,-518.144159
4649.115427,444.123565,-8273.831378,-444.123565
4649.115752,148.041188,-8427.050478,-592.164754
4649.116076,222.061783,-8963.317327,-444.123565
4649.116400,518.144159,-8733.488677,-592.164754
4649.116725,370.102971,-8810.098227,-814.226536
4649.117049,592.164754,-8656.879127,-814.226536
4649.117373,518.144159,-8810.098227,-296.082377
4649.117697,0.000000,-8886.707777,-518.144159
4649.118022,74.020594,-8580.269578,-888.247130
4649.118346,888.247130,-8810.098227,-888.247130
4649.118670,444.123565,-8963.317327,-740.205942
4649.118994,962.267725,-8733.488677,-518.144159
4649.119319,814.226536,-8580.269578,-888.247130
4649.119643,1332.370696,-9729.412825,-370.102971
4649.119967,666.185348,-8503.660028,-518.144159
4649.120292,666.185348,-8503.660028,-814.226536
4649.120616,370.102971,-8810.098227,-148.041188
4649.120940,444.123565,-8963.317327,-222.061783
4649.121264,814.226536,-8886.707777,-666.185348
4649.121589,296.082377,-8350.440928,-518.144159
4649.121913,518.144159,-8810.098227,-296.082377
4649.122237,518.144159,-8197.221829,-74.020594
4649.122561,370.102971,-8120.612279,0.000000
4649.122886,296.082377,-8503.660028,-222.061783
4649.123210,296.082377,-8503.660028,0.000000
4649.123534,666.185348,-8427.050478,-296.082377
4649.123859,518.144159,-8427.050478,-666.185348
4649.124183,518.144159,-8427.050478,0.000000
4649.124507,222.061783,-8427.050478,-222.061783
4649.124831,666.185348,-8350.440928,0.000000
4649.125156,222.061783,-8963.317327,-444.123565
4649.125480,148.041188,-8656.879127,-222.061783
4649.125804,592.164754,-8044.002729,-222.061783
4649.126128,296.082377,-8580.269578,0.000000
4649.126453,222.061783,-8503.660028,-888.247130
4649.126777,370.102971,-8350.440928,0.000000
4649.127101,148.041188,-8350.440928,0.000000
4649.127426,148.041188,-8427.050478,-370.102971
4649.127750,444.123565,-8503.660028,148.041188
4649.128074,296.082377,-9039.926876,-222.061783
4649.128398,592.164754,-8580.269578,-518.144159
4649.128723,740.205942,-8733.488677,-666.185348
4649.129047,444.123565,-8810.098227,-296.082377
4649.129371,518.144159,-8427.050478,74.020594
4649.129695,296.082377,-7890.783629,-592.164754
4649.130020,444.123565,-8886.707777,-370.102971
4649.130344,222.061783,-8656.879127,-592.164754
4649.130668,296.082377,-9039.926876,-370.102971
4649.130993,518.144159,-8580.269578,-888.247130
4649.131317,148.041188,-8810.098227,-222.061783
4649.131641,444.123565,-8733.488677,-296.082377
4649.131965,296.082377,-8503.660028,-296.082377
4649.132290,740.205942,-8886.707777,-814.226536
4649.132614,370.102971,-8656.879127,-592.164754
4649.132938,888.247130,-8656.879127,-296.082377
4649.133262,592.164754,-8810.098227,-740.205942
4649.133587,592.164754,-8656.879127,-666.185348
4649.133911,444.123565,-8733.488677,-666.185348
4649.134235,666.185348,-8503.660028,-518.144159
4649.134560,444.123565,-8656.879127,-518.144159
4649.134884,222.061783,-8810.098227,-592.164754
4649.135208,370.102971,-8120.612279,222.061783
4649.135532,296.082377,-8733.488677,-518.144159
4649.135857,666.185348,-8886.707777,-740.205942
4649.136181,1036.288319,-8580.269578,-444.123565
4649.136505,740.205942,-9116.536426,-444.123565
4649.136829,296.082377,-8580.269578,-888.247130
4649.137154,370.102971,-8427.050478,-370.102971
4649.137478,444.123565,-8503.660028,-666.185348
4649.137802,296.082377,-9269.755526,-444.123565
4649.138127,370.102971,-8656.879127,-370.102971
4649.138451,518.144159,-8733.488677,-518.144159
4649.138775,518.144159,-8427.050478,-296.082377
4649.139099,666.185348,-8427.050478,-592.164754
4649.139424,370.102971,-8503.660028,0.000000
4649.139748,444.123565,-8273.831378,148.041188
4649.140072,444.123565,-8733.488677,0.000000
4649.140396,592.164754,-8503.660028,-518.144159
4649.140721,296.082377,-8503.660028,148.041188
4649.141045,518.144159,-8427.050478,-370.102971
4649.141369,222.061783,-8350.440928,0.000000
4649.141694,444.123565,-8350.440928,0.000000
4649.142018,148.041188,-8580.269578,148.041188
4649.142342,592.164754,-8503.660028,-296.082377
4649.142666,444.123565,-8886.707777,-74.020594
4649.142991,444.123565,-8503.660028,-222.061783
4649.143315,666.185348,-8580.269578,0.000000
4649.143639,888.247130,-8350.440928,148.041188
4649.143964,222.061783,-8503.660028,74.020594
4649.144288,444.123565,-8503.660028,-370.102971
4649.144612,370.102971,-8656.879127,-222.061783
4649.144936,444.123565,-8580.269578,-370.102971
4649.145261,444.123565,-8273.831378,0.000000
4649.145585,370.102971,-8427.050478,-148.041188
4649.145909,518.144159,-7890.783629,0.000000
4649.146233,666.185348,-8044.002729,-518.144159
4649.146558,296.082377,-7967.393179,-518.144159
4649.146882,222.061783,-8656.879127,-148.041188
4649.147206,148.041188,-8656.879127,-444.123565
4649.147531,222.061783,-8886.707777,-518.144159
4649.147855,592.164754,-9269.755526,0.000000
4649.148179,222.061783,-8580.269578,-148.041188
4649.148503,0.000000,-8733.488677,-296.082377
4649.148828,222.061783,-8427.050478,-296.082377
4649.149152,74.020594,-8656.879127,0.000000
4649.149476,518.144159,-8810.098227,-222.061783
4649.149800,592.164754,-8656.879127,-518.144159
4649.150125,1110.308913,-8503.660028,-148.041188
4649.150449,296.082377,-8427.050478,-444.123565
4649.150773,-148.041188,-8810.098227,0.000000
4649.151098,222.061783,-8350.440928,-370.102971
4649.151422,370.102971,-8886.707777,-296.082377
4649.151746,444.123565,-8810.098227,-370.102971
4649.152070,518.144159,-8886.707777,-518.144159
4649.152395,666.185348,-8810.098227,-444.123565
4649.152719,296.082377,-8503.660028,-740.205942
4649.153043,814.226536,-8886.707777,-666.185348
4649.153367,592.164754,-8273.831378,-814.226536
4649.153692,222.061783,-8656.879127,-814.226536
4649.154016,148.041188,-8733.488677,-666.185348
4649.154340,222.061783,-8733.488677,-962.267725
4649.154665,148.041188,-8503.660028,-666.185348
4649.154989,296.082377,-8810.098227,-888.247130
4649.155313,666.185348,-8733.488677,-370.102971
4649.155637,222.061783,-8656.879127,-370.102971
