#time,accel_x,accel_y,accel_z
4502.751094,296.082377,-8503.660028,-444.123565
4502.751418,444.123565,-8350.440928,-296.082377
4502.751743,222.061783,-8580.269578,-148.041188
4502.752068,518.144159,-8656.879127,-222.061783
4502.752392,666.185348,-8197.221829,0.000000
4502.752717,592.164754,-8886.707777,0.000000
4502.753042,592.164754,-8197.221829,148.041188
4502.753367,592.164754,-8580.269578,222.061783
4502.753691,444.123565,-8810.098227,-296.082377
4502.754016,592.164754,-8427.050478,222.061783
4502.754341,444.123565,-8427.050478,0.000000
4502.754665,296.082377,-8503.660028,296.082377
4502.754990,296.082377,-8810.098227,444.123565
4502.755314,296.082377,-8886.707777,518.144159
4502.755639,148.041188,-8350.440928,518.144159
4502.755963,222.061783,-8733.488677,444.123565
4502.756287,296.082377,-8427.050478,1036.288319
4502.756612,592.164754,-8810.098227,592.164754
4502.756936,222.061783,-8656.879127,740.205942
4502.757261,222.061783,-8427.050478,814.226536
4502.757585,518.144159,-8427.050478,666.185348
4502.757909,518.144159,-9499.584175,518.144159
4502.758234,222.061783,-8427.050478,740.205942
4502.758558,148.041188,-8503.660028,592.164754
4502.758883,222.061783,-8044.002729,296.082377
4502.759207,296.082377,-8503.660028,370.102971
4502.759532,370.102971,-8810.098227,444.123565
4502.759856,592.164754,-8350.440928,592.164754
4502.760180,518.144159,-8580.269578,592.164754
4502.760505,370.102971,-8733.488677,444.123565
4502.760829,592.164754,-9039.926876,518.144159
4502.761154,518.144159,-8503.660028,222.061783
4502.761478,444.123565,-8733.488677,296.082377
4502.761803,370.102971,-8580.269578,0.000000
4502.762127,518.144159,-8963.317327,0.000000
4502.762451,148.041188,-8580.269578,0.000000
4502.762776,370.102971,-8656.879127,-148.041188
4502.763100,444.123565,-8656.879127,-222.061783
4502.763425,814.226536,-8580.269578,0.000000
4502.763749,148.041188,-8580.269578,-296.082377
4502.764073,444.123565,-8886.707777,74.020594
4502.764398,666.185348,-8656.879127,0.000000
4502.764722,518.144159,-8886.707777,0.000000
4502.765047,444.123565,-8503.660028,-370.102971
4502.765371,148.041188,-8656.879127,-222.061783
4502.765696,222.061783,-8580.269578,-296.082377
4502.766020,148.041188,-8503.660028,-370.102971
4502.766344,666.185348,-8427.050478,-222.061783
4502.766669,518.144159,-8580.269578,-370.102971
4502.766993,592.164754,-8273.831378,-444.123565
4502.767318,444.123565,-8350.440928,-666.185348
4502.767642,592.164754,-8273.831378,-592.164754
4502.767966,962.267725,-8273.831378,-740.205942
4502.768291,592.164754,-8427.050478,-740.205942
4502.768615,666.185348,-8733.488677,-518.144159
4502.768940,518.144159,-8503.660028,-740.205942
4502.769264,518.144159,-8120.612279,-1036.288319
4502.769589,444.123565,-8120.612279,-1184.329507
4502.769913,444.123565,-8810.098227,-1184.329507
4502.770237,592.164754,-8273.831378,-1036.288319
4502.770562,444.123565,-8580.269578,-1184.329507
4502.770886,444.123565,-8656.879127,-1258.350101
4502.771211,296.082377,-8503.660028,-1036.288319
4502.771535,444.123565,-8656.879127,-1110.308913
4502.771860,666.185348,-8733.488677,-1110.308913
4502.772184,740.205942,-8427.050478,-1332.370696
4502.772508,740.205942,-8886.707777,-962.267725
4502.772833,740.205942,-8656.879127,-1184.329507
4502.773157,518.144159,-8810.098227,-888.247130
4502.773482,444.123565,-8886.707777,-1258.350101
4502.773806,740.205942,-8733.488677,-1036.288319
4502.774130,296.082377,-8656.879127,-962.267725
4502.774455,296.082377,-8886.707777,-666.185348
4502.774779,518.144159,-8580.269578,-1036.288319
4502.775104,444.123565,-8963.317327,-888.247130
4502.775428,222.061783,-8810.098227,-666.185348
4502.775753,222.061783,-8733.488677,-518.144159
4502.776077,148.041188,-8963.317327,-592.164754
4502.776401,222.061783,-9346.365076,0.000000
4502.776726,222.061783,-8733.488677,-814.226536
4502.777050,296.082377,-9116.536426,-814.226536
4502.777375,296.082377,-8580.269578,-1184.329507
4502.777699,0.000000,-9499.584175,-518.144159
4502.778023,74.020594,-8733.488677,-740.205942
4502.778348,148.041188,-8656.879127,-518.144159
4502.778672,296.082377,-8733.488677,-666.185348
4502.778997,518.144159,-8810.098227,-666.185348
4502.779321,666.185348,-8733.488677,-740.205942
4502.779646,666.185348,-8580.269578,-814.226536
4502.779970,444.123565,-8503.660028,-740.205942
4502.780294,296.082377,-8580.269578,-888.247130
4502.780619,222.061783,-9116.536426,0.000000
4502.780943,222.061783,-8350.440928,-592.164754
4502.781268,148.041188,-8810.098227,-814.226536
4502.781592,518.144159,-8580.269578,-666.185348
4502.781917,444.123565,-9193.145976,-444.123565
4502.782241,444.123565,-8656.879127,-222.061783
4502.782565,518.144159,-8580.269578,-222.061783
4502.782890,370.102971,-8427.050478,-148.041188
4502.783214,666.185348,-8810.098227,0.000000
4502.783539,592.164754,-8656.879127,-222.061783
4502.783863,518.144159,-8963.317327,0.000000
4502.784187,814.226536,-8503.660028,74.020594
4502.784512,666.185348,-8733.488677,296.082377
4502.784836,74.020594,-8656.879127,296.082377
4502.785161,740.205942,-8656.879127,370.102971
4502.785485,814.226536,-8427.050478,148.041188
4502.785810,888.247130,-8656.879127,370.102971
4502.786134,814.226536,-8580.269578,444.123565
4502.786458,888.247130,-8580.269578,296.082377
4502.786783,592.164754,-8580.269578,444.123565
4502.787107,444.123565,-8197.221829,370.102971
4502.787432,740.205942,-8656.879127,814.226536
4502.787756,370.102971,-8656.879127,888.247130
4502.788080,370.102971,-8963.317327,444.123565
4502.788405,518.144159,-8580.269578,296.082377
4502.788729,518.144159,-8503.660028,444.123565
4502.789054,518.144159,-8580.269578,592.164754
4502.789378,740.205942,-8580.269578,444.123565
4502.789703,740.205942,-8580.269578,592.164754
4502.790027,666.185348,-8503.660028,518.144159
4502.790351,814.226536,-8350.440928,518.144159
4502.790676,296.082377,-8580.269578,592.164754
4502.791000,518.144159,-8503.660028,814.226536
4502.791325,222.061783,-8273.831378,740.205942
4502.791649,74.020594,-8580.269578,740.205942
4502.791974,0.000000,-8427.050478,1110.308913
4502.792298,148.041188,-8503.660028,592.164754
4502.792622,148.041188,-8580.269578,814.226536
4502.792947,148.041188,-8580.269578,814.226536
4502.793271,370.102971,-9039.926876,1258.350101
4502.793596,222.061783,-8503.660028,962.267725
4502.793920,148.041188,-8503.660028,962.267725
4502.794244,0.000000,-8427.050478,666.185348
4502.794569,0.000000,-8350.440928,888.247130
4502.794893,0.000000,-8273.831378,888.247130
4502.795218,0.000000,-8427.050478,518.144159
4502.795542,370.102971,-8427.050478,370.102971
4502.795867,148.041188,-8273.831378,518.144159
4502.796191,370.102971,-7890.783629,740.205942
4502.796515,296.082377,-8427.050478,296.082377
4502.796840,444.123565,-8350.440928,296.082377
4502.797164,222.061783,-8580.269578,518.144159
4502.797489,148.041188,-9269.755526,222.061783
4502.797813,296.082377,-8886.707777,296.082377
4502.798137,740.205942,-8427.050478,444.123565
4502.798462,296.082377,-8580.269578,148.041188
4502.798786,370.102971,-8886.707777,148.041188
4502.799111,740.205942,-8427.050478,148.041188
4502.799435,222.061783,-8580.269578,74.020594
4502.799760,370.102971,-8503.660028,222.061783
4502.800084,148.041188,-8810.098227,444.123565
4502.800408,814.226536,-8503.660028,592.164754
4502.800733,444.123565,-8656.879127,222.061783
4502.801057,592.164754,-8656.879127,222.061783
4502.801382,370.102971,-8733.488677,518.144159
4502.801706,370.102971,-8427.050478,814.226536
4502.802031,296.082377,-8886.707777,222.061783
4502.802355,370.102971,-8733.488677,0.000000
4502.802679,592.164754,-8656.879127,0.000000
4502.803004,222.061783,-8656.879127,0.000000
4502.803328,-148.041188,-8503.660028,518.144159
4502.803653,148.041188,-8503.660028,-148.041188
4502.803977,592.164754,-8580.269578,-222.061783
4502.804301,518.144159,-8273.831378,-444.123565
4502.804626,814.226536,-8197.221829,0.000000
4502.804950,666.185348,-8656.879127,-222.061783
4502.805275,444.123565,-8580.269578,-592.164754
4502.805599,518.144159,-8580.269578,-592.164754
4502.805924,222.061783,-8273.831378,-518.144159
4502.806248,592.164754,-8580.269578,-592.164754
4502.806572,222.061783,-8656.879127,-740.205942
4502.806897,370.102971,-8120.612279,-444.123565
4502.807221,148.041188,-8427.050478,-444.123565
4502.807546,222.061783,-8197.221829,-444.123565
4502.807870,296.082377,-8656.879127,-444.123565
4502.808194,370.102971,-8503.660028,-592.164754
4502.808519,444.123565,-8350.440928,0.000000
4502.808843,444.123565,-7890.783629,0.000000
4502.809168,222.061783,-8503.660028,-296.082377
4502.809492,518.144159,-8273.831378,-296.082377
4502.809817,518.144159,-8273.831378,-518.144159
4502.810141,222.061783,-8273.831378,-296.082377
4502.810465,518.144159,-8427.050478,-148.041188
4502.810790,592.164754,-8580.269578,-296.082377
4502.811114,518.144159,-8427.050478,-148.041188
4502.811439,296.082377,-8427.050478,-148.041188
4502.811763,888.247130,-9193.145976,0.000000
4502.812088,666.185348,-8197.221829,-444.123565
4502.812412,222.061783,-8580.269578,0.000000
4502.812736,222.061783,-8350.440928,-370.102971
4502.813061,888.247130,-8656.879127,-148.041188
4502.813385,370.102971,-8733.488677,-740.205942
4502.813710,444.123565,-8273.831378,-370.102971
4502.814034,148.041188,-8580.269578,-666.185348
4502.814358,222.061783,-8427.050478,-666.185348
4502.814683,370.102971,-8427.050478,-518.144159
4502.815007,370.102971,-8810.098227,-518.144159
4502.815332,444.123565,-8197.221829,-370.102971
4502.815656,444.123565,-8503.660028,-370.102971
4502.815981,666.185348,-8656.879127,-518.144159
4502.816305,444.123565,-8733.488677,-518.144159
4502.816629,148.041188,-8580.269578,-666.185348
4502.816954,296.082377,-8810.098227,-592.164754
4502.817278,370.102971,-8503.660028,-296.082377
4502.817603,296.082377,-8733.488677,-444.123565
4502.817927,370.102971,-8580.269578,-740.205942
4502.818251,148.041188,-8427.050478,-518.144159
4502.818576,222.061783,-8503.660028,-740.205942
4502.818900,666.185348,-8120.612279,-518.144159
4502.819225,222.061783,-8580.269578,-740.205942
4502.819549,74.020594,-8810.098227,-592.164754
4502.819874,74.020594,-8427.050478,-814.226536
4502.820198,296.082377,-8503.660028,-444.123565
4502.820522,444.123565,-8656.879127,-814.226536
4502.820847,444.123565,-8580.269578,-444.123565
4502.821171,296.082377,-8503.660028,-814.226536
4502.821496,296.082377,-8810.098227,-740.205942
4502.821820,222.061783,-8350.440928,-814.226536
4502.822145,518.144159,-9039.926876,-888.247130
4502.822469,444.123565,-8273.831378,-740.205942
4502.822793,296.082377,-8963.317327,-814.226536
4502.823118,148.041188,-8503.660028,-1332.370696
4502.823442,592.164754,-8273.831378,-888.247130
4502.823767,518.144159,-8810.098227,-1258.350101
4502.824091,592.164754,-8733.488677,-962.267725
4502.824415,222.061783,-8197.221829,-666.185348
4502.824740,444.123565,-8503.660028,-666.185348
4502.825064,222.061783,-8120.612279,-740.205942
4502.825389,518.144159,-8580.269578,-740.205942
4502.825713,666.185348,-8427.050478,-814.226536
4502.826038,518.144159,-8197.221829,-518.144159
4502.826362,148.041188,-8427.050478,-814.226536
4502.826686,444.123565,-8503.660028,-740.205942
4502.827011,444.123565,-8733.488677,-518.144159
4502.827335,444.123565,-8656.879127,0.000000
4502.827660,0.000000,-8656.879127,-222.061783
4502.827984,444.123565,-8580.269578,-74.020594
4502.828308,370.102971,-8656.879127,-370.102971
4502.828633,74.020594,-7967.393179,0.000000
4502.828957,666.185348,-8733.488677,-296.082377
4502.829282,814.226536,-8503.660028,0.000000
4502.829606,518.144159,-8350.440928,-222.061783
4502.829931,370.102971,-8427.050478,-518.144159
4502.830255,592.164754,-8427.050478,-296.082377
4502.830579,444.123565,-8273.831378,-444.123565
4502.830904,518.144159,-8580.269578,-518.144159
4502.831228,518.144159,-8350.440928,-296.082377
4502.831553,666.185348,-9269.755526,74.020594
4502.831877,296.082377,-8427.050478,-148.041188
4502.832202,444.123565,-8580.269578,-296.082377
4502.832526,518.144159,-8733.488677,-296.082377
4502.832850,296.082377,-8580.269578,0.000000
4502.833175,222.061783,-8733.488677,-222.061783
4502.833499,296.082377,-8810.098227,-222.061783
4502.833824,370.102971,-8580.269578,-222.061783
4502.834148,444.123565,-8580.269578,-222.061783
4502.834472,370.102971,-8580.269578,-370.102971
4502.834797,740.205942,-8810.098227,-222.061783
4502.835121,444.123565,-8580.269578,0.000000
4502.835446,814.226536,-8733.488677,0.000000
4502.835770,740.205942,-8427.050478,-370.102971
4502.836095,888.247130,-8810.098227,-296.082377
4502.836419,740.205942,-8733.488677,-222.061783
4502.836743,370.102971,-8886.707777,-222.061783
4502.837068,444.123565,-8886.707777,0.000000
4502.837392,592.164754,-8580.269578,-370.102971
4502.837717,592.164754,-8886.707777,-296.082377
4502.838041,370.102971,-8656.879127,-222.061783
4502.838365,740.205942,-8580.269578,-296.082377
4502.838690,888.247130,-8656.879127,-444.123565
4502.839014,666.185348,-8580.269578,-666.185348
4502.839339,592.164754,-8886.707777,-740.205942
4502.839663,740.205942,-8733.488677,-666.185348
4502.839988,518.144159,-8733.488677,-1332.370696
4502.840312,444.123565,-8886.707777,-962.267725
4502.840636,444.123565,-8656.879127,-740.205942
4502.840961,592.164754,-8963.317327,-888.247130
4502.841285,592.164754,-8580.269578,-1258.350101
4502.841610,740.205942,-8580.269578,-1036.288319
4502.841934,740.205942,-8810.098227,-962.267725
4502.842259,592.164754,-8733.488677,-1332.370696
4502.842583,592.164754,-8886.707777,-1258.350101
4502.842907,888.247130,-9422.974625,-1554.432478
4502.843232,444.123565,-8350.440928,-1110.308913
4502.843556,222.061783,-8810.098227,-1258.350101
4502.843881,222.061783,-8963.317327,-1184.329507
4502.844205,518.144159,-9346.365076,-1184.329507
4502.844529,296.082377,-8810.098227,-1332.370696
4502.844854,296.082377,-8733.488677,-1110.308913
4502.845178,296.082377,-8656.879127,-1184.329507
4502.845503,592.164754,-8733.488677,-1258.350101
4502.845827,666.185348,-8733.488677,-1258.350101
4502.846152,518.144159,-8733.488677,-1554.432478
4502.846476,592.164754,-8810.098227,-1332.370696
4502.846800,518.144159,-8580.269578,-1258.350101
4502.847125,592.164754,-9422.974625,-1332.370696
4502.847449,296.082377,-8580.269578,-1332.370696
4502.847774,370.102971,-8733.488677,-1258.350101
4502.848098,74.020594,-8810.098227,-1406.391290
4502.848422,518.144159,-9422.974625,-1184.329507
4502.848747,296.082377,-8733.488677,-1406.391290
4502.849071,296.082377,-8580.269578,-1332.370696
4502.849396,222.061783,-8503.660028,-1480.411884
4502.849720,148.041188,-8963.317327,-1258.350101
4502.850045,518.144159,-8733.488677,-1110.308913
4502.850369,222.061783,-8044.002729,-962.267725
4502.850693,222.061783,-8656.879127,-1406.391290
4502.851018,296.082377,-8580.269578,-1258.350101
4502.851342,0.000000,-9193.145976,-814.226536
4502.851667,518.144159,-8810.098227,-1110.308913
4502.851991,296.082377,-8580.269578,-1036.288319
4502.852316,518.144159,-8503.660028,-962.267725
4502.852640,444.123565,-8273.831378,-1036.288319
4502.852964,370.102971,-8273.831378,-888.247130
4502.853289,296.082377,-8580.269578,-962.267725
4502.853613,444.123565,-8197.221829,-814.226536
4502.853938,148.041188,-8427.050478,-888.247130
4502.854262,222.061783,-8580.269578,-814.226536
4502.854586,296.082377,-8273.831378,-666.185348
4502.854911,296.082377,-8580.269578,-592.164754
4502.855235,148.041188,-8580.269578,-444.123565
4502.855560,444.123565,-8810.098227,-370.102971
4502.855884,444.123565,-8350.440928,-370.102971
4502.856208,592.164754,-8120.612279,-296.082377
4502.856532,444.123565,-8580.269578,-296.082377
4502.856857,888.247130,-8503.660028,-370.102971
4502.857181,814.226536,-8273.831378,-296.082377
4502.857505,592.164754,-8503.660028,-222.061783
4502.857829,814.226536,-8350.440928,-296.082377
4502.858154,666.185348,-8656.879127,-222.061783
4502.858478,740.205942,-9039.926876,-296.082377
4502.858802,518.144159,-8580.269578,0.000000
4502.859127,370.102971,-8810.098227,0.000000
4502.859451,740.205942,-8810.098227,-74.020594
4502.859775,222.061783,-8733.488677,296.082377
4502.860099,444.123565,-8810.098227,0.000000
4502.860424,740.205942,-8427.050478,-222.061783
4502.860748,592.164754,-8503.660028,0.000000
4502.861072,592.164754,-8886.707777,0.000000
4502.861396,222.061783,-8810.098227,0.000000
4502.861721,370.102971,-8733.488677,0.000000
4502.862045,740.205942,-8886.707777,0.000000
4502.862369,370.102971,-8810.098227,296.082377
4502.862693,222.061783,-9116.536426,518.144159
4502.863018,370.102971,-8733.488677,222.061783
4502.863342,518.144159,-8733.488677,0.000000
4502.863666,518.144159,-8886.707777,-148.041188
4502.863991,518.144159,-8503.660028,296.082377
4502.864315,222.061783,-8733.488677,0.000000
4502.864639,370.102971,-8733.488677,0.000000
4502.864963,296.082377,-8580.269578,74.020594
4502.865288,518.144159,-8503.660028,-296.082377
4502.865612,592.164754,-8963.317327,0.000000
4502.865936,444.123565,-8656.879127,0.000000
4502.866260,518.144159,-8656.879127,0.000000
4502.866585,444.123565,-8350.440928,-222.061783
4502.866909,814.226536,-8733.488677,-222.061783
4502.867233,518.144159,-8733.488677,-222.061783
4502.867557,592.164754,-8427.050478,0.000000
4502.867882,222.061783,-8503.660028,0.000000
4502.868206,222.061783,-8733.488677,-296.082377
4502.868530,74.020594,-8427.050478,0.000000
4502.868855,296.082377,-8963.317327,-222.061783
4502.869179,296.082377,-8580.269578,74.020594
4502.869503,444.123565,-8503.660028,0.000000
4502.869827,444.123565,-8503.660028,-148.041188
4502.870152,222.061783,-8427.050478,-518.144159
4502.870476,814.226536,-8886.707777,-592.164754
4502.870800,370.102971,-8427.050478,-148.041188
4502.871124,518.144159,-8503.660028,148.041188
4502.871449,148.041188,-8580.269578,-370.102971
4502.871773,222.061783,-8580.269578,-296.082377
4502.872097,370.102971,-8350.440928,-444.123565
4502.872422,592.164754,-8580.269578,-592.164754
4502.872746,592.164754,-8503.660028,0.000000
4502.873070,518.144159,-8273.831378,-222.061783
4502.873394,592.164754,-8656.879127,-814.226536
4502.873719,148.041188,-8427.050478,-518.144159
4502.874043,0.000000,-8427.050478,0.000000
4502.874367,370.102971,-8350.440928,-740.205942
4502.874691,296.082377,-8580.269578,-444.123565
4502.875016,296.082377,-8733.488677,-666.185348
4502.875340,296.082377,-8886.707777,0.000000
4502.875664,296.082377,-8427.050478,-740.205942
4502.875988,592.164754,-8350.440928,-740.205942
4502.876313,666.185348,-8273.831378,-592.164754
4502.876637,518.144159,-8273.831378,-518.144159
4502.876961,888.247130,-8427.050478,-814.226536
4502.877286,592.164754,-8350.440928,-592.164754
4502.877610,518.144159,-8427.050478,-592.164754
4502.877934,296.082377,-8273.831378,-518.144159
4502.878258,740.205942,-8656.879127,148.041188
4502.878583,370.102971,-8580.269578,-148.041188
4502.878907,444.123565,-8120.612279,-370.102971
4502.879231,518.144159,-8656.879127,-370.102971
4502.879555,740.205942,-7507.735880,0.000000
4502.879880,592.164754,-8503.660028,0.000000
4502.880204,814.226536,-8427.050478,-222.061783
4502.880528,814.226536,-8580.269578,-148.041188
4502.880853,666.185348,-8197.221829,-370.102971
4502.881177,740.205942,-8197.221829,-148.041188
4502.881501,370.102971,-8273.831378,-74.020594
4502.881825,592.164754,-8427.050478,-222.061783
4502.882150,222.061783,-8427.050478,0.000000
4502.882474,740.205942,-8197.221829,222.061783
4502.882798,444.123565,-8273.831378,0.000000
4502.883122,740.205942,-8733.488677,-222.061783
4502.883447,666.185348,-8503.660028,148.041188
4502.883771,740.205942,-8733.488677,0.000000
4502.884095,370.102971,-8580.269578,148.041188
4502.884419,370.102971,-8886.707777,0.000000
4502.884744,74.020594,-8580.269578,74.020594
4502.885068,0.000000,-8580.269578,0.000000
4502.885392,222.061783,-8733.488677,0.000000
4502.885717,222.061783,-8427.050478,0.000000
4502.886041,444.123565,-8733.488677,-74.020594
4502.886365,296.082377,-8733.488677,74.020594
4502.886689,592.164754,-9269.755526,222.061783
4502.887014,592.164754,-8733.488677,0.000000
4502.887338,666.185348,-8503.660028,-296.082377
4502.887662,296.082377,-8656.879127,0.000000
4502.887986,222.061783,-8963.317327,-74.020594
4502.888311,518.144159,-8656.879127,0.000000
4502.888635,0.000000,-8810.098227,0.000000
4502.888959,74.020594,-9039.926876,0.000000
4502.889283,148.041188,-8427.050478,74.020594
4502.889608,666.185348,-8886.707777,-518.144159
4502.889932,370.102971,-8810.098227,0.000000
4502.890256,74.020594,-8886.707777,222.061783
4502.890581,296.082377,-8810.098227,0.000000
4502.890905,444.123565,-8273.831378,74.020594
4502.891229,370.102971,-8810.098227,0.000000
4502.891553,444.123565,-8810.098227,0.000000
4502.891878,370.102971,-8197.221829,-370.102971
4502.892202,148.041188,-8810.098227,-296.082377
4502.892526,592.164754,-8580.269578,-222.061783
4502.892850,592.164754,-8580.269578,-222.061783
4502.893175,444.123565,-8427.050478,-370.102971
4502.893499,592.164754,-8580.269578,148.041188
4502.893823,740.205942,-8733.488677,-592.164754
4502.894148,370.102971,-8656.879127,-222.061783
4502.894472,296.082377,-8197.221829,-296.082377
4502.894796,148.041188,-8733.488677,0.000000
4502.895120,740.205942,-8733.488677,0.000000
4502.895445,444.123565,-8580.269578,0.000000
4502.895769,518.144159,-8733.488677,0.000000
4502.896093,296.082377,-8350.440928,0.000000
4502.896417,814.226536,-8197.221829,-296.082377
4502.896742,888.247130,-8733.488677,148.041188
4502.897066,444.123565,-8120.612279,222.061783
4502.897390,814.226536,-8580.269578,-148.041188
4502.897714,740.205942,-8197.221829,74.020594
4502.898039,1036.288319,-8503.660028,-296.082377
4502.898363,592.164754,-8656.879127,0.000000
4502.898687,740.205942,-7967.393179,148.041188
4502.899012,518.144159,-8810.098227,0.000000
4502.899336,1036.288319,-8656.879127,0.000000
4502.899660,666.185348,-8427.050478,-74.020594
4502.899984,592.164754,-8656.879127,0.000000
4502.900309,444.123565,-8656.879127,0.000000
4502.900633,444.123565,-8886.707777,0.000000
4502.900957,444.123565,-8810.098227,222.061783
4502.901281,444.123565,-8503.660028,0.000000
4502.901606,222.061783,-8886.707777,0.000000
4502.901930,222.061783,-8427.050478,0.000000
4502.902254,444.123565,-8427.050478,444.123565
4502.902578,370.102971,-8503.660028,-222.061783
4502.902903,370.102971,-8427.050478,0.000000
4502.903227,222.061783,-8580.269578,0.000000
4502.903551,444.123565,-8810.098227,0.000000
4502.903876,370.102971,-8503.660028,222.061783
4502.904200,74.020594,-8350.440928,0.000000
4502.904524,222.061783,-8503.660028,0.000000
4502.904848,0.000000,-8580.269578,148.041188
4502.905173,-444.123565,-8503.660028,74.020594
4502.905497,296.082377,-8656.879127,74.020594
4502.905821,222.061783,-8503.660028,148.041188
4502.906145,444.123565,-9039.926876,0.000000
4502.906470,444.123565,-8273.831378,0.000000
4502.906794,370.102971,-8733.488677,0.000000
4502.907118,222.061783,-8580.269578,-148.041188
4502.907443,222.061783,-8733.488677,74.020594
4502.907767,148.041188,-8580.269578,0.000000
4502.908091,148.041188,-8810.098227,0.000000
4502.908415,148.041188,-8427.050478,0.000000
4502.908740,370.102971,-8733.488677,0.000000
4502.909064,592.164754,-8273.831378,-222.061783
4502.909388,222.061783,-9193.145976,222.061783
4502.909712,296.082377,-8886.707777,0.000000
4502.910037,74.020594,-8580.269578,148.041188
4502.910361,296.082377,-8733.488677,0.000000
4502.910685,222.061783,-9499.584175,74.020594
4502.911009,-148.041188,-8656.879127,74.020594
4502.911334,148.041188,-8580.269578,74.020594
4502.911658,0.000000,-8580.269578,0.000000
4502.911982,370.102971,-8810.098227,0.000000
4502.912307,222.061783,-8733.488677,0.000000
4502.912631,370.102971,-8197.221829,0.000000
4502.912955,222.061783,-8580.269578,0.000000
4502.913279,296.082377,-8350.440928,0.000000
4502.913604,222.061783,-8120.612279,148.041188
4502.913928,370.102971,-8427.050478,0.000000
4502.914252,370.102971,-8810.098227,222.061783
4502.914576,148.041188,-8580.269578,0.000000
4502.914901,518.144159,-9193.145976,-592.164754
4502.915225,0.000000,-8273.831378,-370.102971
4502.915549,222.061783,-8886.707777,-296.082377
4502.915874,148.041188,-8810.098227,-370.102971
4502.916198,74.020594,-8503.660028,0.000000
4502.916522,0.000000,-8580.269578,-518.144159
4502.916846,0.000000,-8273.831378,-222.061783
4502.917171,444.123565,-8580.269578,-370.102971
4502.917495,666.185348,-8733.488677,-222.061783
4502.917819,444.123565,-8427.050478,-592.164754
4502.918143,444.123565,-8810.098227,-370.102971
4502.918468,370.102971,-8810.098227,-370.102971
4502.918792,222.061783,-8733.488677,-592.164754
4502.919116,148.041188,-9193.145976,-740.205942
4502.919440,296.082377,-8197.221829,-370.102971
4502.919765,296.082377,-8656.879127,-592.164754
4502.920089,0.000000,-8733.488677,-518.144159
4502.920413,222.061783,-8503.660028,-592.164754
4502.920738,370.102971,-8733.488677,-814.226536
4502.921062,222.061783,-8733.488677,-740.205942
4502.921386,222.061783,-8886.707777,-370.102971
4502.921710,370.102971,-8350.440928,-666.185348
4502.922035,518.144159,-9193.145976,-296.082377
4502.922359,222.061783,-8350.440928,-888.247130
4502.922683,370.102971,-8656.879127,-740.205942
4502.923007,444.123565,-8503.660028,-666.185348
4502.923332,148.041188,-8503.660028,-518.144159
4502.923656,148.041188,-8503.660028,-888.247130
4502.923980,592.164754,-8273.831378,-592.164754
4502.924304,518.144159,-8886.707777,-592.164754
4502.924629,592.164754,-8503.660028,-518.144159
4502.924953,518.144159,-8580.269578,-296.082377
4502.925277,518.144159,-8733.488677,-592.164754
4502.925602,518.144159,-8503.660028,-666.185348
4502.925926,444.123565,-8427.050478,-814.226536
4502.926250,222.061783,-8963.317327,-296.082377
4502.926574,222.061783,-8273.831378,-370.102971
4502.926899,296.082377,-8503.660028,-592.164754
4502.927223,296.082377,-8580.269578,-592.164754
4502.927547,296.082377,-8427.050478,-444.123565
4502.927871,592.164754,-8350.440928,-222.061783
4502.928196,444.123565,-8350.440928,-518.144159
4502.928520,666.185348,-8350.440928,-444.123565
4502.928844,74.020594,-8427.050478,-370.102971
4502.929169,666.185348,-8503.660028,-740.205942
4502.929493,370.102971,-8427.050478,-444.123565
4502.929817,666.185348,-8656.879127,-370.102971
4502.930141,296.082377,-8044.002729,-296.082377
4502.930466,370.102971,-8810.098227,0.000000
4502.930790,222.061783,-8350.440928,-370.102971
4502.931114,444.123565,-8427.050478,-148.041188
4502.931438,518.144159,-8427.050478,-296.082377
4502.931763,444.123565,-8273.831378,-74.020594
4502.932087,518.144159,-8427.050478,0.000000
4502.932411,296.082377,-8273.831378,0.000000
4502.932735,444.123565,-8350.440928,-296.082377
4502.933060,666.185348,-8886.707777,-148.041188
4502.933384,592.164754,-7584.345430,222.061783
4502.933708,518.144159,-8350.440928,0.000000
4502.934033,592.164754,-8503.660028,-222.061783
4502.934357,814.226536,-8503.660028,0.000000
4502.934681,814.226536,-8580.269578,-370.102971
4502.935005,518.144159,-8733.488677,0.000000
4502.935330,444.123565,-8733.488677,0.000000
4502.935654,370.102971,-8427.050478,0.000000
4502.935978,296.082377,-8427.050478,0.000000
4502.936302,592.164754,-8963.317327,-518.144159
4502.936627,518.144159,-8580.269578,-370.102971
4502.936951,444.123565,-8580.269578,0.000000
4502.937275,592.164754,-8810.098227,-222.061783
4502.937599,888.247130,-8503.660028,-222.061783
4502.937924,592.164754,-8427.050478,-518.144159
4502.938248,518.144159,-8656.879127,-148.041188
4502.938572,592.164754,-8810.098227,-444.123565
4502.938897,370.102971,-8656.879127,-370.102971
4502.939221,222.061783,-8810.098227,-370.102971
4502.939545,592.164754,-8580.269578,-296.082377
4502.939869,444.123565,-8810.098227,-592.164754
4502.940194,518.144159,-8580.269578,0.000000
4502.940518,814.226536,-8580.269578,-444.123565
4502.940842,370.102971,-8810.098227,-444.123565
4502.941166,740.205942,-9039.926876,-592.164754
4502.941491,370.102971,-8580.269578,-444.123565
4502.941815,444.123565,-8197.221829,0.000000
4502.942139,296.082377,-8427.050478,-296.082377
4502.942464,740.205942,-8886.707777,-444.123565
4502.942788,592.164754,-8197.221829,-518.144159
4502.943112,666.185348,-8656.879127,-592.164754
4502.943436,814.226536,-8580.269578,-962.267725
4502.943761,592.164754,-8350.440928,-370.102971
4502.944085,592.164754,-8503.660028,-740.205942
4502.944409,592.164754,-8810.098227,-888.247130
4502.944733,1110.308913,-8350.440928,-1258.350101
4502.945058,740.205942,-8427.050478,-666.185348
4502.945382,666.185348,-8580.269578,-666.185348
4502.945706,222.061783,-8810.098227,-592.164754
4502.946030,592.164754,-8120.612279,-444.123565
4502.946355,518.144159,-8580.269578,-592.164754
4502.946679,666.185348,-8886.707777,-888.247130
4502.947003,444.123565,-8733.488677,-592.164754
4502.947328,592.164754,-8503.660028,-666.185348
4502.947652,740.205942,-8580.269578,-666.185348
4502.947976,962.267725,-8656.879127,-814.226536
4502.948300,444.123565,-8273.831378,-888.247130
4502.948625,666.185348,-8580.269578,-592.164754
4502.948949,962.267725,-8273.831378,-518.144159
4502.949273,666.185348,-8350.440928,-592.164754
4502.949597,740.205942,-8427.050478,-666.185348
4502.949922,518.144159,-8120.612279,-666.185348
4502.950246,962.267725,-8580.269578,-1110.308913
4502.950570,666.185348,-8810.098227,-518.144159
4502.950894,518.144159,-8503.660028,-592.164754
4502.951219,518.144159,-8656.879127,-740.205942
4502.951543,222.061783,-8580.269578,-592.164754
4502.951867,740.205942,-8580.269578,-592.164754
4502.952192,222.061783,-8350.440928,-740.205942
4502.952516,296.082377,-8733.488677,-592.164754
4502.952840,222.061783,-8427.050478,-666.185348
4502.953164,444.123565,-8427.050478,-740.205942
4502.953489,296.082377,-8273.831378,-814.226536
4502.953813,222.061783,-8656.879127,-888.247130
4502.954137,518.144159,-8350.440928,-518.144159
4502.954461,296.082377,-8503.660028,-518.144159
4502.954786,518.144159,-8580.269578,-888.247130
4502.955110,444.123565,-8427.050478,-814.226536
4502.955434,444.123565,-8427.050478,-814.226536
4502.955759,296.082377,-8427.050478,-740.205942
4502.956083,740.205942,-8733.488677,-444.123565
4502.956407,148.041188,-8580.269578,-518.144159
4502.956731,296.082377,-8733.488677,-592.164754
4502.957056,296.082377,-8733.488677,-740.205942
4502.957380,592.164754,-8656.879127,-222.061783
4502.957704,370.102971,-8350.440928,-370.102971
4502.958029,148.041188,-8656.879127,-592.164754
4502.958353,444.123565,-8733.488677,-592.164754
4502.958677,444.123565,-8503.660028,-518.144159
4502.959001,814.226536,-8580.269578,-740.205942
4502.959326,592.164754,-8810.098227,-518.144159
4502.959650,666.185348,-8810.098227,-370.102971
4502.959974,444.123565,-9116.536426,-518.144159
4502.960299,592.164754,-8120.612279,-296.082377
4502.960623,518.144159,-8963.317327,-296.082377
4502.960947,814.226536,-8427.050478,-592.164754
4502.961272,592.164754,-8427.050478,-296.082377
4502.961596,518.144159,-8350.440928,-518.144159
4502.961920,148.041188,-8733.488677,-370.102971
4502.962244,222.061783,-8580.269578,-370.102971
4502.962569,740.205942,-8810.098227,-592.164754
4502.962893,296.082377,-8427.050478,-444.123565
4502.963217,222.061783,-8656.879127,-296.082377
4502.963542,148.041188,-8580.269578,-518.144159
4502.963866,296.082377,-8580.269578,-518.144159
4502.964190,296.082377,-8810.098227,-518.144159
4502.964514,666.185348,-9039.926876,-370.102971
4502.964839,518.144159,-8350.440928,-888.247130
4502.965163,148.041188,-8810.098227,-296.082377
4502.965487,518.144159,-8503.660028,-666.185348
4502.965812,444.123565,-8810.098227,-148.041188
4502.966136,222.061783,-8350.440928,-222.061783
4502.966460,148.041188,-8503.660028,-74.020594
4502.966784,148.041188,-8427.050478,-370.102971
4502.967109,148.041188,-8580.269578,-296.082377
4502.967433,74.020594,-8656.879127,-296.082377
4502.967757,370.102971,-8963.317327,-444.123565
4502.968082,518.144159,-8580.269578,-370.102971
4502.968406,296.082377,-9116.536426,-296.082377
4502.968730,518.144159,-9039.926876,-296.082377
4502.969055,592.164754,-8656.879127,-370.102971
4502.969379,666.185348,-8580.269578,-592.164754
4502.969703,592.164754,-8733.488677,-370.102971
4502.970027,518.144159,-8656.879127,-370.102971
4502.970352,518.144159,-8273.831378,-296.082377
4502.970676,370.102971,-8503.660028,-518.144159
4502.971000,370.102971,-8733.488677,-592.164754
4502.971325,444.123565,-8427.050478,-370.102971
4502.971649,296.082377,-8427.050478,-296.082377
4502.971973,592.164754,-8810.098227,-740.205942
4502.972297,518.144159,-8733.488677,-518.144159
4502.972622,518.144159,-8503.660028,-444.123565
4502.972946,370.102971,-7967.393179,-740.205942
4502.973270,592.164754,-8580.269578,-592.164754
4502.973595,592.164754,-8197.221829,-444.123565
4502.973919,518.144159,-8580.269578,-518.144159
4502.974243,592.164754,-8656.879127,-740.205942
4502.974568,592.164754,-8810.098227,-518.144159
4502.974892,666.185348,-8427.050478,0.000000
4502.975216,444.123565,-8963.317327,-296.082377
4502.975540,518.144159,-8656.879127,-518.144159
4502.975865,296.082377,-8886.707777,-222.061783
4502.976189,666.185348,-8580.269578,-370.102971
4502.976513,740.205942,-8656.879127,-148.041188
4502.976838,518.144159,-8810.098227,-148.041188
4502.977162,444.123565,-9039.926876,0.000000
4502.977486,444.123565,-8656.879127,-444.123565
4502.977810,222.061783,-8656.879127,-518.144159
4502.978135,370.102971,-8810.098227,-518.144159
4502.978459,444.123565,-8273.831378,-518.144159
4502.978783,222.061783,-9039.926876,-444.123565
4502.979108,296.082377,-8656.879127,-666.185348
4502.979432,296.082377,-8580.269578,-370.102971
4502.979756,592.164754,-8886.707777,-1036.288319
4502.980080,740.205942,-8963.317327,-148.041188
4502.980405,370.102971,-8273.831378,-666.185348
4502.980729,666.185348,-8580.269578,-666.185348
4502.981053,370.102971,-8350.440928,-592.164754
4502.981378,814.226536,-9269.755526,-1036.288319
4502.981702,592.164754,-8580.269578,-740.205942
4502.982026,370.102971,-8656.879127,-370.102971
4502.982351,370.102971,-8886.707777,-666.185348
4502.982675,444.123565,-8656.879127,-518.144159
4502.982999,592.164754,-8886.707777,-444.123565
4502.983323,518.144159,-8656.879127,-518.144159
4502.983648,370.102971,-8733.488677,-222.061783
4502.983972,370.102971,-8350.440928,-296.082377
4502.984296,74.020594,-9039.926876,222.061783
4502.984621,222.061783,-8503.660028,0.000000
4502.984945,222.061783,-8656.879127,-148.041188
4502.985269,592.164754,-8580.269578,0.000000
4502.985593,370.102971,-8503.660028,0.000000
4502.985918,518.144159,-8810.098227,0.000000
4502.986242,370.102971,-8580.269578,0.000000
4502.986566,814.226536,-8273.831378,-148.041188
4502.986891,370.102971,-8810.098227,0.000000
4502.987215,370.102971,-8810.098227,148.041188
4502.987539,296.082377,-8810.098227,0.000000
4502.987864,296.082377,-8427.050478,-370.102971
4502.988188,444.123565,-8503.660028,0.000000
4502.988512,222.061783,-8810.098227,222.061783
4502.988836,296.082377,-8273.831378,0.000000
4502.989161,444.123565,-8427.050478,-222.061783
4502.989485,370.102971,-8580.269578,0.000000
4502.989809,592.164754,-8580.269578,-296.082377
4502.990134,666.185348,-8656.879127,0.000000
4502.990458,444.123565,-8120.612279,-222.061783
4502.990782,370.102971,-8427.050478,0.000000
4502.991106,444.123565,-8427.050478,-148.041188
4502.991431,222.061783,-8810.098227,296.082377
4502.991755,0.000000,-8886.707777,-148.041188
4502.992079,296.082377,-8733.488677,0.000000
4502.992404,0.000000,-8197.221829,0.000000
4502.992728,74.020594,-9193.145976,666.185348
4502.993052,74.020594,-8427.050478,0.000000
4502.993377,370.102971,-8503.660028,222.061783
4502.993701,296.082377,-8427.050478,-222.061783
4502.994025,296.082377,-8503.660028,148.041188
4502.994349,222.061783,-8733.488677,0.000000
4502.994674,370.102971,-8733.488677,0.000000
4502.994998,222.061783,-8273.831378,-148.041188
4502.995322,370.102971,-8733.488677,-444.123565
4502.995647,370.102971,-8656.879127,0.000000
4502.995971,444.123565,-8273.831378,-296.082377
4502.996295,222.061783,-8656.879127,-296.082377
4502.996619,444.123565,-8503.660028,-518.144159
4502.996944,666.185348,-8656.879127,-518.144159
4502.997268,0.000000,-8503.660028,-370.102971
4502.997592,222.061783,-8580.269578,-222.061783
4502.997917,222.061783,-8656.879127,-148.041188
4502.998241,148.041188,-8656.879127,-444.123565
4502.998565,222.061783,-8886.707777,-592.164754
4502.998889,370.102971,-8963.317327,-592.164754
4502.999214,296.082377,-8350.440928,-518.144159
4502.999538,592.164754,-8886.707777,-666.185348
4502.999862,296.082377,-8886.707777,-444.123565
4503.000187,740.205942,-8503.660028,-296.082377
4503.000511,370.102971,-8273.831378,-740.205942
4503.000835,444.123565,-8580.269578,-444.123565
4503.001160,444.123565,-8350.440928,-370.102971
4503.001484,296.082377,-8427.050478,-222.061783
4503.001808,444.123565,-8503.660028,-444.123565
4503.002132,740.205942,-8580.269578,-370.102971
4503.002457,592.164754,-8656.879127,-296.082377
4503.002781,592.164754,-8427.050478,0.000000
4503.003105,444.123565,-8580.269578,-370.102971
4503.003430,296.082377,-8350.440928,-296.082377
4503.003754,370.102971,-8656.879127,-222.061783
4503.004078,814.226536,-8350.440928,0.000000
4503.004402,296.082377,-8273.831378,-148.041188
4503.004727,370.102971,-8427.050478,-296.082377
4503.005051,444.123565,-8733.488677,-296.082377
4503.005375,296.082377,-8503.660028,0.000000
4503.005700,222.061783,-8656.879127,-296.082377
4503.006024,518.144159,-8503.660028,-370.102971
4503.006348,444.123565,-8503.660028,-222.061783
4503.006673,370.102971,-8733.488677,-222.061783
4503.006997,370.102971,-8350.440928,74.020594
4503.007321,518.144159,-8427.050478,-296.082377
4503.007645,296.082377,-8427.050478,-222.061783
4503.007970,296.082377,-8733.488677,0.000000
4503.008294,148.041188,-8044.002729,296.082377
4503.008618,222.061783,-8580.269578,148.041188
4503.008943,148.041188,-8810.098227,0.000000
4503.009267,222.061783,-9039.926876,0.000000
4503.009591,222.061783,-8656.879127,148.041188
4503.009915,222.061783,-8656.879127,222.061783
4503.010240,370.102971,-8580.269578,0.000000
4503.010564,74.020594,-8580.269578,296.082377
4503.010888,296.082377,-8427.050478,222.061783
4503.011213,592.164754,-8656.879127,518.144159
4503.011537,296.082377,-8120.612279,0.000000
4503.011861,444.123565,-8810.098227,518.144159
4503.012185,296.082377,-8350.440928,0.000000
4503.012510,888.247130,-8580.269578,296.082377
4503.012834,222.061783,-8656.879127,222.061783
4503.013158,444.123565,-8656.879127,370.102971
4503.013483,148.041188,-8503.660028,0.000000
4503.013807,296.082377,-8810.098227,148.041188
4503.014131,518.144159,-8273.831378,74.020594
4503.014456,148.041188,-9039.926876,0.000000
4503.014780,74.020594,-8733.488677,-222.061783
4503.015104,370.102971,-8503.660028,0.000000
4503.015428,222.061783,-8273.831378,0.000000
4503.015753,296.082377,-8580.269578,0.000000
4503.016077,370.102971,-8733.488677,-222.061783
4503.016401,518.144159,-8886.707777,0.000000
4503.016726,814.226536,-8503.660028,-296.082377
4503.017050,370.102971,-8886.707777,0.000000
4503.017374,370.102971,-8273.831378,-148.041188
4503.017698,666.185348,-8886.707777,0.000000
4503.018023,444.123565,-8733.488677,-222.061783
4503.018347,222.061783,-8350.440928,0.000000
4503.018671,296.082377,-8503.660028,0.000000
4503.018996,148.041188,-8503.660028,0.000000
4503.019320,222.061783,-8503.660028,-296.082377
4503.019644,666.185348,-9422.974625,-296.082377
4503.019969,296.082377,-8503.660028,0.000000
4503.020293,296.082377,-8656.879127,0.000000
4503.020617,444.123565,-8810.098227,-370.102971
4503.020941,518.144159,-8810.098227,0.000000
4503.021266,444.123565,-8273.831378,-518.144159
4503.021590,666.185348,-8656.879127,-222.061783
4503.021914,370.102971,-8427.050478,-148.041188
4503.022239,740.205942,-8733.488677,-370.102971
4503.022563,148.041188,-8580.269578,-444.123565
4503.022887,518.144159,-8656.879127,-370.102971
4503.023211,444.123565,-8580.269578,-444.123565
4503.023536,222.061783,-8044.002729,-296.082377
4503.023860,296.082377,-9116.536426,-370.102971
4503.024184,74.020594,-8580.269578,-370.102971
4503.024509,222.061783,-8580.269578,-296.082377
4503.024833,296.082377,-8427.050478,-370.102971
4503.025157,444.123565,-8733.488677,-370.102971
4503.025482,296.082377,-8733.488677,-222.061783
4503.025806,518.144159,-8810.098227,-518.144159
4503.026130,444.123565,-8503.660028,-740.205942
4503.026454,222.061783,-8427.050478,-222.061783
4503.026779,222.061783,-8810.098227,0.000000
4503.027103,444.123565,-8656.879127,-518.144159
4503.027427,222.061783,-8810.098227,-296.082377
4503.027752,592.164754,-8503.660028,0.000000
4503.028076,888.247130,-8197.221829,-222.061783
4503.028400,518.144159,-8503.660028,-370.102971
4503.028724,222.061783,-8733.488677,0.000000
4503.029049,296.082377,-8427.050478,-370.102971
4503.029373,296.082377,-8733.488677,-296.082377
4503.029697,222.061783,-8273.831378,-518.144159
4503.030022,518.144159,-9193.145976,-518.144159
4503.030346,444.123565,-8273.831378,-518.144159
4503.030670,444.123565,-8733.488677,-296.082377
4503.030994,444.123565,-8350.440928,-666.185348
4503.031319,222.061783,-8656.879127,-148.041188
4503.031643,444.123565,-8427.050478,-592.164754
4503.031967,592.164754,-8427.050478,-518.144159
4503.032292,592.164754,-8273.831378,-444.123565
4503.032616,222.061783,-8427.050478,-444.123565
4503.032940,666.185348,-8503.660028,-518.144159
4503.033265,518.144159,-8580.269578,-814.226536
4503.033589,370.102971,-8733.488677,-370.102971
4503.033913,518.144159,-8197.221829,-74.020594
4503.034237,444.123565,-8427.050478,-296.082377
4503.034562,370.102971,-8656.879127,-148.041188
4503.034886,666.185348,-8427.050478,0.000000
4503.035210,888.247130,-8580.269578,0.000000
4503.035535,740.205942,-8427.050478,0.000000
4503.035859,740.205942,-8503.660028,0.000000
4503.036183,518.144159,-8580.269578,0.000000
4503.036507,814.226536,-8503.660028,0.000000
4503.036832,740.205942,-8733.488677,-296.082377
4503.037156,740.205942,-8733.488677,74.020594
4503.037480,518.144159,-8503.660028,0.000000
4503.037805,666.185348,-8733.488677,222.061783
4503.038129,740.205942,-8580.269578,74.020594
4503.038453,740.205942,-8733.488677,148.041188
4503.038778,518.144159,-8580.269578,0.000000
4503.039102,370.102971,-8503.660028,222.061783
4503.039426,518.144159,-9039.926876,-444.123565
4503.039750,296.082377,-8656.879127,0.000000
4503.040075,444.123565,-8580.269578,-296.082377
4503.040399,370.102971,-8580.269578,-592.164754
4503.040723,370.102971,-9039.926876,0.000000
4503.041048,444.123565,-8427.050478,-518.144159
4503.041372,370.102971,-8886.707777,-518.144159
4503.041696,592.164754,-8427.050478,-592.164754
4503.042020,888.247130,-8886.707777,-740.205942
4503.042345,814.226536,-8503.660028,-666.185348
4503.042669,370.102971,-8656.879127,-518.144159
4503.042993,222.061783,-8427.050478,-518.144159
4503.043318,296.082377,-8656.879127,-444.123565
4503.043642,370.102971,-8656.879127,-888.247130
4503.043966,74.020594,-8810.098227,-518.144159
4503.044291,370.102971,-8580.269578,-370.102971
4503.044615,74.020594,-8273.831378,-444.123565
4503.044939,518.144159,-8656.879127,-518.144159
4503.045263,518.144159,-8733.488677,-666.185348
4503.045588,592.164754,-8503.660028,-592.164754
4503.045912,370.102971,-8427.050478,-666.185348
4503.046236,370.102971,-8580.269578,-592.164754
4503.046561,444.123565,-8810.098227,-740.205942
4503.046885,370.102971,-8273.831378,-740.205942
4503.047209,296.082377,-8656.879127,-740.205942
4503.047533,666.185348,-8580.269578,-740.205942
4503.047858,740.205942,-8963.317327,-592.164754
4503.048182,740.205942,-8580.269578,-592.164754
4503.048506,666.185348,-8503.660028,-814.226536
4503.048831,592.164754,-8580.269578,-1036.288319
4503.049155,518.144159,-8350.440928,-666.185348
4503.049479,740.205942,-8503.660028,-740.205942
4503.049803,592.164754,-8580.269578,-740.205942
4503.050128,518.144159,-8503.660028,-814.226536
4503.050452,296.082377,-8427.050478,-962.267725
4503.050776,148.041188,-9039.926876,0.000000
4503.051101,370.102971,-8350.440928,-814.226536
4503.051425,444.123565,-8273.831378,-518.144159
4503.051749,444.123565,-8810.098227,-370.102971
4503.052074,666.185348,-8810.098227,-444.123565
4503.052398,962.267725,-8733.488677,-444.123565
4503.052722,518.144159,-8580.269578,-222.061783
4503.053046,740.205942,-8503.660028,-296.082377
4503.053371,518.144159,-8733.488677,-370.102971
4503.053695,888.247130,-8656.879127,-370.102971
4503.054019,296.082377,-8427.050478,-370.102971
4503.054344,592.164754,-8963.317327,-518.144159
4503.054668,592.164754,-8656.879127,0.000000
4503.054992,962.267725,-8656.879127,-962.267725
4503.055316,444.123565,-8656.879127,-370.102971
4503.055641,666.185348,-8656.879127,-518.144159
4503.055965,222.061783,-8656.879127,-518.144159
4503.056289,370.102971,-8580.269578,-666.185348
4503.056614,518.144159,-8503.660028,-814.226536
4503.056938,296.082377,-8656.879127,-888.247130
4503.057263,222.061783,-8580.269578,-666.185348
4503.057587,444.123565,-8503.660028,-666.185348
4503.057912,666.185348,-8963.317327,-518.144159
4503.058236,296.082377,-8580.269578,-518.144159
4503.058560,148.041188,-8733.488677,-740.205942
4503.058885,222.061783,-8503.660028,-444.123565
4503.059209,148.041188,-8427.050478,-592.164754
4503.059534,74.020594,-8656.879127,-518.144159
4503.059858,148.041188,-8810.098227,-222.061783
4503.060183,148.041188,-8350.440928,-296.082377
4503.060507,74.020594,-8733.488677,-222.061783
4503.060832,0.000000,-8580.269578,-592.164754
4503.061156,296.082377,-8963.317327,0.000000
4503.061480,444.123565,-8580.269578,-222.061783
4503.061805,444.123565,-8503.660028,-148.041188
4503.062129,888.247130,-8580.269578,-296.082377
4503.062454,444.123565,-8503.660028,-296.082377
4503.062778,666.185348,-8580.269578,-296.082377
4503.063103,740.205942,-8427.050478,-592.164754
4503.063427,888.247130,-9116.536426,148.041188
4503.063752,666.185348,-8350.440928,-296.082377
4503.064076,518.144159,-8656.879127,-296.082377
4503.064400,370.102971,-8580.269578,-296.082377
4503.064725,592.164754,-9116.536426,-370.102971
4503.065049,666.185348,-8273.831378,-592.164754
4503.065374,296.082377,-8580.269578,-370.102971
4503.065698,370.102971,-8580.269578,-444.123565
4503.066023,444.123565,-8427.050478,-518.144159
4503.066347,592.164754,-8810.098227,-666.185348
4503.066671,370.102971,-8810.098227,-518.144159
4503.066996,666.185348,-8503.660028,-592.164754
4503.067320,296.082377,-8350.440928,-666.185348
4503.067645,370.102971,-8197.221829,-666.185348
4503.067969,592.164754,-8120.612279,-740.205942
4503.068294,296.082377,-8350.440928,-370.102971
4503.068618,592.164754,-8427.050478,-296.082377
4503.068943,370.102971,-8656.879127,-296.082377
4503.069267,814.226536,-8733.488677,-666.185348
4503.069591,370.102971,-8273.831378,-444.123565
4503.069916,444.123565,-8503.660028,-518.144159
4503.070240,222.061783,-8580.269578,-666.185348
4503.070565,888.247130,-9039.926876,-592.164754
4503.070889,74.020594,-8580.269578,-296.082377
4503.071214,296.082377,-8503.660028,-666.185348
4503.071538,518.144159,-8656.879127,-740.205942
4503.071863,518.144159,-8656.879127,-814.226536
4503.072187,370.102971,-8580.269578,-296.082377
4503.072511,296.082377,-8733.488677,-592.164754
4503.072836,370.102971,-8656.879127,-888.247130
4503.073160,444.123565,-8503.660028,-740.205942
4503.073485,148.041188,-8656.879127,-666.185348
4503.073809,592.164754,-8503.660028,-740.205942
4503.074134,444.123565,-8810.098227,-888.247130
4503.074458,222.061783,-8580.269578,-814.226536
4503.074783,222.061783,-8427.050478,-666.185348
4503.075107,296.082377,-8963.317327,-814.226536
4503.075431,444.123565,-8810.098227,-962.267725
4503.075756,148.041188,-8886.707777,-666.185348
4503.076080,222.061783,-8963.317327,-666.185348
4503.076405,370.102971,-8580.269578,-814.226536
4503.076729,518.144159,-8580.269578,-666.185348
4503.077054,444.123565,-8733.488677,-666.185348
4503.077378,370.102971,-8580.269578,-518.144159
4503.077703,370.102971,-8810.098227,-814.226536
4503.078027,296.082377,-8733.488677,-444.123565
4503.078351,370.102971,-8503.660028,-666.185348
4503.078676,518.144159,-8963.317327,-370.102971
4503.079000,888.247130,-8886.707777,-370.102971
4503.079325,444.123565,-8733.488677,-296.082377
4503.079649,444.123565,-8656.879127,-296.082377
4503.079974,370.102971,-8580.269578,-444.123565
4503.080298,518.144159,-8656.879127,-296.082377
4503.080623,518.144159,-8656.879127,-370.102971
4503.080947,296.082377,-8580.269578,-148.041188
4503.081271,444.123565,-8503.660028,-222.061783
4503.081596,592.164754,-8273.831378,-370.102971
4503.081920,888.247130,-8503.660028,0.000000
4503.082245,666.185348,-8733.488677,-518.144159
4503.082569,740.205942,-8120.612279,-444.123565
4503.082894,518.144159,-8580.269578,-370.102971
4503.083218,740.205942,-8503.660028,-222.061783
4503.083542,592.164754,-8350.440928,-222.061783
4503.083867,814.226536,-8580.269578,-296.082377
4503.084191,740.205942,-8580.269578,0.000000
4503.084516,518.144159,-8580.269578,-148.041188
4503.084840,740.205942,-8503.660028,0.000000
4503.085165,148.041188,-8044.002729,0.000000
4503.085489,296.082377,-8580.269578,0.000000
4503.085814,296.082377,-8503.660028,222.061783
4503.086138,148.041188,-8503.660028,74.020594
4503.086462,0.000000,-8810.098227,0.000000
4503.086787,222.061783,-8733.488677,0.000000
4503.087111,370.102971,-8810.098227,-148.041188
4503.087436,370.102971,-8350.440928,74.020594
4503.087760,444.123565,-8427.050478,222.061783
4503.088085,444.123565,-8733.488677,0.000000
4503.088409,148.041188,-8503.660028,0.000000
4503.088734,296.082377,-8350.440928,-148.041188
4503.089058,518.144159,-8733.488677,-444.123565
4503.089382,592.164754,-8580.269578,0.000000
4503.089707,666.185348,-8810.098227,-370.102971
4503.090031,370.102971,-8886.707777,-296.082377
4503.090356,370.102971,-8044.002729,0.000000
4503.090680,444.123565,-8886.707777,-666.185348
4503.091005,148.041188,-8810.098227,-444.123565
4503.091329,296.082377,-8886.707777,-370.102971
4503.091654,74.020594,-8963.317327,-592.164754
4503.091978,74.020594,-8886.707777,-592.164754
4503.092302,296.082377,-8733.488677,-740.205942
4503.092627,370.102971,-8733.488677,-518.144159
4503.092951,370.102971,-8350.440928,-518.144159
4503.093276,666.185348,-8503.660028,-444.123565
4503.093600,444.123565,-8503.660028,-592.164754
4503.093925,518.144159,-8427.050478,-296.082377
4503.094249,444.123565,-8427.050478,-666.185348
4503.094574,592.164754,-9039.926876,-740.205942
4503.094898,296.082377,-8580.269578,-370.102971
4503.095222,296.082377,-8580.269578,-296.082377
4503.095547,370.102971,-8656.879127,-592.164754
4503.095871,666.185348,-8963.317327,-296.082377
4503.096196,444.123565,-8580.269578,-370.102971
4503.096520,740.205942,-8427.050478,-296.082377
4503.096845,444.123565,-8733.488677,-518.144159
4503.097169,370.102971,-8580.269578,-296.082377
4503.097494,444.123565,-8197.221829,-592.164754
4503.097818,444.123565,-8350.440928,-518.144159
4503.098142,518.144159,-8580.269578,-370.102971
4503.098467,518.144159,-8503.660028,-444.123565
4503.098791,814.226536,-8580.269578,-592.164754
4503.099116,888.247130,-8427.050478,-518.144159
4503.099440,814.226536,-8580.269578,-592.164754
4503.099765,518.144159,-8350.440928,-296.082377
4503.100089,592.164754,-8273.831378,-370.102971
4503.100413,592.164754,-8503.660028,-370.102971
4503.100738,592.164754,-8580.269578,-518.144159
4503.101062,296.082377,-8350.440928,-370.102971
4503.101387,148.041188,-8580.269578,-296.082377
4503.101711,444.123565,-8580.269578,-222.061783
4503.102036,296.082377,-8810.098227,-296.082377
4503.102360,518.144159,-8580.269578,-370.102971
4503.102685,370.102971,-8656.879127,-296.082377
4503.103009,518.144159,-9193.145976,-888.247130
4503.103333,592.164754,-8580.269578,0.000000
4503.103658,444.123565,-8503.660028,-444.123565
4503.103982,370.102971,-8580.269578,0.000000
4503.104307,444.123565,-8427.050478,-222.061783
4503.104631,592.164754,-8810.098227,-148.041188
4503.104956,444.123565,-8503.660028,0.000000
4503.105280,370.102971,-8733.488677,148.041188
4503.105605,444.123565,-8656.879127,0.000000
4503.105929,0.000000,-9039.926876,518.144159
4503.106253,370.102971,-8656.879127,0.000000
4503.106578,296.082377,-8656.879127,0.000000
4503.106902,296.082377,-8350.440928,0.000000
4503.107227,296.082377,-9346.365076,0.000000
4503.107551,518.144159,-8350.440928,0.000000
4503.107876,296.082377,-8580.269578,-148.041188
4503.108200,296.082377,-8503.660028,-222.061783
4503.108525,444.123565,-8733.488677,0.000000
4503.108849,370.102971,-8580.269578,-518.144159
4503.109173,444.123565,-8580.269578,-296.082377
4503.109498,370.102971,-8503.660028,-222.061783
4503.109822,740.205942,-8733.488677,-518.144159
4503.110147,666.185348,-8273.831378,-222.061783
4503.110471,518.144159,-8656.879127,0.000000
4503.110796,222.061783,-8733.488677,-296.082377
4503.111120,444.123565,-8580.269578,0.000000
4503.111445,444.123565,-8580.269578,-296.082377
4503.111769,444.123565,-8656.879127,0.000000
4503.112093,296.082377,-8580.269578,-74.020594
4503.112418,518.144159,-8810.098227,-148.041188
4503.112742,444.123565,-8350.440928,0.000000
4503.113067,740.205942,-8656.879127,-148.041188
4503.113391,666.185348,-8503.660028,-148.041188
4503.113716,592.164754,-8503.660028,222.061783
4503.114040,444.123565,-8656.879127,-148.041188
4503.114365,444.123565,-9499.584175,148.041188
4503.114689,740.205942,-8886.707777,0.000000
4503.115013,518.144159,-8580.269578,0.000000
4503.115338,592.164754,-8810.098227,148.041188
4503.115662,444.123565,-8503.660028,0.000000
4503.115987,518.144159,-8656.879127,74.020594
4503.116311,518.144159,-8427.050478,-296.082377
4503.116636,296.082377,-8656.879127,-222.061783
4503.116960,370.102971,-8580.269578,-592.164754
4503.117284,74.020594,-8044.002729,74.020594
4503.117609,74.020594,-8733.488677,-370.102971
4503.117933,0.000000,-8580.269578,-148.041188
4503.118258,444.123565,-8427.050478,-222.061783
4503.118582,444.123565,-8886.707777,74.020594
4503.118907,518.144159,-8503.660028,-222.061783
4503.119231,518.144159,-8580.269578,-296.082377
4503.119556,222.061783,-8503.660028,0.000000
4503.119880,148.041188,-8503.660028,-74.020594
4503.120204,740.205942,-8733.488677,-370.102971
4503.120529,444.123565,-8350.440928,-148.041188
4503.120853,296.082377,-8810.098227,0.000000
4503.121178,74.020594,-8503.660028,-222.061783
4503.121502,518.144159,-8656.879127,370.102971
4503.121827,148.041188,-8427.050478,-444.123565
4503.122151,74.020594,-8733.488677,-296.082377
4503.122476,296.082377,-8503.660028,-444.123565
4503.122800,518.144159,-8963.317327,0.000000
4503.123124,370.102971,-8733.488677,-222.061783
4503.123449,444.123565,-8810.098227,-518.144159
4503.123773,296.082377,-8810.098227,-666.185348
4503.124098,518.144159,-8350.440928,-518.144159
4503.124422,74.020594,-8427.050478,-222.061783
4503.124747,370.102971,-8580.269578,-592.164754
4503.125071,740.205942,-8580.269578,-592.164754
4503.125396,518.144159,-8580.269578,-518.144159
4503.125720,666.185348,-8503.660028,-370.102971
4503.126044,222.061783,-8656.879127,-370.102971
4503.126369,592.164754,-8810.098227,-370.102971
4503.126693,296.082377,-8656.879127,0.000000
4503.127018,518.144159,-8886.707777,-296.082377
4503.127342,814.226536,-8503.660028,-296.082377
4503.127667,518.144159,-8273.831378,74.020594
4503.127991,222.061783,-8810.098227,0.000000
4503.128316,444.123565,-8810.098227,0.000000
4503.128640,740.205942,-8656.879127,-74.020594
4503.128964,740.205942,-8580.269578,-296.082377
4503.129289,370.102971,-8656.879127,-148.041188
4503.129613,518.144159,-8427.050478,0.000000
4503.129938,814.226536,-8810.098227,148.041188
4503.130262,444.123565,-8580.269578,74.020594
4503.130587,518.144159,-8656.879127,0.000000
4503.130911,444.123565,-8503.660028,0.000000
4503.131236,444.123565,-8580.269578,0.000000
4503.131560,296.082377,-8580.269578,0.000000
4503.131884,222.061783,-8656.879127,74.020594
4503.132209,666.185348,-8427.050478,-222.061783
4503.132533,592.164754,-8656.879127,-296.082377
4503.132858,518.144159,-8503.660028,-148.041188
4503.133182,518.144159,-8810.098227,0.000000
4503.133507,592.164754,-8580.269578,-444.123565
4503.133831,518.144159,-8350.440928,-518.144159
4503.134155,592.164754,-8273.831378,-370.102971
4503.134480,592.164754,-8503.660028,0.000000
4503.134804,370.102971,-8733.488677,-296.082377
4503.135129,444.123565,-8503.660028,-296.082377
4503.135453,444.123565,-8733.488677,0.000000
4503.135778,222.061783,-8350.440928,-222.061783
4503.136102,296.082377,-8733.488677,0.000000
4503.136427,74.020594,-8580.269578,0.000000
4503.136751,444.123565,-8963.317327,-222.061783
4503.137075,148.041188,-8273.831378,-222.061783
4503.137400,74.020594,-8810.098227,-74.020594
4503.137724,592.164754,-8656.879127,0.000000
4503.138049,444.123565,-8273.831378,74.020594
4503.138373,296.082377,-8733.488677,0.000000
4503.138698,222.061783,-8503.660028,-74.020594
4503.139022,518.144159,-8503.660028,0.000000
4503.139347,444.123565,-8503.660028,-296.082377
4503.139671,296.082377,-8427.050478,-370.102971
4503.139995,74.020594,-8350.440928,0.000000
4503.140320,296.082377,-8733.488677,-74.020594
4503.140644,296.082377,-8273.831378,-370.102971
4503.140969,444.123565,-8733.488677,-518.144159
4503.141293,888.247130,-9116.536426,0.000000
4503.141618,444.123565,-8120.612279,-370.102971
4503.141942,370.102971,-8427.050478,-518.144159
4503.142267,222.061783,-8273.831378,-444.123565
4503.142591,370.102971,-8733.488677,-518.144159
4503.142915,222.061783,-8656.879127,-592.164754
4503.143240,296.082377,-8810.098227,-296.082377
4503.143564,370.102971,-8503.660028,-592.164754
4503.143889,370.102971,-8656.879127,-370.102971
4503.144213,370.102971,-8197.221829,-592.164754
4503.144538,518.144159,-8886.707777,-370.102971
4503.144862,592.164754,-8197.221829,-296.082377
4503.145187,296.082377,-8810.098227,-370.102971
4503.145511,444.123565,-8733.488677,-814.226536
4503.145835,370.102971,-8427.050478,-148.041188
4503.146160,518.144159,-8580.269578,-740.205942
4503.146484,444.123565,-8503.660028,-444.123565
4503.146809,370.102971,-8580.269578,-444.123565
4503.147133,148.041188,-8733.488677,-370.102971
4503.147458,222.061783,-8503.660028,-296.082377
4503.147782,296.082377,-8733.488677,-296.082377
4503.148107,518.144159,-8503.660028,-296.082377
4503.148431,444.123565,-8044.002729,-222.061783
4503.148755,296.082377,-8580.269578,-370.102971
4503.149080,518.144159,-8427.050478,-518.144159
4503.149404,592.164754,-8427.050478,-370.102971
4503.149729,518.144159,-8886.707777,-962.267725
4503.150053,444.123565,-8273.831378,-370.102971
4503.150378,370.102971,-8733.488677,-444.123565
4503.150702,370.102971,-8733.488677,-518.144159
4503.151026,444.123565,-8427.050478,-592.164754
4503.151351,592.164754,-8810.098227,-666.185348
4503.151675,518.144159,-8350.440928,-296.082377
4503.152000,296.082377,-8503.660028,-74.020594
4503.152324,370.102971,-8656.879127,-518.144159
4503.152649,74.020594,-8733.488677,74.020594
4503.152973,370.102971,-8810.098227,-444.123565
4503.153298,222.061783,-8810.098227,-592.164754
4503.153622,222.061783,-8580.269578,-296.082377
4503.153946,296.082377,-8886.707777,-222.061783
4503.154271,444.123565,-8580.269578,-592.164754
4503.154595,444.123565,-8656.879127,-592.164754
4503.154920,296.082377,-8733.488677,-740.205942
4503.155244,592.164754,-8503.660028,-370.102971
4503.155569,222.061783,-8503.660028,-148.041188
4503.155893,370.102971,-8963.317327,-518.144159
4503.156218,740.205942,-8503.660028,-444.123565
4503.156542,592.164754,-8810.098227,-592.164754
4503.156866,370.102971,-8733.488677,74.020594
4503.157189,370.102971,-8427.050478,-444.123565
4503.157514,296.082377,-8810.098227,-592.164754
4503.157838,296.082377,-8580.269578,-444.123565
4503.158162,444.123565,-8427.050478,-740.205942
4503.158486,370.102971,-8656.879127,-444.123565
4503.158811,444.123565,-8197.221829,-518.144159
4503.159135,370.102971,-8733.488677,-592.164754
4503.159459,74.020594,-8580.269578,-518.144159
4503.159783,444.123565,-8273.831378,-740.205942
4503.160108,518.144159,-8580.269578,-814.226536
4503.160432,518.144159,-8503.660028,-370.102971
4503.160756,296.082377,-8580.269578,-370.102971
4503.161081,148.041188,-8656.879127,-444.123565
4503.161405,444.123565,-8503.660028,-444.123565
4503.161729,592.164754,-8427.050478,-518.144159
4503.162053,592.164754,-8580.269578,-222.061783
4503.162378,222.061783,-8427.050478,0.000000
4503.162702,296.082377,-8656.879127,-148.041188
4503.163026,148.041188,-8656.879127,-370.102971
4503.163351,518.144159,-8580.269578,-444.123565
4503.163675,296.082377,-8733.488677,-740.205942
4503.163999,0.000000,-8886.707777,0.000000
4503.164323,148.041188,-8427.050478,-518.144159
4503.164648,370.102971,-8810.098227,-592.164754
4503.164972,518.144159,-8427.050478,-592.164754
4503.165296,74.020594,-8503.660028,296.082377
4503.165621,666.185348,-8197.221829,-296.082377
4503.165945,518.144159,-8503.660028,-518.144159
4503.166269,444.123565,-8886.707777,-296.082377
4503.166593,296.082377,-8427.050478,-444.123565
4503.166918,518.144159,-8503.660028,-518.144159
4503.167242,296.082377,-8503.660028,-740.205942
4503.167566,444.123565,-9039.926876,-222.061783
4503.167891,296.082377,-8503.660028,-592.164754
4503.168215,592.164754,-8656.879127,0.000000
4503.168539,518.144159,-8580.269578,-370.102971
4503.168863,518.144159,-8503.660028,-518.144159
4503.169188,518.144159,-8273.831378,-666.185348
4503.169512,592.164754,-8810.098227,0.000000
4503.169836,370.102971,-8733.488677,-592.164754
4503.170160,592.164754,-8350.440928,-740.205942
4503.170485,444.123565,-8733.488677,-740.205942
4503.170809,296.082377,-8656.879127,-444.123565
4503.171133,222.061783,-8350.440928,-444.123565
4503.171458,444.123565,-8580.269578,-296.082377
4503.171782,592.164754,-8580.269578,-296.082377
4503.172106,740.205942,-8733.488677,-296.082377
4503.172430,518.144159,-8273.831378,0.000000
4503.172755,370.102971,-8350.440928,0.000000
4503.173079,222.061783,-8733.488677,-222.061783
4503.173403,148.041188,-8733.488677,-370.102971
4503.173728,296.082377,-8733.488677,-444.123565
4503.174052,296.082377,-8810.098227,-370.102971
4503.174376,222.061783,-8273.831378,-592.164754
4503.174700,148.041188,-8580.269578,0.000000
4503.175025,518.144159,-8656.879127,-370.102971
4503.175349,740.205942,-8810.098227,-518.144159
4503.175673,592.164754,-8656.879127,-370.102971
4503.175998,666.185348,-8197.221829,-518.144159
4503.176322,444.123565,-8503.660028,-518.144159
4503.176646,1036.288319,-8273.831378,-148.041188
4503.176970,518.144159,-8656.879127,-518.144159
4503.177295,592.164754,-8580.269578,-888.247130
4503.177619,370.102971,-8810.098227,-518.144159
4503.177943,370.102971,-8503.660028,0.000000
4503.178267,148.041188,-8656.879127,0.000000
4503.178592,444.123565,-8427.050478,-518.144159
4503.178916,444.123565,-8733.488677,0.000000
4503.179240,370.102971,-8503.660028,-518.144159
4503.179565,740.205942,-8197.221829,148.041188
4503.179889,148.041188,-8197.221829,-518.144159
4503.180213,444.123565,-8733.488677,-518.144159
4503.180537,222.061783,-8503.660028,-518.144159
4503.180862,666.185348,-8120.612279,0.000000
4503.181186,518.144159,-8427.050478,-814.226536
4503.181510,518.144159,-8580.269578,-148.041188
4503.181835,444.123565,-8656.879127,-222.061783
4503.182159,592.164754,-8580.269578,-444.123565
4503.182483,740.205942,-8733.488677,-296.082377
4503.182807,592.164754,-8580.269578,-370.102971
4503.183132,518.144159,-8273.831378,-222.061783
4503.183456,296.082377,-8427.050478,-222.061783
4503.183780,370.102971,-8503.660028,0.000000
4503.184105,222.061783,-8503.660028,-370.102971
4503.184429,296.082377,-8733.488677,-222.061783
4503.184753,148.041188,-8580.269578,-370.102971
4503.185077,592.164754,-7890.783629,0.000000
4503.185402,444.123565,-8656.879127,-518.144159
4503.185726,296.082377,-8350.440928,-518.144159
4503.186050,222.061783,-8810.098227,-518.144159
4503.186374,518.144159,-8503.660028,-592.164754
4503.186699,592.164754,-8503.660028,-370.102971
4503.187023,222.061783,-8656.879127,-666.185348
4503.187347,370.102971,-8427.050478,-592.164754
4503.187672,740.205942,-8273.831378,-592.164754
4503.187996,518.144159,-9039.926876,-592.164754
4503.188320,592.164754,-8427.050478,-444.123565
4503.188644,444.123565,-8810.098227,-444.123565
4503.188969,444.123565,-8503.660028,-592.164754
4503.189293,962.267725,-8810.098227,-888.247130
4503.189617,370.102971,-8810.098227,-518.144159
4503.189942,518.144159,-8427.050478,-370.102971
4503.190266,444.123565,-8580.269578,-518.144159
4503.190590,444.123565,-8580.269578,-740.205942
4503.190914,666.185348,-8580.269578,-444.123565
4503.191239,592.164754,-8656.879127,-740.205942
4503.191563,370.102971,-8580.269578,-666.185348
4503.191887,444.123565,-8656.879127,0.000000
4503.192212,740.205942,-8886.707777,-296.082377
4503.192536,592.164754,-8503.660028,-444.123565
4503.192860,444.123565,-8656.879127,-370.102971
4503.193184,592.164754,-8963.317327,-222.061783
4503.193509,444.123565,-8427.050478,-296.082377
4503.193833,666.185348,-8427.050478,-222.061783
4503.194157,370.102971,-9039.926876,-518.144159
4503.194481,370.102971,-9193.145976,-592.164754
4503.194806,592.164754,-8886.707777,-592.164754
4503.195130,222.061783,-8503.660028,-444.123565
4503.195454,222.061783,-8733.488677,-370.102971
4503.195779,222.061783,-8656.879127,-370.102971
4503.196103,444.123565,-8810.098227,-222.061783
4503.196427,222.061783,-8273.831378,0.000000
4503.196751,666.185348,-8656.879127,-370.102971
4503.197076,740.205942,-8503.660028,-296.082377
4503.197400,666.185348,-8810.098227,-370.102971
4503.197724,592.164754,-8963.317327,-370.102971
4503.198049,296.082377,-8273.831378,-222.061783
4503.198373,518.144159,-8810.098227,-666.185348
4503.198697,0.000000,-8580.269578,0.000000
4503.199021,222.061783,-8886.707777,-222.061783
4503.199346,74.020594,-8427.050478,-370.102971
4503.199670,296.082377,-8503.660028,-296.082377
4503.199994,518.144159,-8503.660028,-222.061783
4503.200319,444.123565,-8350.440928,-370.102971
4503.200643,370.102971,-8120.612279,0.000000
4503.200967,74.020594,-8656.879127,0.000000
4503.201291,518.144159,-8350.440928,-592.164754
4503.201616,592.164754,-8503.660028,-518.144159
4503.201940,222.061783,-8350.440928,-296.082377
4503.202264,370.102971,-8273.831378,0.000000
4503.202589,444.123565,-8580.269578,-518.144159
4503.202913,666.185348,-8580.269578,-370.102971
4503.203237,444.123565,-8427.050478,-296.082377
4503.203561,814.226536,-8733.488677,-518.144159
4503.203886,518.144159,-8503.660028,-222.061783
4503.204210,0.000000,-8427.050478,-296.082377
4503.204534,148.041188,-8963.317327,-444.123565
4503.204858,148.041188,-8503.660028,-222.061783
4503.205183,370.102971,-8656.879127,-666.185348
4503.205507,370.102971,-8656.879127,-222.061783
4503.205831,296.082377,-8656.879127,-740.205942
4503.206156,370.102971,-8580.269578,-148.041188
4503.206480,592.164754,-8503.660028,-518.144159
4503.206804,444.123565,-8503.660028,-370.102971
4503.207128,666.185348,-8733.488677,-370.102971
4503.207453,518.144159,-8273.831378,-296.082377
4503.207777,814.226536,-8197.221829,0.000000
4503.208101,444.123565,-8503.660028,0.000000
4503.208426,444.123565,-8580.269578,0.000000
4503.208750,444.123565,-8427.050478,-148.041188
4503.209074,370.102971,-8503.660028,-148.041188
4503.209398,222.061783,-8733.488677,0.000000
4503.209723,518.144159,-8503.660028,-148.041188
4503.210047,222.061783,-8656.879127,-148.041188
4503.210371,370.102971,-8810.098227,-148.041188
4503.210696,370.102971,-8044.002729,-148.041188
4503.211020,444.123565,-8580.269578,-148.041188
4503.211344,444.123565,-8580.269578,-518.144159
4503.211668,370.102971,-8733.488677,-296.082377
4503.211993,666.185348,-8044.002729,-592.164754
4503.212317,666.185348,-8273.831378,-518.144159
4503.212641,592.164754,-8656.879127,-222.061783
4503.212965,518.144159,-8350.440928,-296.082377
4503.213290,666.185348,-8656.879127,0.000000
4503.213614,592.164754,-8427.050478,-296.082377
4503.213938,518.144159,-8580.269578,-370.102971
4503.214263,222.061783,-8656.879127,0.000000
4503.214587,370.102971,-8810.098227,0.000000
4503.214911,370.102971,-8580.269578,0.000000
4503.215235,74.020594,-8733.488677,-222.061783
4503.215560,296.082377,-8733.488677,-370.102971
4503.215884,74.020594,-9116.536426,74.020594
4503.216208,444.123565,-8733.488677,-296.082377
4503.216533,74.020594,-8580.269578,74.020594
4503.216857,296.082377,-8350.440928,0.000000
4503.217181,518.144159,-8350.440928,-222.061783
4503.217505,592.164754,-8503.660028,0.000000
4503.217830,740.205942,-8427.050478,0.000000
4503.218154,370.102971,-8810.098227,0.000000
4503.218478,370.102971,-8427.050478,0.000000
4503.218803,296.082377,-8580.269578,-74.020594
4503.219127,74.020594,-9039.926876,296.082377
4503.219451,222.061783,-8580.269578,0.000000
4503.219775,222.061783,-8656.879127,74.020594
4503.220100,296.082377,-8427.050478,0.000000
4503.220424,518.144159,-9193.145976,0.000000
4503.220748,74.020594,-8810.098227,74.020594
4503.221072,592.164754,-8733.488677,0.000000
4503.221397,592.164754,-8197.221829,-148.041188
4503.221721,444.123565,-8810.098227,-222.061783
4503.222045,74.020594,-8503.660028,-222.061783
4503.222370,370.102971,-8733.488677,0.000000
4503.222694,444.123565,-8427.050478,-74.020594
4503.223018,444.123565,-8580.269578,74.020594
4503.223342,666.185348,-8810.098227,296.082377
4503.223667,666.185348,-8733.488677,0.000000
4503.223991,740.205942,-8197.221829,-444.123565
4503.224315,592.164754,-8580.269578,-296.082377
4503.224640,444.123565,-9039.926876,0.000000
4503.224964,296.082377,-8350.440928,-296.082377
4503.225288,296.082377,-8427.050478,-222.061783
4503.225612,222.061783,-8733.488677,-370.102971
4503.225937,296.082377,-8656.879127,-592.164754
4503.226261,222.061783,-8656.879127,-444.123565
4503.226585,592.164754,-8580.269578,-518.144159
4503.226910,518.144159,-8656.879127,-444.123565
4503.227234,592.164754,-8427.050478,-296.082377
4503.227558,518.144159,-9039.926876,-296.082377
4503.227882,666.185348,-8273.831378,-370.102971
4503.228207,370.102971,-8197.221829,-444.123565
4503.228531,592.164754,-8503.660028,-370.102971
4503.228855,370.102971,-8656.879127,-518.144159
4503.229179,444.123565,-8503.660028,-666.185348
4503.229504,518.144159,-8503.660028,-444.123565
4503.229828,222.061783,-8656.879127,-444.123565
4503.230152,370.102971,-8580.269578,-296.082377
4503.230477,518.144159,-9116.536426,-222.061783
4503.230801,444.123565,-8810.098227,-370.102971
4503.231125,592.164754,-8656.879127,-888.247130
4503.231449,592.164754,-8427.050478,-444.123565
4503.231774,148.041188,-8886.707777,222.061783
4503.232098,148.041188,-8733.488677,-592.164754
4503.232422,518.144159,-8810.098227,-666.185348
4503.232747,222.061783,-8810.098227,-518.144159
4503.233071,444.123565,-8963.317327,-592.164754
4503.233395,518.144159,-8886.707777,-222.061783
4503.233719,518.144159,-8580.269578,-222.061783
4503.234044,148.041188,-8580.269578,-592.164754
4503.234368,518.144159,-8503.660028,-222.061783
4503.234692,222.061783,-8886.707777,0.000000
4503.235017,444.123565,-8656.879127,0.000000
4503.235341,370.102971,-8350.440928,-444.123565
4503.235665,148.041188,-9039.926876,-370.102971
4503.235989,74.020594,-9039.926876,-296.082377
4503.236314,370.102971,-8580.269578,-222.061783
4503.236638,518.144159,-8503.660028,-370.102971
4503.236962,444.123565,-8810.098227,-296.082377
4503.237286,222.061783,-8503.660028,-148.041188
4503.237611,296.082377,-8733.488677,0.000000
4503.237935,444.123565,-8733.488677,-222.061783
4503.238259,592.164754,-8733.488677,-370.102971
4503.238584,592.164754,-8273.831378,0.000000
4503.238908,296.082377,-8656.879127,74.020594
4503.239232,370.102971,-8580.269578,-148.041188
4503.239556,592.164754,-8503.660028,0.000000
4503.239881,444.123565,-8886.707777,0.000000
4503.240205,296.082377,-8580.269578,74.020594
4503.240529,222.061783,-8580.269578,0.000000
4503.240854,370.102971,-8427.050478,0.000000
4503.241178,296.082377,-8273.831378,-222.061783
4503.241502,296.082377,-8656.879127,-148.041188
4503.241826,518.144159,-8656.879127,74.020594
4503.242151,444.123565,-8273.831378,74.020594
4503.242475,296.082377,-8580.269578,0.000000
4503.242799,592.164754,-8580.269578,-370.102971
4503.243124,888.247130,-8427.050478,-74.020594
4503.243448,740.205942,-8656.879127,-296.082377
4503.243772,444.123565,-8580.269578,0.000000
4503.244096,296.082377,-8656.879127,0.000000
4503.244421,222.061783,-8733.488677,0.000000
4503.244745,370.102971,-8656.879127,-148.041188
4503.245069,444.123565,-8810.098227,-518.144159
4503.245394,296.082377,-8350.440928,0.000000
4503.245718,518.144159,-8886.707777,0.000000
4503.246042,592.164754,-8886.707777,-370.102971
4503.246366,592.164754,-8810.098227,-296.082377
4503.246691,444.123565,-8886.707777,-370.102971
4503.247015,444.123565,-8810.098227,0.000000
4503.247339,518.144159,-8733.488677,-518.144159
4503.247663,592.164754,-8810.098227,-444.123565
4503.247988,518.144159,-8503.660028,-444.123565
4503.248312,74.020594,-8656.879127,-518.144159
4503.248636,370.102971,-8810.098227,-518.144159
4503.248961,370.102971,-8503.660028,-222.061783
4503.249285,370.102971,-8503.660028,-814.226536
4503.249609,222.061783,-8810.098227,-518.144159
4503.249933,444.123565,-8580.269578,-666.185348
4503.250258,0.000000,-8350.440928,0.000000
4503.250582,370.102971,-8656.879127,-666.185348
4503.250906,222.061783,-8810.098227,0.000000
4503.251231,222.061783,-8503.660028,-296.082377
4503.251555,444.123565,-8886.707777,0.000000
4503.251879,296.082377,-8886.707777,-814.226536
4503.252203,444.123565,-8810.098227,-222.061783
4503.252528,444.123565,-8350.440928,-518.144159
4503.252852,518.144159,-8656.879127,-444.123565
4503.253176,740.205942,-8427.050478,-518.144159
4503.253501,444.123565,-8810.098227,-666.185348
4503.253825,370.102971,-8503.660028,-370.102971
4503.254149,370.102971,-8733.488677,-222.061783
4503.254473,814.226536,-9039.926876,-444.123565
4503.254798,370.102971,-8656.879127,-296.082377
4503.255122,666.185348,-8503.660028,-592.164754
4503.255446,444.123565,-8886.707777,-370.102971
4503.255770,518.144159,-7584.345430,0.000000
4503.256095,222.061783,-8427.050478,0.000000
4503.256419,148.041188,-8427.050478,-740.205942
4503.256743,148.041188,-8427.050478,-518.144159
4503.257068,592.164754,-8427.050478,-740.205942
4503.257392,592.164754,-8044.002729,-370.102971
4503.257716,222.061783,-8580.269578,-370.102971
4503.258040,370.102971,-8503.660028,-222.061783
4503.258365,518.144159,-8350.440928,-518.144159
4503.258689,296.082377,-8044.002729,-296.082377
4503.259013,518.144159,-8656.879127,-444.123565
4503.259338,518.144159,-8350.440928,-148.041188
4503.259662,444.123565,-8503.660028,-370.102971
4503.259986,518.144159,-8810.098227,-370.102971
4503.260311,444.123565,-8656.879127,-296.082377
4503.260635,370.102971,-8427.050478,-592.164754
4503.260959,296.082377,-8733.488677,-222.061783
4503.261283,222.061783,-8656.879127,-370.102971
4503.261608,148.041188,-8350.440928,-518.144159
4503.261932,592.164754,-8273.831378,-222.061783
4503.262256,222.061783,-8656.879127,-444.123565
4503.262581,592.164754,-8656.879127,-592.164754
4503.262905,666.185348,-8963.317327,-296.082377
4503.263229,444.123565,-8886.707777,-814.226536
4503.263554,518.144159,-8273.831378,-666.185348
4503.263878,444.123565,-8810.098227,-666.185348
4503.264202,666.185348,-8580.269578,-666.185348
4503.264526,296.082377,-8810.098227,-296.082377
4503.264851,370.102971,-8656.879127,-296.082377
4503.265175,370.102971,-8656.879127,-592.164754
4503.265499,370.102971,-8580.269578,-444.123565
4503.265824,148.041188,-8886.707777,-222.061783
4503.266148,444.123565,-8503.660028,-148.041188
4503.266472,222.061783,-8733.488677,-370.102971
4503.266796,518.144159,-8656.879127,-592.164754
4503.267121,592.164754,-9039.926876,-592.164754
4503.267445,222.061783,-8886.707777,-592.164754
4503.267769,0.000000,-8656.879127,-592.164754
4503.268094,370.102971,-8656.879127,-296.082377
4503.268418,518.144159,-8963.317327,-444.123565
4503.268742,518.144159,-8656.879127,-444.123565
4503.269067,444.123565,-8810.098227,-518.144159
4503.269391,740.205942,-8580.269578,-296.082377
4503.269715,740.205942,-8503.660028,-296.082377
4503.270039,370.102971,-8197.221829,-518.144159
4503.270364,296.082377,-8733.488677,-518.144159
4503.270688,222.061783,-8656.879127,-370.102971
4503.271012,370.102971,-9039.926876,-370.102971
4503.271337,296.082377,-8197.221829,-370.102971
4503.271661,370.102971,-8733.488677,-296.082377
4503.271985,0.000000,-8656.879127,-222.061783
4503.272310,370.102971,-8656.879127,-370.102971
4503.272634,296.082377,-8810.098227,-592.164754
4503.272958,518.144159,-8580.269578,-370.102971
4503.273282,296.082377,-8273.831378,-370.102971
4503.273607,296.082377,-8810.098227,-518.144159
4503.273931,518.144159,-8350.440928,-518.144159
4503.274255,814.226536,-8810.098227,-666.185348
4503.274580,592.164754,-8656.879127,-370.102971
4503.274904,148.041188,-8427.050478,-296.082377
4503.275228,518.144159,-8810.098227,-444.123565
4503.275553,296.082377,-8963.317327,-148.041188
4503.275877,518.144159,-8733.488677,-370.102971
4503.276201,592.164754,-8580.269578,-518.144159
4503.276525,444.123565,-8580.269578,-148.041188
4503.276850,592.164754,-8427.050478,-370.102971
4503.277174,0.000000,-8810.098227,-370.102971
4503.277498,148.041188,-8656.879127,-370.102971
4503.277823,592.164754,-8580.269578,-740.205942
4503.278147,296.082377,-8580.269578,-444.123565
4503.278471,666.185348,-9193.145976,-592.164754
4503.278795,666.185348,-8886.707777,-592.164754
4503.279120,370.102971,-8350.440928,-518.144159
4503.279444,518.144159,-8503.660028,-962.267725
4503.279768,296.082377,-8503.660028,-518.144159
4503.280093,592.164754,-8273.831378,-296.082377
4503.280417,296.082377,-8350.440928,-592.164754
4503.280741,444.123565,-8580.269578,-444.123565
4503.281066,444.123565,-8350.440928,-592.164754
4503.281390,814.226536,-9116.536426,-518.144159
4503.281714,444.123565,-8656.879127,-592.164754
4503.282038,74.020594,-8580.269578,-296.082377
4503.282363,148.041188,-8656.879127,-296.082377
4503.282687,444.123565,-9269.755526,0.000000
4503.283011,148.041188,-8273.831378,-370.102971
4503.283336,592.164754,-8580.269578,-666.185348
4503.283660,814.226536,-8350.440928,-296.082377
4503.283984,370.102971,-8350.440928,-592.164754
4503.284309,296.082377,-8503.660028,-444.123565
4503.284633,888.247130,-8580.269578,-444.123565
4503.284957,444.123565,-8580.269578,-518.144159
4503.285281,222.061783,-8656.879127,-222.061783
4503.285606,740.205942,-8733.488677,-222.061783
4503.285930,370.102971,-8503.660028,-222.061783
4503.286254,370.102971,-8886.707777,-222.061783
4503.286579,592.164754,-8580.269578,-592.164754
4503.286903,444.123565,-9116.536426,-370.102971
4503.287227,444.123565,-8810.098227,-296.082377
4503.287551,518.144159,-8580.269578,-814.226536
4503.287876,666.185348,-8886.707777,-444.123565
4503.288200,518.144159,-8580.269578,-296.082377
4503.288524,518.144159,-9039.926876,-518.144159
4503.288849,444.123565,-8733.488677,-444.123565
4503.289173,370.102971,-8427.050478,-296.082377
4503.289497,444.123565,-8503.660028,-518.144159
4503.289822,222.061783,-8963.317327,0.000000
4503.290146,444.123565,-8656.879127,-148.041188
4503.290470,814.226536,-8656.879127,-296.082377
4503.290794,444.123565,-8656.879127,-518.144159
4503.291119,444.123565,-9269.755526,-370.102971
4503.291443,370.102971,-8580.269578,-148.041188
4503.291767,444.123565,-8886.707777,-296.082377
4503.292092,222.061783,-8656.879127,-666.185348
4503.292416,370.102971,-8733.488677,0.000000
4503.292740,74.020594,-8810.098227,-296.082377
4503.293065,222.061783,-8656.879127,-370.102971
4503.293389,518.144159,-8427.050478,-296.082377
4503.293713,666.185348,-8350.440928,-518.144159
4503.294037,148.041188,-8580.269578,148.041188
4503.294362,592.164754,-8273.831378,-370.102971
4503.294686,592.164754,-8656.879127,-222.061783
4503.295010,666.185348,-8120.612279,-666.185348
4503.295335,296.082377,-9193.145976,-222.061783
4503.295659,370.102971,-8503.660028,-222.061783
4503.295983,370.102971,-8656.879127,0.000000
4503.296308,296.082377,-8580.269578,-296.082377
4503.296632,222.061783,-8503.660028,0.000000
4503.296956,370.102971,-8580.269578,0.000000
4503.297280,444.123565,-8656.879127,148.041188
4503.297605,0.000000,-8044.002729,-148.041188
4503.297929,444.123565,-8656.879127,0.000000
4503.298253,222.061783,-8273.831378,0.000000
4503.298578,296.082377,-8656.879127,-222.061783
4503.298902,444.123565,-8503.660028,-296.082377
4503.299226,296.082377,-8656.879127,0.000000
4503.299550,518.144159,-8580.269578,-148.041188
4503.299875,592.164754,-8580.269578,-148.041188
4503.300199,370.102971,-8197.221829,-148.041188
4503.300523,444.123565,-8656.879127,-222.061783
4503.300848,666.185348,-8427.050478,-148.041188
4503.301172,814.226536,-8197.221829,-518.144159
4503.301496,518.144159,-8580.269578,-444.123565
4503.301821,444.123565,-8580.269578,-444.123565
4503.302145,222.061783,-8656.879127,-296.082377
4503.302469,74.020594,-8963.317327,-370.102971
4503.302793,444.123565,-8580.269578,-444.123565
4503.303118,370.102971,-8656.879127,-370.102971
4503.303442,592.164754,-8427.050478,-592.164754
4503.303766,444.123565,-8733.488677,-444.123565
4503.304091,370.102971,-8427.050478,-666.185348
4503.304415,518.144159,-8350.440928,-370.102971
4503.304739,444.123565,-8427.050478,-666.185348
4503.305064,518.144159,-8580.269578,-888.247130
4503.305388,1036.288319,-8503.660028,-740.205942
4503.305712,444.123565,-9039.926876,-370.102971
4503.306036,518.144159,-8427.050478,-666.185348
4503.306361,444.123565,-8656.879127,-592.164754
4503.306685,518.144159,-9116.536426,-592.164754
4503.307009,518.144159,-8427.050478,-518.144159
4503.307334,666.185348,-8656.879127,-740.205942
4503.307658,666.185348,-8733.488677,-592.164754
4503.307982,592.164754,-8656.879127,-444.123565
4503.308307,518.144159,-8656.879127,-592.164754
4503.308631,518.144159,-8580.269578,-592.164754
4503.308955,296.082377,-8503.660028,-518.144159
4503.309279,666.185348,-8733.488677,-666.185348
4503.309604,666.185348,-8886.707777,-444.123565
4503.309928,518.144159,-8503.660028,-370.102971
4503.310252,222.061783,-8656.879127,-148.041188
4503.310577,962.267725,-8503.660028,-592.164754
4503.310901,888.247130,-8810.098227,-592.164754
4503.311225,592.164754,-8656.879127,-222.061783
4503.311549,666.185348,-8350.440928,-666.185348
4503.311874,370.102971,-8886.707777,-666.185348
4503.312198,296.082377,-8656.879127,-444.123565
4503.312522,740.205942,-8580.269578,-518.144159
4503.312847,518.144159,-8733.488677,-518.144159
4503.313171,0.000000,-8503.660028,-222.061783
4503.313495,148.041188,-8810.098227,0.000000
4503.313820,814.226536,-8656.879127,0.000000
4503.314144,518.144159,-8580.269578,-666.185348
4503.314468,444.123565,-8656.879127,0.000000
4503.314792,370.102971,-7890.783629,-148.041188
4503.315117,296.082377,-8733.488677,0.000000
4503.315441,444.123565,-8656.879127,-296.082377
4503.315765,222.061783,-8273.831378,0.000000
4503.316090,518.144159,-8733.488677,74.020594
4503.316414,444.123565,-8427.050478,222.061783
4503.316738,370.102971,-8273.831378,666.185348
4503.317063,370.102971,-8656.879127,222.061783
4503.317387,222.061783,-8350.440928,222.061783
4503.317711,222.061783,-8656.879127,148.041188
4503.318035,296.082377,-8350.440928,148.041188
4503.318360,296.082377,-8273.831378,74.020594
4503.318684,222.061783,-8810.098227,0.000000
4503.319008,0.000000,-8503.660028,-148.041188
4503.319333,666.185348,-8580.269578,-296.082377
4503.319657,518.144159,-8580.269578,-518.144159
4503.319981,666.185348,-8273.831378,-222.061783
4503.320305,592.164754,-8580.269578,-444.123565
4503.320630,444.123565,-8810.098227,-296.082377
4503.320954,1036.288319,-8120.612279,-1110.308913
4503.321278,666.185348,-8580.269578,-592.164754
4503.321603,740.205942,-8503.660028,-444.123565
4503.321927,518.144159,-8656.879127,-370.102971
4503.322251,444.123565,-8273.831378,-296.082377
4503.322576,666.185348,-8656.879127,-518.144159
4503.322900,444.123565,-8580.269578,-444.123565
4503.323224,296.082377,-8733.488677,-74.020594
4503.323548,444.123565,-8733.488677,0.000000
4503.323873,148.041188,-8810.098227,-148.041188
4503.324197,370.102971,-8733.488677,-222.061783
4503.324521,148.041188,-8810.098227,0.000000
4503.324846,222.061783,-8733.488677,-148.041188
4503.325170,1110.308913,-8580.269578,0.000000
4503.325494,592.164754,-8580.269578,-666.185348
4503.325819,518.144159,-8733.488677,-296.082377
4503.326143,666.185348,-8580.269578,-444.123565
4503.326467,1036.288319,-8963.317327,-740.205942
4503.326791,592.164754,-8427.050478,-518.144159
4503.327116,148.041188,-8580.269578,0.000000
4503.327440,518.144159,-8580.269578,-592.164754
4503.327764,666.185348,-8580.269578,-592.164754
4503.328089,888.247130,-8886.707777,-814.226536
4503.328413,592.164754,-8580.269578,-740.205942
4503.328737,296.082377,-8580.269578,-444.123565
4503.329062,296.082377,-8963.317327,-740.205942
4503.329386,666.185348,-8733.488677,-814.226536
4503.329710,370.102971,-8580.269578,-740.205942
4503.330034,296.082377,-8810.098227,-592.164754
4503.330359,296.082377,-8580.269578,-370.102971
4503.330683,518.144159,-8044.002729,-518.144159
4503.331007,518.144159,-8580.269578,-444.123565
4503.331332,222.061783,-8503.660028,-148.041188
4503.331656,370.102971,-8656.879127,-296.082377
4503.331980,444.123565,-8580.269578,-222.061783
4503.332304,296.082377,-8197.221829,0.000000
4503.332629,370.102971,-8733.488677,0.000000
4503.332953,0.000000,-8503.660028,0.000000
4503.333277,222.061783,-8656.879127,0.000000
4503.333602,148.041188,-8197.221829,0.000000
4503.333926,296.082377,-8886.707777,296.082377
4503.334250,592.164754,-8580.269578,0.000000
4503.334575,444.123565,-8580.269578,74.020594
4503.334899,74.020594,-8350.440928,-148.041188
4503.335223,296.082377,-8656.879127,0.000000
4503.335547,296.082377,-8197.221829,-296.082377
4503.335872,222.061783,-8656.879127,74.020594
4503.336196,370.102971,-8427.050478,-444.123565
4503.336520,370.102971,-8350.440928,74.020594
4503.336845,370.102971,-8273.831378,-222.061783
4503.337169,370.102971,-8503.660028,0.000000
4503.337493,222.061783,-8580.269578,0.000000
4503.337818,370.102971,-8044.002729,0.000000
4503.338142,370.102971,-8273.831378,-148.041188
4503.338466,222.061783,-8273.831378,-296.082377
4503.338790,444.123565,-8656.879127,-222.061783
4503.339115,296.082377,-8120.612279,-148.041188
4503.339439,444.123565,-8810.098227,-444.123565
4503.339763,148.041188,-8733.488677,-444.123565
4503.340088,518.144159,-8350.440928,-518.144159
4503.340412,518.144159,-8503.660028,-370.102971
4503.340736,148.041188,-8886.707777,0.000000
4503.341060,444.123565,-8580.269578,-222.061783
4503.341385,592.164754,-8580.269578,-518.144159
4503.341709,444.123565,-8656.879127,-148.041188
4503.342033,666.185348,-8963.317327,-370.102971
4503.342358,518.144159,-8810.098227,0.000000
4503.342682,666.185348,-8427.050478,0.000000
4503.343006,666.185348,-8733.488677,-222.061783
4503.343331,518.144159,-8810.098227,-370.102971
4503.343655,222.061783,-8427.050478,-148.041188
4503.343979,296.082377,-8427.050478,-518.144159
4503.344303,370.102971,-8963.317327,-296.082377
4503.344628,296.082377,-8733.488677,-296.082377
4503.344952,444.123565,-8810.098227,0.000000
4503.345276,444.123565,-8580.269578,-518.144159
4503.345601,444.123565,-8733.488677,-444.123565
4503.345925,518.144159,-8656.879127,-296.082377
4503.346249,518.144159,-8580.269578,-444.123565
4503.346574,296.082377,-8733.488677,-592.164754
4503.346898,518.144159,-8733.488677,-370.102971
4503.347222,370.102971,-8580.269578,-666.185348
4503.347546,444.123565,-8963.317327,-592.164754
4503.347871,74.020594,-8656.879127,-222.061783
4503.348195,222.061783,-8580.269578,-148.041188
4503.348519,222.061783,-8503.660028,-222.061783
4503.348844,592.164754,-8810.098227,-518.144159
4503.349168,370.102971,-8427.050478,-814.226536
4503.349492,296.082377,-8580.269578,-148.041188
4503.349817,518.144159,-8886.707777,-296.082377
4503.350141,370.102971,-8733.488677,0.000000
4503.350465,444.123565,-8656.879127,0.000000
4503.350789,592.164754,-8810.098227,-370.102971
4503.351114,444.123565,-8350.440928,0.000000
4503.351438,370.102971,-8273.831378,-222.061783
4503.351762,518.144159,-8580.269578,0.000000
4503.352087,0.000000,-8733.488677,0.000000
4503.352411,444.123565,-8733.488677,-148.041188
4503.352735,592.164754,-8427.050478,-74.020594
4503.353059,518.144159,-8350.440928,0.000000
4503.353384,296.082377,-8963.317327,-222.061783
4503.353708,518.144159,-8503.660028,-148.041188
4503.354032,740.205942,-8580.269578,-296.082377
4503.354357,444.123565,-8273.831378,-296.082377
4503.354681,444.123565,-8733.488677,-222.061783
4503.355005,0.000000,-8503.660028,-148.041188
4503.355330,148.041188,-8580.269578,-444.123565
4503.355654,222.061783,-8350.440928,-592.164754
4503.355978,222.061783,-8350.440928,-592.164754
4503.356302,962.267725,-8580.269578,-148.041188
4503.356627,296.082377,-8427.050478,-444.123565
4503.356951,444.123565,-8427.050478,-666.185348
4503.357275,296.082377,-8580.269578,-518.144159
4503.357600,518.144159,-8963.317327,-814.226536
4503.357924,370.102971,-8580.269578,-370.102971
4503.358248,148.041188,-8733.488677,-222.061783
4503.358573,222.061783,-8580.269578,-370.102971
4503.358897,370.102971,-8580.269578,-148.041188
4503.359221,74.020594,-8503.660028,-74.020594
4503.359546,296.082377,-8810.098227,-518.144159
4503.359870,296.082377,-8197.221829,-296.082377
4503.360194,148.041188,-8810.098227,-444.123565
4503.360518,148.041188,-8886.707777,370.102971
4503.360843,370.102971,-8810.098227,-370.102971
4503.361167,592.164754,-8656.879127,-518.144159
4503.361491,518.144159,-8656.879127,-296.082377
4503.361816,518.144159,-9193.145976,-444.123565
4503.362140,296.082377,-8580.269578,-518.144159
4503.362464,444.123565,-8580.269578,-518.144159
4503.362789,518.144159,-8733.488677,-592.164754
4503.363113,444.123565,-8580.269578,-592.164754
4503.363437,518.144159,-8656.879127,-740.205942
4503.363762,592.164754,-8810.098227,-518.144159
4503.364086,592.164754,-8580.269578,-666.185348
4503.364410,592.164754,-8733.488677,-592.164754
4503.364735,666.185348,-9269.755526,-740.205942
4503.365059,444.123565,-8886.707777,-370.102971
4503.365383,666.185348,-8886.707777,-518.144159
4503.365707,518.144159,-8503.660028,-518.144159
4503.366032,518.144159,-9193.145976,-518.144159
4503.366356,592.164754,-8810.098227,-518.144159
4503.366680,666.185348,-8580.269578,-518.144159
4503.367005,666.185348,-8580.269578,-296.082377
4503.367329,444.123565,-8810.098227,-370.102971
4503.367653,518.144159,-8963.317327,0.000000
4503.367978,518.144159,-8656.879127,0.000000
4503.368302,592.164754,-8810.098227,0.000000
4503.368626,592.164754,-8656.879127,-148.041188
4503.368951,444.123565,-9269.755526,370.102971
4503.369275,444.123565,-8810.098227,-148.041188
4503.369599,222.061783,-8580.269578,0.000000
4503.369924,444.123565,-8810.098227,0.000000
4503.370248,444.123565,-8503.660028,0.000000
4503.370572,222.061783,-8886.707777,-296.082377
4503.370896,518.144159,-8656.879127,-370.102971
4503.371221,592.164754,-8427.050478,-444.123565
4503.371545,518.144159,-8810.098227,-296.082377
4503.371869,592.164754,-8503.660028,296.082377
4503.372194,296.082377,-8656.879127,-296.082377
4503.372518,518.144159,-8580.269578,-296.082377
4503.372842,370.102971,-8427.050478,-444.123565
4503.373167,296.082377,-8733.488677,222.061783
4503.373491,518.144159,-8656.879127,-444.123565
4503.373815,222.061783,-8197.221829,-370.102971
4503.374140,296.082377,-8580.269578,-222.061783
4503.374464,444.123565,-8427.050478,-296.082377
4503.374788,296.082377,-8350.440928,-296.082377
4503.375113,296.082377,-8580.269578,-296.082377
4503.375437,444.123565,-8503.660028,0.000000
4503.375761,296.082377,-8503.660028,-222.061783
4503.376085,444.123565,-7967.393179,0.000000
4503.376410,222.061783,-8656.879127,0.000000
4503.376734,444.123565,-8810.098227,-518.144159
4503.377058,592.164754,-8503.660028,-296.082377
4503.377383,444.123565,-8427.050478,-296.082377
4503.377707,222.061783,-8733.488677,-296.082377
4503.378031,222.061783,-8503.660028,-666.185348
4503.378356,296.082377,-8810.098227,-370.102971
4503.378680,444.123565,-8350.440928,-296.082377
4503.379004,370.102971,-8580.269578,0.000000
4503.379329,444.123565,-8580.269578,-444.123565
4503.379653,222.061783,-9116.536426,-370.102971
4503.379977,222.061783,-8350.440928,-444.123565
4503.380302,0.000000,-8886.707777,0.000000
4503.380626,370.102971,-8350.440928,-666.185348
4503.380950,222.061783,-8580.269578,-518.144159
4503.381274,222.061783,-8810.098227,-740.205942
4503.381599,444.123565,-8580.269578,-592.164754
4503.381923,518.144159,-8656.879127,-666.185348
4503.382247,444.123565,-8503.660028,-592.164754
4503.382572,518.144159,-8427.050478,-666.185348
4503.382896,592.164754,-8427.050478,-666.185348
4503.383220,1110.308913,-8427.050478,-740.205942
4503.383545,592.164754,-8580.269578,-740.205942
4503.383869,666.185348,-8733.488677,-814.226536
4503.384193,518.144159,-8427.050478,-592.164754
4503.384518,814.226536,-8963.317327,-518.144159
4503.384842,592.164754,-8733.488677,-592.164754
4503.385166,518.144159,-8503.660028,-666.185348
4503.385491,296.082377,-8656.879127,-444.123565
4503.385815,296.082377,-8886.707777,-592.164754
4503.386139,592.164754,-8580.269578,-592.164754
4503.386463,666.185348,-8810.098227,-370.102971
4503.386788,444.123565,-8427.050478,-518.144159
4503.387112,370.102971,-8656.879127,-444.123565
4503.387436,1258.350101,-8427.050478,-296.082377
4503.387761,296.082377,-8350.440928,-518.144159
4503.388085,518.144159,-8733.488677,-370.102971
4503.388409,296.082377,-8580.269578,-370.102971
4503.388734,666.185348,-9039.926876,0.000000
4503.389058,740.205942,-8810.098227,-444.123565
4503.389382,296.082377,-8656.879127,-370.102971
4503.389707,296.082377,-8503.660028,-222.061783
4503.390031,296.082377,-8427.050478,0.000000
4503.390355,518.144159,-9193.145976,-592.164754
4503.390680,296.082377,-8733.488677,-888.247130
4503.391004,296.082377,-8427.050478,-370.102971
4503.391328,222.061783,-8503.660028,-592.164754
4503.391652,74.020594,-9039.926876,0.000000
4503.391977,814.226536,-8580.269578,-518.144159
4503.392301,666.185348,-9039.926876,-592.164754
4503.392625,592.164754,-8503.660028,-518.144159
4503.392950,666.185348,-8733.488677,222.061783
4503.393274,518.144159,-8503.660028,-222.061783
4503.393598,518.144159,-8427.050478,-296.082377
4503.393923,370.102971,-8350.440928,-518.144159
4503.394247,444.123565,-8810.098227,-370.102971
4503.394571,666.185348,-8350.440928,0.000000
4503.394896,148.041188,-8656.879127,0.000000
4503.395220,74.020594,-8580.269578,0.000000
4503.395544,444.123565,-8427.050478,0.000000
4503.395869,666.185348,-8963.317327,-296.082377
4503.396193,222.061783,-8886.707777,0.000000
4503.396517,296.082377,-8350.440928,-296.082377
4503.396841,370.102971,-8580.269578,-222.061783
4503.397166,370.102971,-8503.660028,-444.123565
4503.397490,666.185348,-8810.098227,-296.082377
4503.397814,74.020594,-8273.831378,-370.102971
4503.398139,444.123565,-8503.660028,-148.041188
4503.398463,222.061783,-8350.440928,-518.144159
4503.398787,518.144159,-8886.707777,-296.082377
4503.399112,592.164754,-8427.050478,-666.185348
4503.399436,666.185348,-8580.269578,-370.102971
4503.399760,592.164754,-8503.660028,-370.102971
4503.400085,1110.308913,-8580.269578,-518.144159
4503.400409,444.123565,-8503.660028,-370.102971
4503.400733,370.102971,-8886.707777,-296.082377
4503.401058,444.123565,-8580.269578,-592.164754
4503.401382,518.144159,-8733.488677,-518.144159
4503.401706,518.144159,-8120.612279,-592.164754
4503.402030,296.082377,-8963.317327,-296.082377
4503.402355,222.061783,-8350.440928,-370.102971
4503.402679,666.185348,-8580.269578,-444.123565
4503.403003,740.205942,-8427.050478,-518.144159
4503.403328,296.082377,-8810.098227,-444.123565
4503.403652,518.144159,-8580.269578,-518.144159
4503.403976,370.102971,-8810.098227,-296.082377
4503.404301,814.226536,-8273.831378,0.000000
4503.404625,296.082377,-8733.488677,-370.102971
4503.404949,518.144159,-8197.221829,-370.102971
4503.405274,370.102971,-8503.660028,-296.082377
4503.405598,666.185348,-8580.269578,-370.102971
4503.405922,222.061783,-8503.660028,0.000000
4503.406247,814.226536,-8733.488677,-592.164754
4503.406571,296.082377,-8503.660028,-296.082377
4503.406895,518.144159,-8503.660028,-444.123565
4503.407219,518.144159,-8350.440928,-814.226536
4503.407544,222.061783,-8427.050478,-592.164754
4503.407868,222.061783,-8503.660028,-592.164754
4503.408192,518.144159,-8733.488677,-370.102971
4503.408517,666.185348,-8427.050478,0.000000
4503.408841,296.082377,-8656.879127,-296.082377
4503.409165,444.123565,-8810.098227,0.000000
4503.409490,592.164754,-8427.050478,-222.061783
4503.409814,666.185348,-8580.269578,-296.082377
4503.410138,148.041188,-8197.221829,-222.061783
4503.410463,296.082377,-8580.269578,-222.061783
4503.410787,518.144159,-8427.050478,-296.082377
4503.411111,74.020594,-8580.269578,-296.082377
4503.411436,370.102971,-8503.660028,-296.082377
4503.411760,0.000000,-8733.488677,-148.041188
4503.412084,148.041188,-8197.221829,-370.102971
4503.412408,148.041188,-8733.488677,-222.061783
4503.412733,444.123565,-7890.783629,-296.082377
4503.413057,518.144159,-8503.660028,-296.082377
4503.413381,592.164754,-8656.879127,-296.082377
4503.413706,296.082377,-8580.269578,0.000000
4503.414030,296.082377,-8197.221829,-296.082377
4503.414354,222.061783,-8503.660028,-666.185348
4503.414679,222.061783,-8733.488677,-222.061783
4503.415003,370.102971,-8580.269578,-222.061783
4503.415327,370.102971,-8273.831378,74.020594
4503.415652,444.123565,-8503.660028,0.000000
4503.415976,296.082377,-8656.879127,0.000000
4503.416300,444.123565,-8886.707777,148.041188
4503.416625,370.102971,-8427.050478,-296.082377
4503.416949,370.102971,-8963.317327,0.000000
4503.417273,222.061783,-8350.440928,-296.082377
4503.417597,444.123565,-8580.269578,-296.082377
4503.417922,296.082377,-8427.050478,-444.123565
4503.418246,592.164754,-8733.488677,-296.082377
4503.418570,296.082377,-8197.221829,0.000000
4503.418895,592.164754,-8810.098227,-296.082377
4503.419219,296.082377,-8580.269578,-444.123565
4503.419543,370.102971,-8580.269578,0.000000
4503.419868,888.247130,-8120.612279,-370.102971
4503.420192,444.123565,-8427.050478,-518.144159
4503.420516,222.061783,-8886.707777,-370.102971
4503.420841,592.164754,-8580.269578,-296.082377
4503.421165,444.123565,-8656.879127,-518.144159
4503.421489,592.164754,-8273.831378,-592.164754
4503.421814,444.123565,-8656.879127,-370.102971
4503.422138,666.185348,-8733.488677,-296.082377
4503.422462,666.185348,-8273.831378,-592.164754
4503.422786,148.041188,-8963.317327,-592.164754
4503.423111,370.102971,-8273.831378,-370.102971
4503.423435,370.102971,-8810.098227,-370.102971
4503.423759,518.144159,-8810.098227,-740.205942
4503.424084,148.041188,-8350.440928,-444.123565
4503.424408,518.144159,-8427.050478,-296.082377
4503.424732,518.144159,-8580.269578,-370.102971
4503.425057,740.205942,-8580.269578,-592.164754
4503.425381,666.185348,-8886.707777,-592.164754
4503.425705,222.061783,-8656.879127,-370.102971
4503.426030,0.000000,-8733.488677,-296.082377
4503.426354,74.020594,-8580.269578,-518.144159
4503.426678,296.082377,-8503.660028,-296.082377
4503.427003,370.102971,-8350.440928,-814.226536
4503.427327,444.123565,-8733.488677,-444.123565
4503.427651,222.061783,-8350.440928,-296.082377
4503.427975,518.144159,-8656.879127,-370.102971
4503.428300,666.185348,-9039.926876,-370.102971
4503.428624,666.185348,-8810.098227,-296.082377
4503.428948,518.144159,-8350.440928,-444.123565
4503.429273,592.164754,-8197.221829,-222.061783
4503.429597,518.144159,-8580.269578,-592.164754
4503.429921,148.041188,-8273.831378,-222.061783
4503.430246,296.082377,-8580.269578,-222.061783
4503.430570,296.082377,-8427.050478,-296.082377
4503.430894,370.102971,-8427.050478,-296.082377
4503.431219,444.123565,-8886.707777,0.000000
4503.431543,592.164754,-8580.269578,-296.082377
4503.431867,74.020594,-8503.660028,-148.041188
4503.432192,444.123565,-8580.269578,-444.123565
4503.432516,222.061783,-8580.269578,0.000000
4503.432840,444.123565,-8427.050478,-296.082377
4503.433164,370.102971,-8886.707777,-222.061783
4503.433489,518.144159,-8503.660028,-592.164754
4503.433813,518.144159,-8273.831378,-518.144159
4503.434137,222.061783,-8810.098227,0.000000
4503.434462,370.102971,-8580.269578,-296.082377
4503.434786,518.144159,-8733.488677,-296.082377
4503.435110,370.102971,-8503.660028,-444.123565
4503.435435,592.164754,-9269.755526,-148.041188
4503.435759,370.102971,-8733.488677,-444.123565
4503.436083,518.144159,-8503.660028,-148.041188
4503.436408,370.102971,-8580.269578,-296.082377
4503.436732,74.020594,-8886.707777,-370.102971
4503.437056,148.041188,-8656.879127,0.000000
4503.437381,296.082377,-8810.098227,-296.082377
4503.437705,222.061783,-8580.269578,-148.041188
4503.438029,518.144159,-8656.879127,-370.102971
4503.438353,222.061783,-8810.098227,0.000000
4503.438678,518.144159,-8350.440928,-444.123565
4503.439002,888.247130,-8350.440928,-370.102971
4503.439326,592.164754,-8503.660028,-370.102971
4503.439651,296.082377,-8427.050478,-74.020594
4503.439975,222.061783,-8273.831378,-222.061783
4503.440299,444.123565,-8427.050478,-148.041188
4503.440624,518.144159,-8350.440928,-222.061783
4503.440948,444.123565,-8580.269578,-296.082377
4503.441272,444.123565,-8886.707777,-148.041188
4503.441597,222.061783,-8580.269578,-296.082377
4503.441921,518.144159,-8427.050478,-222.061783
4503.442245,296.082377,-8580.269578,-444.123565
4503.442570,370.102971,-8810.098227,74.020594
4503.442894,740.205942,-8656.879127,-296.082377
4503.443218,740.205942,-8273.831378,-296.082377
4503.443542,296.082377,-8503.660028,0.000000
4503.443867,296.082377,-8886.707777,222.061783
4503.444191,444.123565,-8503.660028,0.000000
4503.444515,592.164754,-8580.269578,-296.082377
4503.444840,444.123565,-8810.098227,-296.082377
4503.445164,518.144159,-8273.831378,0.000000
4503.445488,592.164754,-8656.879127,-148.041188
4503.445813,814.226536,-8427.050478,-444.123565
4503.446137,814.226536,-8656.879127,-518.144159
4503.446461,814.226536,-8197.221829,-296.082377
4503.446786,148.041188,-8810.098227,0.000000
4503.447110,222.061783,-9039.926876,-148.041188
4503.447434,370.102971,-8810.098227,0.000000
4503.447759,222.061783,-8810.098227,-296.082377
4503.448083,370.102971,-9193.145976,-370.102971
4503.448407,222.061783,-8810.098227,0.000000
4503.448731,296.082377,-8810.098227,-148.041188
4503.449056,222.061783,-8733.488677,-148.041188
4503.449380,370.102971,-8656.879127,-222.061783
4503.449704,740.205942,-8580.269578,-222.061783
4503.450029,592.164754,-8580.269578,0.000000
4503.450353,370.102971,-8580.269578,0.000000
4503.450677,444.123565,-8656.879127,0.000000
4503.451002,666.185348,-8886.707777,-148.041188
4503.451326,296.082377,-8886.707777,-222.061783
4503.451650,148.041188,-8810.098227,0.000000
4503.451975,74.020594,-8580.269578,-148.041188
4503.452299,148.041188,-9116.536426,-148.041188
4503.452623,148.041188,-8120.612279,-666.185348
4503.452948,444.123565,-9039.926876,-370.102971
4503.453272,296.082377,-8656.879127,-740.205942
4503.453596,444.123565,-8503.660028,-518.144159
4503.453920,814.226536,-8273.831378,-666.185348
4503.454245,296.082377,-8580.269578,-592.164754
4503.454569,666.185348,-8350.440928,-666.185348
4503.454893,444.123565,-8503.660028,-666.185348
4503.455218,444.123565,-8963.317327,-222.061783
4503.455542,370.102971,-8503.660028,-740.205942
4503.455866,518.144159,-8427.050478,-888.247130
4503.456191,592.164754,-8503.660028,-740.205942
4503.456515,370.102971,-8656.879127,-814.226536
4503.456839,740.205942,-8350.440928,-592.164754
4503.457164,518.144159,-8580.269578,-444.123565
4503.457488,370.102971,-8503.660028,-370.102971
4503.457812,444.123565,-8656.879127,-444.123565
4503.458137,370.102971,-8656.879127,148.041188
4503.458461,222.061783,-8580.269578,0.000000
4503.458785,296.082377,-8733.488677,-148.041188
4503.459109,370.102971,-8733.488677,-370.102971
4503.459434,518.144159,-8580.269578,74.020594
4503.459758,666.185348,-8580.269578,-592.164754
4503.460082,444.123565,-8810.098227,0.000000
4503.460407,592.164754,-8656.879127,-296.082377
4503.460731,592.164754,-8427.050478,-444.123565
4503.461055,740.205942,-8656.879127,-296.082377
4503.461380,740.205942,-8503.660028,-444.123565
4503.461704,814.226536,-8733.488677,-666.185348
4503.462028,444.123565,-8350.440928,-296.082377
4503.462352,592.164754,-8810.098227,-296.082377
4503.462677,740.205942,-8810.098227,-666.185348
4503.463001,814.226536,-8273.831378,-666.185348
4503.463325,518.144159,-8733.488677,-740.205942
4503.463650,814.226536,-8580.269578,-444.123565
4503.463974,444.123565,-8197.221829,-296.082377
4503.464298,444.123565,-8503.660028,-444.123565
4503.464623,222.061783,-8580.269578,-370.102971
4503.464947,444.123565,-8656.879127,-296.082377
4503.465271,1110.308913,-8580.269578,-592.164754
4503.465596,370.102971,-8427.050478,0.000000
4503.465920,444.123565,-8810.098227,-148.041188
4503.466244,222.061783,-8656.879127,0.000000
4503.466568,370.102971,-8120.612279,0.000000
4503.466893,148.041188,-8733.488677,-370.102971
4503.467217,0.000000,-8580.269578,0.000000
4503.467541,148.041188,-8580.269578,74.020594
4503.467866,0.000000,-8963.317327,-222.061783
4503.468190,370.102971,-8810.098227,0.000000
4503.468514,444.123565,-8656.879127,-592.164754
4503.468839,444.123565,-8733.488677,-296.082377
4503.469163,592.164754,-8427.050478,-370.102971
4503.469487,814.226536,-8503.660028,-296.082377
4503.469811,222.061783,-8273.831378,-296.082377
4503.470136,222.061783,-8503.660028,-518.144159
4503.470460,148.041188,-8656.879127,-296.082377
4503.470784,962.267725,-8427.050478,-444.123565
4503.471109,296.082377,-8503.660028,-518.144159
4503.471433,666.185348,-8810.098227,-370.102971
4503.471757,518.144159,-8580.269578,-222.061783
4503.472082,518.144159,-8733.488677,-370.102971
4503.472406,370.102971,-8580.269578,-148.041188
4503.472730,518.144159,-8656.879127,0.000000
4503.473055,518.144159,-8656.879127,-370.102971
4503.473379,222.061783,-8503.660028,-296.082377
4503.473703,518.144159,-8656.879127,-518.144159
4503.474027,666.185348,-8503.660028,-296.082377
4503.474352,592.164754,-8427.050478,-222.061783
4503.474676,666.185348,-8656.879127,-296.082377
4503.475000,592.164754,-7660.954980,74.020594
4503.475325,444.123565,-8350.440928,0.000000
4503.475649,370.102971,-8503.660028,-222.061783
4503.475973,592.164754,-8427.050478,0.000000
4503.476298,592.164754,-8427.050478,-148.041188
4503.476622,592.164754,-8273.831378,0.000000
4503.476946,222.061783,-7967.393179,-518.144159
4503.477271,222.061783,-8733.488677,-296.082377
4503.477595,518.144159,-8350.440928,-222.061783
4503.477919,370.102971,-8273.831378,0.000000
4503.478243,148.041188,-8273.831378,-370.102971
4503.478568,444.123565,-8580.269578,0.000000
4503.478892,296.082377,-8197.221829,-370.102971
4503.479216,962.267725,-8733.488677,-222.061783
4503.479541,592.164754,-8120.612279,-444.123565
4503.479865,444.123565,-8427.050478,-444.123565
4503.480189,592.164754,-8350.440928,-666.185348
4503.480514,370.102971,-8503.660028,-666.185348
4503.480838,370.102971,-8427.050478,-370.102971
4503.481162,296.082377,-8656.879127,-592.164754
4503.481486,444.123565,-8656.879127,-444.123565
4503.481811,444.123565,-8656.879127,-666.185348
4503.482135,962.267725,-9116.536426,-814.226536
4503.482459,296.082377,-8810.098227,-666.185348
4503.482784,296.082377,-8503.660028,-444.123565
4503.483108,370.102971,-8733.488677,-518.144159
4503.483432,0.000000,-8733.488677,-444.123565
4503.483757,0.000000,-8733.488677,-444.123565
4503.484081,222.061783,-8733.488677,-444.123565
4503.484405,222.061783,-9193.145976,-296.082377
4503.484730,370.102971,-8580.269578,-370.102971
4503.485054,222.061783,-8580.269578,-444.123565
4503.485378,148.041188,-8733.488677,-222.061783
4503.485702,518.144159,-8580.269578,-296.082377
4503.486027,444.123565,-8580.269578,-370.102971
4503.486351,518.144159,-9039.926876,-148.041188
4503.486675,370.102971,-8580.269578,-518.144159
4503.487000,518.144159,-8656.879127,-370.102971
4503.487324,444.123565,-8427.050478,-740.205942
4503.487648,296.082377,-8733.488677,-592.164754
4503.487973,370.102971,-8580.269578,-518.144159
4503.488297,74.020594,-8580.269578,-444.123565
4503.488621,518.144159,-8503.660028,-740.205942
4503.488945,740.205942,-8580.269578,-740.205942
4503.489270,666.185348,-8886.707777,-1036.288319
4503.489594,370.102971,-8503.660028,-814.226536
4503.489918,370.102971,-8350.440928,-518.144159
4503.490243,222.061783,-8503.660028,-592.164754
4503.490567,370.102971,-7967.393179,-518.144159
4503.490891,444.123565,-8580.269578,-518.144159
4503.491216,444.123565,-8580.269578,-518.144159
4503.491540,592.164754,-8427.050478,-148.041188
4503.491864,592.164754,-8350.440928,-444.123565
4503.492189,370.102971,-8656.879127,-444.123565
4503.492513,370.102971,-8273.831378,-148.041188
4503.492837,444.123565,-8580.269578,-222.061783
4503.493161,222.061783,-8580.269578,0.000000
4503.493486,296.082377,-8656.879127,74.020594
4503.493810,222.061783,-8656.879127,-296.082377
4503.494134,222.061783,-8580.269578,0.000000
4503.494459,296.082377,-8503.660028,-370.102971
4503.494783,518.144159,-8810.098227,74.020594
4503.495107,814.226536,-8503.660028,-296.082377
4503.495432,370.102971,-8810.098227,74.020594
4503.495756,592.164754,-8503.660028,-296.082377
4503.496080,296.082377,-8427.050478,-222.061783
4503.496404,444.123565,-8427.050478,-296.082377
4503.496729,518.144159,-8733.488677,0.000000
4503.497053,148.041188,-8810.098227,-370.102971
4503.497377,518.144159,-8810.098227,-444.123565
4503.497702,74.020594,-7967.393179,-740.205942
4503.498026,370.102971,-8810.098227,-370.102971
4503.498350,592.164754,-8427.050478,-444.123565
4503.498675,370.102971,-8273.831378,0.000000
4503.498999,222.061783,-8427.050478,-148.041188
4503.499323,296.082377,-8197.221829,-370.102971
4503.499648,444.123565,-8810.098227,-370.102971
4503.499972,666.185348,-8580.269578,-518.144159
4503.500296,444.123565,-8427.050478,-296.082377
4503.500620,814.226536,-8503.660028,-444.123565
4503.500945,370.102971,-8427.050478,-444.123565
4503.501269,296.082377,-8656.879127,-296.082377
4503.501593,444.123565,-8580.269578,-444.123565
4503.501918,814.226536,-8350.440928,-518.144159
4503.502242,592.164754,-8427.050478,-222.061783
4503.502566,222.061783,-8963.317327,-296.082377
4503.502891,592.164754,-8503.660028,-444.123565
4503.503215,518.144159,-8350.440928,-592.164754
4503.503539,370.102971,-8656.879127,-296.082377
4503.503863,370.102971,-8656.879127,-444.123565
4503.504188,444.123565,-8580.269578,-518.144159
4503.504512,296.082377,-8580.269578,-814.226536
4503.504836,814.226536,-8886.707777,-666.185348
4503.505161,444.123565,-8810.098227,-740.205942
4503.505485,444.123565,-8273.831378,-592.164754
4503.505809,370.102971,-8427.050478,-296.082377
4503.506134,296.082377,-8656.879127,-444.123565
4503.506458,444.123565,-8503.660028,-666.185348
4503.506782,370.102971,-8427.050478,-518.144159
4503.507107,592.164754,-8503.660028,-444.123565
4503.507431,444.123565,-8503.660028,-222.061783
4503.507755,444.123565,-8656.879127,-296.082377
4503.508079,222.061783,-8350.440928,-296.082377
4503.508404,518.144159,-8810.098227,-296.082377
4503.508728,222.061783,-8350.440928,0.000000
4503.509052,296.082377,-8427.050478,370.102971
4503.509377,222.061783,-8503.660028,-222.061783
4503.509701,518.144159,-8656.879127,-148.041188
4503.510025,592.164754,-8350.440928,-444.123565
4503.510350,666.185348,-8963.317327,0.000000
4503.510674,370.102971,-8580.269578,-148.041188
4503.510998,444.123565,-8427.050478,-592.164754
4503.511322,518.144159,-8503.660028,-222.061783
4503.511647,148.041188,-8197.221829,0.000000
4503.511971,370.102971,-8733.488677,-370.102971
4503.512295,592.164754,-8503.660028,-296.082377
4503.512620,592.164754,-8350.440928,-296.082377
4503.512944,222.061783,-8503.660028,-222.061783
4503.513268,74.020594,-8886.707777,222.061783
4503.513593,296.082377,-8656.879127,-518.144159
4503.513917,518.144159,-8656.879127,-592.164754
4503.514241,296.082377,-8656.879127,-296.082377
4503.514566,148.041188,-9193.145976,-222.061783
4503.514890,0.000000,-8503.660028,-296.082377
4503.515214,222.061783,-8733.488677,-518.144159
4503.515538,296.082377,-8580.269578,-666.185348
4503.515863,518.144159,-8427.050478,-296.082377
4503.516187,74.020594,-8503.660028,-296.082377
4503.516511,518.144159,-8733.488677,-592.164754
4503.516836,444.123565,-8350.440928,-518.144159
4503.517160,518.144159,-8656.879127,-444.123565
4503.517484,74.020594,-8427.050478,-444.123565
4503.517809,222.061783,-8886.707777,0.000000
4503.518133,518.144159,-8503.660028,-444.123565
4503.518457,370.102971,-8580.269578,-222.061783
4503.518781,370.102971,-8810.098227,-444.123565
4503.519106,370.102971,-8886.707777,-296.082377
4503.519430,296.082377,-8427.050478,-148.041188
4503.519754,370.102971,-9039.926876,-296.082377
4503.520079,74.020594,-8427.050478,-222.061783
4503.520403,592.164754,-8503.660028,-666.185348
4503.520727,444.123565,-8810.098227,-518.144159
4503.521052,370.102971,-8580.269578,-296.082377
4503.521376,444.123565,-8580.269578,-370.102971
4503.521700,296.082377,-8886.707777,-666.185348
4503.522025,296.082377,-8427.050478,-518.144159
4503.522349,740.205942,-8810.098227,-666.185348
4503.522673,444.123565,-8350.440928,-518.144159
4503.522997,444.123565,-8656.879127,-296.082377
4503.523322,444.123565,-8580.269578,-740.205942
4503.523646,518.144159,-8503.660028,-444.123565
4503.523970,222.061783,-8580.269578,-444.123565
4503.524295,444.123565,-8503.660028,-444.123565
4503.524619,444.123565,-8427.050478,-222.061783
4503.524943,370.102971,-8733.488677,-518.144159
4503.525268,592.164754,-8580.269578,-518.144159
4503.525592,370.102971,-8580.269578,-518.144159
4503.525916,444.123565,-8350.440928,-222.061783
4503.526240,444.123565,-8350.440928,-296.082377
4503.526565,370.102971,-8427.050478,-518.144159
4503.526889,370.102971,-8580.269578,-148.041188
4503.527213,444.123565,-8427.050478,-444.123565
4503.527538,740.205942,-8810.098227,-444.123565
4503.527862,370.102971,-8427.050478,-518.144159
4503.528186,666.185348,-8503.660028,-370.102971
4503.528511,592.164754,-8427.050478,0.000000
4503.528835,296.082377,-7737.564530,148.041188
4503.529159,518.144159,-8580.269578,-296.082377
4503.529484,370.102971,-8656.879127,0.000000
4503.529808,370.102971,-8350.440928,-518.144159
4503.530132,370.102971,-9116.536426,0.000000
4503.530456,148.041188,-8427.050478,-296.082377
4503.530781,370.102971,-8733.488677,-296.082377
4503.531105,370.102971,-8580.269578,-296.082377
4503.531429,518.144159,-8350.440928,-222.061783
4503.531754,148.041188,-8197.221829,0.000000
4503.532078,370.102971,-8427.050478,-296.082377
4503.532402,444.123565,-8273.831378,-370.102971
4503.532727,370.102971,-8580.269578,-296.082377
4503.533051,296.082377,-8503.660028,0.000000
4503.533375,518.144159,-8503.660028,-222.061783
4503.533699,370.102971,-8350.440928,-370.102971
4503.534024,148.041188,-8656.879127,0.000000
4503.534348,518.144159,-8273.831378,-444.123565
4503.534672,296.082377,-8273.831378,-148.041188
4503.534997,296.082377,-8580.269578,0.000000
4503.535321,296.082377,-8733.488677,-370.102971
4503.535645,444.123565,-8733.488677,-444.123565
4503.535970,444.123565,-8503.660028,0.000000
4503.536294,444.123565,-8580.269578,-444.123565
4503.536618,370.102971,-8580.269578,74.020594
4503.536943,370.102971,-8580.269578,-222.061783
4503.537267,296.082377,-8733.488677,-740.205942
4503.537591,518.144159,-8427.050478,-222.061783
4503.537915,370.102971,-8656.879127,-296.082377
4503.538240,296.082377,-8733.488677,-222.061783
4503.538564,148.041188,-8580.269578,-148.041188
4503.538888,222.061783,-8810.098227,0.000000
4503.539213,74.020594,-8503.660028,0.000000
4503.539537,222.061783,-8580.269578,-518.144159
4503.539861,444.123565,-9116.536426,0.000000
4503.540186,296.082377,-8120.612279,0.000000
4503.540510,296.082377,-8503.660028,-222.061783
4503.540834,222.061783,-8427.050478,-222.061783
4503.541158,592.164754,-8197.221829,-222.061783
4503.541483,518.144159,-7584.345430,-444.123565
4503.541807,518.144159,-8350.440928,-222.061783
4503.542131,518.144159,-8503.660028,-370.102971
4503.542456,444.123565,-8427.050478,-296.082377
4503.542780,666.185348,-8580.269578,-148.041188
4503.543104,370.102971,-8273.831378,-222.061783
4503.543429,814.226536,-8580.269578,-296.082377
4503.543753,518.144159,-8427.050478,-296.082377
4503.544077,222.061783,-8810.098227,0.000000
4503.544402,222.061783,-8120.612279,0.000000
4503.544726,592.164754,-8273.831378,-370.102971
4503.545050,592.164754,-9039.926876,-370.102971
4503.545374,370.102971,-8810.098227,-296.082377
4503.545699,518.144159,-9039.926876,0.000000
4503.546023,222.061783,-8580.269578,-296.082377
4503.546347,592.164754,-8350.440928,-296.082377
4503.546672,370.102971,-8733.488677,-296.082377
4503.546996,666.185348,-8350.440928,-222.061783
4503.547320,0.000000,-7967.393179,-370.102971
4503.547645,296.082377,-8427.050478,-444.123565
4503.547969,444.123565,-8503.660028,-296.082377
4503.548293,444.123565,-8350.440928,-296.082377
4503.548617,518.144159,-8580.269578,0.000000
4503.548942,296.082377,-8503.660028,-518.144159
4503.549266,444.123565,-8656.879127,-592.164754
4503.549590,296.082377,-8197.221829,-370.102971
4503.549915,666.185348,-8580.269578,-148.041188
4503.550239,296.082377,-8810.098227,-296.082377
4503.550563,518.144159,-8503.660028,-148.041188
4503.550888,370.102971,-8580.269578,-296.082377
4503.551212,444.123565,-8733.488677,-444.123565
4503.551536,740.205942,-8503.660028,-296.082377
4503.551861,296.082377,-8656.879127,-370.102971
4503.552185,370.102971,-8580.269578,-518.144159
4503.552509,444.123565,-8427.050478,-370.102971
4503.552833,148.041188,-8120.612279,0.000000
4503.553158,222.061783,-8427.050478,-444.123565
4503.553482,444.123565,-8810.098227,-592.164754
4503.553806,666.185348,-8656.879127,-666.185348
4503.554131,592.164754,-8580.269578,-444.123565
4503.554455,148.041188,-8733.488677,-592.164754
4503.554779,222.061783,-8350.440928,-592.164754
4503.555104,74.020594,-8350.440928,-296.082377
4503.555428,296.082377,-8810.098227,-370.102971
4503.555752,148.041188,-8427.050478,-592.164754
4503.556077,296.082377,-8503.660028,-444.123565
4503.556401,148.041188,-8503.660028,-222.061783
4503.556725,296.082377,-8656.879127,-296.082377
4503.557049,370.102971,-8580.269578,-370.102971
4503.557374,518.144159,-8656.879127,0.000000
4503.557698,518.144159,-8503.660028,0.000000
4503.558022,296.082377,-8733.488677,-592.164754
4503.558347,370.102971,-8427.050478,-222.061783
4503.558671,444.123565,-8427.050478,-222.061783
4503.558995,518.144159,-8580.269578,-148.041188
4503.559320,296.082377,-8733.488677,0.000000
4503.559644,518.144159,-8427.050478,-370.102971
4503.559968,518.144159,-8427.050478,-296.082377
4503.560292,296.082377,-8810.098227,-370.102971
4503.560617,444.123565,-8580.269578,-296.082377
4503.560941,444.123565,-8197.221829,-296.082377
4503.561265,444.123565,-9039.926876,-296.082377
4503.561589,444.123565,-8503.660028,-666.185348
4503.561914,666.185348,-8503.660028,-370.102971
4503.562238,592.164754,-8810.098227,-518.144159
4503.562562,518.144159,-8656.879127,-222.061783
4503.562886,592.164754,-8197.221829,-370.102971
4503.563211,444.123565,-8810.098227,-148.041188
4503.563535,296.082377,-8733.488677,-222.061783
4503.563859,666.185348,-8733.488677,-444.123565
4503.564183,296.082377,-8197.221829,-148.041188
4503.564508,296.082377,-8503.660028,0.000000
4503.564832,296.082377,-8886.707777,0.000000
4503.565156,444.123565,-8580.269578,-296.082377
4503.565480,592.164754,-8580.269578,0.000000
4503.565805,518.144159,-8656.879127,-296.082377
4503.566129,444.123565,-8656.879127,0.000000
4503.566453,518.144159,-8503.660028,0.000000
4503.566777,518.144159,-8733.488677,-222.061783
4503.567102,444.123565,-8273.831378,-518.144159
4503.567426,444.123565,-8810.098227,-518.144159
4503.567750,370.102971,-8350.440928,-370.102971
4503.568074,444.123565,-8656.879127,-370.102971
4503.568399,666.185348,-8350.440928,-296.082377
4503.568723,296.082377,-8427.050478,-444.123565
4503.569047,592.164754,-8427.050478,-518.144159
4503.569371,592.164754,-8656.879127,-592.164754
4503.569696,296.082377,-8656.879127,-370.102971
4503.570020,666.185348,-8963.317327,-518.144159
4503.570344,370.102971,-8427.050478,-370.102971
4503.570668,370.102971,-8580.269578,-518.144159
4503.570993,592.164754,-8810.098227,-444.123565
4503.571317,740.205942,-8427.050478,148.041188
4503.571641,296.082377,-9039.926876,-296.082377
4503.571966,74.020594,-8656.879127,-592.164754
4503.572290,370.102971,-8580.269578,-222.061783
