#time,accel_x,accel_y,accel_z
4524.468055,148.041188,-8656.879127,-148.041188
4524.468379,222.061783,-8273.831378,-148.041188
4524.468704,370.102971,-8656.879127,0.000000
4524.469028,592.164754,-8503.660028,-296.082377
4524.469353,444.123565,-8503.660028,148.041188
4524.469677,296.082377,-8733.488677,0.000000
4524.470002,222.061783,-8350.440928,222.061783
4524.470326,148.041188,-8656.879127,518.144159
4524.470651,518.144159,-9193.145976,814.226536
4524.470975,148.041188,-8197.221829,740.205942
4524.471300,518.144159,-8733.488677,370.102971
4524.471624,370.102971,-8810.098227,666.185348
4524.471949,666.185348,-8427.050478,740.205942
4524.472273,444.123565,-8580.269578,592.164754
4524.472598,518.144159,-8580.269578,1036.288319
4524.472922,296.082377,-8580.269578,740.205942
4524.473247,74.020594,-8427.050478,888.247130
4524.473571,148.041188,-8197.221829,962.267725
4524.473896,74.020594,-8580.269578,814.226536
4524.474220,518.144159,-8427.050478,592.164754
4524.474545,296.082377,-8427.050478,814.226536
4524.474869,740.205942,-8733.488677,1036.288319
4524.475194,444.123565,-8350.440928,814.226536
4524.475518,592.164754,-8580.269578,962.267725
4524.475843,222.061783,-8503.660028,1036.288319
4524.476167,370.102971,-8733.488677,444.123565
4524.476492,296.082377,-8350.440928,518.144159
4524.476816,296.082377,-8503.660028,592.164754
4524.477141,222.061783,-8273.831378,592.164754
4524.477465,296.082377,-8733.488677,370.102971
4524.477790,592.164754,-7890.783629,-222.061783
4524.478114,222.061783,-8656.879127,444.123565
4524.478439,666.185348,-8427.050478,74.020594
4524.478763,666.185348,-8503.660028,222.061783
4524.479087,666.185348,-8427.050478,592.164754
4524.479412,592.164754,-8580.269578,0.000000
4524.479736,444.123565,-8656.879127,222.061783
4524.480060,296.082377,-8656.879127,0.000000
4524.480385,518.144159,-8580.269578,74.020594
4524.480709,444.123565,-8810.098227,-444.123565
4524.481033,666.185348,-8733.488677,-296.082377
4524.481358,592.164754,-8427.050478,0.000000
4524.481682,518.144159,-8580.269578,-444.123565
4524.482006,148.041188,-8120.612279,0.000000
4524.482330,592.164754,-8273.831378,-518.144159
4524.482655,518.144159,-8733.488677,-518.144159
4524.482979,444.123565,-8503.660028,-444.123565
4524.483303,370.102971,-8810.098227,-444.123565
4524.483628,0.000000,-8350.440928,-444.123565
4524.483952,296.082377,-8656.879127,-592.164754
4524.484276,518.144159,-8810.098227,-1036.288319
4524.484601,518.144159,-8427.050478,-888.247130
4524.484925,814.226536,-8197.221829,-1406.391290
4524.485249,592.164754,-8656.879127,-1258.350101
4524.485573,666.185348,-8273.831378,-1110.308913
4524.485898,592.164754,-8656.879127,-1036.288319
4524.486222,592.164754,-7814.174080,-592.164754
4524.486546,518.144159,-8427.050478,-962.267725
4524.486871,370.102971,-8580.269578,-1258.350101
4524.487195,148.041188,-8580.269578,-962.267725
4524.487519,148.041188,-8580.269578,-1258.350101
4524.487843,296.082377,-8656.879127,-1184.329507
4524.488168,592.164754,-8273.831378,-1036.288319
4524.488492,444.123565,-8580.269578,-1110.308913
4524.488816,518.144159,-8580.269578,-1406.391290
4524.489141,1036.288319,-8273.831378,-1036.288319
4524.489465,740.205942,-8733.488677,-1332.370696
4524.489789,370.102971,-8733.488677,-962.267725
4524.490114,370.102971,-8656.879127,-962.267725
4524.490438,740.205942,-8656.879127,-666.185348
4524.490762,74.020594,-8580.269578,-888.247130
4524.491086,74.020594,-9269.755526,-666.185348
4524.491411,0.000000,-8580.269578,-888.247130
4524.491735,148.041188,-8580.269578,-740.205942
4524.492059,222.061783,-8503.660028,-1110.308913
4524.492384,740.205942,-8656.879127,-888.247130
4524.492708,518.144159,-8656.879127,-1184.329507
4524.493032,444.123565,-9039.926876,-814.226536
4524.493356,222.061783,-9422.974625,-1480.411884
4524.493681,148.041188,-8886.707777,-666.185348
4524.494005,0.000000,-8963.317327,-814.226536
4524.494329,148.041188,-8810.098227,-592.164754
4524.494654,0.000000,-9039.926876,-740.205942
4524.494978,296.082377,-8886.707777,-592.164754
4524.495302,370.102971,-8656.879127,-740.205942
4524.495627,370.102971,-8810.098227,-1184.329507
4524.495951,592.164754,-8580.269578,-666.185348
4524.496275,296.082377,-8197.221829,-740.205942
4524.496599,592.164754,-8656.879127,-666.185348
4524.496924,666.185348,-8810.098227,-666.185348
4524.497248,888.247130,-8580.269578,-444.123565
4524.497572,740.205942,-9269.755526,-814.226536
4524.497897,592.164754,-8503.660028,-296.082377
4524.498221,222.061783,-8963.317327,-222.061783
4524.498545,148.041188,-8503.660028,0.000000
4524.498869,370.102971,-8503.660028,-518.144159
4524.499194,148.041188,-8503.660028,-444.123565
4524.499518,370.102971,-8656.879127,-222.061783
4524.499842,592.164754,-8503.660028,-222.061783
4524.500167,666.185348,-8656.879127,0.000000
4524.500491,296.082377,-8810.098227,518.144159
4524.500815,1110.308913,-8886.707777,74.020594
4524.501140,1110.308913,-8503.660028,0.000000
4524.501464,1184.329507,-8656.879127,148.041188
4524.501788,962.267725,-9499.584175,148.041188
4524.502112,740.205942,-8427.050478,222.061783
4524.502437,740.205942,-8656.879127,74.020594
4524.502761,296.082377,-8580.269578,148.041188
4524.503085,814.226536,-8580.269578,222.061783
4524.503410,518.144159,-8656.879127,222.061783
4524.503734,740.205942,-8886.707777,518.144159
4524.504058,814.226536,-8580.269578,518.144159
4524.504382,1036.288319,-8733.488677,444.123565
4524.504707,444.123565,-8197.221829,814.226536
4524.505031,814.226536,-8810.098227,444.123565
4524.505355,370.102971,-8580.269578,666.185348
4524.505680,444.123565,-8427.050478,444.123565
4524.506004,296.082377,-8656.879127,0.000000
4524.506328,222.061783,-8427.050478,222.061783
4524.506653,74.020594,-8197.221829,592.164754
4524.506977,148.041188,-8580.269578,740.205942
4524.507301,370.102971,-8044.002729,1110.308913
4524.507625,740.205942,-8503.660028,888.247130
4524.507950,592.164754,-8273.831378,1036.288319
4524.508274,370.102971,-8656.879127,666.185348
4524.508598,370.102971,-8656.879127,666.185348
4524.508923,444.123565,-8273.831378,444.123565
4524.509247,148.041188,-8427.050478,666.185348
4524.509571,0.000000,-8044.002729,592.164754
4524.509895,148.041188,-8044.002729,370.102971
4524.510220,148.041188,-8503.660028,740.205942
4524.510544,444.123565,-8427.050478,222.061783
4524.510868,518.144159,-8273.831378,518.144159
4524.511193,444.123565,-8580.269578,592.164754
4524.511517,518.144159,-8503.660028,518.144159
4524.511841,444.123565,-8656.879127,0.000000
4524.512166,74.020594,-8503.660028,222.061783
4524.512490,148.041188,-8273.831378,296.082377
4524.512814,0.000000,-8503.660028,222.061783
4524.513138,-296.082377,-8656.879127,518.144159
4524.513463,222.061783,-8580.269578,74.020594
4524.513787,296.082377,-8350.440928,148.041188
4524.514111,444.123565,-8810.098227,370.102971
4524.514436,370.102971,-8656.879127,444.123565
4524.514760,370.102971,-8810.098227,518.144159
4524.515084,444.123565,-8580.269578,444.123565
4524.515409,444.123565,-8810.098227,148.041188
4524.515733,370.102971,-8733.488677,74.020594
4524.516057,74.020594,-8580.269578,518.144159
4524.516381,0.000000,-8656.879127,296.082377
4524.516706,74.020594,-8427.050478,222.061783
4524.517030,74.020594,-8273.831378,74.020594
4524.517354,444.123565,-8963.317327,0.000000
4524.517679,296.082377,-8503.660028,148.041188
4524.518003,296.082377,-8580.269578,74.020594
4524.518327,592.164754,-8503.660028,0.000000
4524.518651,444.123565,-8656.879127,74.020594
4524.518976,592.164754,-8656.879127,-296.082377
4524.519300,888.247130,-8350.440928,0.000000
4524.519624,444.123565,-8580.269578,0.000000
4524.519949,592.164754,-8580.269578,-666.185348
4524.520273,1110.308913,-8273.831378,-296.082377
4524.520597,148.041188,-8273.831378,-222.061783
4524.520922,74.020594,-8656.879127,-370.102971
4524.521246,74.020594,-8580.269578,-222.061783
4524.521570,444.123565,-9116.536426,-518.144159
4524.521894,296.082377,-8656.879127,-370.102971
4524.522219,444.123565,-8810.098227,-518.144159
4524.522543,592.164754,-8733.488677,-222.061783
4524.522867,518.144159,-8580.269578,0.000000
4524.523192,592.164754,-8810.098227,74.020594
4524.523516,148.041188,-8656.879127,-74.020594
4524.523840,370.102971,-8503.660028,-296.082377
4524.524164,148.041188,-8580.269578,-370.102971
4524.524489,370.102971,-8580.269578,-222.061783
4524.524813,0.000000,-8733.488677,-74.020594
4524.525137,0.000000,-8656.879127,148.041188
4524.525462,74.020594,-8810.098227,444.123565
4524.525786,444.123565,-9116.536426,74.020594
4524.526110,592.164754,-8886.707777,222.061783
4524.526435,592.164754,-8733.488677,222.061783
4524.526759,518.144159,-8656.879127,296.082377
4524.527083,888.247130,-8427.050478,296.082377
4524.527407,888.247130,-8427.050478,222.061783
4524.527732,666.185348,-8656.879127,0.000000
4524.528056,74.020594,-8580.269578,0.000000
4524.528380,148.041188,-8656.879127,0.000000
4524.528705,0.000000,-8656.879127,296.082377
4524.529029,148.041188,-8120.612279,0.000000
4524.529353,222.061783,-8503.660028,-296.082377
4524.529677,444.123565,-8273.831378,0.000000
4524.530002,444.123565,-8656.879127,0.000000
4524.530326,740.205942,-8810.098227,-370.102971
4524.530650,740.205942,-8120.612279,-370.102971
4524.530975,740.205942,-8656.879127,-370.102971
4524.531299,296.082377,-8273.831378,-666.185348
4524.531623,296.082377,-8044.002729,-370.102971
4524.531948,0.000000,-8350.440928,-518.144159
4524.532272,0.000000,-8427.050478,-444.123565
4524.532596,0.000000,-8350.440928,-444.123565
4524.532920,666.185348,-8886.707777,-370.102971
4524.533245,518.144159,-8503.660028,-296.082377
4524.533569,296.082377,-8197.221829,-148.041188
4524.533893,296.082377,-8427.050478,0.000000
4524.534218,444.123565,-8197.221829,-370.102971
4524.534542,370.102971,-8580.269578,-592.164754
4524.534866,370.102971,-8733.488677,-518.144159
4524.535190,370.102971,-8273.831378,-592.164754
4524.535515,518.144159,-8886.707777,-814.226536
4524.535839,518.144159,-8810.098227,-1036.288319
4524.536163,148.041188,-8733.488677,-1110.308913
4524.536488,148.041188,-8810.098227,-888.247130
4524.536812,592.164754,-8656.879127,-1036.288319
4524.537136,592.164754,-8810.098227,-1110.308913
4524.537461,222.061783,-8656.879127,-814.226536
4524.537785,296.082377,-8733.488677,-814.226536
4524.538109,148.041188,-8886.707777,-962.267725
4524.538433,0.000000,-8656.879127,-962.267725
4524.538758,222.061783,-8733.488677,-962.267725
4524.539082,518.144159,-8963.317327,-1332.370696
4524.539406,222.061783,-8656.879127,-1184.329507
4524.539731,296.082377,-8656.879127,-1110.308913
4524.540055,370.102971,-8503.660028,-814.226536
4524.540379,74.020594,-8427.050478,-1184.329507
4524.540703,0.000000,-8733.488677,-962.267725
4524.541028,148.041188,-8580.269578,-888.247130
4524.541352,296.082377,-8427.050478,-740.205942
4524.541676,370.102971,-8810.098227,-962.267725
4524.542001,148.041188,-8963.317327,-666.185348
4524.542325,444.123565,-8580.269578,-666.185348
4524.542649,444.123565,-8580.269578,-814.226536
4524.542974,740.205942,-8886.707777,-962.267725
4524.543298,518.144159,-8886.707777,-740.205942
4524.543622,370.102971,-8273.831378,-666.185348
4524.543946,370.102971,-8733.488677,-592.164754
4524.544271,592.164754,-8810.098227,-592.164754
4524.544595,444.123565,-8427.050478,-888.247130
4524.544919,518.144159,-8963.317327,-666.185348
4524.545244,592.164754,-8656.879127,-740.205942
4524.545568,148.041188,-9039.926876,-148.041188
4524.545892,814.226536,-8656.879127,-592.164754
4524.546217,592.164754,-8503.660028,-370.102971
4524.546541,740.205942,-8427.050478,-518.144159
4524.546865,518.144159,-8580.269578,-518.144159
4524.547189,814.226536,-8580.269578,-296.082377
4524.547514,74.020594,-8273.831378,-444.123565
4524.547838,444.123565,-8580.269578,-222.061783
4524.548162,74.020594,-8427.050478,-518.144159
4524.548487,888.247130,-8503.660028,-518.144159
4524.548811,518.144159,-8733.488677,-444.123565
4524.549135,666.185348,-8656.879127,-296.082377
4524.549459,518.144159,-8656.879127,-296.082377
4524.549784,518.144159,-8197.221829,0.000000
4524.550108,962.267725,-8656.879127,-148.041188
4524.550432,740.205942,-8580.269578,-370.102971
4524.550757,814.226536,-8733.488677,-148.041188
4524.551081,148.041188,-8503.660028,-148.041188
4524.551405,444.123565,-8733.488677,0.000000
4524.551730,592.164754,-8197.221829,0.000000
4524.552054,592.164754,-8733.488677,0.000000
4524.552378,592.164754,-8197.221829,0.000000
4524.552702,518.144159,-8044.002729,148.041188
4524.553027,740.205942,-8810.098227,-74.020594
4524.553351,592.164754,-8656.879127,-296.082377
4524.553675,444.123565,-9116.536426,-518.144159
4524.554000,518.144159,-8580.269578,-296.082377
4524.554324,518.144159,-8580.269578,-370.102971
4524.554648,222.061783,-8886.707777,-518.144159
4524.554972,592.164754,-8656.879127,-518.144159
4524.555297,592.164754,-8503.660028,-592.164754
4524.555621,740.205942,-8580.269578,-888.247130
4524.555945,740.205942,-8656.879127,-666.185348
4524.556270,444.123565,-8503.660028,-518.144159
4524.556594,592.164754,-8656.879127,-518.144159
4524.556918,444.123565,-8273.831378,-592.164754
4524.557243,814.226536,-8963.317327,-888.247130
4524.557567,518.144159,-8273.831378,-814.226536
4524.557891,592.164754,-8886.707777,-740.205942
4524.558215,518.144159,-8886.707777,-1406.391290
4524.558540,814.226536,-9039.926876,-888.247130
4524.558864,814.226536,-8810.098227,-1258.350101
4524.559188,666.185348,-8733.488677,-740.205942
4524.559513,592.164754,-8503.660028,-1110.308913
4524.559837,962.267725,-9576.193725,-1110.308913
4524.560161,444.123565,-8580.269578,-1184.329507
4524.560485,370.102971,-8963.317327,-962.267725
4524.560810,296.082377,-9193.145976,-814.226536
4524.561134,148.041188,-8963.317327,-592.164754
4524.561458,296.082377,-9116.536426,-962.267725
4524.561783,370.102971,-8580.269578,-1036.288319
4524.562107,740.205942,-8810.098227,-1110.308913
4524.562431,888.247130,-8963.317327,-1258.350101
4524.562756,370.102971,-8810.098227,-1036.288319
4524.563080,518.144159,-8580.269578,-1184.329507
4524.563404,518.144159,-8503.660028,-1110.308913
4524.563728,148.041188,-8810.098227,-1110.308913
4524.564053,592.164754,-9422.974625,-1110.308913
4524.564377,518.144159,-8580.269578,-1110.308913
4524.564701,222.061783,-8350.440928,-1332.370696
4524.565026,222.061783,-8886.707777,-962.267725
4524.565350,148.041188,-8197.221829,-1258.350101
4524.565674,518.144159,-8810.098227,-1110.308913
4524.565998,370.102971,-8427.050478,-1480.411884
4524.566323,296.082377,-8656.879127,-1258.350101
4524.566647,370.102971,-8656.879127,-1258.350101
4524.566971,222.061783,-8810.098227,-1036.288319
4524.567296,444.123565,-8350.440928,-1332.370696
4524.567620,296.082377,-8810.098227,-1110.308913
4524.567944,148.041188,-8120.612279,-888.247130
4524.568269,592.164754,-9116.536426,-592.164754
4524.568593,222.061783,-8503.660028,-1036.288319
4524.568917,444.123565,-8427.050478,-740.205942
4524.569241,296.082377,-8503.660028,-1110.308913
4524.569566,222.061783,-8273.831378,-888.247130
4524.569890,518.144159,-8120.612279,-444.123565
4524.570214,592.164754,-8197.221829,-740.205942
4524.570539,666.185348,-8044.002729,-1036.288319
4524.570863,518.144159,-8427.050478,-740.205942
4524.571187,888.247130,-8273.831378,-444.123565
4524.571511,518.144159,-8427.050478,-518.144159
4524.571836,296.082377,-8503.660028,-888.247130
4524.572160,518.144159,-8427.050478,-518.144159
4524.572484,370.102971,-8810.098227,-444.123565
4524.572809,296.082377,-8656.879127,-370.102971
4524.573133,222.061783,-8044.002729,-444.123565
4524.573457,296.082377,-8580.269578,0.000000
4524.573782,148.041188,-8273.831378,-370.102971
4524.574106,148.041188,-8197.221829,-296.082377
4524.574430,666.185348,-8427.050478,-222.061783
4524.574754,518.144159,-8273.831378,74.020594
4524.575079,814.226536,-8273.831378,-296.082377
4524.575403,592.164754,-9193.145976,0.000000
4524.575727,518.144159,-8733.488677,-296.082377
4524.576052,222.061783,-8580.269578,-296.082377
4524.576376,370.102971,-8427.050478,-222.061783
4524.576700,592.164754,-9269.755526,0.000000
4524.577025,444.123565,-8580.269578,-148.041188
4524.577349,296.082377,-8273.831378,-222.061783
4524.577673,444.123565,-8350.440928,-148.041188
4524.577997,370.102971,-8886.707777,-296.082377
4524.578322,518.144159,-8810.098227,0.000000
4524.578646,518.144159,-8503.660028,0.000000
4524.578970,148.041188,-8580.269578,-222.061783
4524.579295,518.144159,-8350.440928,-296.082377
4524.579619,0.000000,-9422.974625,0.000000
4524.579943,444.123565,-8427.050478,-148.041188
4524.580268,518.144159,-8350.440928,-296.082377
4524.580592,666.185348,-8886.707777,-296.082377
4524.580916,518.144159,-8733.488677,-370.102971
4524.581241,444.123565,-8733.488677,-222.061783
4524.581565,666.185348,-8810.098227,-296.082377
4524.581889,370.102971,-8427.050478,0.000000
4524.582214,444.123565,-8733.488677,0.000000
4524.582538,0.000000,-8427.050478,-296.082377
4524.582862,592.164754,-8580.269578,0.000000
4524.583187,740.205942,-8427.050478,-370.102971
4524.583511,370.102971,-8810.098227,0.000000
4524.583835,592.164754,-8580.269578,0.000000
4524.584160,592.164754,-8580.269578,-148.041188
4524.584484,592.164754,-8427.050478,-296.082377
4524.584809,592.164754,-8656.879127,-592.164754
4524.585133,814.226536,-8733.488677,-296.082377
4524.585457,222.061783,-8427.050478,-148.041188
4524.585782,444.123565,-9039.926876,-296.082377
4524.586106,370.102971,-8733.488677,-148.041188
4524.586430,814.226536,-8656.879127,-370.102971
4524.586755,518.144159,-8656.879127,-592.164754
4524.587079,444.123565,-8733.488677,0.000000
4524.587403,296.082377,-8350.440928,-296.082377
4524.587728,296.082377,-8427.050478,-444.123565
4524.588052,296.082377,-8427.050478,-444.123565
4524.588376,148.041188,-8580.269578,-518.144159
4524.588701,222.061783,-8503.660028,-444.123565
4524.589025,74.020594,-8580.269578,-518.144159
4524.589349,444.123565,-8733.488677,-962.267725
4524.589674,666.185348,-8733.488677,-666.185348
4524.589998,222.061783,-8656.879127,-518.144159
4524.590323,296.082377,-8503.660028,-888.247130
4524.590647,74.020594,-8580.269578,-222.061783
4524.590971,74.020594,-7967.393179,-518.144159
4524.591296,444.123565,-8427.050478,-740.205942
4524.591620,148.041188,-8197.221829,-666.185348
4524.591944,592.164754,-8503.660028,-592.164754
4524.592269,592.164754,-7814.174080,-666.185348
4524.592593,518.144159,-8350.440928,-740.205942
4524.592917,444.123565,-8656.879127,-814.226536
4524.593242,518.144159,-8427.050478,-592.164754
4524.593566,518.144159,-8503.660028,-888.247130
4524.593890,740.205942,-8350.440928,-666.185348
4524.594215,518.144159,-8273.831378,-518.144159
4524.594539,148.041188,-8656.879127,-444.123565
4524.594863,74.020594,-8427.050478,-296.082377
4524.595188,666.185348,-8580.269578,-666.185348
4524.595512,518.144159,-8503.660028,-222.061783
4524.595837,592.164754,-8197.221829,-370.102971
4524.596161,296.082377,-8733.488677,0.000000
4524.596485,814.226536,-9193.145976,0.000000
4524.596810,740.205942,-8503.660028,-148.041188
4524.597134,962.267725,-8656.879127,-148.041188
4524.597458,740.205942,-8733.488677,0.000000
4524.597783,1110.308913,-8733.488677,0.000000
4524.598107,370.102971,-8197.221829,74.020594
4524.598431,518.144159,-8503.660028,-444.123565
4524.598756,592.164754,-8580.269578,-148.041188
4524.599080,666.185348,-8503.660028,0.000000
4524.599404,370.102971,-8044.002729,222.061783
4524.599729,148.041188,-8350.440928,0.000000
4524.600053,592.164754,-8273.831378,0.000000
4524.600377,518.144159,-8503.660028,0.000000
4524.600702,296.082377,-8350.440928,74.020594
4524.601026,444.123565,-8580.269578,0.000000
4524.601351,444.123565,-8886.707777,0.000000
4524.601675,148.041188,-8963.317327,0.000000
4524.601999,148.041188,-8580.269578,-222.061783
4524.602324,444.123565,-8656.879127,-370.102971
4524.602648,370.102971,-8503.660028,0.000000
4524.602972,518.144159,-8580.269578,0.000000
4524.603297,518.144159,-8656.879127,0.000000
4524.603621,1036.288319,-8580.269578,0.000000
4524.603945,740.205942,-8656.879127,148.041188
4524.604270,592.164754,-8580.269578,0.000000
4524.604594,518.144159,-8350.440928,0.000000
4524.604918,666.185348,-8656.879127,0.000000
4524.605243,592.164754,-8273.831378,-370.102971
4524.605567,370.102971,-8656.879127,74.020594
4524.605891,370.102971,-8656.879127,-148.041188
4524.606216,296.082377,-8810.098227,0.000000
4524.606540,666.185348,-8963.317327,-148.041188
4524.606865,74.020594,-8963.317327,0.000000
4524.607189,518.144159,-8886.707777,-444.123565
4524.607513,444.123565,-8886.707777,-296.082377
4524.607838,444.123565,-9039.926876,296.082377
4524.608162,444.123565,-8503.660028,0.000000
4524.608486,222.061783,-9116.536426,0.000000
4524.608811,74.020594,-8580.269578,148.041188
4524.609135,148.041188,-8810.098227,0.000000
4524.609459,222.061783,-8503.660028,74.020594
4524.609784,222.061783,-8580.269578,0.000000
4524.610108,296.082377,-8810.098227,0.000000
4524.610432,666.185348,-8427.050478,0.000000
4524.610757,296.082377,-7967.393179,296.082377
4524.611081,592.164754,-8733.488677,-74.020594
4524.611405,370.102971,-8656.879127,0.000000
4524.611730,296.082377,-8580.269578,0.000000
4524.612054,148.041188,-8503.660028,518.144159
4524.612379,74.020594,-8427.050478,0.000000
4524.612703,222.061783,-8580.269578,74.020594
4524.613027,444.123565,-8350.440928,-296.082377
4524.613352,296.082377,-8503.660028,0.000000
4524.613676,222.061783,-8427.050478,-296.082377
4524.614000,444.123565,-8656.879127,0.000000
4524.614325,370.102971,-8427.050478,-222.061783
4524.614649,222.061783,-8427.050478,0.000000
4524.614973,518.144159,-8350.440928,296.082377
4524.615298,222.061783,-8810.098227,0.000000
4524.615622,222.061783,-8580.269578,0.000000
4524.615946,592.164754,-8503.660028,-222.061783
4524.616271,518.144159,-8733.488677,0.000000
4524.616595,296.082377,-8580.269578,148.041188
4524.616919,444.123565,-8810.098227,0.000000
4524.617244,370.102971,-8810.098227,0.000000
4524.617568,296.082377,-8350.440928,0.000000
4524.617893,740.205942,-8810.098227,0.000000
4524.618217,222.061783,-8427.050478,0.000000
4524.618541,222.061783,-8503.660028,0.000000
4524.618866,592.164754,-8656.879127,0.000000
4524.619190,962.267725,-8350.440928,-296.082377
4524.619514,370.102971,-8656.879127,-296.082377
4524.619839,888.247130,-8580.269578,-370.102971
4524.620163,296.082377,-8580.269578,0.000000
4524.620487,444.123565,-9116.536426,0.000000
4524.620812,0.000000,-8273.831378,74.020594
4524.621136,444.123565,-8656.879127,0.000000
4524.621460,370.102971,-8733.488677,0.000000
4524.621785,370.102971,-8503.660028,148.041188
4524.622109,444.123565,-8503.660028,-296.082377
4524.622433,74.020594,-8273.831378,370.102971
4524.622758,222.061783,-8656.879127,222.061783
4524.623082,148.041188,-8810.098227,444.123565
4524.623407,370.102971,-7967.393179,518.144159
4524.623731,296.082377,-8503.660028,222.061783
4524.624055,74.020594,-8810.098227,74.020594
4524.624380,444.123565,-8503.660028,0.000000
4524.624704,592.164754,-8733.488677,-222.061783
4524.625028,444.123565,-8350.440928,0.000000
4524.625353,222.061783,-8580.269578,0.000000
4524.625677,296.082377,-8886.707777,74.020594
4524.626001,0.000000,-8580.269578,74.020594
4524.626326,666.185348,-8886.707777,0.000000
4524.626650,296.082377,-8503.660028,0.000000
4524.626974,296.082377,-8273.831378,148.041188
4524.627299,222.061783,-8656.879127,74.020594
4524.627623,296.082377,-8120.612279,222.061783
4524.627947,518.144159,-8350.440928,0.000000
4524.628272,296.082377,-8656.879127,74.020594
4524.628596,222.061783,-8656.879127,148.041188
4524.628921,148.041188,-8810.098227,0.000000
4524.629245,444.123565,-8810.098227,0.000000
4524.629569,222.061783,-8656.879127,0.000000
4524.629894,222.061783,-8733.488677,-148.041188
4524.630218,148.041188,-8120.612279,0.000000
4524.630542,592.164754,-8197.221829,0.000000
4524.630867,222.061783,-8427.050478,-148.041188
4524.631191,370.102971,-8656.879127,-222.061783
4524.631515,592.164754,-8273.831378,-296.082377
4524.631840,222.061783,-8886.707777,0.000000
4524.632164,148.041188,-8963.317327,0.000000
4524.632488,0.000000,-8656.879127,-74.020594
4524.632813,0.000000,-8810.098227,0.000000
4524.633137,0.000000,-8273.831378,-296.082377
4524.633461,0.000000,-8580.269578,-444.123565
4524.633786,592.164754,-8503.660028,-444.123565
4524.634110,518.144159,-8427.050478,-444.123565
4524.634435,148.041188,-8810.098227,-370.102971
4524.634759,74.020594,-8427.050478,-814.226536
4524.635083,148.041188,-8427.050478,-370.102971
4524.635408,74.020594,-8886.707777,-148.041188
4524.635732,74.020594,-8580.269578,-592.164754
4524.636056,222.061783,-8656.879127,-444.123565
4524.636381,222.061783,-8273.831378,-518.144159
4524.636705,518.144159,-8580.269578,-740.205942
4524.637029,518.144159,-8656.879127,-740.205942
4524.637354,518.144159,-8044.002729,-444.123565
4524.637678,592.164754,-8197.221829,-888.247130
4524.638002,296.082377,-8580.269578,-592.164754
4524.638327,518.144159,-8503.660028,-666.185348
4524.638651,444.123565,-8580.269578,-740.205942
4524.638975,148.041188,-8427.050478,-518.144159
4524.639300,296.082377,-8273.831378,-444.123565
4524.639624,148.041188,-8656.879127,-592.164754
4524.639949,518.144159,-8656.879127,-518.144159
4524.640273,296.082377,-8503.660028,-666.185348
4524.640597,518.144159,-8273.831378,-370.102971
4524.640922,296.082377,-8427.050478,-222.061783
4524.641246,296.082377,-8886.707777,-370.102971
4524.641570,370.102971,-8580.269578,-592.164754
4524.641895,888.247130,-8886.707777,-592.164754
4524.642219,444.123565,-8963.317327,-592.164754
4524.642543,296.082377,-8503.660028,-518.144159
4524.642868,296.082377,-8656.879127,-296.082377
4524.643192,370.102971,-8963.317327,-518.144159
4524.643516,370.102971,-8886.707777,-296.082377
4524.643841,518.144159,-8810.098227,-592.164754
4524.644165,444.123565,-8503.660028,0.000000
4524.644490,370.102971,-8580.269578,0.000000
4524.644814,444.123565,-8886.707777,-518.144159
4524.645138,444.123565,-8273.831378,-296.082377
4524.645463,370.102971,-8810.098227,-370.102971
4524.645787,296.082377,-8427.050478,-370.102971
4524.646111,592.164754,-8886.707777,-296.082377
4524.646436,444.123565,-8580.269578,-444.123565
4524.646760,444.123565,-8580.269578,-518.144159
4524.647084,518.144159,-8580.269578,-222.061783
4524.647409,370.102971,-8733.488677,-222.061783
4524.647733,888.247130,-8503.660028,0.000000
4524.648057,444.123565,-8427.050478,-370.102971
4524.648382,296.082377,-8656.879127,-222.061783
4524.648706,518.144159,-8427.050478,-370.102971
4524.649030,1110.308913,-8810.098227,-222.061783
4524.649355,518.144159,-8350.440928,-296.082377
4524.649679,148.041188,-8350.440928,-370.102971
4524.650004,296.082377,-8886.707777,0.000000
4524.650328,444.123565,-9116.536426,-592.164754
4524.650652,518.144159,-8580.269578,-370.102971
4524.650977,592.164754,-8427.050478,-592.164754
4524.651301,666.185348,-8427.050478,-444.123565
4524.651625,592.164754,-8503.660028,-592.164754
4524.651950,962.267725,-8197.221829,-592.164754
4524.652274,888.247130,-8580.269578,-666.185348
4524.652598,444.123565,-8733.488677,-370.102971
4524.652923,666.185348,-8656.879127,-592.164754
4524.653247,814.226536,-8350.440928,-444.123565
4524.653571,518.144159,-8427.050478,-518.144159
4524.653896,296.082377,-8427.050478,-370.102971
4524.654220,518.144159,-8350.440928,-888.247130
4524.654544,888.247130,-8580.269578,-518.144159
4524.654869,814.226536,-8350.440928,-592.164754
4524.655193,296.082377,-8886.707777,-444.123565
4524.655518,740.205942,-8580.269578,-592.164754
4524.655842,666.185348,-8656.879127,-592.164754
4524.656166,888.247130,-9193.145976,-666.185348
4524.656491,592.164754,-9193.145976,-296.082377
4524.656815,592.164754,-8503.660028,-370.102971
4524.657139,296.082377,-8810.098227,-148.041188
4524.657464,518.144159,-8580.269578,-518.144159
4524.657788,666.185348,-9039.926876,-518.144159
4524.658112,296.082377,-8197.221829,-296.082377
4524.658437,444.123565,-8656.879127,-222.061783
4524.658761,444.123565,-8963.317327,-592.164754
4524.659085,370.102971,-8656.879127,-444.123565
4524.659410,592.164754,-8580.269578,-444.123565
4524.659734,518.144159,-8656.879127,-222.061783
4524.660058,592.164754,-8733.488677,-592.164754
4524.660383,666.185348,-8810.098227,-814.226536
4524.660707,518.144159,-8733.488677,-518.144159
4524.661032,370.102971,-8810.098227,-592.164754
4524.661356,592.164754,-8656.879127,-740.205942
4524.661680,222.061783,-8886.707777,296.082377
4524.662005,296.082377,-8503.660028,-518.144159
4524.662329,222.061783,-8503.660028,-518.144159
4524.662653,444.123565,-8273.831378,-888.247130
4524.662978,518.144159,-8733.488677,-518.144159
4524.663302,518.144159,-8656.879127,-592.164754
4524.663626,444.123565,-8427.050478,-592.164754
4524.663951,592.164754,-8656.879127,-518.144159
4524.664275,740.205942,-8350.440928,-740.205942
4524.664599,592.164754,-8963.317327,-1036.288319
4524.664924,962.267725,-8503.660028,-592.164754
4524.665248,740.205942,-8580.269578,-518.144159
4524.665572,222.061783,-9039.926876,-740.205942
4524.665897,518.144159,-8503.660028,-1110.308913
4524.666221,296.082377,-8427.050478,-740.205942
4524.666546,296.082377,-8580.269578,-592.164754
4524.666870,148.041188,-8656.879127,-592.164754
4524.667194,518.144159,-8350.440928,-370.102971
4524.667519,518.144159,-8503.660028,-518.144159
4524.667843,370.102971,-8886.707777,-296.082377
4524.668167,222.061783,-8427.050478,-666.185348
4524.668492,666.185348,-8580.269578,-222.061783
4524.668816,888.247130,-8427.050478,-592.164754
4524.669140,444.123565,-8886.707777,-666.185348
4524.669465,592.164754,-8503.660028,-888.247130
4524.669789,518.144159,-8810.098227,-740.205942
4524.670113,518.144159,-8580.269578,-666.185348
4524.670438,0.000000,-8656.879127,-592.164754
4524.670762,296.082377,-8503.660028,-370.102971
4524.671086,370.102971,-8503.660028,-666.185348
4524.671411,444.123565,-8580.269578,-888.247130
4524.671735,592.164754,-8427.050478,-370.102971
4524.672060,296.082377,-8120.612279,-592.164754
4524.672384,518.144159,-8656.879127,-666.185348
4524.672708,518.144159,-8580.269578,-740.205942
4524.673033,888.247130,-8427.050478,0.000000
4524.673357,592.164754,-8656.879127,-962.267725
4524.673681,296.082377,-8656.879127,-518.144159
4524.674006,518.144159,-8350.440928,-666.185348
4524.674330,592.164754,-9116.536426,0.000000
4524.674654,518.144159,-8273.831378,-814.226536
4524.674979,370.102971,-8733.488677,-518.144159
4524.675303,222.061783,-8580.269578,-592.164754
4524.675627,444.123565,-8427.050478,-518.144159
4524.675952,444.123565,-8350.440928,-962.267725
4524.676276,444.123565,-8580.269578,-518.144159
4524.676600,444.123565,-8197.221829,-740.205942
4524.676925,518.144159,-8733.488677,-518.144159
4524.677249,1036.288319,-8427.050478,-592.164754
4524.677574,666.185348,-8580.269578,-444.123565
4524.677898,370.102971,-8503.660028,-888.247130
4524.678222,592.164754,-8350.440928,-740.205942
4524.678547,518.144159,-8733.488677,-592.164754
4524.678871,666.185348,-8427.050478,-518.144159
4524.679195,222.061783,-8427.050478,-518.144159
4524.679520,296.082377,-8656.879127,-444.123565
4524.679844,666.185348,-8810.098227,-592.164754
4524.680168,592.164754,-8580.269578,-592.164754
4524.680493,666.185348,-8580.269578,-444.123565
4524.680817,296.082377,-8350.440928,-222.061783
4524.681141,518.144159,-8733.488677,-518.144159
4524.681466,888.247130,-8580.269578,-370.102971
4524.681790,296.082377,-8733.488677,-666.185348
4524.682114,518.144159,-8503.660028,-518.144159
4524.682439,444.123565,-8273.831378,-518.144159
4524.682763,444.123565,-9039.926876,-444.123565
4524.683087,518.144159,-8810.098227,-518.144159
4524.683412,444.123565,-8810.098227,-370.102971
4524.683736,370.102971,-8733.488677,-518.144159
4524.684060,444.123565,-8427.050478,-296.082377
4524.684385,0.000000,-8273.831378,0.000000
4524.684709,296.082377,-8656.879127,0.000000
4524.685033,518.144159,-8656.879127,-296.082377
4524.685358,592.164754,-8503.660028,-370.102971
4524.685682,148.041188,-8044.002729,-148.041188
4524.686006,222.061783,-8427.050478,-296.082377
4524.686331,370.102971,-8963.317327,-370.102971
4524.686655,444.123565,-8580.269578,-592.164754
4524.686979,296.082377,-8580.269578,-518.144159
4524.687304,518.144159,-8656.879127,-592.164754
4524.687628,814.226536,-8733.488677,-370.102971
4524.687952,444.123565,-8427.050478,-592.164754
4524.688277,296.082377,-8503.660028,-296.082377
4524.688601,444.123565,-8427.050478,-740.205942
4524.688925,222.061783,-8580.269578,-222.061783
4524.689250,222.061783,-8197.221829,-370.102971
4524.689574,296.082377,-8427.050478,-370.102971
4524.689898,296.082377,-7890.783629,-444.123565
4524.690223,296.082377,-8350.440928,-518.144159
4524.690547,296.082377,-8427.050478,-370.102971
4524.690871,444.123565,-8503.660028,-592.164754
4524.691196,444.123565,-8580.269578,-222.061783
4524.691520,444.123565,-8427.050478,-518.144159
4524.691845,666.185348,-8963.317327,-222.061783
4524.692169,444.123565,-8580.269578,-518.144159
4524.692493,518.144159,-8810.098227,-518.144159
4524.692818,444.123565,-8273.831378,-296.082377
4524.693142,222.061783,-8886.707777,-592.164754
4524.693466,370.102971,-8733.488677,-740.205942
4524.693791,444.123565,-8273.831378,-296.082377
4524.694115,814.226536,-8733.488677,-296.082377
4524.694439,592.164754,-8656.879127,-296.082377
4524.694764,296.082377,-8580.269578,-444.123565
4524.695088,296.082377,-8810.098227,-296.082377
4524.695412,592.164754,-8427.050478,-370.102971
4524.695737,518.144159,-9116.536426,-444.123565
4524.696061,518.144159,-8656.879127,-222.061783
4524.696385,666.185348,-8580.269578,-222.061783
4524.696710,518.144159,-9039.926876,-370.102971
4524.697034,814.226536,-9269.755526,-592.164754
4524.697358,518.144159,-8656.879127,-444.123565
4524.697683,296.082377,-8810.098227,-592.164754
4524.698007,444.123565,-8350.440928,-296.082377
4524.698331,222.061783,-8273.831378,-592.164754
4524.698656,592.164754,-8656.879127,-296.082377
4524.698980,444.123565,-8427.050478,-666.185348
4524.699304,592.164754,-8886.707777,-888.247130
4524.699629,592.164754,-8503.660028,-518.144159
4524.699953,962.267725,-8886.707777,-740.205942
4524.700277,370.102971,-9116.536426,-592.164754
4524.700602,370.102971,-8810.098227,-592.164754
4524.700926,296.082377,-8656.879127,-888.247130
4524.701250,814.226536,-9039.926876,-518.144159
4524.701575,296.082377,-8580.269578,-814.226536
4524.701899,518.144159,-8580.269578,-740.205942
4524.702223,370.102971,-8427.050478,-666.185348
4524.702548,148.041188,-8963.317327,-592.164754
4524.702872,592.164754,-8580.269578,-740.205942
4524.703196,296.082377,-8197.221829,-444.123565
4524.703521,444.123565,-8350.440928,-518.144159
4524.703845,148.041188,-8733.488677,-222.061783
4524.704169,518.144159,-8810.098227,-740.205942
4524.704494,444.123565,-8733.488677,-370.102971
4524.704818,592.164754,-8886.707777,-592.164754
4524.705142,444.123565,-8733.488677,-444.123565
4524.705467,888.247130,-8886.707777,-296.082377
4524.705791,296.082377,-8733.488677,0.000000
4524.706115,444.123565,-8810.098227,-370.102971
4524.706440,592.164754,-8427.050478,0.000000
4524.706764,740.205942,-8350.440928,74.020594
4524.707088,444.123565,-8350.440928,0.000000
4524.707413,444.123565,-8427.050478,0.000000
4524.707737,444.123565,-8427.050478,0.000000
4524.708061,518.144159,-8503.660028,-148.041188
4524.708386,222.061783,-8197.221829,-74.020594
4524.708710,370.102971,-8580.269578,-148.041188
4524.709034,444.123565,-8503.660028,-148.041188
4524.709359,444.123565,-8427.050478,0.000000
4524.709683,296.082377,-8273.831378,0.000000
4524.710007,740.205942,-8580.269578,74.020594
4524.710332,518.144159,-8197.221829,74.020594
4524.710656,370.102971,-8810.098227,-74.020594
4524.710980,296.082377,-8350.440928,-148.041188
4524.711305,518.144159,-8733.488677,0.000000
4524.711629,296.082377,-8656.879127,0.000000
4524.711953,148.041188,-8580.269578,148.041188
4524.712278,222.061783,-8580.269578,0.000000
4524.712602,296.082377,-8273.831378,-370.102971
4524.712926,148.041188,-8350.440928,0.000000
4524.713251,370.102971,-8580.269578,0.000000
4524.713575,148.041188,-8427.050478,0.000000
4524.713899,370.102971,-8273.831378,222.061783
4524.714224,296.082377,-8580.269578,-148.041188
4524.714548,444.123565,-8733.488677,74.020594
4524.714872,296.082377,-8656.879127,-296.082377
4524.715197,222.061783,-8580.269578,0.000000
4524.715521,0.000000,-8580.269578,0.000000
4524.715845,0.000000,-8580.269578,0.000000
4524.716170,222.061783,-8503.660028,0.000000
4524.716494,222.061783,-8503.660028,0.000000
4524.716818,666.185348,-9193.145976,-222.061783
4524.717143,370.102971,-8273.831378,0.000000
4524.717467,296.082377,-8427.050478,-370.102971
4524.717792,222.061783,-8580.269578,-296.082377
4524.718116,222.061783,-8350.440928,-666.185348
4524.718440,518.144159,-8580.269578,-296.082377
4524.718765,148.041188,-8503.660028,-148.041188
4524.719089,222.061783,-8733.488677,-296.082377
4524.719413,148.041188,-8503.660028,-148.041188
4524.719738,0.000000,-8273.831378,-444.123565
4524.720062,370.102971,-8733.488677,-740.205942
4524.720386,370.102971,-8656.879127,-444.123565
4524.720711,222.061783,-8273.831378,-370.102971
4524.721035,370.102971,-8886.707777,-296.082377
4524.721359,222.061783,-8273.831378,-444.123565
4524.721684,370.102971,-8656.879127,-222.061783
4524.722008,444.123565,-8273.831378,-518.144159
4524.722332,370.102971,-9039.926876,-148.041188
4524.722657,370.102971,-8350.440928,-370.102971
4524.722981,740.205942,-8733.488677,-296.082377
4524.723305,592.164754,-8197.221829,-370.102971
4524.723630,518.144159,-8886.707777,0.000000
4524.723954,222.061783,-7814.174080,222.061783
4524.724278,444.123565,-8503.660028,0.000000
4524.724603,0.000000,-8580.269578,0.000000
4524.724927,74.020594,-8350.440928,0.000000
4524.725251,0.000000,-8656.879127,74.020594
4524.725576,370.102971,-8580.269578,0.000000
4524.725900,444.123565,-8503.660028,0.000000
4524.726224,74.020594,-8810.098227,-222.061783
4524.726549,222.061783,-8427.050478,-148.041188
4524.726873,148.041188,-8427.050478,-296.082377
4524.727197,222.061783,-8733.488677,0.000000
4524.727522,222.061783,-8427.050478,0.000000
4524.727846,296.082377,-8810.098227,-222.061783
4524.728170,296.082377,-8273.831378,-592.164754
4524.728495,444.123565,-8273.831378,-370.102971
4524.728819,222.061783,-8273.831378,0.000000
4524.729143,222.061783,-8580.269578,0.000000
4524.729468,148.041188,-8656.879127,0.000000
4524.729792,222.061783,-8427.050478,0.000000
4524.730116,0.000000,-8197.221829,0.000000
4524.730441,222.061783,-8656.879127,0.000000
4524.730765,74.020594,-8503.660028,148.041188
4524.731089,148.041188,-8580.269578,0.000000
4524.731414,222.061783,-8580.269578,0.000000
4524.731738,222.061783,-8503.660028,0.000000
4524.732062,296.082377,-8656.879127,0.000000
4524.732387,0.000000,-9116.536426,222.061783
4524.732711,74.020594,-8810.098227,0.000000
4524.733035,0.000000,-8503.660028,74.020594
4524.733360,370.102971,-8427.050478,296.082377
4524.733684,74.020594,-8580.269578,0.000000
4524.734008,296.082377,-8580.269578,222.061783
4524.734333,592.164754,-8503.660028,148.041188
4524.734657,370.102971,-8350.440928,148.041188
4524.734981,666.185348,-8656.879127,0.000000
4524.735306,444.123565,-8197.221829,-148.041188
4524.735630,592.164754,-9039.926876,-296.082377
4524.735954,444.123565,-8580.269578,0.000000
4524.736279,592.164754,-8733.488677,0.000000
4524.736603,444.123565,-8580.269578,74.020594
4524.736927,444.123565,-8427.050478,-148.041188
4524.737252,666.185348,-8580.269578,-370.102971
4524.737576,740.205942,-8350.440928,-296.082377
4524.737900,740.205942,-8273.831378,-296.082377
4524.738225,222.061783,-8656.879127,0.000000
4524.738549,296.082377,-8273.831378,0.000000
4524.738873,296.082377,-8656.879127,74.020594
4524.739198,296.082377,-8503.660028,-222.061783
4524.739522,148.041188,-8350.440928,148.041188
4524.739846,444.123565,-8733.488677,0.000000
4524.740171,222.061783,-8656.879127,-148.041188
4524.740495,666.185348,-8350.440928,-222.061783
4524.740819,740.205942,-8656.879127,-296.082377
4524.741144,962.267725,-8580.269578,-296.082377
4524.741468,444.123565,-8580.269578,-148.041188
4524.741792,962.267725,-8656.879127,-222.061783
4524.742117,296.082377,-8733.488677,-148.041188
4524.742441,444.123565,-8810.098227,-148.041188
4524.742765,518.144159,-8580.269578,-370.102971
4524.743090,74.020594,-8656.879127,0.000000
4524.743414,370.102971,-8580.269578,0.000000
4524.743739,444.123565,-8427.050478,-518.144159
4524.744063,444.123565,-8503.660028,-666.185348
4524.744387,518.144159,-8963.317327,-592.164754
4524.744712,444.123565,-8656.879127,-444.123565
4524.745036,444.123565,-8427.050478,-592.164754
4524.745360,222.061783,-8733.488677,-518.144159
4524.745685,222.061783,-8733.488677,-888.247130
4524.746009,0.000000,-8886.707777,-592.164754
4524.746333,74.020594,-8656.879127,-666.185348
4524.746658,518.144159,-8656.879127,-444.123565
4524.746982,74.020594,-8503.660028,-740.205942
4524.747306,370.102971,-8580.269578,-666.185348
4524.747631,222.061783,-8580.269578,-518.144159
4524.747955,148.041188,-8733.488677,-592.164754
4524.748279,592.164754,-8044.002729,-370.102971
4524.748604,592.164754,-8503.660028,-666.185348
4524.748928,518.144159,-8656.879127,-444.123565
4524.749252,518.144159,-8580.269578,-592.164754
4524.749577,888.247130,-8580.269578,-592.164754
4524.749901,444.123565,-8580.269578,0.000000
4524.750225,370.102971,-8503.660028,-296.082377
4524.750550,666.185348,-8810.098227,-148.041188
4524.750874,592.164754,-7967.393179,-370.102971
4524.751198,518.144159,-8656.879127,0.000000
4524.751523,592.164754,-8197.221829,-296.082377
4524.751847,740.205942,-8350.440928,370.102971
4524.752171,666.185348,-8044.002729,-296.082377
4524.752496,592.164754,-8427.050478,-148.041188
4524.752820,740.205942,-8503.660028,-444.123565
4524.753144,518.144159,-8963.317327,-296.082377
4524.753469,444.123565,-8350.440928,-222.061783
4524.753793,444.123565,-8656.879127,0.000000
4524.754117,740.205942,-8044.002729,-148.041188
4524.754442,666.185348,-8580.269578,-370.102971
4524.754766,666.185348,-8580.269578,-518.144159
4524.755090,1036.288319,-9039.926876,0.000000
4524.755415,740.205942,-8273.831378,-296.082377
4524.755739,370.102971,-8580.269578,-296.082377
4524.756063,592.164754,-8273.831378,0.000000
4524.756388,518.144159,-8886.707777,-222.061783
4524.756712,444.123565,-8503.660028,-222.061783
4524.757036,444.123565,-8503.660028,-296.082377
4524.757361,222.061783,-8503.660028,-444.123565
4524.757685,444.123565,-8733.488677,-148.041188
4524.758009,740.205942,-8580.269578,-592.164754
4524.758334,888.247130,-9193.145976,-296.082377
4524.758658,592.164754,-8427.050478,-444.123565
4524.758982,518.144159,-8810.098227,-296.082377
4524.759307,444.123565,-9193.145976,-296.082377
4524.759631,444.123565,-8503.660028,148.041188
4524.759955,370.102971,-8963.317327,-74.020594
4524.760280,148.041188,-8810.098227,-222.061783
4524.760604,296.082377,-8810.098227,148.041188
4524.760928,296.082377,-8733.488677,0.000000
4524.761253,296.082377,-8273.831378,-296.082377
4524.761577,370.102971,-8810.098227,-518.144159
4524.761901,444.123565,-8580.269578,-444.123565
4524.762226,444.123565,-8580.269578,-296.082377
4524.762550,444.123565,-8656.879127,-592.164754
4524.762874,370.102971,-8656.879127,-444.123565
4524.763199,518.144159,-8733.488677,-666.185348
4524.763523,222.061783,-8886.707777,-370.102971
4524.763847,222.061783,-8503.660028,-74.020594
4524.764172,296.082377,-8810.098227,-444.123565
4524.764496,148.041188,-8580.269578,-444.123565
4524.764820,444.123565,-8580.269578,-518.144159
4524.765145,370.102971,-8733.488677,-296.082377
4524.765469,814.226536,-8580.269578,0.000000
4524.765793,296.082377,-8273.831378,-518.144159
4524.766118,148.041188,-8503.660028,0.000000
4524.766442,444.123565,-8350.440928,-370.102971
4524.766766,518.144159,-8810.098227,-444.123565
4524.767091,666.185348,-8733.488677,-444.123565
4524.767415,592.164754,-8427.050478,-370.102971
4524.767739,444.123565,-8733.488677,0.000000
4524.768064,296.082377,-8580.269578,-444.123565
4524.768388,370.102971,-8733.488677,-518.144159
4524.768712,370.102971,-8427.050478,-666.185348
4524.769037,370.102971,-7890.783629,-370.102971
4524.769361,222.061783,-8350.440928,-222.061783
4524.769686,444.123565,-8427.050478,-740.205942
4524.770010,518.144159,-8427.050478,-814.226536
4524.770334,296.082377,-8427.050478,-962.267725
4524.770659,444.123565,-8580.269578,-296.082377
4524.770983,296.082377,-8273.831378,-740.205942
4524.771307,592.164754,-8656.879127,-666.185348
4524.771632,592.164754,-8427.050478,-888.247130
4524.771956,518.144159,-8580.269578,-444.123565
4524.772280,740.205942,-8580.269578,-814.226536
4524.772605,444.123565,-8503.660028,-666.185348
4524.772929,370.102971,-8656.879127,-888.247130
4524.773253,518.144159,-8427.050478,-814.226536
4524.773578,370.102971,-8350.440928,-888.247130
4524.773902,592.164754,-8733.488677,-814.226536
4524.774226,370.102971,-8273.831378,-666.185348
4524.774551,148.041188,-8810.098227,-740.205942
4524.774875,1110.308913,-8350.440928,-888.247130
4524.775199,296.082377,-8810.098227,-814.226536
4524.775524,666.185348,-8503.660028,-740.205942
4524.775848,222.061783,-8656.879127,-740.205942
4524.776172,666.185348,-8733.488677,-592.164754
4524.776497,518.144159,-8886.707777,-814.226536
4524.776821,666.185348,-8656.879127,-1036.288319
4524.777145,444.123565,-8963.317327,-666.185348
4524.777470,148.041188,-8656.879127,-814.226536
4524.777794,444.123565,-8503.660028,-518.144159
4524.778118,370.102971,-8580.269578,-1036.288319
4524.778443,518.144159,-8656.879127,-518.144159
4524.778767,296.082377,-8120.612279,-592.164754
4524.779091,888.247130,-8886.707777,-444.123565
4524.779416,814.226536,-8503.660028,-740.205942
4524.779740,518.144159,-8427.050478,-518.144159
4524.780064,222.061783,-8886.707777,-666.185348
4524.780389,370.102971,-8427.050478,-740.205942
4524.780713,518.144159,-8810.098227,-666.185348
4524.781037,444.123565,-8810.098227,-592.164754
4524.781362,222.061783,-8580.269578,-444.123565
4524.781686,370.102971,-8733.488677,-370.102971
4524.782010,740.205942,-8886.707777,-814.226536
4524.782335,444.123565,-8503.660028,-370.102971
4524.782659,370.102971,-8427.050478,-370.102971
4524.782984,222.061783,-8273.831378,0.000000
4524.783308,296.082377,-8656.879127,-148.041188
4524.783632,222.061783,-8427.050478,-444.123565
4524.783957,444.123565,-8503.660028,-222.061783
4524.784281,592.164754,-8580.269578,-740.205942
4524.784605,518.144159,-8810.098227,-222.061783
4524.784930,518.144159,-8886.707777,-296.082377
4524.785254,518.144159,-8580.269578,-370.102971
4524.785578,296.082377,-8580.269578,-222.061783
4524.785903,518.144159,-8733.488677,-370.102971
4524.786227,296.082377,-8427.050478,0.000000
4524.786551,444.123565,-8503.660028,-222.061783
4524.786876,222.061783,-8503.660028,-592.164754
4524.787200,222.061783,-8427.050478,-222.061783
4524.787525,296.082377,-8427.050478,0.000000
4524.787849,592.164754,-8503.660028,-444.123565
4524.788173,518.144159,-8503.660028,-518.144159
4524.788498,592.164754,-8503.660028,-518.144159
4524.788822,370.102971,-8503.660028,-592.164754
4524.789146,222.061783,-8350.440928,-592.164754
4524.789471,740.205942,-8810.098227,-518.144159
4524.789795,592.164754,-8733.488677,-148.041188
4524.790119,444.123565,-8580.269578,-518.144159
4524.790444,222.061783,-8120.612279,-370.102971
4524.790768,444.123565,-8656.879127,-518.144159
4524.791093,444.123565,-8656.879127,-296.082377
4524.791417,444.123565,-8580.269578,-592.164754
4524.791741,444.123565,-8580.269578,296.082377
4524.792066,222.061783,-8044.002729,0.000000
4524.792390,296.082377,-8350.440928,-296.082377
4524.792714,518.144159,-8733.488677,-370.102971
4524.793039,296.082377,-8427.050478,0.000000
4524.793363,444.123565,-8886.707777,-148.041188
4524.793687,370.102971,-8810.098227,-666.185348
4524.794012,518.144159,-8810.098227,-370.102971
4524.794336,444.123565,-8810.098227,-518.144159
4524.794660,444.123565,-9039.926876,-740.205942
4524.794985,296.082377,-8886.707777,-666.185348
4524.795309,222.061783,-8733.488677,-444.123565
4524.795634,74.020594,-8580.269578,-370.102971
4524.795958,296.082377,-8273.831378,-740.205942
4524.796282,740.205942,-8810.098227,-814.226536
4524.796607,518.144159,-8273.831378,-666.185348
4524.796931,518.144159,-8197.221829,-888.247130
4524.797255,296.082377,-8427.050478,-740.205942
4524.797580,370.102971,-8273.831378,-666.185348
4524.797904,296.082377,-8427.050478,-962.267725
4524.798228,296.082377,-8733.488677,-1036.288319
4524.798553,74.020594,-8580.269578,-814.226536
4524.798877,518.144159,-9193.145976,-518.144159
4524.799202,74.020594,-8273.831378,-740.205942
4524.799526,296.082377,-8273.831378,-814.226536
4524.799850,296.082377,-8886.707777,-740.205942
4524.800175,370.102971,-8580.269578,-666.185348
4524.800499,370.102971,-8503.660028,-222.061783
4524.800823,592.164754,-8273.831378,-370.102971
4524.801148,518.144159,-8656.879127,-148.041188
4524.801472,518.144159,-8503.660028,-370.102971
4524.801796,888.247130,-8427.050478,-296.082377
4524.802121,814.226536,-8427.050478,-148.041188
4524.802445,666.185348,-8580.269578,-518.144159
4524.802769,962.267725,-8350.440928,-296.082377
4524.803094,1184.329507,-8503.660028,-370.102971
4524.803418,444.123565,-8810.098227,-592.164754
4524.803743,666.185348,-8427.050478,-148.041188
4524.804067,296.082377,-8503.660028,0.000000
4524.804391,296.082377,-8427.050478,0.000000
4524.804716,444.123565,-8120.612279,-296.082377
4524.805040,592.164754,-8580.269578,-222.061783
4524.805364,296.082377,-8503.660028,148.041188
4524.805689,518.144159,-8350.440928,-148.041188
4524.806013,370.102971,-8580.269578,-296.082377
4524.806337,444.123565,-8273.831378,-518.144159
4524.806662,518.144159,-8886.707777,-148.041188
4524.806986,370.102971,-8427.050478,-666.185348
4524.807311,666.185348,-8044.002729,444.123565
4524.807635,222.061783,-8580.269578,-444.123565
4524.807959,296.082377,-8963.317327,-148.041188
4524.808284,370.102971,-8656.879127,-222.061783
4524.808608,592.164754,-8733.488677,-222.061783
4524.808932,592.164754,-8580.269578,0.000000
4524.809257,518.144159,-8656.879127,-148.041188
4524.809581,518.144159,-8350.440928,-296.082377
4524.809905,518.144159,-8427.050478,0.000000
4524.810230,518.144159,-8810.098227,-296.082377
4524.810554,518.144159,-8503.660028,-148.041188
4524.810879,222.061783,-8580.269578,-370.102971
4524.811203,222.061783,-9116.536426,-592.164754
4524.811527,444.123565,-8733.488677,-518.144159
4524.811852,148.041188,-8886.707777,-592.164754
4524.812176,0.000000,-8733.488677,-444.123565
4524.812500,0.000000,-9116.536426,-296.082377
4524.812825,0.000000,-8810.098227,-370.102971
4524.813149,444.123565,-8656.879127,-296.082377
4524.813473,0.000000,-8656.879127,-518.144159
4524.813798,148.041188,-8963.317327,-296.082377
4524.814122,222.061783,-8427.050478,-370.102971
4524.814446,666.185348,-9576.193725,-296.082377
4524.814771,370.102971,-8810.098227,-518.144159
4524.815095,222.061783,-8733.488677,-666.185348
4524.815420,222.061783,-8886.707777,-370.102971
4524.815744,518.144159,-8733.488677,-666.185348
4524.816068,740.205942,-8580.269578,-518.144159
4524.816393,518.144159,-8810.098227,-444.123565
4524.816717,518.144159,-8963.317327,-444.123565
4524.817041,666.185348,-8656.879127,-444.123565
4524.817366,814.226536,-8656.879127,0.000000
4524.817690,888.247130,-8427.050478,-296.082377
4524.818014,518.144159,-8733.488677,-370.102971
4524.818339,296.082377,-8810.098227,-148.041188
4524.818663,592.164754,-8427.050478,-740.205942
4524.818988,296.082377,-8656.879127,74.020594
4524.819312,148.041188,-8733.488677,0.000000
4524.819636,222.061783,-8580.269578,0.000000
4524.819961,444.123565,-8120.612279,-148.041188
4524.820285,666.185348,-8427.050478,-222.061783
4524.820609,740.205942,-8350.440928,-222.061783
4524.820934,814.226536,-8273.831378,-222.061783
4524.821258,592.164754,-8580.269578,0.000000
4524.821582,370.102971,-8580.269578,-444.123565
4524.821907,444.123565,-8197.221829,-222.061783
4524.822231,370.102971,-8350.440928,0.000000
4524.822555,444.123565,-8350.440928,-518.144159
4524.822880,592.164754,-8810.098227,0.000000
4524.823204,814.226536,-8273.831378,-296.082377
4524.823529,592.164754,-8273.831378,-444.123565
4524.823853,444.123565,-8580.269578,-370.102971
4524.824177,592.164754,-8503.660028,-518.144159
4524.824502,518.144159,-8350.440928,-370.102971
4524.824826,370.102971,-8350.440928,-296.082377
4524.825150,444.123565,-8810.098227,-370.102971
4524.825475,444.123565,-8197.221829,-148.041188
4524.825799,592.164754,-9039.926876,-444.123565
4524.826123,222.061783,-8810.098227,0.000000
4524.826448,222.061783,-8733.488677,0.000000
4524.826772,296.082377,-8656.879127,0.000000
4524.827097,296.082377,-8963.317327,0.000000
4524.827421,296.082377,-8733.488677,0.000000
4524.827745,296.082377,-8580.269578,0.000000
4524.828070,296.082377,-8503.660028,148.041188
4524.828394,296.082377,-8733.488677,-148.041188
4524.828718,0.000000,-8580.269578,222.061783
4524.829043,370.102971,-8886.707777,-148.041188
4524.829367,518.144159,-8810.098227,-222.061783
4524.829691,444.123565,-8810.098227,0.000000
4524.830016,740.205942,-9116.536426,148.041188
4524.830340,222.061783,-8963.317327,-222.061783
4524.830664,444.123565,-8350.440928,0.000000
4524.830989,370.102971,-8810.098227,0.000000
4524.831313,518.144159,-8656.879127,0.000000
4524.831638,444.123565,-8580.269578,148.041188
4524.831962,296.082377,-8580.269578,-148.041188
4524.832286,296.082377,-8580.269578,0.000000
4524.832611,296.082377,-8503.660028,-148.041188
4524.832935,222.061783,-8656.879127,0.000000
4524.833259,222.061783,-8733.488677,0.000000
4524.833584,592.164754,-8580.269578,-148.041188
4524.833908,518.144159,-8656.879127,0.000000
4524.834232,444.123565,-8733.488677,-518.144159
4524.834557,518.144159,-8886.707777,-148.041188
4524.834881,518.144159,-8273.831378,-370.102971
4524.835206,444.123565,-8810.098227,-518.144159
4524.835530,148.041188,-8810.098227,-518.144159
4524.835854,370.102971,-8580.269578,-444.123565
4524.836179,592.164754,-8733.488677,0.000000
4524.836503,592.164754,-8656.879127,-74.020594
4524.836827,444.123565,-8427.050478,0.000000
4524.837152,444.123565,-8810.098227,-370.102971
4524.837476,518.144159,-8580.269578,-370.102971
4524.837800,518.144159,-8580.269578,-370.102971
4524.838125,740.205942,-8810.098227,-370.102971
4524.838449,444.123565,-8810.098227,0.000000
4524.838774,296.082377,-8733.488677,-296.082377
4524.839098,518.144159,-8503.660028,-370.102971
4524.839422,296.082377,-8810.098227,0.000000
4524.839747,148.041188,-8656.879127,-222.061783
4524.840071,148.041188,-8350.440928,0.000000
4524.840395,148.041188,-8197.221829,0.000000
4524.840720,518.144159,-8810.098227,0.000000
4524.841044,444.123565,-8503.660028,-222.061783
4524.841368,592.164754,-9193.145976,74.020594
4524.841693,296.082377,-8503.660028,-444.123565
4524.842017,518.144159,-8810.098227,-296.082377
4524.842341,222.061783,-8733.488677,-592.164754
4524.842666,370.102971,-9193.145976,222.061783
4524.842990,666.185348,-8273.831378,-370.102971
4524.843315,444.123565,-8886.707777,-444.123565
4524.843639,444.123565,-8656.879127,-518.144159
4524.843963,518.144159,-8810.098227,-370.102971
4524.844288,0.000000,-8656.879127,0.000000
4524.844612,518.144159,-8273.831378,-370.102971
4524.844936,444.123565,-8503.660028,-666.185348
4524.845261,370.102971,-8503.660028,-222.061783
4524.845585,148.041188,-8656.879127,222.061783
4524.845909,444.123565,-8656.879127,-370.102971
4524.846234,148.041188,-8503.660028,-296.082377
4524.846558,592.164754,-8503.660028,-592.164754
4524.846883,296.082377,-9499.584175,-296.082377
4524.847207,0.000000,-8733.488677,0.000000
4524.847531,740.205942,-9116.536426,-222.061783
4524.847856,370.102971,-8656.879127,0.000000
4524.848180,222.061783,-8733.488677,-296.082377
4524.848504,148.041188,-8810.098227,-222.061783
4524.848829,148.041188,-8580.269578,74.020594
4524.849153,148.041188,-8427.050478,-222.061783
4524.849477,444.123565,-8503.660028,0.000000
4524.849802,0.000000,-8197.221829,74.020594
4524.850126,740.205942,-8427.050478,-222.061783
4524.850450,592.164754,-8273.831378,-74.020594
4524.850775,518.144159,-8503.660028,-148.041188
4524.851099,444.123565,-8580.269578,-296.082377
4524.851424,518.144159,-8810.098227,-370.102971
4524.851748,740.205942,-8810.098227,-518.144159
4524.852072,814.226536,-8810.098227,0.000000
4524.852397,592.164754,-8963.317327,0.000000
4524.852721,518.144159,-9039.926876,0.000000
4524.853045,666.185348,-8656.879127,-444.123565
4524.853370,518.144159,-8580.269578,-444.123565
4524.853694,518.144159,-8656.879127,-222.061783
4524.854018,0.000000,-8350.440928,518.144159
4524.854343,148.041188,-8580.269578,0.000000
4524.854667,222.061783,-8427.050478,0.000000
4524.854992,296.082377,-8427.050478,0.000000
4524.855316,740.205942,-8886.707777,-444.123565
4524.855640,740.205942,-8656.879127,-148.041188
4524.855965,666.185348,-8427.050478,-222.061783
4524.856289,296.082377,-8886.707777,-444.123565
4524.856613,592.164754,-8733.488677,0.000000
4524.856938,518.144159,-8503.660028,0.000000
4524.857262,296.082377,-8580.269578,0.000000
4524.857586,222.061783,-8350.440928,-296.082377
4524.857911,296.082377,-8580.269578,0.000000
4524.858235,296.082377,-8350.440928,0.000000
4524.858559,296.082377,-8427.050478,-222.061783
4524.858884,444.123565,-8656.879127,-222.061783
4524.859208,518.144159,-8197.221829,-222.061783
4524.859533,444.123565,-8810.098227,-148.041188
4524.859857,148.041188,-8580.269578,0.000000
4524.860181,518.144159,-8580.269578,-222.061783
4524.860506,444.123565,-8656.879127,-296.082377
4524.860830,518.144159,-8810.098227,0.000000
4524.861154,666.185348,-8886.707777,-518.144159
4524.861479,444.123565,-8810.098227,-370.102971
4524.861803,148.041188,-8733.488677,-222.061783
4524.862127,518.144159,-8733.488677,-518.144159
4524.862452,518.144159,-8810.098227,-444.123565
4524.862776,518.144159,-8656.879127,0.000000
4524.863101,222.061783,-8273.831378,-296.082377
4524.863425,74.020594,-8656.879127,-370.102971
4524.863749,370.102971,-8273.831378,-370.102971
4524.864074,592.164754,-8886.707777,-592.164754
4524.864398,296.082377,-8503.660028,-370.102971
4524.864722,222.061783,-8810.098227,-518.144159
4524.865047,518.144159,-8656.879127,-740.205942
4524.865371,888.247130,-8656.879127,-962.267725
4524.865695,666.185348,-8963.317327,-592.164754
4524.866020,592.164754,-8427.050478,-370.102971
4524.866344,222.061783,-8733.488677,-222.061783
4524.866669,0.000000,-8503.660028,-296.082377
4524.866993,444.123565,-8427.050478,-370.102971
4524.867317,148.041188,-8350.440928,-296.082377
4524.867642,592.164754,-8427.050478,-444.123565
4524.867966,444.123565,-8350.440928,-370.102971
4524.868290,888.247130,-8350.440928,-592.164754
4524.868615,444.123565,-8427.050478,-740.205942
4524.868939,592.164754,-8427.050478,-666.185348
4524.869263,444.123565,-8733.488677,-740.205942
4524.869588,666.185348,-8273.831378,-444.123565
4524.869912,592.164754,-8580.269578,-444.123565
4524.870236,74.020594,-8656.879127,-592.164754
4524.870561,370.102971,-8580.269578,-444.123565
4524.870885,296.082377,-8427.050478,-888.247130
4524.871210,518.144159,-8580.269578,-444.123565
4524.871534,444.123565,-8120.612279,-518.144159
4524.871858,666.185348,-8503.660028,-296.082377
4524.872183,740.205942,-8197.221829,-666.185348
4524.872507,1184.329507,-8580.269578,-740.205942
4524.872831,666.185348,-8656.879127,-444.123565
4524.873156,518.144159,-8273.831378,0.000000
4524.873480,592.164754,-8580.269578,-296.082377
4524.873804,740.205942,-8503.660028,-518.144159
4524.874129,666.185348,-8656.879127,-666.185348
4524.874453,666.185348,-8580.269578,-666.185348
4524.874778,518.144159,-8503.660028,-296.082377
4524.875102,592.164754,-8427.050478,-444.123565
4524.875426,444.123565,-8656.879127,0.000000
4524.875751,222.061783,-8580.269578,-370.102971
4524.876075,444.123565,-8656.879127,-518.144159
4524.876399,370.102971,-8427.050478,0.000000
4524.876724,222.061783,-8273.831378,0.000000
4524.877048,296.082377,-9039.926876,-592.164754
4524.877372,74.020594,-8580.269578,-666.185348
4524.877697,444.123565,-8810.098227,-740.205942
4524.878021,222.061783,-8886.707777,0.000000
4524.878345,296.082377,-8503.660028,-444.123565
4524.878670,666.185348,-8656.879127,-370.102971
4524.878994,518.144159,-8810.098227,-518.144159
4524.879319,370.102971,-8886.707777,-592.164754
4524.879643,0.000000,-8427.050478,-370.102971
4524.879967,296.082377,-8427.050478,-296.082377
4524.880292,0.000000,-8427.050478,-592.164754
4524.880616,296.082377,-8580.269578,-444.123565
4524.880940,222.061783,-7890.783629,-296.082377
4524.881265,370.102971,-8810.098227,-444.123565
4524.881589,296.082377,-8810.098227,-592.164754
4524.881913,222.061783,-8580.269578,-592.164754
4524.882238,370.102971,-8656.879127,-222.061783
4524.882562,222.061783,-8733.488677,-888.247130
4524.882886,518.144159,-8963.317327,-740.205942
4524.883211,222.061783,-8886.707777,-592.164754
4524.883535,370.102971,-8503.660028,-518.144159
4524.883860,222.061783,-8273.831378,-370.102971
4524.884184,222.061783,-8810.098227,-370.102971
4524.884508,518.144159,-8197.221829,-518.144159
4524.884833,444.123565,-8656.879127,-444.123565
4524.885157,740.205942,-7737.564530,0.000000
4524.885481,666.185348,-8427.050478,-370.102971
4524.885806,740.205942,-8810.098227,-518.144159
4524.886130,666.185348,-8427.050478,-592.164754
4524.886454,444.123565,-8733.488677,-962.267725
4524.886779,888.247130,-8810.098227,-518.144159
4524.887103,518.144159,-8350.440928,-592.164754
4524.887427,296.082377,-8810.098227,-592.164754
4524.887752,444.123565,-8273.831378,-666.185348
4524.888076,592.164754,-8503.660028,-370.102971
4524.888400,444.123565,-8427.050478,-888.247130
4524.888725,666.185348,-8656.879127,-444.123565
4524.889049,592.164754,-8503.660028,-740.205942
4524.889373,666.185348,-8656.879127,0.000000
4524.889698,592.164754,-8503.660028,-740.205942
4524.890022,370.102971,-8656.879127,-296.082377
4524.890346,296.082377,-8273.831378,-518.144159
4524.890671,592.164754,-8656.879127,-222.061783
4524.890995,296.082377,-8427.050478,-592.164754
4524.891320,518.144159,-8503.660028,-592.164754
4524.891644,518.144159,-8580.269578,-740.205942
4524.891968,444.123565,-8886.707777,-148.041188
4524.892293,518.144159,-8427.050478,-592.164754
4524.892617,370.102971,-8656.879127,-296.082377
4524.892941,74.020594,-8503.660028,-148.041188
4524.893266,222.061783,-8503.660028,-148.041188
4524.893590,222.061783,-8503.660028,0.000000
4524.893914,370.102971,-8273.831378,0.000000
4524.894239,222.061783,-8503.660028,-444.123565
4524.894563,518.144159,-8503.660028,-74.020594
4524.894887,592.164754,-8273.831378,-370.102971
4524.895212,740.205942,-9039.926876,-592.164754
4524.895536,222.061783,-8656.879127,-296.082377
4524.895860,296.082377,-8656.879127,-444.123565
4524.896185,296.082377,-8733.488677,-370.102971
4524.896509,814.226536,-8656.879127,0.000000
4524.896833,444.123565,-9039.926876,-592.164754
4524.897158,370.102971,-8580.269578,-370.102971
4524.897482,518.144159,-8580.269578,-370.102971
4524.897806,518.144159,-7814.174080,-518.144159
4524.898131,370.102971,-7967.393179,-444.123565
4524.898455,592.164754,-8350.440928,-518.144159
4524.898780,370.102971,-8350.440928,-592.164754
4524.899104,296.082377,-8656.879127,-148.041188
4524.899428,0.000000,-8580.269578,-296.082377
4524.899753,370.102971,-8733.488677,-370.102971
4524.900077,296.082377,-8427.050478,-592.164754
4524.900401,370.102971,-9039.926876,-666.185348
4524.900726,888.247130,-7967.393179,0.000000
4524.901050,444.123565,-8810.098227,-148.041188
4524.901374,740.205942,-8733.488677,-518.144159
4524.901699,666.185348,-8810.098227,-296.082377
4524.902023,518.144159,-9116.536426,-222.061783
4524.902347,444.123565,-8427.050478,-222.061783
4524.902672,370.102971,-8580.269578,0.000000
4524.902996,296.082377,-8580.269578,-148.041188
4524.903320,222.061783,-8503.660028,-222.061783
4524.903645,444.123565,-8427.050478,-740.205942
4524.903969,444.123565,-8810.098227,-296.082377
4524.904293,518.144159,-8273.831378,-296.082377
4524.904618,592.164754,-8656.879127,-296.082377
4524.904942,370.102971,-8503.660028,-148.041188
4524.905266,444.123565,-8427.050478,-370.102971
4524.905591,370.102971,-8580.269578,-666.185348
4524.905915,370.102971,-8580.269578,-444.123565
4524.906240,222.061783,-8580.269578,-444.123565
4524.906564,296.082377,-8656.879127,-592.164754
4524.906888,444.123565,-8503.660028,-592.164754
4524.907213,592.164754,-8656.879127,-518.144159
4524.907537,296.082377,-8580.269578,-592.164754
4524.907861,222.061783,-8427.050478,-296.082377
4524.908186,296.082377,-8580.269578,-592.164754
4524.908510,370.102971,-8656.879127,-740.205942
4524.908834,444.123565,-8427.050478,-518.144159
4524.909159,814.226536,-8580.269578,-444.123565
4524.909483,592.164754,-8810.098227,-592.164754
4524.909807,592.164754,-9039.926876,-444.123565
4524.910132,444.123565,-8886.707777,-518.144159
4524.910456,296.082377,-8810.098227,-444.123565
4524.910780,222.061783,-8503.660028,-296.082377
4524.911105,518.144159,-8810.098227,-370.102971
4524.911429,296.082377,-8350.440928,-370.102971
4524.911753,370.102971,-8733.488677,-444.123565
4524.912078,592.164754,-8427.050478,-666.185348
4524.912402,592.164754,-8580.269578,-370.102971
4524.912726,296.082377,-8656.879127,-296.082377
4524.913051,222.061783,-8427.050478,-592.164754
4524.913375,518.144159,-7814.174080,-666.185348
4524.913700,148.041188,-8503.660028,-296.082377
4524.914024,444.123565,-8656.879127,-592.164754
4524.914348,370.102971,-8656.879127,-518.144159
4524.914673,296.082377,-8580.269578,-296.082377
4524.914997,444.123565,-8580.269578,-592.164754
4524.915321,222.061783,-8580.269578,-592.164754
4524.915646,370.102971,-8427.050478,-518.144159
4524.915970,518.144159,-8656.879127,-592.164754
4524.916294,148.041188,-8044.002729,74.020594
4524.916619,444.123565,-8350.440928,-296.082377
4524.916943,296.082377,-8427.050478,-296.082377
4524.917267,444.123565,-8273.831378,-370.102971
4524.917592,518.144159,-8656.879127,-518.144159
4524.917916,666.185348,-8580.269578,-296.082377
4524.918240,592.164754,-8503.660028,-296.082377
4524.918565,666.185348,-8810.098227,-518.144159
4524.918889,370.102971,-8656.879127,-370.102971
4524.919213,222.061783,-8503.660028,0.000000
4524.919538,74.020594,-8733.488677,-222.061783
4524.919862,370.102971,-8503.660028,0.000000
4524.920187,148.041188,-8656.879127,0.000000
4524.920511,518.144159,-8963.317327,-148.041188
4524.920835,296.082377,-8580.269578,0.000000
4524.921160,370.102971,-8733.488677,-296.082377
4524.921484,666.185348,-8656.879127,-222.061783
4524.921808,518.144159,-8350.440928,0.000000
4524.922133,444.123565,-8963.317327,-370.102971
4524.922457,370.102971,-8350.440928,-222.061783
4524.922781,666.185348,-8963.317327,-370.102971
4524.923106,444.123565,-8580.269578,-148.041188
4524.923430,740.205942,-9039.926876,74.020594
4524.923754,296.082377,-8810.098227,0.000000
4524.924079,296.082377,-9039.926876,0.000000
4524.924403,444.123565,-8580.269578,-148.041188
4524.924727,814.226536,-9116.536426,-518.144159
4524.925052,518.144159,-8503.660028,-222.061783
4524.925376,370.102971,-8427.050478,-148.041188
4524.925700,74.020594,-8503.660028,-222.061783
4524.926025,370.102971,-8580.269578,0.000000
4524.926349,592.164754,-8886.707777,-222.061783
4524.926673,222.061783,-8580.269578,-296.082377
4524.926998,444.123565,-8733.488677,-370.102971
4524.927322,518.144159,-8810.098227,-296.082377
4524.927647,962.267725,-8810.098227,-370.102971
4524.927971,592.164754,-8963.317327,-296.082377
4524.928295,518.144159,-8810.098227,-148.041188
4524.928620,370.102971,-8580.269578,0.000000
4524.928944,444.123565,-8886.707777,-148.041188
4524.929268,296.082377,-8350.440928,0.000000
4524.929593,592.164754,-8273.831378,-148.041188
4524.929917,592.164754,-8733.488677,-518.144159
4524.930241,666.185348,-8427.050478,-222.061783
4524.930566,370.102971,-8733.488677,-222.061783
4524.930890,666.185348,-8580.269578,-148.041188
4524.931214,518.144159,-8580.269578,-444.123565
4524.931539,444.123565,-8733.488677,-444.123565
4524.931863,666.185348,-9269.755526,0.000000
4524.932187,148.041188,-8580.269578,0.000000
4524.932512,296.082377,-8733.488677,0.000000
4524.932836,444.123565,-8733.488677,0.000000
4524.933160,592.164754,-8427.050478,0.000000
4524.933485,518.144159,-8580.269578,0.000000
4524.933809,296.082377,-8503.660028,0.000000
4524.934133,518.144159,-8427.050478,-222.061783
4524.934458,518.144159,-8580.269578,-148.041188
4524.934782,0.000000,-8656.879127,0.000000
4524.935107,222.061783,-8427.050478,-148.041188
4524.935431,370.102971,-8197.221829,0.000000
4524.935755,444.123565,-8810.098227,-222.061783
4524.936080,666.185348,-8350.440928,-444.123565
4524.936404,814.226536,-8733.488677,-370.102971
4524.936728,592.164754,-8656.879127,-370.102971
4524.937053,296.082377,-9039.926876,-74.020594
4524.937377,222.061783,-8733.488677,0.000000
4524.937701,370.102971,-8427.050478,-222.061783
4524.938026,222.061783,-8350.440928,0.000000
4524.938350,222.061783,-8580.269578,0.000000
4524.938674,370.102971,-8656.879127,-148.041188
4524.938999,370.102971,-8044.002729,0.000000
4524.939323,148.041188,-8350.440928,-222.061783
4524.939647,370.102971,-8733.488677,-148.041188
4524.939972,444.123565,-8580.269578,-222.061783
4524.940296,370.102971,-8350.440928,0.000000
4524.940620,444.123565,-8503.660028,0.000000
4524.940945,222.061783,-8427.050478,-222.061783
4524.941269,222.061783,-8733.488677,-444.123565
4524.941593,222.061783,-8427.050478,-222.061783
4524.941918,222.061783,-8503.660028,-444.123565
4524.942242,370.102971,-8350.440928,-444.123565
4524.942567,74.020594,-8120.612279,-296.082377
4524.942891,74.020594,-8580.269578,-518.144159
4524.943215,444.123565,-8656.879127,-222.061783
4524.943540,444.123565,-8350.440928,-222.061783
4524.943864,518.144159,-8656.879127,-222.061783
4524.944188,592.164754,-8733.488677,-296.082377
4524.944513,666.185348,-8886.707777,-222.061783
4524.944837,518.144159,-8733.488677,-518.144159
4524.945161,518.144159,-8886.707777,-518.144159
4524.945486,518.144159,-8963.317327,-296.082377
4524.945810,592.164754,-8427.050478,-148.041188
4524.946134,296.082377,-8733.488677,0.000000
4524.946459,148.041188,-8656.879127,-444.123565
4524.946783,444.123565,-8427.050478,-148.041188
4524.947107,444.123565,-8733.488677,-444.123565
4524.947432,666.185348,-8427.050478,-148.041188
4524.947756,370.102971,-8273.831378,-148.041188
4524.948080,740.205942,-8886.707777,0.000000
4524.948405,518.144159,-8580.269578,-370.102971
4524.948729,666.185348,-9039.926876,-296.082377
4524.949053,222.061783,-8733.488677,-370.102971
4524.949378,296.082377,-8503.660028,-222.061783
4524.949702,222.061783,-9039.926876,-296.082377
4524.950027,444.123565,-8656.879127,-222.061783
4524.950351,222.061783,-8273.831378,-370.102971
4524.950675,518.144159,-8733.488677,-444.123565
4524.951000,518.144159,-8733.488677,0.000000
4524.951324,444.123565,-8580.269578,-444.123565
4524.951648,370.102971,-8733.488677,-370.102971
4524.951973,666.185348,-8350.440928,0.000000
4524.952297,370.102971,-8580.269578,-370.102971
4524.952621,518.144159,-8733.488677,0.000000
4524.952946,370.102971,-8273.831378,-370.102971
4524.953270,370.102971,-9116.536426,0.000000
4524.953594,148.041188,-8503.660028,-518.144159
4524.953919,370.102971,-9116.536426,-222.061783
4524.954243,666.185348,-8197.221829,-592.164754
4524.954567,888.247130,-8963.317327,-444.123565
4524.954892,518.144159,-8427.050478,-370.102971
4524.955216,296.082377,-8656.879127,0.000000
4524.955540,444.123565,-8427.050478,-222.061783
4524.955865,222.061783,-8350.440928,-518.144159
4524.956189,444.123565,-8273.831378,0.000000
4524.956513,222.061783,-8350.440928,-296.082377
4524.956838,370.102971,-8886.707777,-518.144159
4524.957162,296.082377,-8503.660028,-444.123565
4524.957487,592.164754,-8810.098227,-740.205942
4524.957811,222.061783,-8580.269578,-592.164754
4524.958135,74.020594,-8810.098227,0.000000
4524.958460,370.102971,-8273.831378,-444.123565
4524.958784,592.164754,-9116.536426,0.000000
4524.959108,296.082377,-8733.488677,-370.102971
4524.959433,296.082377,-8810.098227,0.000000
4524.959757,444.123565,-8273.831378,-222.061783
4524.960081,296.082377,-8963.317327,-444.123565
4524.960406,0.000000,-8197.221829,-148.041188
4524.960730,296.082377,-8044.002729,-148.041188
4524.961054,518.144159,-8503.660028,-148.041188
4524.961379,296.082377,-8197.221829,0.000000
4524.961703,370.102971,-8656.879127,370.102971
4524.962027,518.144159,-8580.269578,0.000000
4524.962352,666.185348,-8503.660028,0.000000
4524.962676,814.226536,-8580.269578,-444.123565
4524.963000,518.144159,-8810.098227,370.102971
4524.963325,666.185348,-8733.488677,0.000000
4524.963649,296.082377,-8656.879127,-296.082377
4524.963973,518.144159,-8580.269578,-296.082377
4524.964298,518.144159,-8273.831378,-222.061783
4524.964622,74.020594,-8503.660028,0.000000
4524.964947,370.102971,-8580.269578,0.000000
4524.965271,296.082377,-8350.440928,-148.041188
4524.965595,592.164754,-8427.050478,-222.061783
4524.965920,296.082377,-8197.221829,0.000000
4524.966244,518.144159,-8656.879127,-148.041188
4524.966568,740.205942,-8350.440928,-518.144159
4524.966893,222.061783,-8350.440928,-296.082377
4524.967217,0.000000,-9193.145976,222.061783
4524.967541,296.082377,-8503.660028,-222.061783
4524.967866,296.082377,-8656.879127,-222.061783
4524.968190,370.102971,-8733.488677,-296.082377
4524.968514,518.144159,-8580.269578,0.000000
4524.968839,222.061783,-8656.879127,-222.061783
4524.969163,370.102971,-8580.269578,-222.061783
4524.969487,444.123565,-8427.050478,-222.061783
4524.969812,444.123565,-8580.269578,-296.082377
4524.970136,444.123565,-8273.831378,222.061783
4524.970460,222.061783,-8656.879127,0.000000
4524.970785,296.082377,-8810.098227,-518.144159
4524.971109,222.061783,-8580.269578,-370.102971
4524.971433,296.082377,-9269.755526,-370.102971
4524.971758,592.164754,-8886.707777,-148.041188
4524.972082,370.102971,-9039.926876,-370.102971
4524.972407,296.082377,-8733.488677,-370.102971
4524.972731,222.061783,-8810.098227,-592.164754
4524.973055,148.041188,-8656.879127,-296.082377
4524.973380,740.205942,-8503.660028,-518.144159
4524.973704,296.082377,-8350.440928,-444.123565
4524.974028,444.123565,-8503.660028,-74.020594
4524.974353,1110.308913,-8503.660028,-518.144159
4524.974677,740.205942,-8273.831378,-444.123565
4524.975001,666.185348,-8580.269578,-666.185348
4524.975326,518.144159,-8580.269578,-444.123565
4524.975650,296.082377,-8886.707777,-592.164754
4524.975974,74.020594,-8580.269578,-296.082377
4524.976299,296.082377,-8273.831378,-592.164754
4524.976623,370.102971,-8886.707777,-518.144159
4524.976947,370.102971,-8427.050478,-370.102971
4524.977272,740.205942,-8656.879127,-592.164754
4524.977596,592.164754,-8656.879127,-740.205942
4524.977920,444.123565,-8580.269578,-518.144159
4524.978245,814.226536,-8427.050478,-592.164754
4524.978569,518.144159,-9116.536426,-148.041188
4524.978894,518.144159,-8350.440928,-370.102971
4524.979218,148.041188,-8503.660028,-370.102971
4524.979542,296.082377,-8197.221829,-296.082377
4524.979867,518.144159,-9193.145976,-444.123565
4524.980191,666.185348,-8810.098227,-740.205942
4524.980515,814.226536,-8350.440928,-740.205942
4524.980840,592.164754,-8656.879127,-592.164754
4524.981164,444.123565,-8886.707777,-518.144159
4524.981488,518.144159,-8810.098227,-518.144159
4524.981813,370.102971,-9039.926876,-518.144159
4524.982137,296.082377,-8503.660028,-666.185348
4524.982461,296.082377,-8503.660028,-666.185348
4524.982786,0.000000,-8886.707777,0.000000
4524.983110,444.123565,-8273.831378,-296.082377
4524.983434,370.102971,-8350.440928,-666.185348
4524.983758,666.185348,-8810.098227,-592.164754
4524.984083,666.185348,-8580.269578,-888.247130
4524.984407,296.082377,-8503.660028,-592.164754
4524.984731,370.102971,-8810.098227,-740.205942
4524.985056,444.123565,-8503.660028,-592.164754
4524.985380,296.082377,-8963.317327,-666.185348
4524.985704,370.102971,-8733.488677,-666.185348
4524.986028,370.102971,-8810.098227,-296.082377
4524.986353,370.102971,-8963.317327,-444.123565
4524.986677,222.061783,-8503.660028,-444.123565
4524.987001,740.205942,-8886.707777,-148.041188
4524.987326,518.144159,-8427.050478,-518.144159
4524.987650,518.144159,-8503.660028,-148.041188
4524.987974,370.102971,-8656.879127,-592.164754
4524.988298,296.082377,-8503.660028,-296.082377
4524.988623,518.144159,-8350.440928,-740.205942
4524.988947,370.102971,-8656.879127,-518.144159
4524.989271,370.102971,-8580.269578,-518.144159
4524.989596,296.082377,-8886.707777,-370.102971
4524.989920,518.144159,-8427.050478,-592.164754
4524.990244,222.061783,-8810.098227,-518.144159
4524.990568,370.102971,-8503.660028,-518.144159
4524.990893,444.123565,-8273.831378,-444.123565
4524.991217,518.144159,-8197.221829,0.000000
4524.991541,444.123565,-8580.269578,-592.164754
4524.991866,370.102971,-8427.050478,-370.102971
4524.992190,370.102971,-8656.879127,-370.102971
4524.992514,444.123565,-8656.879127,-444.123565
4524.992839,666.185348,-8656.879127,-370.102971
4524.993163,666.185348,-8810.098227,-370.102971
4524.993487,666.185348,-8656.879127,-444.123565
4524.993811,592.164754,-8503.660028,-370.102971
4524.994136,1184.329507,-8810.098227,-296.082377
4524.994460,666.185348,-8350.440928,0.000000
4524.994784,148.041188,-8733.488677,-148.041188
4524.995109,444.123565,-8733.488677,-296.082377
4524.995433,666.185348,-8580.269578,-296.082377
4524.995757,592.164754,-8733.488677,-148.041188
4524.996081,592.164754,-8656.879127,0.000000
4524.996406,592.164754,-8427.050478,148.041188
4524.996730,518.144159,-8656.879127,296.082377
4524.997054,222.061783,-8120.612279,0.000000
4524.997379,518.144159,-8886.707777,0.000000
4524.997703,370.102971,-8350.440928,0.000000
4524.998027,444.123565,-8810.098227,0.000000
4524.998351,444.123565,-8427.050478,-148.041188
4524.998676,518.144159,-8886.707777,-370.102971
4524.999000,370.102971,-8503.660028,-296.082377
4524.999324,222.061783,-8733.488677,-296.082377
4524.999649,296.082377,-8886.707777,0.000000
4524.999973,518.144159,-8810.098227,-148.041188
4525.000297,222.061783,-8427.050478,-148.041188
4525.000622,222.061783,-8120.612279,-518.144159
4525.000946,296.082377,-8350.440928,-666.185348
4525.001270,444.123565,-8197.221829,-370.102971
4525.001594,592.164754,-8427.050478,-592.164754
4525.001919,296.082377,-8886.707777,-666.185348
4525.002243,296.082377,-8503.660028,-740.205942
4525.002567,1036.288319,-8886.707777,-814.226536
4525.002892,740.205942,-8503.660028,-666.185348
4525.003216,444.123565,-8427.050478,-518.144159
4525.003540,518.144159,-8580.269578,-666.185348
4525.003864,222.061783,-8656.879127,-592.164754
4525.004189,296.082377,-8656.879127,-666.185348
4525.004513,370.102971,-8580.269578,-888.247130
4525.004837,74.020594,-8503.660028,-444.123565
4525.005162,296.082377,-8273.831378,-592.164754
4525.005486,666.185348,-8580.269578,-370.102971
4525.005810,444.123565,-8273.831378,-370.102971
4525.006134,444.123565,-8733.488677,-370.102971
4525.006459,222.061783,-8503.660028,-296.082377
4525.006783,740.205942,-9039.926876,-518.144159
4525.007107,518.144159,-8580.269578,-740.205942
4525.007432,518.144159,-8733.488677,-370.102971
4525.007756,370.102971,-8503.660028,-666.185348
4525.008080,370.102971,-8733.488677,-222.061783
4525.008404,222.061783,-8350.440928,-518.144159
4525.008729,296.082377,-8963.317327,-444.123565
4525.009053,74.020594,-8503.660028,-444.123565
4525.009377,370.102971,-8503.660028,-518.144159
4525.009702,888.247130,-8120.612279,-666.185348
4525.010026,666.185348,-8427.050478,-666.185348
4525.010350,518.144159,-8427.050478,-888.247130
4525.010675,666.185348,-8427.050478,-666.185348
4525.010999,888.247130,-8273.831378,-740.205942
4525.011323,370.102971,-8810.098227,-666.185348
4525.011647,888.247130,-8350.440928,-592.164754
4525.011972,518.144159,-8810.098227,-370.102971
4525.012296,296.082377,-8810.098227,-666.185348
4525.012620,370.102971,-8350.440928,-370.102971
4525.012945,592.164754,-8656.879127,-518.144159
4525.013269,296.082377,-8503.660028,-222.061783
4525.013593,444.123565,-8733.488677,-222.061783
4525.013917,592.164754,-8580.269578,296.082377
4525.014242,444.123565,-8503.660028,-148.041188
4525.014566,222.061783,-8580.269578,0.000000
4525.014890,444.123565,-8350.440928,-148.041188
4525.015215,444.123565,-7431.126331,0.000000
4525.015539,222.061783,-8503.660028,-222.061783
4525.015863,444.123565,-9116.536426,-296.082377
4525.016187,518.144159,-8580.269578,0.000000
4525.016512,888.247130,-8886.707777,-296.082377
4525.016836,148.041188,-8656.879127,-518.144159
4525.017160,222.061783,-8580.269578,-370.102971
4525.017485,296.082377,-8656.879127,0.000000
4525.017809,444.123565,-8427.050478,-296.082377
4525.018133,592.164754,-8427.050478,-296.082377
4525.018457,518.144159,-8350.440928,-148.041188
4525.018782,518.144159,-8350.440928,-148.041188
4525.019106,222.061783,-8503.660028,-222.061783
4525.019430,444.123565,-8963.317327,-370.102971
4525.019755,592.164754,-8503.660028,-296.082377
4525.020079,222.061783,-8810.098227,-518.144159
4525.020403,222.061783,-8810.098227,-296.082377
4525.020728,444.123565,-8580.269578,-370.102971
4525.021052,592.164754,-8503.660028,-518.144159
4525.021376,666.185348,-8503.660028,-518.144159
4525.021700,592.164754,-8963.317327,-592.164754
4525.022025,518.144159,-8810.098227,-148.041188
4525.022349,518.144159,-8120.612279,0.000000
4525.022673,518.144159,-8427.050478,-370.102971
4525.022998,444.123565,-8350.440928,-370.102971
4525.023322,296.082377,-8503.660028,-518.144159
4525.023646,222.061783,-8656.879127,-296.082377
4525.023970,222.061783,-8120.612279,0.000000
4525.024295,370.102971,-8580.269578,-444.123565
4525.024619,518.144159,-8656.879127,-444.123565
4525.024943,518.144159,-8580.269578,-740.205942
4525.025268,592.164754,-8580.269578,-444.123565
4525.025592,444.123565,-8273.831378,-444.123565
4525.025916,0.000000,-8503.660028,-444.123565
4525.026240,0.000000,-8427.050478,-592.164754
4525.026565,296.082377,-8120.612279,-222.061783
4525.026889,370.102971,-8427.050478,-518.144159
4525.027213,222.061783,-8273.831378,-444.123565
4525.027538,296.082377,-8197.221829,-444.123565
4525.027862,296.082377,-8580.269578,-370.102971
4525.028186,888.247130,-8273.831378,-518.144159
4525.028511,592.164754,-8273.831378,-592.164754
4525.028835,666.185348,-8427.050478,-296.082377
4525.029159,740.205942,-8197.221829,-518.144159
4525.029483,814.226536,-9193.145976,0.000000
4525.029808,444.123565,-8350.440928,-222.061783
4525.030132,592.164754,-8503.660028,-296.082377
4525.030456,592.164754,-8810.098227,-740.205942
4525.030781,592.164754,-8656.879127,0.000000
4525.031105,296.082377,-8350.440928,0.000000
4525.031429,518.144159,-8656.879127,-370.102971
4525.031753,444.123565,-8350.440928,0.000000
4525.032078,666.185348,-8580.269578,0.000000
4525.032402,0.000000,-8044.002729,0.000000
4525.032726,370.102971,-8427.050478,0.000000
4525.033051,148.041188,-8810.098227,-74.020594
4525.033375,222.061783,-8580.269578,0.000000
4525.033699,444.123565,-8120.612279,-518.144159
4525.034023,444.123565,-8733.488677,0.000000
4525.034348,592.164754,-8503.660028,0.000000
4525.034672,296.082377,-8580.269578,-296.082377
4525.034996,444.123565,-8580.269578,74.020594
4525.035321,222.061783,-8273.831378,-148.041188
4525.035645,518.144159,-8810.098227,0.000000
4525.035969,370.102971,-8273.831378,-222.061783
4525.036293,444.123565,-8733.488677,-222.061783
4525.036618,444.123565,-8580.269578,-370.102971
4525.036942,444.123565,-8656.879127,-518.144159
4525.037266,518.144159,-8580.269578,-370.102971
4525.037591,222.061783,-8580.269578,-222.061783
4525.037915,592.164754,-8350.440928,-740.205942
4525.038239,370.102971,-8580.269578,-296.082377
4525.038564,296.082377,-8503.660028,-296.082377
4525.038888,518.144159,-8886.707777,-222.061783
4525.039212,296.082377,-8580.269578,-444.123565
4525.039536,222.061783,-8733.488677,0.000000
4525.039861,518.144159,-8580.269578,-222.061783
4525.040185,444.123565,-8580.269578,-148.041188
4525.040509,222.061783,-8273.831378,0.000000
4525.040834,666.185348,-9193.145976,-296.082377
4525.041158,518.144159,-8503.660028,222.061783
4525.041482,296.082377,-8733.488677,0.000000
4525.041806,518.144159,-8580.269578,0.000000
4525.042131,518.144159,-8963.317327,-148.041188
4525.042455,444.123565,-8810.098227,-222.061783
4525.042779,814.226536,-8656.879127,-222.061783
4525.043104,444.123565,-8503.660028,0.000000
4525.043428,444.123565,-8886.707777,0.000000
4525.043752,0.000000,-8656.879127,0.000000
4525.044076,592.164754,-8963.317327,0.000000
4525.044401,444.123565,-8810.098227,-296.082377
4525.044725,296.082377,-8656.879127,0.000000
4525.045049,740.205942,-8810.098227,-148.041188
4525.045374,296.082377,-8580.269578,-444.123565
4525.045698,370.102971,-8503.660028,-444.123565
4525.046022,444.123565,-8733.488677,-518.144159
4525.046347,592.164754,-9499.584175,-518.144159
4525.046671,444.123565,-8656.879127,-222.061783
4525.046995,222.061783,-8886.707777,-592.164754
4525.047319,518.144159,-8656.879127,-592.164754
4525.047644,444.123565,-8503.660028,-370.102971
4525.047968,444.123565,-8810.098227,-666.185348
4525.048292,518.144159,-8503.660028,-666.185348
4525.048617,444.123565,-8733.488677,-444.123565
4525.048941,222.061783,-8503.660028,-518.144159
4525.049265,0.000000,-9039.926876,-222.061783
4525.049589,222.061783,-8886.707777,-370.102971
4525.049914,222.061783,-7967.393179,0.000000
4525.050238,222.061783,-8503.660028,-444.123565
4525.050562,222.061783,-8656.879127,-444.123565
4525.050887,222.061783,-8503.660028,-592.164754
4525.051211,370.102971,-8733.488677,-518.144159
4525.051535,518.144159,-8886.707777,-444.123565
4525.051859,148.041188,-8503.660028,-518.144159
4525.052184,666.185348,-8733.488677,-518.144159
4525.052508,148.041188,-8503.660028,-518.144159
4525.052832,666.185348,-8886.707777,-740.205942
4525.053157,666.185348,-8656.879127,-444.123565
4525.053481,370.102971,-8963.317327,0.000000
4525.053805,222.061783,-8503.660028,-370.102971
4525.054129,370.102971,-8120.612279,-518.144159
4525.054454,296.082377,-8580.269578,-296.082377
4525.054778,666.185348,-8580.269578,-518.144159
4525.055102,222.061783,-8886.707777,-222.061783
4525.055427,518.144159,-8656.879127,-518.144159
4525.055751,740.205942,-8963.317327,-518.144159
4525.056075,518.144159,-8656.879127,-444.123565
4525.056400,592.164754,-8963.317327,74.020594
4525.056724,444.123565,-8733.488677,-370.102971
4525.057048,296.082377,-8580.269578,-370.102971
4525.057372,222.061783,-8656.879127,-444.123565
4525.057697,0.000000,-9116.536426,74.020594
4525.058021,518.144159,-8656.879127,-296.082377
4525.058345,444.123565,-8350.440928,0.000000
4525.058670,222.061783,-8733.488677,0.000000
4525.058994,370.102971,-8656.879127,0.000000
4525.059318,222.061783,-8427.050478,0.000000
4525.059642,296.082377,-8656.879127,-222.061783
4525.059967,444.123565,-8656.879127,-518.144159
4525.060291,222.061783,-8656.879127,74.020594
4525.060615,0.000000,-8886.707777,296.082377
4525.060940,370.102971,-8656.879127,0.000000
4525.061264,518.144159,-8810.098227,-296.082377
4525.061588,518.144159,-8963.317327,0.000000
4525.061912,296.082377,-8656.879127,74.020594
4525.062237,518.144159,-8656.879127,-148.041188
4525.062561,370.102971,-8503.660028,-296.082377
4525.062885,222.061783,-8197.221829,0.000000
4525.063210,370.102971,-8580.269578,-296.082377
4525.063534,370.102971,-8656.879127,0.000000
4525.063858,518.144159,-8503.660028,0.000000
4525.064182,518.144159,-8580.269578,-296.082377
4525.064507,592.164754,-8427.050478,0.000000
4525.064831,1110.308913,-8656.879127,-444.123565
4525.065155,666.185348,-8427.050478,0.000000
4525.065480,444.123565,-8580.269578,74.020594
4525.065804,296.082377,-8810.098227,0.000000
4525.066128,370.102971,-8503.660028,0.000000
4525.066453,222.061783,-8350.440928,-74.020594
4525.066777,74.020594,-8810.098227,0.000000
4525.067101,518.144159,-8580.269578,0.000000
4525.067425,444.123565,-8503.660028,0.000000
4525.067750,370.102971,-8580.269578,0.000000
4525.068074,444.123565,-8733.488677,0.000000
4525.068398,370.102971,-8810.098227,0.000000
4525.068723,444.123565,-8810.098227,-518.144159
4525.069047,666.185348,-8503.660028,-148.041188
4525.069371,592.164754,-8733.488677,-296.082377
4525.069695,814.226536,-8273.831378,-592.164754
4525.070020,444.123565,-8503.660028,-370.102971
4525.070344,296.082377,-8580.269578,-444.123565
4525.070668,74.020594,-8427.050478,0.000000
4525.070993,148.041188,-8503.660028,-370.102971
4525.071317,0.000000,-8503.660028,0.000000
4525.071641,148.041188,-8810.098227,0.000000
4525.071965,814.226536,-8273.831378,-148.041188
4525.072290,518.144159,-8656.879127,-222.061783
4525.072614,518.144159,-8350.440928,-444.123565
4525.072938,296.082377,-8886.707777,-518.144159
4525.073263,518.144159,-8886.707777,74.020594
4525.073587,444.123565,-8580.269578,-666.185348
4525.073911,222.061783,-8580.269578,-444.123565
4525.074236,296.082377,-8350.440928,-370.102971
4525.074560,222.061783,-8580.269578,-370.102971
4525.074884,74.020594,-8503.660028,-444.123565
4525.075208,296.082377,-8273.831378,-518.144159
4525.075533,370.102971,-8656.879127,-444.123565
4525.075857,0.000000,-8503.660028,-444.123565
4525.076181,518.144159,-8810.098227,-370.102971
4525.076506,370.102971,-8350.440928,-370.102971
4525.076830,518.144159,-8350.440928,-592.164754
4525.077154,592.164754,-8503.660028,-666.185348
4525.077478,518.144159,-8580.269578,-518.144159
4525.077803,444.123565,-8197.221829,-666.185348
4525.078127,518.144159,-8580.269578,-740.205942
4525.078451,222.061783,-8427.050478,-518.144159
4525.078776,666.185348,-8656.879127,-518.144159
4525.079100,518.144159,-8350.440928,-592.164754
4525.079424,370.102971,-8810.098227,-370.102971
4525.079748,444.123565,-8350.440928,0.000000
4525.080073,444.123565,-8810.098227,0.000000
4525.080397,814.226536,-8350.440928,-444.123565
4525.080721,740.205942,-8503.660028,-370.102971
4525.081046,962.267725,-8044.002729,0.000000
4525.081370,666.185348,-8580.269578,-444.123565
4525.081694,666.185348,-8656.879127,148.041188
4525.082018,518.144159,-8503.660028,-296.082377
4525.082343,370.102971,-8656.879127,-740.205942
4525.082667,444.123565,-8733.488677,-370.102971
4525.082992,444.123565,-8810.098227,74.020594
4525.083316,740.205942,-8656.879127,-222.061783
4525.083640,592.164754,-8733.488677,-444.123565
4525.083965,518.144159,-8503.660028,-518.144159
4525.084289,296.082377,-8810.098227,-222.061783
4525.084613,814.226536,-8580.269578,0.000000
4525.084938,370.102971,-8503.660028,-370.102971
4525.085262,148.041188,-8733.488677,-296.082377
4525.085587,370.102971,-8273.831378,-148.041188
4525.085911,222.061783,-8580.269578,-296.082377
4525.086235,444.123565,-8656.879127,0.000000
4525.086560,296.082377,-8350.440928,0.000000
4525.086884,444.123565,-8886.707777,-444.123565
4525.087208,592.164754,-8350.440928,-518.144159
4525.087533,814.226536,-8886.707777,-370.102971
4525.087857,666.185348,-8733.488677,-370.102971
4525.088182,444.123565,-8427.050478,-592.164754
4525.088506,592.164754,-8810.098227,-666.185348
4525.088830,518.144159,-8273.831378,-370.102971
4525.089155,74.020594,-8656.879127,-518.144159
4525.089479,148.041188,-8580.269578,-592.164754
4525.089804,296.082377,-8656.879127,-296.082377
4525.090128,148.041188,-8350.440928,-370.102971
4525.090452,518.144159,-8886.707777,-370.102971
4525.090777,296.082377,-8580.269578,-888.247130
4525.091101,370.102971,-8886.707777,-666.185348
4525.091425,592.164754,-8733.488677,-888.247130
4525.091750,740.205942,-8886.707777,-296.082377
4525.092074,222.061783,-8963.317327,-740.205942
4525.092399,0.000000,-9116.536426,-518.144159
4525.092723,370.102971,-8733.488677,-592.164754
4525.093047,296.082377,-8197.221829,-296.082377
4525.093372,148.041188,-8427.050478,-222.061783
4525.093696,148.041188,-8273.831378,-444.123565
4525.094020,222.061783,-8503.660028,-370.102971
4525.094345,148.041188,-8350.440928,-296.082377
4525.094669,296.082377,-8273.831378,-518.144159
4525.094994,296.082377,-8427.050478,-296.082377
4525.095318,222.061783,-8120.612279,-592.164754
4525.095642,444.123565,-8656.879127,-592.164754
4525.095967,444.123565,-8197.221829,-444.123565
4525.096291,740.205942,-8503.660028,-740.205942
4525.096616,518.144159,-8580.269578,-296.082377
4525.096940,518.144159,-8580.269578,-444.123565
4525.097264,740.205942,-8580.269578,0.000000
4525.097589,518.144159,-8580.269578,-296.082377
4525.097913,518.144159,-8427.050478,-592.164754
4525.098237,666.185348,-8120.612279,-222.061783
4525.098562,666.185348,-8273.831378,-222.061783
4525.098886,370.102971,-8427.050478,0.000000
4525.099211,518.144159,-7967.393179,-296.082377
4525.099535,518.144159,-8427.050478,-222.061783
4525.099859,518.144159,-8350.440928,-518.144159
4525.100184,518.144159,-8733.488677,148.041188
4525.100508,370.102971,-8656.879127,-296.082377
4525.100832,518.144159,-8503.660028,-74.020594
4525.101157,444.123565,-8580.269578,-370.102971
4525.101481,814.226536,-8810.098227,-518.144159
4525.101806,518.144159,-8580.269578,0.000000
4525.102130,444.123565,-8503.660028,-296.082377
4525.102454,370.102971,-8350.440928,-592.164754
4525.102779,740.205942,-8733.488677,-370.102971
4525.103103,740.205942,-8580.269578,0.000000
4525.103428,666.185348,-8503.660028,-222.061783
4525.103752,518.144159,-8656.879127,0.000000
4525.104076,814.226536,-8810.098227,-296.082377
4525.104401,1110.308913,-8197.221829,0.000000
4525.104725,518.144159,-8886.707777,-518.144159
4525.105049,592.164754,-9116.536426,-444.123565
4525.105374,592.164754,-8503.660028,0.000000
4525.105698,370.102971,-8810.098227,-148.041188
4525.106023,148.041188,-9422.974625,0.000000
4525.106347,222.061783,-8733.488677,-222.061783
4525.106671,370.102971,-8886.707777,0.000000
4525.106996,222.061783,-8580.269578,-666.185348
4525.107320,740.205942,-8963.317327,-296.082377
4525.107644,370.102971,-8580.269578,-370.102971
4525.107969,370.102971,-8427.050478,-222.061783
4525.108293,444.123565,-8656.879127,-592.164754
4525.108618,740.205942,-9422.974625,-370.102971
4525.108942,518.144159,-8810.098227,-518.144159
4525.109266,222.061783,-8963.317327,-222.061783
4525.109591,444.123565,-8810.098227,-518.144159
4525.109915,666.185348,-8963.317327,-444.123565
4525.110240,518.144159,-8733.488677,-666.185348
4525.110564,296.082377,-8733.488677,-296.082377
4525.110888,0.000000,-8656.879127,-296.082377
4525.111213,444.123565,-8886.707777,-518.144159
4525.111537,444.123565,-8427.050478,-592.164754
4525.111861,222.061783,-8503.660028,-296.082377
4525.112186,444.123565,-8733.488677,-518.144159
4525.112510,444.123565,-8273.831378,-74.020594
4525.112835,592.164754,-8503.660028,-148.041188
4525.113159,444.123565,-8427.050478,-370.102971
4525.113483,518.144159,-8656.879127,-444.123565
4525.113808,592.164754,-8733.488677,-518.144159
4525.114132,370.102971,-8733.488677,-518.144159
4525.114456,814.226536,-8733.488677,-222.061783
4525.114781,444.123565,-8656.879127,-592.164754
4525.115105,370.102971,-8427.050478,-592.164754
4525.115430,592.164754,-8350.440928,-444.123565
4525.115754,518.144159,-8427.050478,-370.102971
4525.116078,444.123565,-8197.221829,-296.082377
4525.116403,666.185348,-8350.440928,-666.185348
4525.116727,518.144159,-8350.440928,-518.144159
4525.117051,518.144159,-8503.660028,-666.185348
4525.117376,592.164754,-8427.050478,-518.144159
4525.117700,592.164754,-8503.660028,-370.102971
4525.118025,444.123565,-8273.831378,-666.185348
4525.118349,444.123565,-8733.488677,-444.123565
4525.118673,444.123565,-8350.440928,-740.205942
4525.118998,296.082377,-8810.098227,-444.123565
4525.119322,444.123565,-8273.831378,-296.082377
4525.119647,222.061783,-8656.879127,-296.082377
4525.119971,518.144159,-8810.098227,-666.185348
4525.120295,592.164754,-8503.660028,-148.041188
4525.120620,444.123565,-8503.660028,-370.102971
4525.120944,518.144159,-8580.269578,-222.061783
4525.121268,296.082377,-8427.050478,0.000000
4525.121593,518.144159,-8427.050478,-296.082377
4525.121917,222.061783,-8350.440928,-592.164754
4525.122242,444.123565,-9039.926876,-518.144159
4525.122566,444.123565,-8733.488677,-740.205942
4525.122890,370.102971,-8427.050478,-1036.288319
4525.123215,370.102971,-8580.269578,-444.123565
4525.123539,370.102971,-8733.488677,-518.144159
4525.123863,592.164754,-8733.488677,-740.205942
4525.124188,370.102971,-7814.174080,-222.061783
4525.124512,592.164754,-8886.707777,-222.061783
4525.124837,444.123565,-8197.221829,-444.123565
4525.125161,444.123565,-8810.098227,-370.102971
4525.125485,518.144159,-8350.440928,-592.164754
4525.125810,518.144159,-9039.926876,-666.185348
4525.126134,370.102971,-8427.050478,-444.123565
4525.126459,444.123565,-8810.098227,-296.082377
4525.126783,74.020594,-8580.269578,-518.144159
4525.127107,518.144159,-8733.488677,-666.185348
4525.127432,444.123565,-8580.269578,-518.144159
4525.127756,296.082377,-9116.536426,-296.082377
4525.128080,222.061783,-8733.488677,-296.082377
4525.128405,296.082377,-8656.879127,-148.041188
4525.128729,148.041188,-8810.098227,-370.102971
4525.129054,296.082377,-8733.488677,-592.164754
4525.129378,370.102971,-8580.269578,-370.102971
4525.129702,370.102971,-8656.879127,0.000000
4525.130027,148.041188,-8656.879127,0.000000
4525.130351,222.061783,-8733.488677,-148.041188
4525.130675,74.020594,-8503.660028,0.000000
4525.131000,370.102971,-8580.269578,-518.144159
4525.131324,814.226536,-9193.145976,-148.041188
4525.131649,296.082377,-8810.098227,-296.082377
4525.131973,592.164754,-8503.660028,-444.123565
4525.132297,444.123565,-8810.098227,-296.082377
4525.132622,592.164754,-8810.098227,-592.164754
4525.132946,888.247130,-8580.269578,-296.082377
4525.133271,370.102971,-8580.269578,-222.061783
4525.133595,296.082377,-8733.488677,-148.041188
4525.133919,296.082377,-8350.440928,-444.123565
4525.134244,296.082377,-7967.393179,0.000000
4525.134568,444.123565,-8197.221829,-592.164754
4525.134892,444.123565,-8580.269578,-444.123565
4525.135217,518.144159,-8273.831378,-518.144159
4525.135541,888.247130,-8197.221829,0.000000
4525.135866,296.082377,-8273.831378,-296.082377
4525.136190,518.144159,-8733.488677,-518.144159
4525.136514,740.205942,-8044.002729,-592.164754
4525.136839,148.041188,-8810.098227,0.000000
4525.137163,592.164754,-8503.660028,-444.123565
4525.137487,148.041188,-8656.879127,-370.102971
4525.137812,518.144159,-8273.831378,-814.226536
4525.138136,444.123565,-8350.440928,-222.061783
4525.138461,0.000000,-8197.221829,0.000000
4525.138785,370.102971,-8427.050478,0.000000
4525.139109,148.041188,-8044.002729,-592.164754
4525.139434,148.041188,-8810.098227,0.000000
4525.139758,370.102971,-8427.050478,-592.164754
4525.140083,444.123565,-8733.488677,-296.082377
4525.140407,444.123565,-8810.098227,-296.082377
4525.140731,666.185348,-8810.098227,-370.102971
4525.141056,444.123565,-8580.269578,-296.082377
4525.141380,370.102971,-8810.098227,-296.082377
4525.141704,444.123565,-8503.660028,-444.123565
4525.142029,222.061783,-8810.098227,0.000000
4525.142353,148.041188,-8580.269578,0.000000
4525.142678,666.185348,-8810.098227,-148.041188
4525.143002,0.000000,-8427.050478,-296.082377
4525.143326,518.144159,-8656.879127,-148.041188
4525.143651,222.061783,-8503.660028,-296.082377
4525.143975,444.123565,-8886.707777,-814.226536
4525.144299,518.144159,-8580.269578,-666.185348
4525.144624,814.226536,-8656.879127,-592.164754
4525.144948,666.185348,-8656.879127,-666.185348
4525.145273,444.123565,-8886.707777,-370.102971
4525.145597,592.164754,-8886.707777,-296.082377
4525.145921,518.144159,-8810.098227,-592.164754
4525.146246,592.164754,-8656.879127,-740.205942
4525.146570,518.144159,-8733.488677,-296.082377
4525.146894,518.144159,-8733.488677,-814.226536
4525.147219,222.061783,-8350.440928,-444.123565
4525.147543,444.123565,-8656.879127,0.000000
4525.147868,444.123565,-8427.050478,-222.061783
4525.148192,518.144159,-8963.317327,-74.020594
4525.148516,518.144159,-8580.269578,-148.041188
4525.148841,444.123565,-8273.831378,-370.102971
4525.149165,444.123565,-8810.098227,-74.020594
4525.149490,296.082377,-8656.879127,-296.082377
4525.149814,666.185348,-8810.098227,-296.082377
4525.150138,444.123565,-8733.488677,-222.061783
4525.150463,370.102971,-8427.050478,222.061783
4525.150787,592.164754,-8427.050478,0.000000
4525.151111,444.123565,-9116.536426,148.041188
4525.151436,592.164754,-8427.050478,0.000000
4525.151760,370.102971,-8656.879127,0.000000
4525.152085,740.205942,-8580.269578,0.000000
4525.152409,444.123565,-8427.050478,-222.061783
4525.152733,444.123565,-8733.488677,-222.061783
4525.153058,518.144159,-8273.831378,-370.102971
4525.153382,518.144159,-8656.879127,-370.102971
4525.153706,666.185348,-8733.488677,-518.144159
4525.154031,814.226536,-8886.707777,-296.082377
4525.154355,518.144159,-8656.879127,-148.041188
4525.154680,370.102971,-8733.488677,-444.123565
4525.155004,296.082377,-8580.269578,-222.061783
4525.155328,518.144159,-9116.536426,0.000000
4525.155653,222.061783,-8810.098227,-222.061783
4525.155977,0.000000,-8580.269578,-222.061783
4525.156302,370.102971,-8503.660028,-222.061783
4525.156626,0.000000,-8580.269578,0.000000
4525.156950,296.082377,-8503.660028,-222.061783
4525.157275,518.144159,-8656.879127,0.000000
4525.157599,296.082377,-8197.221829,-444.123565
4525.157923,222.061783,-9039.926876,-296.082377
4525.158248,296.082377,-8656.879127,0.000000
4525.158572,444.123565,-8886.707777,0.000000
4525.158897,444.123565,-8733.488677,-296.082377
4525.159221,296.082377,-8656.879127,0.000000
4525.159545,0.000000,-9422.974625,-518.144159
4525.159870,0.000000,-8503.660028,-148.041188
4525.160194,222.061783,-8273.831378,-444.123565
4525.160518,296.082377,-8733.488677,-370.102971
4525.160843,148.041188,-8273.831378,0.000000
4525.161167,0.000000,-8197.221829,-370.102971
4525.161492,444.123565,-8810.098227,-518.144159
4525.161816,296.082377,-8580.269578,-592.164754
4525.162140,444.123565,-8733.488677,-592.164754
4525.162465,74.020594,-8427.050478,-148.041188
4525.162789,666.185348,-8580.269578,-518.144159
4525.163114,592.164754,-8733.488677,-740.205942
4525.163438,370.102971,-8427.050478,-666.185348
4525.163762,592.164754,-8503.660028,-592.164754
4525.164087,370.102971,-8810.098227,-592.164754
4525.164411,592.164754,-8503.660028,-444.123565
4525.164735,518.144159,-8273.831378,-740.205942
4525.165060,370.102971,-8733.488677,-222.061783
4525.165384,444.123565,-8197.221829,-592.164754
4525.165709,592.164754,-8810.098227,-518.144159
4525.166033,592.164754,-8503.660028,-148.041188
4525.166357,518.144159,-8733.488677,-222.061783
4525.166682,296.082377,-8503.660028,-296.082377
4525.167006,444.123565,-8427.050478,-222.061783
4525.167330,592.164754,-8886.707777,-592.164754
4525.167655,740.205942,-8810.098227,-222.061783
4525.167979,740.205942,-8350.440928,-222.061783
4525.168304,444.123565,-8656.879127,-222.061783
4525.168628,370.102971,-8427.050478,0.000000
4525.168952,444.123565,-8350.440928,0.000000
4525.169277,296.082377,-8197.221829,-296.082377
4525.169601,370.102971,-8273.831378,-74.020594
4525.169926,518.144159,-8350.440928,-296.082377
4525.170250,148.041188,-8350.440928,-370.102971
4525.170574,518.144159,-8427.050478,-370.102971
4525.170899,592.164754,-8886.707777,-592.164754
4525.171223,592.164754,-8503.660028,-518.144159
4525.171547,444.123565,-8197.221829,-444.123565
4525.171872,148.041188,-8503.660028,-444.123565
4525.172196,296.082377,-8580.269578,-444.123565
4525.172521,666.185348,-8503.660028,-592.164754
4525.172845,592.164754,-9039.926876,-148.041188
4525.173169,444.123565,-8120.612279,-370.102971
4525.173494,444.123565,-8656.879127,-222.061783
4525.173818,592.164754,-8733.488677,-370.102971
4525.174142,370.102971,-8427.050478,-222.061783
4525.174467,222.061783,-8427.050478,-148.041188
4525.174791,370.102971,-8427.050478,-148.041188
4525.175116,148.041188,-8580.269578,-444.123565
4525.175440,222.061783,-8350.440928,-444.123565
4525.175764,370.102971,-8580.269578,-148.041188
4525.176089,370.102971,-8810.098227,-296.082377
4525.176413,444.123565,-8810.098227,0.000000
4525.176738,444.123565,-9039.926876,-148.041188
4525.177062,592.164754,-8733.488677,-296.082377
4525.177386,222.061783,-8810.098227,0.000000
4525.177711,444.123565,-8886.707777,-592.164754
4525.178035,0.000000,-8580.269578,222.061783
4525.178359,0.000000,-7890.783629,0.000000
4525.178684,444.123565,-8810.098227,0.000000
4525.179008,518.144159,-8580.269578,-222.061783
4525.179333,888.247130,-8733.488677,-148.041188
4525.179657,592.164754,-8503.660028,-296.082377
4525.179981,666.185348,-8733.488677,74.020594
4525.180306,740.205942,-8733.488677,-518.144159
4525.180630,296.082377,-8656.879127,0.000000
4525.180954,74.020594,-8350.440928,-148.041188
4525.181279,222.061783,-8656.879127,-74.020594
4525.181603,370.102971,-8427.050478,-370.102971
4525.181928,296.082377,-8503.660028,-74.020594
4525.182252,370.102971,-8963.317327,-370.102971
4525.182576,148.041188,-8656.879127,0.000000
4525.182901,592.164754,-8044.002729,-222.061783
4525.183224,444.123565,-8656.879127,0.000000
4525.183549,296.082377,-9039.926876,-148.041188
4525.183873,518.144159,-8503.660028,0.000000
4525.184198,370.102971,-8427.050478,-148.041188
4525.184522,296.082377,-8350.440928,-222.061783
4525.184846,444.123565,-8733.488677,-666.185348
4525.185171,962.267725,-8580.269578,-888.247130
4525.185495,518.144159,-8886.707777,-370.102971
4525.185820,296.082377,-8656.879127,-370.102971
4525.186144,518.144159,-8580.269578,-518.144159
4525.186469,74.020594,-8503.660028,-444.123565
4525.186793,518.144159,-8656.879127,-296.082377
4525.187117,518.144159,-8427.050478,-222.061783
4525.187442,370.102971,-8580.269578,0.000000
4525.187766,222.061783,-8197.221829,-444.123565
4525.188091,518.144159,-8350.440928,-222.061783
4525.188415,370.102971,-8580.269578,-666.185348
4525.188739,592.164754,-8273.831378,-148.041188
4525.189064,518.144159,-8350.440928,-592.164754
4525.189388,888.247130,-8963.317327,-814.226536
4525.189713,296.082377,-8580.269578,-370.102971
4525.190037,444.123565,-8733.488677,-222.061783
4525.190362,444.123565,-8503.660028,-296.082377
4525.190686,592.164754,-8810.098227,-370.102971
4525.191010,518.144159,-8656.879127,-592.164754
4525.191335,370.102971,-8503.660028,-518.144159
4525.191659,592.164754,-8580.269578,-592.164754
4525.191984,592.164754,-8503.660028,-222.061783
4525.192308,592.164754,-8044.002729,-370.102971
4525.192632,222.061783,-8656.879127,-296.082377
4525.192957,518.144159,-8580.269578,-370.102971
4525.193281,518.144159,-8273.831378,-296.082377
4525.193606,962.267725,-9116.536426,-666.185348
4525.193930,518.144159,-8656.879127,-370.102971
4525.194255,370.102971,-8733.488677,-518.144159
4525.194579,148.041188,-8810.098227,-370.102971
4525.194903,296.082377,-8733.488677,-222.061783
4525.195228,370.102971,-8656.879127,-296.082377
4525.195552,518.144159,-8503.660028,-222.061783
4525.195877,370.102971,-8427.050478,-444.123565
4525.196201,222.061783,-8427.050478,-444.123565
4525.196525,592.164754,-8273.831378,-740.205942
4525.196850,518.144159,-8427.050478,-518.144159
4525.197174,518.144159,-8503.660028,-592.164754
4525.197499,444.123565,-8656.879127,-444.123565
4525.197823,592.164754,-8273.831378,-296.082377
4525.198148,370.102971,-8656.879127,-666.185348
4525.198472,370.102971,-8656.879127,-740.205942
4525.198796,592.164754,-8733.488677,-592.164754
4525.199121,296.082377,-8503.660028,0.000000
4525.199445,518.144159,-8656.879127,-148.041188
4525.199770,444.123565,-8656.879127,-888.247130
4525.200094,740.205942,-8656.879127,-740.205942
4525.200418,518.144159,-8656.879127,-370.102971
4525.200743,444.123565,-8580.269578,-444.123565
4525.201067,148.041188,-8427.050478,-222.061783
4525.201392,444.123565,-8580.269578,-370.102971
4525.201716,296.082377,-8733.488677,-148.041188
4525.202041,370.102971,-7967.393179,-296.082377
4525.202365,518.144159,-8810.098227,-370.102971
4525.202689,592.164754,-8350.440928,-296.082377
4525.203014,592.164754,-8733.488677,-518.144159
4525.203338,666.185348,-8810.098227,-222.061783
4525.203663,1036.288319,-8963.317327,-518.144159
4525.203987,740.205942,-8810.098227,-296.082377
4525.204311,444.123565,-8733.488677,0.000000
4525.204636,444.123565,-8963.317327,0.000000
4525.204960,740.205942,-8810.098227,-296.082377
4525.205285,296.082377,-8503.660028,-74.020594
4525.205609,518.144159,-8503.660028,-666.185348
4525.205934,518.144159,-8427.050478,-296.082377
4525.206258,962.267725,-8503.660028,-444.123565
4525.206582,592.164754,-8886.707777,-148.041188
4525.206907,592.164754,-8580.269578,-444.123565
4525.207231,666.185348,-8656.879127,-370.102971
4525.207556,222.061783,-8503.660028,-74.020594
4525.207880,370.102971,-8580.269578,0.000000
4525.208204,0.000000,-8580.269578,74.020594
4525.208529,148.041188,-8427.050478,-222.061783
4525.208853,222.061783,-8273.831378,-148.041188
4525.209178,740.205942,-8810.098227,-888.247130
4525.209502,666.185348,-8273.831378,0.000000
4525.209827,518.144159,-8350.440928,-518.144159
4525.210151,518.144159,-8810.098227,-296.082377
4525.210475,962.267725,-8656.879127,-296.082377
4525.210800,888.247130,-8580.269578,-592.164754
4525.211124,222.061783,-8503.660028,-370.102971
4525.211449,222.061783,-8810.098227,-444.123565
4525.211773,370.102971,-8733.488677,-370.102971
4525.212097,592.164754,-9193.145976,-592.164754
4525.212422,444.123565,-9116.536426,-666.185348
4525.212746,444.123565,-8963.317327,-666.185348
4525.213071,518.144159,-8580.269578,-148.041188
4525.213395,740.205942,-8886.707777,-592.164754
4525.213720,444.123565,-8427.050478,-296.082377
4525.214044,148.041188,-8273.831378,-444.123565
4525.214368,740.205942,-8427.050478,-370.102971
4525.214693,74.020594,-7967.393179,-296.082377
4525.215017,296.082377,-8886.707777,-296.082377
4525.215342,370.102971,-8427.050478,-444.123565
4525.215666,222.061783,-8733.488677,-518.144159
4525.215991,444.123565,-8656.879127,-740.205942
4525.216315,370.102971,-8733.488677,0.000000
4525.216639,444.123565,-8350.440928,0.000000
4525.216964,444.123565,-8580.269578,-518.144159
4525.217288,666.185348,-8656.879127,-518.144159
4525.217613,666.185348,-8273.831378,-888.247130
4525.217937,444.123565,-8656.879127,-666.185348
4525.218261,518.144159,-8427.050478,-740.205942
4525.218586,370.102971,-8427.050478,-518.144159
4525.218910,296.082377,-8350.440928,-370.102971
4525.219235,518.144159,-8580.269578,-444.123565
4525.219559,592.164754,-8656.879127,-666.185348
4525.219884,740.205942,-8197.221829,-370.102971
4525.220208,370.102971,-8580.269578,-666.185348
4525.220532,148.041188,-8656.879127,-888.247130
4525.220857,518.144159,-8273.831378,-518.144159
4525.221181,444.123565,-8733.488677,-814.226536
4525.221506,370.102971,-8580.269578,-518.144159
4525.221830,74.020594,-8427.050478,-740.205942
4525.222154,370.102971,-8580.269578,-370.102971
4525.222479,74.020594,-8350.440928,-518.144159
4525.222803,0.000000,-8503.660028,-296.082377
4525.223128,666.185348,-8580.269578,-222.061783
4525.223452,222.061783,-8197.221829,-518.144159
4525.223777,370.102971,-8503.660028,-444.123565
4525.224101,592.164754,-8580.269578,-518.144159
4525.224425,592.164754,-8656.879127,-518.144159
4525.224750,518.144159,-8810.098227,-740.205942
4525.225074,740.205942,-8733.488677,-148.041188
4525.225399,222.061783,-8580.269578,-148.041188
4525.225723,222.061783,-8580.269578,-222.061783
4525.226047,370.102971,-9116.536426,-222.061783
4525.226372,518.144159,-9039.926876,-222.061783
4525.226696,592.164754,-8503.660028,-222.061783
4525.227021,518.144159,-8197.221829,-296.082377
4525.227345,222.061783,-8656.879127,0.000000
4525.227670,740.205942,-8273.831378,-296.082377
4525.227994,518.144159,-8503.660028,-222.061783
4525.228318,296.082377,-8656.879127,-370.102971
4525.228643,148.041188,-8810.098227,0.000000
4525.228967,222.061783,-9346.365076,0.000000
4525.229292,370.102971,-8656.879127,-666.185348
4525.229616,370.102971,-8810.098227,-444.123565
4525.229940,222.061783,-8886.707777,-222.061783
4525.230265,370.102971,-9729.412825,-370.102971
4525.230589,370.102971,-8810.098227,-444.123565
4525.230914,370.102971,-8810.098227,-444.123565
4525.231238,148.041188,-8503.660028,-370.102971
4525.231563,592.164754,-8656.879127,-444.123565
4525.231887,370.102971,-8273.831378,0.000000
4525.232211,666.185348,-8733.488677,-296.082377
4525.232536,444.123565,-8580.269578,-518.144159
4525.232860,518.144159,-8656.879127,-296.082377
4525.233185,592.164754,-9039.926876,-518.144159
4525.233509,814.226536,-8733.488677,-370.102971
4525.233833,740.205942,-8197.221829,-296.082377
4525.234158,370.102971,-8963.317327,-444.123565
4525.234482,444.123565,-8733.488677,-296.082377
4525.234807,444.123565,-8427.050478,-444.123565
4525.235131,444.123565,-8503.660028,-592.164754
4525.235456,740.205942,-8503.660028,-222.061783
4525.235780,296.082377,-8273.831378,-296.082377
4525.236104,814.226536,-8733.488677,-222.061783
4525.236429,444.123565,-8120.612279,-518.144159
4525.236753,740.205942,-8656.879127,-222.061783
4525.237078,518.144159,-8427.050478,-444.123565
4525.237402,592.164754,-9576.193725,0.000000
4525.237726,370.102971,-8503.660028,-370.102971
4525.238051,444.123565,-8580.269578,-296.082377
4525.238375,814.226536,-8427.050478,-518.144159
4525.238700,592.164754,-8580.269578,-296.082377
4525.239024,518.144159,-8810.098227,-296.082377
4525.239349,592.164754,-8503.660028,-222.061783
4525.239673,666.185348,-8503.660028,-370.102971
4525.239997,370.102971,-8503.660028,-370.102971
4525.240322,444.123565,-8656.879127,-518.144159
4525.240646,518.144159,-8427.050478,-370.102971
4525.240971,74.020594,-8427.050478,-222.061783
4525.241295,296.082377,-8580.269578,-296.082377
4525.241619,814.226536,-9193.145976,-518.144159
4525.241944,518.144159,-8886.707777,-666.185348
4525.242268,518.144159,-8580.269578,-444.123565
4525.242593,444.123565,-8503.660028,-518.144159
4525.242917,444.123565,-8810.098227,-296.082377
4525.243242,444.123565,-8733.488677,-370.102971
4525.243566,222.061783,-8656.879127,-296.082377
4525.243890,296.082377,-8656.879127,-296.082377
4525.244215,444.123565,-8580.269578,-148.041188
4525.244539,444.123565,-9116.536426,-296.082377
4525.244864,370.102971,-8503.660028,-518.144159
4525.245188,518.144159,-8503.660028,-296.082377
4525.245512,222.061783,-8427.050478,-222.061783
4525.245837,592.164754,-9039.926876,-444.123565
4525.246161,370.102971,-8427.050478,-296.082377
4525.246486,296.082377,-8427.050478,-370.102971
4525.246810,148.041188,-8273.831378,-370.102971
4525.247135,518.144159,-8886.707777,-666.185348
4525.247459,370.102971,-9193.145976,-592.164754
4525.247783,296.082377,-8580.269578,-296.082377
4525.248108,370.102971,-8886.707777,-370.102971
4525.248432,370.102971,-8656.879127,-370.102971
4525.248757,444.123565,-9193.145976,222.061783
4525.249081,370.102971,-8656.879127,-148.041188
4525.249406,518.144159,-8580.269578,-222.061783
4525.249730,370.102971,-8273.831378,-370.102971
4525.250054,444.123565,-9422.974625,-222.061783
4525.250379,444.123565,-8427.050478,-444.123565
4525.250703,592.164754,-8733.488677,-296.082377
4525.251028,444.123565,-8503.660028,-296.082377
4525.251352,666.185348,-8503.660028,-444.123565
4525.251676,296.082377,-8350.440928,-296.082377
4525.252001,666.185348,-8656.879127,0.000000
4525.252325,666.185348,-8733.488677,-296.082377
4525.252650,592.164754,-8656.879127,-222.061783
4525.252974,518.144159,-8733.488677,0.000000
4525.253299,592.164754,-8580.269578,-222.061783
4525.253623,296.082377,-8810.098227,-222.061783
4525.253947,444.123565,-8580.269578,-370.102971
4525.254272,592.164754,-8580.269578,-296.082377
4525.254596,592.164754,-8427.050478,0.000000
4525.254921,222.061783,-8580.269578,74.020594
4525.255245,444.123565,-8503.660028,-444.123565
4525.255569,222.061783,-8427.050478,-296.082377
4525.255894,666.185348,-8350.440928,-370.102971
4525.256218,444.123565,-8580.269578,-296.082377
4525.256543,370.102971,-8580.269578,-518.144159
4525.256867,222.061783,-8810.098227,-444.123565
4525.257192,0.000000,-8886.707777,0.000000
4525.257516,0.000000,-8733.488677,-518.144159
4525.257840,370.102971,-8427.050478,-370.102971
4525.258165,74.020594,-8503.660028,-222.061783
4525.258489,148.041188,-8810.098227,-296.082377
4525.258814,296.082377,-8273.831378,-148.041188
4525.259138,592.164754,-8350.440928,0.000000
4525.259462,518.144159,-8656.879127,-518.144159
4525.259787,296.082377,-8503.660028,-296.082377
4525.260111,888.247130,-8350.440928,-1036.288319
4525.260436,222.061783,-8810.098227,-296.082377
4525.260760,0.000000,-8503.660028,-148.041188
4525.261085,296.082377,-8810.098227,-296.082377
4525.261409,222.061783,-8580.269578,-444.123565
4525.261733,148.041188,-9039.926876,-148.041188
4525.262058,0.000000,-8886.707777,-222.061783
4525.262382,370.102971,-8580.269578,-296.082377
4525.262707,222.061783,-8427.050478,-148.041188
4525.263031,370.102971,-8503.660028,0.000000
4525.263355,370.102971,-8350.440928,0.000000
4525.263680,444.123565,-8273.831378,0.000000
4525.264004,296.082377,-8733.488677,0.000000
4525.264329,148.041188,-8044.002729,74.020594
4525.264653,296.082377,-8733.488677,-518.144159
4525.264978,518.144159,-8350.440928,-444.123565
4525.265302,518.144159,-8427.050478,-222.061783
4525.265626,296.082377,-9346.365076,-222.061783
4525.265951,370.102971,-8503.660028,0.000000
4525.266275,592.164754,-8810.098227,-74.020594
4525.266600,518.144159,-8580.269578,0.000000
4525.266924,592.164754,-8503.660028,-148.041188
4525.267248,444.123565,-8656.879127,0.000000
4525.267573,518.144159,-8427.050478,0.000000
4525.267897,666.185348,-8580.269578,-444.123565
4525.268222,592.164754,-8656.879127,-370.102971
4525.268546,370.102971,-8427.050478,148.041188
4525.268871,370.102971,-8810.098227,-296.082377
4525.269195,370.102971,-8656.879127,-666.185348
4525.269519,518.144159,-8810.098227,-296.082377
4525.269844,296.082377,-8810.098227,-370.102971
4525.270168,370.102971,-8580.269578,0.000000
4525.270493,148.041188,-8580.269578,-370.102971
4525.270817,296.082377,-8810.098227,-370.102971
4525.271141,370.102971,-8427.050478,-444.123565
4525.271466,888.247130,-8886.707777,-666.185348
4525.271790,592.164754,-8656.879127,-148.041188
4525.272115,444.123565,-8197.221829,0.000000
4525.272439,444.123565,-8810.098227,-518.144159
4525.272764,518.144159,-8503.660028,-222.061783
4525.273088,518.144159,-8580.269578,-370.102971
4525.273412,592.164754,-8580.269578,-444.123565
4525.273737,592.164754,-8733.488677,-444.123565
4525.274061,666.185348,-8580.269578,-518.144159
4525.274386,444.123565,-8733.488677,-296.082377
4525.274710,296.082377,-8810.098227,-296.082377
4525.275034,148.041188,-8810.098227,-592.164754
4525.275359,370.102971,-8503.660028,-222.061783
4525.275683,444.123565,-8580.269578,148.041188
4525.276008,444.123565,-8427.050478,-296.082377
4525.276332,592.164754,-8350.440928,-296.082377
4525.276657,518.144159,-8580.269578,-296.082377
4525.276981,518.144159,-7814.174080,0.000000
4525.277305,222.061783,-8656.879127,-370.102971
4525.277630,370.102971,-8810.098227,-444.123565
4525.277954,444.123565,-8427.050478,-444.123565
4525.278279,370.102971,-8733.488677,-370.102971
4525.278603,370.102971,-8427.050478,-296.082377
4525.278927,592.164754,-8350.440928,-370.102971
4525.279252,148.041188,-8580.269578,-444.123565
4525.279576,296.082377,-8656.879127,-444.123565
4525.279901,518.144159,-8044.002729,-370.102971
4525.280225,518.144159,-8733.488677,-444.123565
4525.280550,444.123565,-8273.831378,-222.061783
4525.280874,222.061783,-8580.269578,-444.123565
4525.281198,296.082377,-8503.660028,74.020594
4525.281523,0.000000,-8273.831378,0.000000
4525.281847,222.061783,-8656.879127,-148.041188
4525.282172,444.123565,-8350.440928,-592.164754
4525.282496,518.144159,-8580.269578,0.000000
4525.282821,518.144159,-8580.269578,-518.144159
4525.283145,444.123565,-8733.488677,-222.061783
4525.283469,518.144159,-8427.050478,-148.041188
4525.283794,592.164754,-8733.488677,-296.082377
4525.284118,666.185348,-8810.098227,-148.041188
4525.284443,518.144159,-8656.879127,0.000000
4525.284767,370.102971,-8120.612279,-148.041188
4525.285091,148.041188,-8197.221829,0.000000
4525.285416,370.102971,-8580.269578,-296.082377
4525.285740,592.164754,-8350.440928,-296.082377
4525.286065,592.164754,-8273.831378,-296.082377
4525.286389,444.123565,-8503.660028,-370.102971
4525.286713,666.185348,-8580.269578,-370.102971
4525.287038,888.247130,-8886.707777,-518.144159
4525.287362,592.164754,-8656.879127,-222.061783
4525.287687,518.144159,-8810.098227,-222.061783
4525.288011,148.041188,-8656.879127,-370.102971
4525.288335,666.185348,-8656.879127,-518.144159
4525.288660,740.205942,-8656.879127,-518.144159
4525.288984,740.205942,-8733.488677,-592.164754
4525.289309,518.144159,-8350.440928,-296.082377
