#time,accel_x,accel_y,accel_z
4255.384963,518.144159,-8580.269578,-296.082377
4255.385287,740.205942,-8810.098227,-296.082377
4255.385611,592.164754,-8503.660028,-296.082377
4255.385935,518.144159,-8810.098227,-370.102971
4255.386260,444.123565,-8580.269578,-222.061783
4255.386584,518.144159,-8503.660028,-296.082377
4255.386908,740.205942,-9116.536426,-296.082377
4255.387232,444.123565,-8503.660028,0.000000
4255.387557,518.144159,-8273.831378,-666.185348
4255.387881,296.082377,-8810.098227,-148.041188
4255.388205,370.102971,-8120.612279,-222.061783
4255.388529,444.123565,-8656.879127,-370.102971
4255.388853,444.123565,-8350.440928,-370.102971
4255.389178,370.102971,-8580.269578,0.000000
4255.389502,148.041188,-8427.050478,-518.144159
4255.389826,814.226536,-8810.098227,-444.123565
4255.390150,148.041188,-8273.831378,0.000000
4255.390474,74.020594,-8886.707777,-296.082377
4255.390799,296.082377,-8350.440928,-444.123565
4255.391123,888.247130,-8963.317327,-222.061783
4255.391447,444.123565,-8503.660028,-370.102971
4255.391771,518.144159,-8427.050478,0.000000
4255.392096,518.144159,-8427.050478,-296.082377
4255.392420,518.144159,-8656.879127,0.000000
4255.392744,370.102971,-8580.269578,-666.185348
4255.393068,370.102971,-8733.488677,-444.123565
4255.393392,518.144159,-8656.879127,-296.082377
4255.393717,222.061783,-8350.440928,-518.144159
4255.394041,666.185348,-8580.269578,-296.082377
4255.394365,222.061783,-8427.050478,0.000000
4255.394689,666.185348,-8580.269578,-444.123565
4255.395014,370.102971,-8427.050478,-222.061783
4255.395338,666.185348,-7967.393179,0.000000
4255.395662,222.061783,-8733.488677,-370.102971
4255.395986,444.123565,-8427.050478,-296.082377
4255.396310,592.164754,-8886.707777,-518.144159
4255.396635,444.123565,-8503.660028,-518.144159
4255.396959,592.164754,-8273.831378,-148.041188
4255.397283,222.061783,-8427.050478,-518.144159
4255.397607,296.082377,-8810.098227,-296.082377
4255.397931,518.144159,-8733.488677,-444.123565
4255.398256,74.020594,-8427.050478,-222.061783
4255.398580,444.123565,-8580.269578,0.000000
4255.398904,444.123565,-8733.488677,-296.082377
4255.399228,444.123565,-8580.269578,-296.082377
4255.399553,592.164754,-8120.612279,-222.061783
4255.399877,518.144159,-8810.098227,-222.061783
4255.400201,592.164754,-8580.269578,-444.123565
4255.400525,296.082377,-8656.879127,-444.123565
4255.400849,444.123565,-8503.660028,-296.082377
4255.401174,444.123565,-8580.269578,-222.061783
4255.401498,444.123565,-8503.660028,-444.123565
4255.401822,0.000000,-8810.098227,-222.061783
4255.402146,-666.185348,-8503.660028,-666.185348
4255.402471,-888.247130,-9269.755526,-370.102971
4255.402795,-1628.453072,-8350.440928,-740.205942
4255.403119,-2294.638420,-8810.098227,-222.061783
4255.403443,-2220.617826,-8427.050478,-592.164754
4255.403767,-1850.514855,-8656.879127,0.000000
4255.404092,-1480.411884,-8273.831378,-444.123565
4255.404416,-1184.329507,-8886.707777,-444.123565
4255.404740,-592.164754,-8350.440928,-370.102971
4255.405064,-1184.329507,-8503.660028,-222.061783
4255.405389,-1110.308913,-8427.050478,-592.164754
4255.405713,-2368.659014,-8580.269578,-518.144159
4255.406037,-2812.782580,-8810.098227,-296.082377
4255.406361,-3404.947333,-8580.269578,-518.144159
4255.406685,-3108.864956,-9039.926876,0.000000
4255.407010,-3182.885551,-8810.098227,-222.061783
4255.407334,-2664.741391,-8580.269578,-296.082377
4255.407658,-2368.659014,-8733.488677,-444.123565
4255.407982,-1332.370696,-8350.440928,-74.020594
4255.408306,-1480.411884,-8580.269578,-296.082377
4255.408631,-1554.432478,-9116.536426,-518.144159
4255.408955,-2738.761985,-8886.707777,-444.123565
4255.409279,-3404.947333,-9039.926876,-148.041188
4255.409603,-3330.926739,-8963.317327,-666.185348
4255.409928,-3849.070898,-9039.926876,74.020594
4255.410252,-4071.132681,-8656.879127,-444.123565
4255.410576,-3701.029710,-8963.317327,0.000000
4255.410900,-2516.700203,-8810.098227,296.082377
4255.411224,-2146.597232,-8810.098227,-370.102971
4255.411549,-1480.411884,-8197.221829,-592.164754
4255.411873,-1258.350101,-8427.050478,-370.102971
4255.412197,-1480.411884,-8963.317327,-370.102971
4255.412521,-2294.638420,-8427.050478,-370.102971
4255.412846,-2072.576638,-9116.536426,222.061783
4255.413170,-2738.761985,-8503.660028,-370.102971
4255.413494,-2960.823768,-8733.488677,0.000000
4255.413818,-1850.514855,-8656.879127,-148.041188
4255.414142,-1924.535449,-8503.660028,-222.061783
4255.414467,-1406.391290,-8503.660028,-592.164754
4255.414791,-666.185348,-8350.440928,-888.247130
4255.415115,-1480.411884,-8350.440928,74.020594
4255.415439,-1332.370696,-7814.174080,-888.247130
4255.415764,-2146.597232,-8427.050478,-296.082377
4255.416088,-2368.659014,-8120.612279,-296.082377
4255.416412,-2516.700203,-8503.660028,-444.123565
4255.416736,-2442.679609,-8044.002729,-222.061783
4255.417060,-1998.556043,-8580.269578,-518.144159
4255.417385,-1258.350101,-8886.707777,-296.082377
4255.417709,-1036.288319,-8120.612279,-814.226536
4255.418033,-222.061783,-8580.269578,-296.082377
4255.418357,-370.102971,-7814.174080,-1110.308913
4255.418681,0.000000,-8886.707777,-222.061783
4255.419006,148.041188,-7967.393179,-740.205942
4255.419330,-148.041188,-8044.002729,148.041188
4255.419654,-518.144159,-8350.440928,-666.185348
4255.419978,-148.041188,-9116.536426,-148.041188
4255.420303,0.000000,-8273.831378,-296.082377
4255.420627,518.144159,-9116.536426,-444.123565
4255.420951,888.247130,-8810.098227,-296.082377
4255.421275,1702.473667,-8810.098227,-444.123565
4255.421599,1554.432478,-8810.098227,-814.226536
4255.421924,1036.288319,-8580.269578,-814.226536
4255.422248,592.164754,-9422.974625,-222.061783
4255.422572,-444.123565,-9116.536426,-666.185348
4255.422896,-1554.432478,-9499.584175,-444.123565
4255.423221,-2516.700203,-8886.707777,-444.123565
4255.423545,-3701.029710,-8656.879127,0.000000
4255.423869,-3034.844362,-8733.488677,-296.082377
4255.424193,-3034.844362,-8810.098227,-444.123565
4255.424517,-2590.720797,-8503.660028,-222.061783
4255.424842,-1258.350101,-8273.831378,-814.226536
4255.425166,-592.164754,-8580.269578,-962.267725
4255.425490,-740.205942,-8427.050478,-962.267725
4255.425814,-962.267725,-8656.879127,-592.164754
4255.426138,-1998.556043,-8810.098227,-666.185348
4255.426463,-1332.370696,-9116.536426,0.000000
4255.426787,-2442.679609,-8963.317327,-592.164754
4255.427111,-2368.659014,-9193.145976,222.061783
4255.427435,-2220.617826,-8580.269578,-592.164754
4255.427760,-1406.391290,-9806.022374,0.000000
4255.428084,-666.185348,-7737.564530,-962.267725
4255.428408,-444.123565,-9039.926876,0.000000
4255.428732,148.041188,-7967.393179,-814.226536
4255.429056,370.102971,-9039.926876,-444.123565
4255.429381,-1184.329507,-8656.879127,-444.123565
4255.429705,-2220.617826,-8963.317327,74.020594
4255.430029,-3997.112087,-8886.707777,0.000000
4255.430353,-4737.318029,-9039.926876,0.000000
4255.430678,-4515.256246,-8963.317327,148.041188
4255.431002,-4885.359217,-8656.879127,0.000000
4255.431326,-3701.029710,-8656.879127,222.061783
4255.431650,-2368.659014,-7967.393179,370.102971
4255.431974,-370.102971,-8427.050478,0.000000
4255.432299,74.020594,-7814.174080,-370.102971
4255.432623,1184.329507,-8656.879127,444.123565
4255.432947,444.123565,-7814.174080,-148.041188
4255.433271,-888.247130,-9422.974625,814.226536
4255.433596,-814.226536,-9116.536426,0.000000
4255.433920,-2590.720797,-9882.631924,148.041188
4255.434244,-4589.276840,-9193.145976,370.102971
4255.434568,-5551.544565,-9269.755526,-222.061783
4255.434892,-5625.565159,-8963.317327,-1110.308913
4255.435217,-4885.359217,-8810.098227,-222.061783
4255.435541,-3775.050304,-8120.612279,-1110.308913
4255.435865,-2368.659014,-7890.783629,-666.185348
4255.436189,-962.267725,-7354.516781,-444.123565
4255.436513,1480.411884,-8273.831378,-222.061783
4255.436838,2368.659014,-8197.221829,0.000000
4255.437162,2368.659014,-7890.783629,0.000000
4255.437486,2368.659014,-8273.831378,1036.288319
4255.437810,1332.370696,-8273.831378,-148.041188
4255.438135,962.267725,-9576.193725,-370.102971
4255.438459,-814.226536,-8197.221829,-888.247130
4255.438783,-2590.720797,-9422.974625,-814.226536
4255.439107,-4219.173869,-8733.488677,-1924.535449
4255.439431,-5699.585753,-8656.879127,-1998.556043
4255.439756,-5625.565159,-7507.735880,-1332.370696
4255.440080,-4441.235652,-7660.954980,-1702.473667
4255.440404,-1924.535449,-7967.393179,-296.082377
4255.440728,444.123565,-6818.249932,0.000000
4255.441053,2812.782580,-7967.393179,0.000000
4255.441377,4071.132681,-8197.221829,0.000000
4255.441701,4885.359217,-9422.974625,0.000000
4255.442025,5255.462188,-9422.974625,-148.041188
4255.442349,1924.535449,-10035.851024,-962.267725
4255.442674,-1776.494261,-9882.631924,-370.102971
4255.442998,-5403.503377,-9499.584175,-518.144159
4255.443322,-6365.771101,-10035.851024,-592.164754
4255.443646,-6661.853478,-8120.612279,-222.061783
4255.443971,-6661.853478,-7124.688131,-592.164754
4255.444295,-3478.967927,-7277.907231,-444.123565
4255.444619,296.082377,-7431.126331,-148.041188
4255.444943,4293.194464,-6971.469032,-1036.288319
4255.445268,7105.977043,-7737.564530,-222.061783
4255.445592,6957.935855,-7660.954980,-962.267725
4255.445916,5921.647536,-10265.679673,-666.185348
4255.446241,592.164754,-10648.727422,-1184.329507
4255.446565,-4663.297435,-11414.822920,-962.267725
4255.446890,-7698.141797,-10572.117872,-1480.411884
4255.447214,-11251.130318,-10878.556072,-222.061783
4255.447538,-13545.768739,-8733.488677,-814.226536
4255.447863,-11103.089130,-8197.221829,444.123565
4255.448187,-5329.482782,-6358.592633,-444.123565
4255.448512,0.000000,-6052.154434,-370.102971
4255.448836,6217.729913,-5515.887586,-74.020594
4255.449161,9474.636058,-7048.078582,0.000000
4255.449485,8734.430116,-7354.516781,-74.020594
4255.449809,6439.791695,-7967.393179,148.041188
4255.450134,1480.411884,-10342.289223,222.061783
4255.450458,-4515.256246,-11031.775171,518.144159
4255.450783,-8956.491898,-11721.261119,370.102971
4255.451107,-11621.233289,-11414.822920,962.267725
4255.451431,-10807.006753,-9882.631924,0.000000
4255.451756,-7550.100608,-8810.098227,-1258.350101
4255.452080,-4515.256246,-8120.612279,0.000000
4255.452405,0.000000,-5745.716235,-296.082377
4255.452729,4515.256246,-6205.373534,-592.164754
4255.453053,5329.482782,-6052.154434,-888.247130
4255.453378,3108.864956,-6665.030833,222.061783
4255.453702,1110.308913,-7737.564530,74.020594
4255.454027,-2294.638420,-9959.241474,592.164754
4255.454351,-6661.853478,-10572.117872,666.185348
4255.454676,-7550.100608,-11184.994271,1850.514855
4255.455000,-7772.162391,-9882.631924,740.205942
4255.455324,-5107.421000,-10189.070123,222.061783
4255.455649,-2442.679609,-9116.536426,-1406.391290
4255.455973,0.000000,-8656.879127,-1036.288319
4255.456298,814.226536,-6128.763984,-1776.494261
4255.456622,814.226536,-7431.126331,0.000000
4255.456946,1998.556043,-5975.544884,222.061783
4255.457271,888.247130,-6818.249932,-444.123565
4255.457595,2368.659014,-7967.393179,1480.411884
4255.457920,296.082377,-8503.660028,814.226536
4255.458244,-2072.576638,-10801.946522,-444.123565
4255.458569,-3034.844362,-11338.213370,-962.267725
4255.458893,-3701.029710,-9193.145976,-2146.597232
4255.459217,-4663.297435,-11261.603821,-1406.391290
4255.459542,-2812.782580,-8580.269578,-2442.679609
4255.459866,-2294.638420,-8810.098227,0.000000
4255.460191,-2368.659014,-5745.716235,-1258.350101
4255.460515,2590.720797,-7507.735880,1332.370696
4255.460839,3478.967927,-6052.154434,74.020594
4255.461164,2368.659014,-7431.126331,518.144159
4255.461488,2960.823768,-7124.688131,-814.226536
4255.461813,-518.144159,-8963.317327,-666.185348
4255.462137,-1258.350101,-9116.536426,-1554.432478
4255.462461,-3478.967927,-9652.803275,-1924.535449
4255.462786,-3701.029710,-10342.289223,-1258.350101
4255.463110,-3478.967927,-9652.803275,-1110.308913
4255.463435,-3108.864956,-10418.898773,-1406.391290
4255.463759,-3701.029710,-9499.584175,-2146.597232
4255.464084,-1924.535449,-8963.317327,-1036.288319
4255.464408,-1184.329507,-7431.126331,-888.247130
4255.464732,-888.247130,-7584.345430,888.247130
4255.465057,-444.123565,-6741.640382,1110.308913
4255.465381,1184.329507,-6665.030833,-370.102971
4255.465706,2368.659014,-8810.098227,-148.041188
4255.466030,1776.494261,-7354.516781,-1480.411884
4255.466354,814.226536,-9499.584175,-962.267725
4255.466679,-1554.432478,-8810.098227,-1554.432478
4255.467003,-2886.803174,-10725.336972,-740.205942
4255.467328,-3849.070898,-9576.193725,-962.267725
4255.467652,-2220.617826,-10572.117872,592.164754
4255.467977,-2146.597232,-8044.002729,-592.164754
4255.468301,-1036.288319,-8733.488677,0.000000
4255.468625,-1036.288319,-8350.440928,-148.041188
4255.468950,0.000000,-7737.564530,296.082377
4255.469274,-1554.432478,-6358.592633,-444.123565
4255.469599,-2738.761985,-6971.469032,-370.102971
4255.469923,-3034.844362,-7967.393179,-518.144159
4255.470247,-2886.803174,-9729.412825,-592.164754
4255.470572,814.226536,-9729.412825,-814.226536
4255.470896,-1776.494261,-9269.755526,740.205942
4255.471221,-2294.638420,-10418.898773,370.102971
4255.471545,-2442.679609,-9652.803275,1036.288319
4255.471869,-962.267725,-9806.022374,1998.556043
4255.472194,518.144159,-6971.469032,962.267725
4255.472518,2368.659014,-7737.564530,1184.329507
4255.472843,1776.494261,-7354.516781,-592.164754
4255.473167,2220.617826,-9652.803275,1258.350101
4255.473492,148.041188,-6894.859482,-666.185348
4255.473816,-2368.659014,-8810.098227,-962.267725
4255.474140,-1554.432478,-8350.440928,-1184.329507
4255.474465,-1406.391290,-8580.269578,518.144159
4255.474789,-370.102971,-9116.536426,148.041188
4255.475114,1702.473667,-9193.145976,1110.308913
4255.475438,1332.370696,-9039.926876,592.164754
4255.475762,2442.679609,-9652.803275,148.041188
4255.476087,2960.823768,-8580.269578,-888.247130
4255.476411,3478.967927,-9116.536426,-222.061783
4255.476736,3478.967927,-7354.516781,74.020594
4255.477060,2886.803174,-7201.297681,-592.164754
4255.477384,2072.576638,-7737.564530,-296.082377
4255.477709,592.164754,-6665.030833,-962.267725
4255.478033,-1406.391290,-8733.488677,0.000000
4255.478358,-592.164754,-9193.145976,-666.185348
4255.478682,1332.370696,-8963.317327,-1036.288319
4255.479007,-2294.638420,-8273.831378,-1628.453072
4255.479331,592.164754,-9269.755526,1332.370696
4255.479655,3627.009116,-8120.612279,222.061783
4255.479980,6217.729913,-9806.022374,-518.144159
4255.480304,8438.347739,-10648.727422,370.102971
4255.480629,5921.647536,-7201.297681,-2664.741391
4255.480953,3182.885551,-9499.584175,148.041188
4255.481277,2738.761985,-7201.297681,-1628.453072
4255.481602,814.226536,-9806.022374,518.144159
4255.481926,-666.185348,-7737.564530,-1850.514855
4255.482251,0.000000,-9499.584175,-740.205942
4255.482575,-4219.173869,-8733.488677,-814.226536
4255.482900,-3034.844362,-8733.488677,-1924.535449
4255.483224,-370.102971,-9882.631924,-518.144159
4255.483548,-888.247130,-8963.317327,-2368.659014
4255.483873,3034.844362,-9116.536426,74.020594
4255.484197,4959.379811,-6588.421283,-1850.514855
4255.484522,5921.647536,-10265.679673,148.041188
4255.484846,6883.915261,-8273.831378,-1036.288319
4255.485170,222.061783,-9576.193725,-2368.659014
4255.485495,1184.329507,-11031.775171,74.020594
4255.485819,-2738.761985,-7201.297681,-2368.659014
4255.486144,-5551.544565,-11108.384721,2442.679609
4255.486468,-4663.297435,-5822.325785,-370.102971
4255.486792,-3552.988522,-11338.213370,296.082377
4255.487117,-2368.659014,-8733.488677,-592.164754
4255.487441,-2368.659014,-7431.126331,-1480.411884
4255.487766,-1924.535449,-8580.269578,-148.041188
4255.488090,-148.041188,-7201.297681,-518.144159
4255.488415,1998.556043,-7814.174080,148.041188
4255.488739,3627.009116,-9039.926876,1406.391290
4255.489063,2072.576638,-8044.002729,-296.082377
4255.489388,2146.597232,-9652.803275,148.041188
4255.489712,148.041188,-7890.783629,370.102971
4255.490037,-1776.494261,-9959.241474,444.123565
4255.490361,-2368.659014,-8197.221829,-962.267725
4255.490685,-3775.050304,-9499.584175,888.247130
4255.491010,-2368.659014,-7814.174080,148.041188
4255.491334,-1332.370696,-7431.126331,148.041188
4255.491659,-2294.638420,-7354.516781,0.000000
4255.491983,740.205942,-7660.954980,-444.123565
4255.492307,370.102971,-6818.249932,-666.185348
4255.492632,1036.288319,-8427.050478,-1110.308913
4255.492956,592.164754,-7354.516781,740.205942
4255.493281,1332.370696,-8427.050478,-222.061783
4255.493605,1184.329507,-8120.612279,222.061783
4255.493930,1332.370696,-9346.365076,1332.370696
4255.494254,3627.009116,-8656.879127,444.123565
4255.494578,814.226536,-9346.365076,-1850.514855
4255.494903,-148.041188,-8963.317327,-1036.288319
4255.495227,-1850.514855,-9039.926876,370.102971
4255.495552,-1184.329507,-8120.612279,-740.205942
4255.495876,-666.185348,-8044.002729,814.226536
4255.496200,-1036.288319,-7737.564530,-814.226536
4255.496525,-814.226536,-9499.584175,-444.123565
4255.496849,2146.597232,-9346.365076,-1998.556043
4255.497174,222.061783,-7737.564530,-888.247130
4255.497498,1110.308913,-8197.221829,-962.267725
4255.497823,3404.947333,-8733.488677,0.000000
4255.498147,1332.370696,-8350.440928,222.061783
4255.498471,4589.276840,-9806.022374,222.061783
4255.498796,3775.050304,-8580.269578,-1184.329507
4255.499120,2664.741391,-9576.193725,-1184.329507
4255.499445,2886.803174,-9422.974625,-518.144159
4255.499769,888.247130,-9499.584175,-444.123565
4255.500093,148.041188,-9193.145976,0.000000
4255.500418,1406.391290,-7431.126331,370.102971
4255.500742,0.000000,-7354.516781,-148.041188
4255.501067,1998.556043,-7967.393179,-1184.329507
4255.501391,1184.329507,-8197.221829,-1258.350101
4255.501715,1628.453072,-9576.193725,-1184.329507
4255.502040,-962.267725,-8886.707777,-2738.761985
4255.502364,444.123565,-9269.755526,-888.247130
4255.502689,666.185348,-8273.831378,444.123565
4255.503013,1628.453072,-8886.707777,-444.123565
4255.503338,4219.173869,-10572.117872,-592.164754
4255.503662,2294.638420,-8580.269578,-814.226536
4255.503986,814.226536,-10035.851024,-740.205942
4255.504311,-222.061783,-9959.241474,-1036.288319
4255.504635,-1184.329507,-9576.193725,740.205942
4255.504960,1036.288319,-8427.050478,666.185348
4255.505284,-888.247130,-7890.783629,-888.247130
4255.505608,-1924.535449,-9422.974625,74.020594
4255.505933,592.164754,-7354.516781,-740.205942
4255.506257,-1554.432478,-8427.050478,-1332.370696
4255.506582,370.102971,-8733.488677,-1332.370696
4255.506906,666.185348,-8580.269578,1480.411884
4255.507230,-1110.308913,-7354.516781,0.000000
4255.507555,888.247130,-8963.317327,-370.102971
4255.507879,4589.276840,-8580.269578,0.000000
4255.508204,2368.659014,-9576.193725,0.000000
4255.508528,1480.411884,-8350.440928,-666.185348
4255.508853,296.082377,-9269.755526,1036.288319
4255.509177,-1554.432478,-9193.145976,1110.308913
4255.509501,-370.102971,-7814.174080,370.102971
4255.509826,0.000000,-8427.050478,1702.473667
4255.510150,-1480.411884,-6281.983084,0.000000
4255.510475,-2220.617826,-8503.660028,-1702.473667
4255.510799,-2072.576638,-9576.193725,-666.185348
4255.511123,-2812.782580,-8273.831378,0.000000
4255.511448,-1628.453072,-7584.345430,1406.391290
4255.511772,370.102971,-7354.516781,222.061783
4255.512097,1110.308913,-8810.098227,0.000000
4255.512421,3627.009116,-7124.688131,740.205942
4255.512746,3923.091493,-10035.851024,592.164754
4255.513070,3108.864956,-9116.536426,-518.144159
4255.513394,518.144159,-8580.269578,296.082377
4255.513719,296.082377,-10035.851024,518.144159
4255.514043,-2812.782580,-8197.221829,74.020594
4255.514368,-2960.823768,-9116.536426,148.041188
4255.514692,-444.123565,-9499.584175,-740.205942
4255.515016,-1110.308913,-8197.221829,-814.226536
4255.515341,-1406.391290,-8810.098227,-962.267725
4255.515665,-1480.411884,-8197.221829,-814.226536
4255.515990,0.000000,-7201.297681,-666.185348
4255.516314,1258.350101,-6894.859482,-370.102971
4255.516638,5255.462188,-8120.612279,-444.123565
4255.516963,2738.761985,-8273.831378,-222.061783
4255.517287,3478.967927,-8656.879127,-444.123565
4255.517612,4071.132681,-9729.412825,-148.041188
4255.517936,2368.659014,-9499.584175,-1258.350101
4255.518261,1332.370696,-9039.926876,-592.164754
4255.518585,-740.205942,-8733.488677,-666.185348
4255.518909,-888.247130,-9576.193725,518.144159
4255.519234,-666.185348,-6971.469032,-222.061783
4255.519558,-1776.494261,-8580.269578,-1184.329507
4255.519883,-74.020594,-8580.269578,-1924.535449
4255.520207,-2294.638420,-8503.660028,-2294.638420
4255.520531,1036.288319,-9116.536426,-1924.535449
4255.520856,-296.082377,-7124.688131,-222.061783
4255.521180,888.247130,-7660.954980,-296.082377
4255.521505,3182.885551,-9039.926876,-1184.329507
4255.521829,2960.823768,-8503.660028,-740.205942
4255.522153,4293.194464,-10878.556072,-592.164754
4255.522478,4515.256246,-9806.022374,-1702.473667
4255.522802,1628.453072,-9729.412825,-1554.432478
4255.523127,2220.617826,-9346.365076,222.061783
4255.523451,-1258.350101,-7507.735880,296.082377
4255.523776,-1258.350101,-8427.050478,-222.061783
4255.524100,-814.226536,-8427.050478,0.000000
4255.524424,-1702.473667,-8886.707777,-888.247130
4255.524749,-1924.535449,-7967.393179,-1924.535449
4255.525073,-1406.391290,-8427.050478,0.000000
4255.525398,0.000000,-7201.297681,-222.061783
4255.525722,666.185348,-8733.488677,-296.082377
4255.526046,2812.782580,-9039.926876,-222.061783
4255.526371,2146.597232,-9039.926876,-1184.329507
4255.526695,2294.638420,-9193.145976,0.000000
4255.527020,962.267725,-9576.193725,-222.061783
4255.527344,962.267725,-9806.022374,0.000000
4255.527669,-666.185348,-9116.536426,0.000000
4255.527993,-3256.906145,-7354.516781,1184.329507
4255.528317,-1702.473667,-7967.393179,888.247130
4255.528642,-1036.288319,-6971.469032,-1258.350101
4255.528966,-148.041188,-8503.660028,296.082377
4255.529291,0.000000,-8350.440928,-1036.288319
4255.529615,-2072.576638,-8580.269578,0.000000
4255.529939,0.000000,-7431.126331,-740.205942
4255.530264,-666.185348,-8503.660028,222.061783
4255.530588,-296.082377,-7277.907231,296.082377
4255.530913,1480.411884,-8886.707777,296.082377
4255.531237,1258.350101,-9729.412825,444.123565
4255.531561,592.164754,-9346.365076,-962.267725
4255.531886,148.041188,-9422.974625,0.000000
4255.532210,-1480.411884,-8503.660028,0.000000
4255.532535,222.061783,-8273.831378,296.082377
4255.532859,-296.082377,-7354.516781,666.185348
4255.533184,-1702.473667,-7431.126331,1036.288319
4255.533508,-3182.885551,-7737.564530,-666.185348
4255.533832,0.000000,-9269.755526,-222.061783
4255.534157,0.000000,-8120.612279,-2146.597232
4255.534481,740.205942,-8886.707777,-148.041188
4255.534806,1110.308913,-7890.783629,740.205942
4255.535130,1480.411884,-7048.078582,518.144159
4255.535454,3997.112087,-8044.002729,740.205942
4255.535779,4367.215058,-8273.831378,0.000000
4255.536103,2294.638420,-9116.536426,222.061783
4255.536428,1702.473667,-9729.412825,-1776.494261
4255.536752,518.144159,-9422.974625,0.000000
4255.537076,-1110.308913,-9269.755526,-962.267725
4255.537401,148.041188,-9729.412825,370.102971
4255.537725,-1554.432478,-8197.221829,-370.102971
4255.538050,-3849.070898,-8580.269578,222.061783
4255.538374,-2516.700203,-8886.707777,-2368.659014
4255.538699,444.123565,-9806.022374,-1480.411884
4255.539023,-1332.370696,-7660.954980,-2294.638420
4255.539347,814.226536,-8656.879127,-370.102971
4255.539672,296.082377,-7584.345430,-1258.350101
4255.539996,2368.659014,-8656.879127,74.020594
4255.540321,5995.668130,-8503.660028,0.000000
4255.540645,3108.864956,-10265.679673,-1480.411884
4255.540969,4145.153275,-8810.098227,-1406.391290
4255.541294,1036.288319,-8963.317327,0.000000
4255.541618,0.000000,-7890.783629,-666.185348
4255.541943,-1258.350101,-8427.050478,-518.144159
4255.542267,1110.308913,-8350.440928,-296.082377
4255.542592,814.226536,-8044.002729,-592.164754
4255.542916,-1036.288319,-9039.926876,-1628.453072
4255.543240,-1554.432478,-8427.050478,-2664.741391
4255.543565,-1036.288319,-9193.145976,-1332.370696
4255.543889,-740.205942,-8120.612279,-1850.514855
4255.544214,888.247130,-8273.831378,814.226536
4255.544538,3478.967927,-7814.174080,222.061783
4255.544862,4589.276840,-8656.879127,-222.061783
4255.545187,3256.906145,-9039.926876,-740.205942
4255.545511,3627.009116,-10495.508323,-1998.556043
4255.545835,2220.617826,-9882.631924,-1184.329507
4255.546160,-666.185348,-9729.412825,0.000000
4255.546484,-962.267725,-8733.488677,296.082377
4255.546808,-2368.659014,-8886.707777,518.144159
4255.547132,-2294.638420,-8044.002729,-814.226536
4255.547457,-814.226536,-9576.193725,-148.041188
4255.547781,-2146.597232,-8656.879127,-1184.329507
4255.548105,-2368.659014,-8963.317327,-1702.473667
4255.548429,-962.267725,-7890.783629,666.185348
4255.548754,-888.247130,-7354.516781,-518.144159
4255.549078,3256.906145,-8503.660028,0.000000
4255.549402,1998.556043,-8044.002729,-518.144159
4255.549726,2516.700203,-9269.755526,888.247130
4255.550051,1628.453072,-9193.145976,-740.205942
4255.550375,2664.741391,-9959.241474,-370.102971
4255.550699,-2368.659014,-9576.193725,148.041188
4255.551023,-1036.288319,-8350.440928,0.000000
4255.551348,-370.102971,-9269.755526,740.205942
4255.551672,-518.144159,-7584.345430,-518.144159
4255.551996,-814.226536,-7890.783629,888.247130
4255.552320,-1110.308913,-7737.564530,-1258.350101
4255.552645,-1628.453072,-8197.221829,-370.102971
4255.552969,-814.226536,-6818.249932,-370.102971
4255.553293,1332.370696,-7660.954980,814.226536
4255.553617,962.267725,-7431.126331,0.000000
4255.553942,1776.494261,-7277.907231,666.185348
4255.554266,2220.617826,-9269.755526,1184.329507
4255.554590,3256.906145,-8656.879127,-444.123565
4255.554914,814.226536,-9882.631924,0.000000
4255.555239,-148.041188,-9269.755526,370.102971
4255.555563,-1258.350101,-9499.584175,814.226536
4255.555887,-1702.473667,-7584.345430,222.061783
4255.556211,-444.123565,-8656.879127,296.082377
4255.556535,-2146.597232,-7354.516781,-518.144159
4255.556860,-1258.350101,-8810.098227,148.041188
4255.557184,-1554.432478,-7048.078582,-1776.494261
4255.557508,296.082377,-8733.488677,-1036.288319
4255.557832,1110.308913,-7967.393179,-296.082377
4255.558157,962.267725,-8580.269578,-888.247130
4255.558481,2368.659014,-9269.755526,0.000000
4255.558805,1850.514855,-8503.660028,-740.205942
4255.559129,3701.029710,-9576.193725,-74.020594
4255.559454,3997.112087,-10725.336972,-592.164754
4255.559778,1110.308913,-10342.289223,-1406.391290
4255.560102,370.102971,-9269.755526,-148.041188
4255.560426,-1480.411884,-8886.707777,74.020594
4255.560751,-1184.329507,-8656.879127,-814.226536
4255.561075,-888.247130,-7584.345430,-370.102971
4255.561399,1184.329507,-9729.412825,-148.041188
4255.561723,-1036.288319,-7277.907231,-3997.112087
4255.562048,74.020594,-10342.289223,-1036.288319
4255.562372,592.164754,-8197.221829,-2516.700203
4255.562696,1184.329507,-8656.879127,962.267725
4255.563020,3256.906145,-7507.735880,-1110.308913
4255.563345,2368.659014,-9806.022374,0.000000
4255.563669,2886.803174,-8427.050478,-222.061783
4255.563993,1776.494261,-9422.974625,-444.123565
4255.564317,740.205942,-9729.412825,-2220.617826
4255.564642,-1184.329507,-9269.755526,0.000000
4255.564966,-740.205942,-8350.440928,666.185348
4255.565290,74.020594,-7660.954980,592.164754
4255.565614,74.020594,-8733.488677,0.000000
4255.565939,-2368.659014,-7737.564530,-1110.308913
4255.566263,444.123565,-8733.488677,-370.102971
4255.566587,-2664.741391,-6128.763984,-2516.700203
4255.566911,1924.535449,-10112.460574,296.082377
4255.567235,666.185348,-7354.516781,0.000000
4255.567560,1184.329507,-9882.631924,0.000000
4255.567884,1258.350101,-6741.640382,-148.041188
4255.568208,962.267725,-8733.488677,370.102971
4255.568532,3034.844362,-9806.022374,-666.185348
4255.568857,888.247130,-8197.221829,-962.267725
4255.569181,74.020594,-10035.851024,222.061783
4255.569505,-444.123565,-7967.393179,1480.411884
4255.569829,-740.205942,-7048.078582,518.144159
4255.570154,2516.700203,-9039.926876,1406.391290
4255.570478,0.000000,-5898.935335,296.082377
4255.570802,-592.164754,-9269.755526,0.000000
4255.571126,-1850.514855,-8427.050478,-1702.473667
4255.571451,-1924.535449,-7584.345430,-740.205942
4255.571775,-1480.411884,-8503.660028,1406.391290
4255.572099,222.061783,-8044.002729,1406.391290
4255.572423,1702.473667,-8503.660028,592.164754
4255.572748,1628.453072,-8963.317327,-1702.473667
4255.573072,3552.988522,-9269.755526,814.226536
4255.573396,1480.411884,-7890.783629,-1850.514855
4255.573720,1702.473667,-10572.117872,370.102971
4255.574045,370.102971,-7277.907231,740.205942
4255.574369,-1998.556043,-10265.679673,888.247130
4255.574693,-1628.453072,-8656.879127,-296.082377
4255.575017,-1850.514855,-8503.660028,-1110.308913
4255.575342,-2072.576638,-9576.193725,-222.061783
4255.575666,-740.205942,-7660.954980,-1776.494261
4255.575990,-1554.432478,-9039.926876,-666.185348
4255.576314,-962.267725,-7737.564530,-962.267725
4255.576638,444.123565,-7660.954980,592.164754
4255.576963,2738.761985,-7431.126331,-1480.411884
4255.577287,2220.617826,-8886.707777,0.000000
4255.577611,2738.761985,-9116.536426,-222.061783
4255.577935,2738.761985,-9652.803275,-1110.308913
4255.578260,2960.823768,-9806.022374,-296.082377
4255.578584,0.000000,-9346.365076,148.041188
4255.578908,-296.082377,-9193.145976,0.000000
4255.579232,-592.164754,-7201.297681,-1184.329507
4255.579557,-814.226536,-8656.879127,-814.226536
4255.579881,222.061783,-8427.050478,-370.102971
4255.580205,0.000000,-8120.612279,-1480.411884
4255.580529,-814.226536,-7967.393179,-2072.576638
4255.580854,888.247130,-8120.612279,-1184.329507
4255.581178,1406.391290,-7660.954980,-962.267725
4255.581502,3849.070898,-8350.440928,-814.226536
4255.581826,3330.926739,-8120.612279,-1184.329507
4255.582151,3997.112087,-8733.488677,296.082377
4255.582475,2294.638420,-9499.584175,-222.061783
4255.582799,2442.679609,-10495.508323,-1998.556043
4255.583123,740.205942,-10342.289223,-1036.288319
4255.583448,370.102971,-9729.412825,296.082377
4255.583772,-296.082377,-8963.317327,148.041188
4255.584096,74.020594,-7967.393179,-814.226536
4255.584420,-1850.514855,-8733.488677,1258.350101
4255.584745,-2072.576638,-8273.831378,-1110.308913
4255.585069,-2368.659014,-8273.831378,-1406.391290
4255.585393,-222.061783,-7354.516781,-1406.391290
4255.585717,-1036.288319,-8656.879127,-518.144159
4255.586042,222.061783,-8733.488677,592.164754
4255.586366,1480.411884,-7354.516781,-592.164754
4255.586690,3034.844362,-9652.803275,1776.494261
4255.587014,3182.885551,-8273.831378,-1110.308913
4255.587338,3256.906145,-10495.508323,-1036.288319
4255.587663,814.226536,-9269.755526,-962.267725
4255.587987,296.082377,-9959.241474,1036.288319
4255.588311,-2220.617826,-8273.831378,1406.391290
4255.588635,-888.247130,-7814.174080,1110.308913
4255.588960,0.000000,-7354.516781,814.226536
4255.589284,-2442.679609,-8503.660028,-444.123565
4255.589608,-1258.350101,-8503.660028,-2072.576638
4255.589932,-2146.597232,-7660.954980,-444.123565
4255.590257,-592.164754,-7124.688131,74.020594
4255.590581,2442.679609,-8580.269578,888.247130
4255.590905,2220.617826,-7890.783629,-1036.288319
4255.591229,2812.782580,-9422.974625,888.247130
4255.591554,3627.009116,-9193.145976,-222.061783
4255.591878,2442.679609,-9116.536426,-222.061783
4255.592202,1628.453072,-9652.803275,0.000000
4255.592526,-1998.556043,-9269.755526,814.226536
4255.592851,-2516.700203,-8044.002729,1110.308913
4255.593175,-2886.803174,-8197.221829,666.185348
4255.593499,666.185348,-7890.783629,-1184.329507
4255.593823,-666.185348,-9116.536426,-962.267725
4255.594148,-1628.453072,-8810.098227,-740.205942
4255.594472,-2738.761985,-6741.640382,-1924.535449
4255.594796,-148.041188,-8886.707777,518.144159
4255.595120,-1036.288319,-7660.954980,-296.082377
4255.595445,1554.432478,-8963.317327,222.061783
4255.595769,1332.370696,-8886.707777,-888.247130
4255.596093,888.247130,-9269.755526,-296.082377
4255.596417,1924.535449,-9652.803275,148.041188
4255.596742,2072.576638,-10189.070123,-1332.370696
4255.597066,0.000000,-9652.803275,-296.082377
4255.597390,-814.226536,-8427.050478,370.102971
4255.597714,1184.329507,-8427.050478,-370.102971
4255.598038,1184.329507,-7660.954980,-1332.370696
4255.598363,-666.185348,-8580.269578,-222.061783
4255.598687,1110.308913,-8044.002729,-370.102971
4255.599011,-1184.329507,-7277.907231,-2442.679609
4255.599335,-814.226536,-9193.145976,-962.267725
4255.599660,0.000000,-7584.345430,-962.267725
4255.599984,2072.576638,-9499.584175,74.020594
4255.600308,2146.597232,-7890.783629,-962.267725
4255.600632,2590.720797,-8503.660028,74.020594
4255.600957,4071.132681,-9882.631924,-740.205942
4255.601281,1850.514855,-9576.193725,-2146.597232
4255.601605,1258.350101,-9499.584175,-370.102971
4255.601929,1110.308913,-8733.488677,148.041188
4255.602254,-518.144159,-7431.126331,0.000000
4255.602578,-888.247130,-8044.002729,296.082377
4255.602902,-2146.597232,-7354.516781,-592.164754
4255.603226,-2368.659014,-8733.488677,-296.082377
4255.603551,0.000000,-7354.516781,-2738.761985
4255.603875,-962.267725,-9729.412825,-1184.329507
4255.604199,370.102971,-7048.078582,-888.247130
4255.604523,1332.370696,-8120.612279,222.061783
4255.604848,3923.091493,-8503.660028,-666.185348
4255.605172,5329.482782,-9729.412825,0.000000
4255.605496,3552.988522,-9116.536426,-444.123565
4255.605820,3997.112087,-9576.193725,-666.185348
4255.606145,2960.823768,-8963.317327,-814.226536
4255.606469,148.041188,-8963.317327,0.000000
4255.606793,0.000000,-7507.735880,666.185348
4255.607117,-518.144159,-7660.954980,1110.308913
4255.607442,-1036.288319,-8580.269578,74.020594
4255.607766,-888.247130,-8656.879127,-444.123565
4255.608090,-2294.638420,-7890.783629,-2072.576638
4255.608414,-2146.597232,-8963.317327,-1406.391290
4255.608738,148.041188,-7660.954980,1036.288319
4255.609063,-1332.370696,-7660.954980,-666.185348
4255.609387,1554.432478,-9499.584175,740.205942
4255.609711,148.041188,-7431.126331,-296.082377
4255.610035,3034.844362,-9576.193725,-740.205942
4255.610360,2812.782580,-8273.831378,888.247130
4255.610684,1406.391290,-8503.660028,-740.205942
4255.611008,222.061783,-10035.851024,222.061783
4255.611332,-1628.453072,-8273.831378,666.185348
4255.611657,-1332.370696,-9193.145976,444.123565
4255.611981,-1850.514855,-7814.174080,0.000000
4255.612305,-3552.988522,-7277.907231,-592.164754
4255.612629,-296.082377,-9269.755526,-962.267725
4255.612954,-1776.494261,-7201.297681,-1110.308913
4255.613278,-888.247130,-7814.174080,666.185348
4255.613602,1110.308913,-7124.688131,370.102971
4255.613926,148.041188,-8503.660028,148.041188
4255.614251,2294.638420,-9193.145976,-740.205942
4255.614575,1554.432478,-8733.488677,0.000000
4255.614899,2590.720797,-9422.974625,-518.144159
4255.615223,1850.514855,-9499.584175,-666.185348
4255.615548,666.185348,-8580.269578,296.082377
4255.615872,0.000000,-8963.317327,-814.226536
4255.616196,-1258.350101,-8273.831378,518.144159
4255.616520,-1184.329507,-8044.002729,-222.061783
4255.616845,0.000000,-8580.269578,-740.205942
4255.617169,-1258.350101,-8580.269578,-518.144159
4255.617493,-1258.350101,-7584.345430,-2146.597232
4255.617817,-1258.350101,-8963.317327,-1850.514855
4255.618142,740.205942,-7814.174080,-148.041188
4255.618466,1332.370696,-9422.974625,-370.102971
4255.618790,2368.659014,-8733.488677,-888.247130
4255.619114,4293.194464,-9346.365076,444.123565
4255.619438,3182.885551,-9729.412825,-814.226536
4255.619763,2812.782580,-9116.536426,-1628.453072
4255.620087,3034.844362,-10035.851024,0.000000
4255.620411,1184.329507,-8810.098227,-518.144159
4255.620735,0.000000,-10418.898773,888.247130
4255.621060,-1332.370696,-7277.907231,-1184.329507
4255.621384,-1480.411884,-8503.660028,518.144159
4255.621708,-1776.494261,-8656.879127,0.000000
4255.622032,-1776.494261,-9116.536426,-3108.864956
4255.622357,-444.123565,-7737.564530,-222.061783
4255.622681,-962.267725,-7354.516781,-1036.288319
4255.623005,1628.453072,-9193.145976,518.144159
4255.623329,3330.926739,-7277.907231,-888.247130
4255.623654,4885.359217,-10648.727422,1332.370696
4255.623978,3478.967927,-8273.831378,-1924.535449
4255.624302,3701.029710,-10265.679673,-444.123565
4255.624626,2368.659014,-8733.488677,-888.247130
4255.624951,370.102971,-9116.536426,592.164754
4255.625275,222.061783,-7967.393179,-222.061783
4255.625599,-740.205942,-8273.831378,1036.288319
4255.625923,370.102971,-7354.516781,666.185348
4255.626248,-518.144159,-6894.859482,-1332.370696
4255.626572,0.000000,-8886.707777,-370.102971
4255.626896,-1036.288319,-7201.297681,-2368.659014
4255.627220,888.247130,-9039.926876,-296.082377
4255.627545,0.000000,-7584.345430,-962.267725
4255.627869,2072.576638,-9806.022374,296.082377
4255.628193,592.164754,-8656.879127,-1258.350101
4255.628517,4145.153275,-9806.022374,1036.288319
4255.628842,3552.988522,-9422.974625,-888.247130
4255.629166,2664.741391,-10112.460574,-1332.370696
4255.629490,-222.061783,-7737.564530,-148.041188
4255.629814,0.000000,-9193.145976,888.247130
4255.630138,74.020594,-8120.612279,0.000000
4255.630463,-370.102971,-7507.735880,0.000000
4255.630787,-1480.411884,-9346.365076,-444.123565
4255.631111,-4293.194464,-8503.660028,-962.267725
4255.631435,-3108.864956,-8350.440928,-1480.411884
4255.631760,-2738.761985,-9116.536426,-666.185348
4255.632084,-2368.659014,-7814.174080,0.000000
4255.632408,-592.164754,-9422.974625,-666.185348
4255.632732,3404.947333,-9422.974625,296.082377
4255.633057,3256.906145,-7584.345430,0.000000
4255.633381,2738.761985,-8656.879127,-1036.288319
4255.633705,2294.638420,-9193.145976,-814.226536
4255.634029,3182.885551,-8886.707777,-1110.308913
4255.634354,0.000000,-9269.755526,444.123565
4255.634678,-2294.638420,-8197.221829,444.123565
4255.635002,-370.102971,-9193.145976,1036.288319
4255.635326,-1406.391290,-7124.688131,-888.247130
4255.635651,-2442.679609,-9806.022374,962.267725
4255.635975,-2072.576638,-8044.002729,-2664.741391
4255.636299,-1776.494261,-9806.022374,-962.267725
4255.636623,-814.226536,-7967.393179,-370.102971
4255.636948,444.123565,-8810.098227,592.164754
4255.637272,2590.720797,-9346.365076,-444.123565
4255.637596,2072.576638,-8273.831378,0.000000
4255.637920,4071.132681,-9422.974625,-148.041188
4255.638245,3478.967927,-9039.926876,-1036.288319
4255.638569,2590.720797,-8963.317327,0.000000
4255.638893,296.082377,-9193.145976,518.144159
4255.639217,-1406.391290,-8733.488677,148.041188
4255.639542,-1776.494261,-8733.488677,518.144159
4255.639866,-1184.329507,-8273.831378,666.185348
4255.640190,-3849.070898,-7507.735880,0.000000
4255.640514,0.000000,-8197.221829,-814.226536
4255.640838,-2738.761985,-8044.002729,-1924.535449
4255.641163,74.020594,-9193.145976,-2368.659014
4255.641487,74.020594,-10418.898773,148.041188
4255.641811,1258.350101,-7201.297681,592.164754
4255.642135,2960.823768,-7814.174080,370.102971
4255.642460,2072.576638,-8427.050478,666.185348
4255.642784,5329.482782,-8350.440928,-1184.329507
4255.643108,3627.009116,-8886.707777,-1406.391290
4255.643432,1480.411884,-9346.365076,222.061783
4255.643757,666.185348,-8733.488677,592.164754
4255.644081,-1702.473667,-7201.297681,0.000000
4255.644405,-148.041188,-9116.536426,814.226536
4255.644729,-1924.535449,-8733.488677,-1184.329507
4255.645054,-1406.391290,-9116.536426,-1184.329507
4255.645378,-1406.391290,-7814.174080,-2294.638420
4255.645702,-2368.659014,-9039.926876,-1406.391290
4255.646026,74.020594,-8197.221829,-814.226536
4255.646351,0.000000,-9039.926876,370.102971
4255.646675,2368.659014,-9652.803275,0.000000
4255.646999,3923.091493,-9116.536426,-1036.288319
4255.647323,2220.617826,-9499.584175,-1480.411884
4255.647648,1850.514855,-9806.022374,-1332.370696
4255.647972,518.144159,-8656.879127,-296.082377
4255.648296,-222.061783,-10189.070123,0.000000
4255.648620,-148.041188,-8197.221829,1184.329507
4255.648944,-1036.288319,-7507.735880,0.000000
4255.649269,-962.267725,-9116.536426,296.082377
4255.649593,-1332.370696,-7890.783629,-1258.350101
4255.649917,-2886.803174,-8963.317327,-1554.432478
4255.650241,-1554.432478,-7354.516781,-888.247130
4255.650566,0.000000,-8197.221829,-1110.308913
4255.650890,-222.061783,-8273.831378,222.061783
4255.651214,2886.803174,-8733.488677,-518.144159
4255.651538,3478.967927,-9039.926876,-1998.556043
4255.651863,3627.009116,-8427.050478,-222.061783
4255.652187,2590.720797,-7814.174080,222.061783
4255.652511,2368.659014,-9729.412825,-1258.350101
4255.652835,0.000000,-9806.022374,1480.411884
4255.653160,0.000000,-8197.221829,-296.082377
4255.653484,-1036.288319,-8886.707777,518.144159
4255.653808,-2664.741391,-7507.735880,-592.164754
4255.654132,-3923.091493,-9729.412825,296.082377
4255.654456,-1184.329507,-7354.516781,-1258.350101
4255.654781,-2368.659014,-9576.193725,-1628.453072
4255.655105,-1184.329507,-7890.783629,-296.082377
4255.655429,-1110.308913,-7660.954980,222.061783
4255.655753,2368.659014,-9576.193725,0.000000
4255.656078,3404.947333,-9652.803275,1184.329507
4255.656402,2886.803174,-7660.954980,-1776.494261
4255.656726,4145.153275,-10112.460574,888.247130
4255.657050,1332.370696,-7660.954980,-1036.288319
4255.657375,2368.659014,-11568.042020,962.267725
4255.657699,-592.164754,-7660.954980,-592.164754
4255.658023,-2294.638420,-8810.098227,1406.391290
4255.658347,-2516.700203,-7507.735880,0.000000
4255.658672,-1480.411884,-7967.393179,0.000000
4255.658996,-1110.308913,-9422.974625,0.000000
4255.659320,-2368.659014,-6971.469032,-962.267725
4255.659644,-1036.288319,-8656.879127,-962.267725
4255.659968,0.000000,-8733.488677,-1184.329507
4255.660293,2368.659014,-8963.317327,-222.061783
4255.660617,2072.576638,-8044.002729,74.020594
4255.660941,3256.906145,-8350.440928,1184.329507
4255.661265,4441.235652,-9729.412825,-148.041188
4255.661590,2072.576638,-9882.631924,296.082377
4255.661914,222.061783,-8886.707777,-1258.350101
4255.662238,1110.308913,-9422.974625,-222.061783
4255.662562,-1406.391290,-7660.954980,1110.308913
4255.662887,-1554.432478,-7354.516781,814.226536
4255.663211,222.061783,-8427.050478,0.000000
4255.663535,-2368.659014,-7814.174080,-1184.329507
4255.663859,-444.123565,-8273.831378,-740.205942
4255.664184,74.020594,-7967.393179,-2368.659014
4255.664508,1776.494261,-9269.755526,296.082377
4255.664832,740.205942,-7277.907231,0.000000
4255.665156,4737.318029,-9652.803275,-666.185348
4255.665480,2812.782580,-7967.393179,-518.144159
4255.665805,3552.988522,-9652.803275,-370.102971
4255.666129,3849.070898,-10112.460574,-1110.308913
4255.666453,2072.576638,-9193.145976,-1258.350101
4255.666777,-1332.370696,-9499.584175,0.000000
4255.667102,-1702.473667,-7584.345430,148.041188
4255.667426,-1628.453072,-8656.879127,740.205942
4255.667750,-888.247130,-7277.907231,-1480.411884
4255.668074,-1184.329507,-8963.317327,666.185348
4255.668399,-1480.411884,-7354.516781,-2812.782580
4255.668723,-444.123565,-8427.050478,-1110.308913
4255.669047,592.164754,-8427.050478,-740.205942
4255.669371,888.247130,-8963.317327,0.000000
4255.669695,3330.926739,-7890.783629,-518.144159
4255.670020,2812.782580,-9039.926876,0.000000
4255.670344,2664.741391,-9729.412825,-740.205942
4255.670668,1258.350101,-9729.412825,-1480.411884
4255.670992,370.102971,-10418.898773,-592.164754
4255.671317,-3701.029710,-7967.393179,296.082377
4255.671641,-2072.576638,-8963.317327,148.041188
4255.671965,-1628.453072,-8197.221829,296.082377
4255.672289,0.000000,-8503.660028,-296.082377
4255.672614,-444.123565,-8427.050478,-1036.288319
4255.672938,1036.288319,-8120.612279,-1628.453072
4255.673262,-222.061783,-8273.831378,-1110.308913
4255.673586,2442.679609,-7967.393179,-444.123565
4255.673911,0.000000,-7431.126331,222.061783
4255.674235,1850.514855,-8733.488677,-148.041188
4255.674559,2516.700203,-8580.269578,-296.082377
4255.674883,2368.659014,-9346.365076,222.061783
4255.675207,2590.720797,-9729.412825,-148.041188
4255.675532,148.041188,-9499.584175,-444.123565
4255.675856,-1776.494261,-9729.412825,296.082377
4255.676180,-962.267725,-7890.783629,0.000000
4255.676504,-2294.638420,-8273.831378,888.247130
4255.676829,-518.144159,-8886.707777,-222.061783
4255.677153,-296.082377,-7354.516781,-222.061783
4255.677477,-1184.329507,-8580.269578,-370.102971
4255.677801,-518.144159,-7201.297681,-1036.288319
4255.678126,-1554.432478,-8656.879127,-444.123565
4255.678450,-1036.288319,-8044.002729,-518.144159
4255.678774,592.164754,-8810.098227,148.041188
4255.679098,2368.659014,-7967.393179,148.041188
4255.679423,3775.050304,-9193.145976,-814.226536
4255.679747,3849.070898,-9576.193725,592.164754
4255.680071,2590.720797,-8886.707777,-740.205942
4255.680395,3627.009116,-9652.803275,-296.082377
4255.680719,1184.329507,-8503.660028,0.000000
4255.681044,-370.102971,-8503.660028,1406.391290
4255.681368,-148.041188,-6971.469032,-444.123565
4255.681692,-1628.453072,-9193.145976,0.000000
4255.682016,-1776.494261,-8427.050478,-814.226536
4255.682341,-3478.967927,-8810.098227,-1776.494261
4255.682665,-1332.370696,-8120.612279,-2146.597232
4255.682989,-1110.308913,-8810.098227,-592.164754
4255.683313,-740.205942,-9116.536426,-666.185348
4255.683638,2368.659014,-7354.516781,-296.082377
4255.683962,3404.947333,-8427.050478,370.102971
4255.684286,3849.070898,-8197.221829,-444.123565
4255.684610,3849.070898,-9652.803275,-1406.391290
4255.684935,2368.659014,-9499.584175,-1036.288319
4255.685259,1480.411884,-10035.851024,74.020594
4255.685583,-1332.370696,-8273.831378,-370.102971
4255.685907,-148.041188,-8197.221829,666.185348
4255.686231,-2590.720797,-8197.221829,0.000000
4255.686556,-2812.782580,-9193.145976,-222.061783
4255.686880,-1480.411884,-8197.221829,-2220.617826
4255.687204,-2368.659014,-8580.269578,-1702.473667
4255.687528,0.000000,-8350.440928,-1850.514855
4255.687853,148.041188,-7890.783629,222.061783
4255.688177,5181.441594,-9116.536426,-740.205942
4255.688501,5329.482782,-8810.098227,-1628.453072
4255.688825,4367.215058,-9806.022374,-518.144159
4255.689150,4663.297435,-10418.898773,-444.123565
4255.689474,2738.761985,-9422.974625,-1998.556043
4255.689798,-1924.535449,-9346.365076,-518.144159
4255.690122,-2294.638420,-10342.289223,444.123565
4255.690447,-3034.844362,-8886.707777,1554.432478
4255.690771,-2516.700203,-7354.516781,-962.267725
4255.691095,-1406.391290,-9499.584175,888.247130
4255.691419,-2146.597232,-7048.078582,-1850.514855
4255.691743,-592.164754,-10035.851024,-1036.288319
4255.692068,-518.144159,-7584.345430,-1628.453072
4255.692392,-222.061783,-7890.783629,518.144159
4255.692716,3404.947333,-9193.145976,888.247130
4255.693040,3775.050304,-8963.317327,-1258.350101
4255.693365,4589.276840,-9116.536426,444.123565
4255.693689,3108.864956,-8503.660028,0.000000
4255.694013,1110.308913,-9422.974625,-740.205942
4255.694337,518.144159,-9576.193725,0.000000
4255.694662,-1110.308913,-8656.879127,518.144159
4255.694986,-2516.700203,-7967.393179,1110.308913
4255.695310,-1554.432478,-6281.983084,518.144159
4255.695634,-1702.473667,-8810.098227,222.061783
4255.695959,-1702.473667,-7584.345430,-370.102971
4255.696283,-1332.370696,-8273.831378,-814.226536
4255.696607,-1776.494261,-8963.317327,-2146.597232
4255.696931,518.144159,-8580.269578,1332.370696
4255.697255,1406.391290,-7967.393179,0.000000
4255.697580,3478.967927,-10035.851024,148.041188
4255.697904,2294.638420,-7660.954980,-370.102971
4255.698228,2590.720797,-10418.898773,296.082377
4255.698552,2442.679609,-9039.926876,-1406.391290
4255.698877,2590.720797,-9116.536426,222.061783
4255.699201,-296.082377,-8273.831378,296.082377
4255.699525,518.144159,-8656.879127,1184.329507
4255.699849,-1258.350101,-7814.174080,0.000000
4255.700174,-222.061783,-8120.612279,-444.123565
4255.700498,-2516.700203,-7507.735880,74.020594
4255.700822,-3182.885551,-8810.098227,-2072.576638
4255.701146,-1776.494261,-9193.145976,-1554.432478
4255.701471,-962.267725,-8120.612279,-666.185348
4255.701795,-518.144159,-8656.879127,444.123565
4255.702119,1406.391290,-7737.564530,-666.185348
4255.702443,3775.050304,-9269.755526,-296.082377
4255.702767,3108.864956,-9729.412825,-444.123565
4255.703092,4293.194464,-9499.584175,-1480.411884
4255.703416,2072.576638,-9499.584175,-1110.308913
4255.703740,518.144159,-8273.831378,0.000000
4255.704064,444.123565,-9269.755526,222.061783
4255.704389,-444.123565,-8044.002729,-962.267725
4255.704713,-1480.411884,-9346.365076,-222.061783
4255.705037,-2294.638420,-8350.440928,-1036.288319
4255.705361,-666.185348,-9499.584175,-1258.350101
4255.705686,518.144159,-8120.612279,-592.164754
4255.706010,-1554.432478,-7431.126331,-1258.350101
4255.706334,1480.411884,-7967.393179,-370.102971
4255.706658,2072.576638,-9346.365076,0.000000
4255.706983,2368.659014,-7737.564530,-1998.556043
4255.707307,6143.709319,-10955.165621,1332.370696
4255.707631,3256.906145,-8733.488677,-2294.638420
4255.707955,4515.256246,-11031.775171,148.041188
4255.708279,3627.009116,-8810.098227,-296.082377
4255.708604,-2072.576638,-9499.584175,518.144159
4255.708928,-1258.350101,-7584.345430,0.000000
4255.709252,-2146.597232,-8044.002729,-296.082377
4255.709576,-2146.597232,-8427.050478,666.185348
4255.709901,-2664.741391,-7431.126331,-592.164754
4255.710225,-2590.720797,-9806.022374,-2294.638420
4255.710549,-1998.556043,-7660.954980,-1332.370696
4255.710873,-1110.308913,-8963.317327,-1036.288319
4255.711198,444.123565,-8044.002729,222.061783
4255.711522,3701.029710,-7354.516781,518.144159
4255.711846,3404.947333,-8273.831378,148.041188
4255.712170,5329.482782,-9269.755526,1554.432478
4255.712494,5625.565159,-8580.269578,-1776.494261
4255.712819,2442.679609,-10572.117872,-296.082377
4255.713143,0.000000,-8427.050478,0.000000
4255.713467,-1702.473667,-8886.707777,1406.391290
4255.713791,-2220.617826,-7507.735880,222.061783
4255.714116,-2516.700203,-7890.783629,962.267725
4255.714440,-4441.235652,-7737.564530,-518.144159
4255.714764,-2590.720797,-8427.050478,-666.185348
4255.715088,-2368.659014,-8733.488677,-2812.782580
4255.715413,-1554.432478,-8580.269578,-518.144159
4255.715737,0.000000,-7660.954980,592.164754
4255.716061,3404.947333,-8656.879127,-1184.329507
4255.716385,3108.864956,-9729.412825,1258.350101
4255.716710,2368.659014,-8197.221829,296.082377
4255.717034,4811.338623,-10878.556072,222.061783
4255.717358,1184.329507,-9346.365076,-2220.617826
4255.717682,888.247130,-9652.803275,518.144159
4255.718006,-1776.494261,-7814.174080,666.185348
4255.718331,-1998.556043,-8656.879127,1406.391290
4255.718655,-962.267725,-6971.469032,-370.102971
4255.718979,-2368.659014,-8963.317327,222.061783
4255.719303,-2960.823768,-8044.002729,-1184.329507
4255.719628,-2886.803174,-7660.954980,-2220.617826
4255.719952,-962.267725,-8197.221829,-962.267725
4255.720276,148.041188,-7814.174080,296.082377
4255.720600,2368.659014,-9039.926876,666.185348
4255.720925,4885.359217,-7967.393179,-888.247130
4255.721249,5329.482782,-8503.660028,518.144159
4255.721573,4441.235652,-9729.412825,-814.226536
4255.721897,3552.988522,-10418.898773,-1184.329507
4255.722222,666.185348,-8733.488677,0.000000
4255.722546,0.000000,-9116.536426,666.185348
4255.722870,-2294.638420,-7890.783629,-444.123565
4255.723194,-2368.659014,-8427.050478,-518.144159
4255.723518,-666.185348,-7354.516781,-148.041188
4255.723843,-2368.659014,-8427.050478,-1776.494261
4255.724167,-2664.741391,-8580.269578,-1258.350101
4255.724491,-1702.473667,-6894.859482,-1332.370696
4255.724815,1480.411884,-8197.221829,-222.061783
4255.725140,2220.617826,-8886.707777,-1110.308913
4255.725464,5107.421000,-9499.584175,-1184.329507
4255.725788,4071.132681,-7967.393179,-592.164754
4255.726112,2886.803174,-9499.584175,-888.247130
4255.726437,4367.215058,-9882.631924,-740.205942
4255.726761,-518.144159,-8656.879127,-666.185348
4255.727085,-1406.391290,-10342.289223,1480.411884
4255.727409,-2812.782580,-7967.393179,-740.205942
4255.727734,0.000000,-8503.660028,592.164754
4255.728058,-2072.576638,-7431.126331,-962.267725
4255.728382,-592.164754,-8963.317327,-814.226536
4255.728706,0.000000,-7890.783629,-962.267725
4255.729030,-296.082377,-7048.078582,-1850.514855
4255.729355,1332.370696,-7814.174080,-296.082377
4255.729679,2812.782580,-9039.926876,-1406.391290
4255.730003,3330.926739,-9806.022374,-370.102971
4255.730327,2146.597232,-7967.393179,-370.102971
4255.730652,1036.288319,-9116.536426,740.205942
4255.730976,962.267725,-9422.974625,-666.185348
4255.731300,1628.453072,-9652.803275,444.123565
4255.731624,0.000000,-8580.269578,0.000000
4255.731949,-518.144159,-8580.269578,148.041188
4255.732273,-1702.473667,-7201.297681,592.164754
4255.732597,740.205942,-8810.098227,296.082377
4255.732921,-2146.597232,-7124.688131,-1258.350101
4255.733246,-1628.453072,-8503.660028,-1184.329507
4255.733570,-1776.494261,-8427.050478,-592.164754
4255.733894,-1036.288319,-7048.078582,-222.061783
4255.734218,888.247130,-9193.145976,0.000000
4255.734542,1702.473667,-8580.269578,-666.185348
4255.734867,2590.720797,-8886.707777,74.020594
4255.735191,2664.741391,-8197.221829,-148.041188
4255.735515,3404.947333,-9269.755526,222.061783
4255.735839,1258.350101,-8580.269578,74.020594
4255.736164,518.144159,-8886.707777,74.020594
4255.736488,518.144159,-8733.488677,0.000000
4255.736812,-444.123565,-8197.221829,0.000000
4255.737136,-1850.514855,-8044.002729,370.102971
4255.737461,-592.164754,-8120.612279,666.185348
4255.737785,-1332.370696,-8427.050478,-1628.453072
4255.738109,-2442.679609,-9346.365076,-1628.453072
4255.738433,-2960.823768,-8197.221829,-888.247130
4255.738758,-518.144159,-9193.145976,-1184.329507
4255.739082,-1554.432478,-5745.716235,148.041188
4255.739406,6439.791695,-9422.974625,-592.164754
4255.739730,2590.720797,-10801.946522,-592.164754
4255.740054,2960.823768,-8350.440928,-1036.288319
4255.740379,3330.926739,-8503.660028,148.041188
4255.740703,1036.288319,-8120.612279,370.102971
4255.741027,-518.144159,-9039.926876,518.144159
4255.741351,962.267725,-6741.640382,-592.164754
4255.741676,-1554.432478,-9422.974625,1924.535449
4255.742000,-1702.473667,-7890.783629,-1406.391290
4255.742324,-814.226536,-9269.755526,-222.061783
4255.742648,-3330.926739,-7277.907231,-1258.350101
4255.742973,-3034.844362,-7814.174080,-1628.453072
4255.743297,1480.411884,-8580.269578,-1258.350101
4255.743621,740.205942,-8580.269578,592.164754
4255.743945,3701.029710,-8120.612279,518.144159
4255.744270,5921.647536,-8810.098227,-1036.288319
4255.744594,1406.391290,-9882.631924,370.102971
4255.744918,2738.761985,-8580.269578,-740.205942
4255.745242,4367.215058,-10342.289223,-962.267725
4255.745566,1554.432478,-8886.707777,-222.061783
4255.745891,666.185348,-9499.584175,1554.432478
4255.746215,-888.247130,-7660.954980,-1036.288319
4255.746539,-3552.988522,-9806.022374,592.164754
4255.746855,-3849.070898,-6281.983084,-1184.329507
4255.747179,-3034.844362,-8656.879127,-1110.308913
4255.747503,-2072.576638,-8273.831378,-1332.370696
4255.747828,222.061783,-7737.564530,-148.041188
4255.748152,2960.823768,-8886.707777,-592.164754
4255.748476,2886.803174,-8656.879127,0.000000
4255.748800,4293.194464,-7890.783629,-1850.514855
4255.749125,3849.070898,-8963.317327,740.205942
4255.749449,3404.947333,-8120.612279,-1184.329507
4255.749773,2442.679609,-10112.460574,740.205942
4255.750097,222.061783,-8580.269578,-370.102971
4255.750422,-1998.556043,-10189.070123,-370.102971
4255.750746,-2960.823768,-9039.926876,-592.164754
4255.751070,-2146.597232,-8120.612279,74.020594
4255.751394,-3997.112087,-6741.640382,-222.061783
4255.751719,-1776.494261,-8580.269578,-444.123565
4255.752043,-1702.473667,-7124.688131,-1036.288319
4255.752367,296.082377,-7967.393179,-370.102971
4255.752691,1776.494261,-7354.516781,-814.226536
4255.753016,2738.761985,-8580.269578,-518.144159
4255.753340,4441.235652,-9882.631924,0.000000
4255.753664,4219.173869,-9499.584175,0.000000
4255.753988,4367.215058,-10572.117872,-148.041188
4255.754313,1628.453072,-9039.926876,-740.205942
4255.754637,592.164754,-9959.241474,592.164754
4255.754961,-2442.679609,-7354.516781,962.267725
4255.755285,-740.205942,-9116.536426,370.102971
4255.755609,-2442.679609,-8273.831378,74.020594
4255.755934,-2368.659014,-9116.536426,-592.164754
4255.756258,-1998.556043,-7277.907231,-592.164754
4255.756582,-2294.638420,-7507.735880,-1776.494261
4255.756906,74.020594,-8427.050478,-1110.308913
4255.757231,666.185348,-7737.564530,-1110.308913
4255.757555,2368.659014,-9346.365076,-1184.329507
4255.757879,3478.967927,-9346.365076,444.123565
4255.758203,4737.318029,-8503.660028,148.041188
4255.758528,3627.009116,-9576.193725,-296.082377
4255.758852,2220.617826,-8963.317327,-1554.432478
4255.759176,-222.061783,-9269.755526,518.144159
4255.759500,-592.164754,-9576.193725,-444.123565
4255.759825,-2664.741391,-7814.174080,-222.061783
4255.760149,-1776.494261,-8580.269578,1628.453072
4255.760473,-2146.597232,-7124.688131,-888.247130
4255.760797,-2368.659014,-8580.269578,0.000000
4255.761122,-666.185348,-8580.269578,-2294.638420
4255.761446,-370.102971,-7737.564530,-1036.288319
4255.761770,-1184.329507,-8273.831378,-666.185348
4255.762094,2960.823768,-9652.803275,444.123565
4255.762419,4071.132681,-8044.002729,-1924.535449
4255.762743,5033.400406,-10418.898773,518.144159
4255.763067,3923.091493,-8886.707777,-370.102971
4255.763391,2146.597232,-9806.022374,-296.082377
4255.763716,-148.041188,-8350.440928,-370.102971
4255.764040,-1850.514855,-9882.631924,148.041188
4255.764364,-1480.411884,-8273.831378,444.123565
4255.764688,296.082377,-7967.393179,814.226536
4255.765013,-1998.556043,-7660.954980,592.164754
4255.765337,-2294.638420,-7737.564530,0.000000
4255.765661,-592.164754,-8733.488677,-1332.370696
4255.765985,0.000000,-8197.221829,-2368.659014
4255.766310,1406.391290,-8197.221829,-518.144159
4255.766634,888.247130,-8044.002729,-518.144159
4255.766958,3627.009116,-8350.440928,518.144159
4255.767282,2812.782580,-8503.660028,0.000000
4255.767606,3034.844362,-9882.631924,0.000000
4255.767931,1036.288319,-8963.317327,-888.247130
4255.768255,74.020594,-9499.584175,-518.144159
4255.768579,-666.185348,-8810.098227,74.020594
4255.768903,-962.267725,-8427.050478,1406.391290
4255.769228,-888.247130,-7814.174080,0.000000
4255.769552,74.020594,-8427.050478,666.185348
4255.769876,-888.247130,-6818.249932,-1110.308913
4255.770200,592.164754,-9039.926876,-666.185348
4255.770525,-222.061783,-6894.859482,-2368.659014
4255.770849,444.123565,-8580.269578,518.144159
4255.771173,-296.082377,-7201.297681,-2072.576638
4255.771497,2220.617826,-9806.022374,-370.102971
4255.771822,1406.391290,-8810.098227,370.102971
4255.772146,4071.132681,-8886.707777,370.102971
4255.772470,2886.803174,-8733.488677,-666.185348
4255.772794,1628.453072,-10572.117872,-370.102971
4255.773119,-444.123565,-8427.050478,-222.061783
4255.773443,-962.267725,-8656.879127,666.185348
4255.773767,-888.247130,-7584.345430,0.000000
4255.774091,-1850.514855,-8350.440928,444.123565
4255.774416,-2812.782580,-8120.612279,0.000000
4255.774740,-2146.597232,-8580.269578,-1480.411884
4255.775064,-518.144159,-9193.145976,-1258.350101
4255.775388,-666.185348,-7737.564530,-962.267725
4255.775713,0.000000,-9193.145976,-592.164754
4255.776037,1110.308913,-8044.002729,0.000000
4255.776361,2442.679609,-9269.755526,74.020594
4255.776685,2738.761985,-9193.145976,-296.082377
4255.777010,3627.009116,-8963.317327,592.164754
4255.777334,2590.720797,-9116.536426,74.020594
4255.777658,2442.679609,-9806.022374,-1332.370696
4255.777982,962.267725,-8580.269578,-740.205942
4255.778306,-1554.432478,-9576.193725,1036.288319
4255.778631,518.144159,-7814.174080,-370.102971
4255.778955,-518.144159,-8350.440928,1110.308913
4255.779279,-3108.864956,-7201.297681,222.061783
4255.779603,-888.247130,-8044.002729,-962.267725
4255.779928,-1406.391290,-7507.735880,-1850.514855
4255.780252,888.247130,-8656.879127,-1702.473667
4255.780576,1258.350101,-7814.174080,-740.205942
4255.780900,2220.617826,-8810.098227,148.041188
4255.781225,3108.864956,-8503.660028,296.082377
4255.781549,2886.803174,-9346.365076,740.205942
4255.781873,3478.967927,-10035.851024,-370.102971
4255.782197,3034.844362,-9193.145976,222.061783
4255.782522,814.226536,-8197.221829,74.020594
4255.782846,-1110.308913,-6741.640382,296.082377
4255.783170,2516.700203,-10418.898773,666.185348
4255.783494,-3034.844362,-7660.954980,-814.226536
4255.783819,0.000000,-9729.412825,962.267725
4255.784143,-1480.411884,-4903.011187,-1480.411884
4255.784467,-1702.473667,-9499.584175,222.061783
4255.784791,-518.144159,-6588.421283,-1924.535449
4255.785116,222.061783,-8427.050478,-1110.308913
4255.785440,1258.350101,-9346.365076,-740.205942
4255.785764,3627.009116,-9116.536426,0.000000
4255.786088,4885.359217,-8273.831378,-444.123565
4255.786413,2442.679609,-9806.022374,0.000000
4255.786737,1628.453072,-10418.898773,0.000000
4255.787061,962.267725,-8886.707777,-1628.453072
4255.787385,-370.102971,-10418.898773,592.164754
4255.787710,-3923.091493,-7967.393179,-444.123565
4255.788034,-2072.576638,-9269.755526,1036.288319
4255.788358,-1850.514855,-7431.126331,-592.164754
4255.788682,-1924.535449,-9499.584175,74.020594
4255.789006,-814.226536,-7048.078582,-962.267725
4255.789331,-1184.329507,-8197.221829,-1110.308913
4255.789655,1998.556043,-6971.469032,-1480.411884
4255.789979,3478.967927,-9039.926876,814.226536
4255.790303,3404.947333,-9422.974625,-1184.329507
4255.790628,4145.153275,-9116.536426,-370.102971
4255.790952,2294.638420,-8503.660028,740.205942
4255.791276,296.082377,-9806.022374,222.061783
4255.791600,148.041188,-8810.098227,-1850.514855
4255.791925,-666.185348,-10342.289223,592.164754
4255.792249,-1036.288319,-8580.269578,1184.329507
4255.792573,-1554.432478,-8197.221829,-148.041188
4255.792897,-1776.494261,-8580.269578,962.267725
4255.793222,-962.267725,-6818.249932,-148.041188
4255.793546,-666.185348,-7890.783629,-2368.659014
4255.793870,1332.370696,-9269.755526,-888.247130
4255.794194,1480.411884,-6741.640382,-1184.329507
4255.794519,1702.473667,-8963.317327,-296.082377
4255.794843,1776.494261,-8197.221829,0.000000
4255.795167,2368.659014,-9499.584175,518.144159
4255.795491,1628.453072,-9729.412825,0.000000
4255.795816,1406.391290,-9806.022374,-888.247130
4255.796140,1850.514855,-9193.145976,518.144159
4255.796464,962.267725,-7584.345430,222.061783
4255.796788,-296.082377,-9116.536426,148.041188
4255.797113,666.185348,-8810.098227,0.000000
4255.797437,-962.267725,-7124.688131,0.000000
4255.797761,-518.144159,-8273.831378,0.000000
4255.798085,0.000000,-7507.735880,-888.247130
4255.798410,-444.123565,-9116.536426,-962.267725
4255.798734,0.000000,-7277.907231,-962.267725
4255.799058,814.226536,-8810.098227,-1406.391290
4255.799382,814.226536,-8427.050478,666.185348
4255.799706,2146.597232,-8886.707777,0.000000
4255.800031,3330.926739,-10112.460574,-740.205942
4255.800355,2738.761985,-9116.536426,-518.144159
4255.800679,592.164754,-8503.660028,370.102971
4255.801003,1110.308913,-8963.317327,-740.205942
4255.801328,148.041188,-7890.783629,666.185348
4255.801652,74.020594,-8427.050478,148.041188
4255.801976,-814.226536,-8197.221829,0.000000
4255.802300,-1406.391290,-8273.831378,-1406.391290
4255.802625,-1924.535449,-8656.879127,-740.205942
4255.802949,-2294.638420,-7507.735880,-1480.411884
4255.803273,-518.144159,-9039.926876,-888.247130
4255.803597,-592.164754,-7354.516781,-888.247130
4255.803922,0.000000,-8656.879127,-444.123565
4255.804246,3182.885551,-8733.488677,-1110.308913
4255.804570,2442.679609,-9422.974625,370.102971
4255.804894,2960.823768,-10189.070123,-592.164754
4255.805219,740.205942,-8810.098227,-962.267725
4255.805543,1480.411884,-8733.488677,-296.082377
4255.805867,-370.102971,-8580.269578,0.000000
4255.806191,-2146.597232,-9269.755526,-592.164754
4255.806516,518.144159,-8810.098227,518.144159
4255.806840,-666.185348,-7890.783629,0.000000
4255.807164,-2516.700203,-7660.954980,-740.205942
4255.807488,-666.185348,-7814.174080,-1332.370696
4255.807813,-962.267725,-7814.174080,-1628.453072
4255.808137,444.123565,-8580.269578,296.082377
4255.808461,1110.308913,-7124.688131,0.000000
4255.808785,2812.782580,-10112.460574,148.041188
4255.809110,3330.926739,-7737.564530,-1554.432478
4255.809434,3034.844362,-10265.679673,1036.288319
4255.809758,740.205942,-8656.879127,-1480.411884
4255.810082,1184.329507,-9346.365076,962.267725
4255.810406,-370.102971,-7737.564530,-296.082377
4255.810731,-1332.370696,-9882.631924,222.061783
4255.811055,-592.164754,-8886.707777,148.041188
4255.811379,-1258.350101,-7354.516781,-222.061783
4255.811703,-1480.411884,-8427.050478,0.000000
4255.812028,-592.164754,-7890.783629,-1184.329507
4255.812352,-1702.473667,-6971.469032,-444.123565
4255.812676,0.000000,-7201.297681,0.000000
4255.813000,518.144159,-8120.612279,0.000000
4255.813325,370.102971,-8656.879127,-518.144159
4255.813649,2960.823768,-8120.612279,666.185348
4255.813973,3701.029710,-8580.269578,-222.061783
4255.814297,2516.700203,-9116.536426,0.000000
4255.814622,1924.535449,-9346.365076,-74.020594
4255.814946,814.226536,-9193.145976,-370.102971
4255.815270,0.000000,-10112.460574,74.020594
4255.815594,-1480.411884,-8427.050478,962.267725
4255.815919,-222.061783,-8044.002729,0.000000
4255.816243,-1110.308913,-7660.954980,-814.226536
4255.816567,-370.102971,-8197.221829,-740.205942
4255.816891,-888.247130,-7124.688131,-1184.329507
4255.817216,0.000000,-8044.002729,-74.020594
4255.817540,74.020594,-7737.564530,-1332.370696
4255.817864,814.226536,-9039.926876,740.205942
4255.818188,2886.803174,-8656.879127,-1184.329507
4255.818513,3627.009116,-10725.336972,370.102971
4255.818837,1776.494261,-9499.584175,-888.247130
4255.819161,1110.308913,-8427.050478,-740.205942
4255.819485,-222.061783,-9193.145976,-1184.329507
4255.819810,-962.267725,-9346.365076,-370.102971
4255.820134,-1554.432478,-9729.412825,222.061783
4255.820458,-370.102971,-8120.612279,962.267725
4255.820782,-518.144159,-8656.879127,444.123565
4255.821107,370.102971,-8120.612279,-888.247130
4255.821431,-592.164754,-8120.612279,-1924.535449
4255.821755,-1110.308913,-7737.564530,-2072.576638
4255.822079,0.000000,-7890.783629,1332.370696
4255.822403,-296.082377,-8350.440928,-814.226536
4255.822728,1998.556043,-9422.974625,-592.164754
4255.823052,1924.535449,-8273.831378,148.041188
4255.823376,1258.350101,-9116.536426,-1036.288319
4255.823700,1480.411884,-9882.631924,-962.267725
4255.824025,2220.617826,-8427.050478,962.267725
4255.824349,0.000000,-9193.145976,0.000000
4255.824673,-370.102971,-9039.926876,-592.164754
4255.824997,962.267725,-9652.803275,1110.308913
4255.825322,-1554.432478,-6971.469032,-296.082377
4255.825646,-740.205942,-7277.907231,-1776.494261
4255.825970,0.000000,-9729.412825,-148.041188
4255.826294,-2294.638420,-6665.030833,-740.205942
4255.826619,962.267725,-7890.783629,-1184.329507
4255.826943,962.267725,-7890.783629,-1850.514855
4255.827267,3404.947333,-9499.584175,814.226536
4255.827591,2442.679609,-7967.393179,-666.185348
4255.827916,2886.803174,-9806.022374,740.205942
4255.828240,5921.647536,-8503.660028,1184.329507
4255.828564,-1036.288319,-8350.440928,-2072.576638
4255.828888,814.226536,-9346.365076,0.000000
4255.829213,-814.226536,-7354.516781,444.123565
4255.829537,-740.205942,-9346.365076,592.164754
4255.829861,-1184.329507,-7890.783629,222.061783
4255.830185,-370.102971,-9269.755526,-518.144159
4255.830510,-2738.761985,-7814.174080,-1036.288319
4255.830834,-444.123565,-7354.516781,-1110.308913
4255.831158,814.226536,-7584.345430,370.102971
4255.831482,0.000000,-7584.345430,-296.082377
4255.831807,3404.947333,-8733.488677,-814.226536
4255.832131,2146.597232,-9039.926876,0.000000
4255.832455,2812.782580,-9422.974625,0.000000
4255.832779,2146.597232,-9806.022374,-814.226536
4255.833103,2294.638420,-9959.241474,-222.061783
4255.833428,518.144159,-9116.536426,0.000000
4255.833752,-1110.308913,-9422.974625,-740.205942
4255.834076,-888.247130,-9039.926876,0.000000
4255.834400,-518.144159,-8044.002729,740.205942
4255.834725,0.000000,-8350.440928,-518.144159
4255.835049,-1480.411884,-9652.803275,-814.226536
4255.835373,-666.185348,-7814.174080,-1554.432478
4255.835697,-1184.329507,-7277.907231,-1480.411884
4255.836022,-370.102971,-8810.098227,-1036.288319
4255.836346,518.144159,-8350.440928,0.000000
4255.836670,3478.967927,-9269.755526,518.144159
4255.836994,2516.700203,-8273.831378,-888.247130
4255.837319,1406.391290,-9806.022374,0.000000
4255.837643,1258.350101,-9193.145976,-962.267725
4255.837967,1628.453072,-8733.488677,0.000000
4255.838291,592.164754,-9652.803275,-296.082377
4255.838616,-1184.329507,-9269.755526,148.041188
4255.838940,-222.061783,-8350.440928,148.041188
4255.839264,-296.082377,-8810.098227,-518.144159
4255.839588,-740.205942,-8733.488677,-740.205942
4255.839913,-370.102971,-7967.393179,-962.267725
4255.840237,-2664.741391,-8350.440928,-1924.535449
4255.840561,222.061783,-7890.783629,-740.205942
4255.840885,1110.308913,-8044.002729,148.041188
4255.841210,814.226536,-8656.879127,-1258.350101
4255.841534,2812.782580,-8197.221829,370.102971
4255.841858,1554.432478,-9116.536426,592.164754
4255.842182,1554.432478,-8580.269578,-1258.350101
4255.842507,3775.050304,-9652.803275,-148.041188
4255.842831,1036.288319,-9039.926876,74.020594
4255.843155,888.247130,-9039.926876,148.041188
4255.843479,1110.308913,-7660.954980,-518.144159
4255.843803,-296.082377,-9422.974625,666.185348
4255.844128,-1628.453072,-8427.050478,-888.247130
4255.844452,-740.205942,-8427.050478,-666.185348
4255.844776,-2516.700203,-7584.345430,-814.226536
4255.845100,-1850.514855,-8120.612279,-962.267725
4255.845425,518.144159,-8810.098227,-962.267725
4255.845749,222.061783,-8656.879127,518.144159
4255.846073,2294.638420,-7354.516781,296.082377
4255.846397,3997.112087,-8810.098227,-370.102971
4255.846722,3849.070898,-9193.145976,222.061783
4255.847046,3478.967927,-9422.974625,-296.082377
4255.847370,1924.535449,-8886.707777,-1480.411884
4255.847694,1036.288319,-9269.755526,1554.432478
4255.848018,-518.144159,-8503.660028,-888.247130
4255.848343,-1850.514855,-9269.755526,0.000000
4255.848667,-2442.679609,-8656.879127,-296.082377
4255.848991,-962.267725,-9346.365076,-518.144159
4255.849315,-3256.906145,-6588.421283,-1702.473667
4255.849639,-296.082377,-8580.269578,-148.041188
4255.849963,-962.267725,-7584.345430,-666.185348
4255.850288,518.144159,-8120.612279,666.185348
4255.850612,2960.823768,-6971.469032,-370.102971
4255.850936,5255.462188,-9806.022374,1110.308913
4255.851260,3627.009116,-8503.660028,-962.267725
4255.851584,3330.926739,-10418.898773,-1258.350101
4255.851909,2368.659014,-9346.365076,-1184.329507
4255.852233,-1258.350101,-9499.584175,1036.288319
4255.852557,-1998.556043,-8350.440928,-518.144159
4255.852881,148.041188,-9346.365076,1406.391290
4255.853205,-2738.761985,-8810.098227,-1554.432478
4255.853529,-2516.700203,-9039.926876,-1184.329507
4255.853854,-2664.741391,-8044.002729,-1628.453072
4255.854178,-740.205942,-7201.297681,-1110.308913
4255.854502,148.041188,-6588.421283,0.000000
4255.854826,1702.473667,-7584.345430,-814.226536
4255.855150,2220.617826,-9576.193725,-666.185348
4255.855474,2812.782580,-7507.735880,-444.123565
4255.855799,4589.276840,-10648.727422,-296.082377
4255.856123,2368.659014,-9269.755526,-1258.350101
4255.856447,1998.556043,-10572.117872,222.061783
4255.856771,-518.144159,-8120.612279,-1776.494261
4255.857095,-814.226536,-10189.070123,1998.556043
4255.857420,-1850.514855,-7277.907231,-888.247130
4255.857744,-2812.782580,-8733.488677,148.041188
4255.858068,-1702.473667,-8197.221829,-1480.411884
4255.858392,-1184.329507,-9269.755526,-1702.473667
4255.858716,-1406.391290,-7277.907231,-1332.370696
4255.859040,-1258.350101,-7354.516781,-296.082377
4255.859365,1628.453072,-7354.516781,222.061783
4255.859689,2738.761985,-9499.584175,0.000000
4255.860013,4219.173869,-8580.269578,-1184.329507
4255.860337,3701.029710,-9806.022374,962.267725
4255.860661,740.205942,-7660.954980,-1554.432478
4255.860985,2442.679609,-10342.289223,1998.556043
4255.861310,666.185348,-7201.297681,-1036.288319
4255.861634,-2220.617826,-8503.660028,1184.329507
4255.861958,-148.041188,-8656.879127,-1184.329507
4255.862282,-2960.823768,-8350.440928,1258.350101
4255.862606,-592.164754,-8733.488677,0.000000
4255.862931,-1036.288319,-6741.640382,-1406.391290
4255.863255,-666.185348,-8733.488677,-148.041188
4255.863579,444.123565,-7967.393179,-2146.597232
4255.863903,3256.906145,-8350.440928,0.000000
4255.864227,888.247130,-9116.536426,-148.041188
4255.864551,3701.029710,-8810.098227,0.000000
4255.864876,2368.659014,-9346.365076,0.000000
4255.865200,740.205942,-9193.145976,-592.164754
4255.865524,2960.823768,-10418.898773,0.000000
4255.865848,-148.041188,-6741.640382,-1258.350101
4255.866172,518.144159,-10418.898773,1480.411884
4255.866496,-1258.350101,-6588.421283,-1110.308913
4255.866821,-888.247130,-10342.289223,1184.329507
4255.867145,-1998.556043,-7890.783629,-1258.350101
4255.867469,-814.226536,-9806.022374,-740.205942
4255.867793,-2664.741391,-9882.631924,-518.144159
4255.868117,-2368.659014,-5822.325785,-962.267725
4255.868441,4219.173869,-7814.174080,-1850.514855
4255.868766,2146.597232,-10035.851024,1110.308913
4255.869090,1628.453072,-8273.831378,-1110.308913
4255.869414,4071.132681,-8503.660028,888.247130
4255.869738,1184.329507,-8503.660028,-1110.308913
4255.870062,1554.432478,-10265.679673,740.205942
4255.870387,296.082377,-7201.297681,-1850.514855
4255.870711,222.061783,-9576.193725,1258.350101
4255.871035,-1184.329507,-8733.488677,-370.102971
4255.871359,-666.185348,-7967.393179,296.082377
4255.871683,1554.432478,-8503.660028,444.123565
4255.872007,-666.185348,-7124.688131,148.041188
4255.872332,-1110.308913,-9652.803275,-1702.473667
4255.872656,-1480.411884,-7354.516781,-1184.329507
4255.872980,666.185348,-7814.174080,518.144159
4255.873304,-592.164754,-7890.783629,-1110.308913
4255.873628,3034.844362,-8656.879127,-222.061783
4255.873952,1776.494261,-7967.393179,-444.123565
4255.874277,1702.473667,-10035.851024,-962.267725
4255.874601,518.144159,-9346.365076,-592.164754
4255.874925,2146.597232,-8886.707777,962.267725
4255.875249,74.020594,-8044.002729,-1628.453072
4255.875573,-148.041188,-8963.317327,1110.308913
4255.875898,814.226536,-8350.440928,-148.041188
4255.876222,222.061783,-8503.660028,740.205942
4255.876546,-444.123565,-7354.516781,-888.247130
4255.876870,-1110.308913,-9116.536426,-222.061783
4255.877194,-2294.638420,-7354.516781,-1998.556043
4255.877518,-666.185348,-8197.221829,-666.185348
4255.877843,0.000000,-9193.145976,-444.123565
4255.878167,-1998.556043,-8427.050478,444.123565
4255.878491,1258.350101,-8503.660028,-296.082377
4255.878815,1924.535449,-8580.269578,-962.267725
4255.879139,4515.256246,-9882.631924,0.000000
4255.879463,2960.823768,-7431.126331,-1258.350101
4255.879788,2220.617826,-9116.536426,222.061783
4255.880112,-1628.453072,-9116.536426,296.082377
4255.880436,-1036.288319,-8963.317327,296.082377
4255.880760,370.102971,-8886.707777,148.041188
4255.881084,-444.123565,-9193.145976,-814.226536
4255.881409,-3627.009116,-9193.145976,-814.226536
4255.881733,-2886.803174,-7890.783629,-370.102971
4255.882057,-1850.514855,-7277.907231,-666.185348
4255.882381,-444.123565,-7814.174080,-296.082377
4255.882705,1258.350101,-8120.612279,740.205942
4255.883029,2294.638420,-8273.831378,-592.164754
4255.883354,3849.070898,-8733.488677,-740.205942
4255.883678,3404.947333,-8656.879127,74.020594
4255.884002,4293.194464,-9806.022374,0.000000
4255.884326,1924.535449,-8273.831378,-1480.411884
4255.884650,0.000000,-9576.193725,592.164754
4255.884974,-518.144159,-7890.783629,0.000000
4255.885299,-148.041188,-9346.365076,296.082377
4255.885623,-1924.535449,-7431.126331,-148.041188
4255.885947,-2516.700203,-9193.145976,740.205942
4255.886271,-1258.350101,-7814.174080,-1628.453072
4255.886595,-1110.308913,-8427.050478,-1036.288319
4255.886919,0.000000,-8427.050478,-1184.329507
4255.887244,-296.082377,-7814.174080,-518.144159
4255.887568,3701.029710,-9422.974625,-370.102971
4255.887892,3330.926739,-8120.612279,-1554.432478
4255.888216,4515.256246,-10801.946522,518.144159
4255.888540,1480.411884,-9116.536426,-1332.370696
4255.888865,2442.679609,-9959.241474,-518.144159
4255.889189,74.020594,-7354.516781,-296.082377
4255.889513,-1110.308913,-9729.412825,0.000000
4255.889837,-74.020594,-9346.365076,-814.226536
4255.890161,-1110.308913,-7967.393179,666.185348
4255.890485,-3108.864956,-8273.831378,-666.185348
4255.890810,-1998.556043,-7890.783629,-222.061783
4255.891134,-1998.556043,-8427.050478,-1480.411884
4255.891458,74.020594,-7737.564530,-1036.288319
4255.891782,2368.659014,-8503.660028,0.000000
4255.892106,2072.576638,-8273.831378,740.205942
4255.892430,4589.276840,-8503.660028,-740.205942
4255.892755,4071.132681,-8120.612279,740.205942
4255.893079,3256.906145,-10572.117872,-666.185348
4255.893403,1924.535449,-8197.221829,-1924.535449
4255.893727,1628.453072,-9729.412825,0.000000
4255.894051,-2886.803174,-8197.221829,-296.082377
4255.894376,-2220.617826,-8810.098227,518.144159
4255.894700,-1554.432478,-7890.783629,-740.205942
4255.895024,-1702.473667,-9422.974625,-148.041188
4255.895348,-2368.659014,-7431.126331,-592.164754
4255.895672,-1924.535449,-9269.755526,-1184.329507
4255.895996,-1036.288319,-7890.783629,-1628.453072
4255.896321,-222.061783,-7890.783629,-592.164754
4255.896645,74.020594,-7814.174080,-962.267725
4255.896969,7031.956449,-8886.707777,592.164754
4255.897293,1036.288319,-8273.831378,-814.226536
4255.897617,3849.070898,-9422.974625,148.041188
4255.897941,1036.288319,-7737.564530,-1998.556043
4255.898266,888.247130,-11031.775171,370.102971
4255.898590,1184.329507,-7431.126331,740.205942
4255.898914,-1776.494261,-6971.469032,0.000000
4255.899238,-1036.288319,-8503.660028,814.226536
4255.899562,370.102971,-8197.221829,-962.267725
4255.899887,-1702.473667,-8810.098227,-296.082377
4255.900211,-1776.494261,-6894.859482,-962.267725
4255.900535,-814.226536,-8733.488677,-1258.350101
4255.900859,222.061783,-8273.831378,-962.267725
4255.901183,592.164754,-7201.297681,-444.123565
4255.901507,3849.070898,-8886.707777,148.041188
4255.901832,1332.370696,-8197.221829,-222.061783
4255.902156,4145.153275,-10189.070123,222.061783
4255.902480,3182.885551,-8197.221829,-888.247130
4255.902804,1258.350101,-10418.898773,-296.082377
4255.903128,-518.144159,-8273.831378,-296.082377
4255.903452,1110.308913,-8580.269578,1036.288319
4255.903777,-814.226536,-8197.221829,0.000000
4255.904101,-1480.411884,-8656.879127,444.123565
4255.904425,-1998.556043,-7431.126331,-592.164754
4255.904749,-962.267725,-8963.317327,-666.185348
4255.905073,-1258.350101,-8656.879127,-1702.473667
4255.905397,-444.123565,-8120.612279,-1184.329507
4255.905722,222.061783,-9116.536426,814.226536
4255.906046,2960.823768,-6894.859482,-1332.370696
4255.906370,3330.926739,-9499.584175,148.041188
4255.906694,3182.885551,-10495.508323,-296.082377
4255.907018,2072.576638,-7967.393179,-222.061783
4255.907343,4219.173869,-8197.221829,-1776.494261
4255.907667,962.267725,-9806.022374,148.041188
4255.907991,1184.329507,-7660.954980,0.000000
4255.908315,-3108.864956,-7967.393179,-666.185348
4255.908639,-3552.988522,-9346.365076,0.000000
4255.908963,-148.041188,-9269.755526,-814.226536
4255.909288,-2516.700203,-8886.707777,-1554.432478
4255.909612,-3182.885551,-8656.879127,-1258.350101
4255.909936,-1850.514855,-7660.954980,-1776.494261
4255.910260,148.041188,-7967.393179,-370.102971
4255.910584,1776.494261,-8733.488677,-444.123565
4255.910908,5033.400406,-7584.345430,-518.144159
4255.911233,4145.153275,-9729.412825,-740.205942
4255.911557,2294.638420,-9422.974625,0.000000
4255.911881,2812.782580,-9499.584175,-1184.329507
4255.912205,2072.576638,-9806.022374,-962.267725
4255.912529,-296.082377,-8656.879127,0.000000
4255.912854,-962.267725,-9116.536426,74.020594
4255.913178,-1480.411884,-9039.926876,370.102971
4255.913502,-2368.659014,-8350.440928,888.247130
4255.913826,-2812.782580,-8044.002729,-740.205942
4255.914150,-1924.535449,-8810.098227,-1332.370696
4255.914474,-2368.659014,-7201.297681,-592.164754
4255.914799,962.267725,-8350.440928,-592.164754
4255.915123,2368.659014,-8120.612279,-888.247130
4255.915447,3478.967927,-8273.831378,-296.082377
4255.915771,3849.070898,-8656.879127,222.061783
4255.916095,3849.070898,-8503.660028,1110.308913
4255.916419,2960.823768,-9422.974625,0.000000
4255.916744,1850.514855,-9882.631924,-888.247130
4255.917068,74.020594,-9269.755526,-296.082377
4255.917392,-1184.329507,-9652.803275,-370.102971
4255.917716,-1998.556043,-8044.002729,1110.308913
4255.918040,-1850.514855,-8963.317327,814.226536
4255.918365,-3775.050304,-7814.174080,0.000000
4255.918689,-2368.659014,-9039.926876,-370.102971
4255.919013,-3923.091493,-7124.688131,-2960.823768
4255.919337,518.144159,-8503.660028,222.061783
4255.919661,1258.350101,-7201.297681,-740.205942
4255.919985,5033.400406,-9039.926876,222.061783
4255.920310,6365.771101,-7660.954980,-592.164754
4255.920634,3330.926739,-8656.879127,222.061783
4255.920958,4441.235652,-9499.584175,-592.164754
4255.921282,3701.029710,-9039.926876,-518.144159
4255.921606,1110.308913,-9422.974625,888.247130
4255.921930,-2738.761985,-8580.269578,-444.123565
4255.922255,-2146.597232,-8120.612279,0.000000
4255.922579,-2664.741391,-8656.879127,74.020594
4255.922903,-1406.391290,-8273.831378,370.102971
4255.923227,-2368.659014,-7890.783629,-666.185348
4255.923551,0.000000,-8197.221829,-888.247130
4255.923875,1332.370696,-6971.469032,-1554.432478
4255.924200,2294.638420,-8580.269578,-444.123565
4255.924524,3775.050304,-7967.393179,-222.061783
4255.924848,3923.091493,-8503.660028,-962.267725
4255.925172,5477.523971,-9882.631924,-962.267725
4255.925496,1554.432478,-10801.946522,-1036.288319
4255.925821,1036.288319,-9806.022374,-444.123565
4255.926145,-518.144159,-8427.050478,1258.350101
4255.926469,-2146.597232,-8580.269578,814.226536
4255.926793,-2294.638420,-7431.126331,74.020594
4255.927117,-1406.391290,-9576.193725,-222.061783
4255.927441,-1776.494261,-7967.393179,-740.205942
4255.927766,-1258.350101,-7124.688131,-1776.494261
4255.928090,-1776.494261,-9193.145976,-444.123565
4255.928414,296.082377,-7890.783629,-370.102971
4255.928738,1702.473667,-6971.469032,-962.267725
4255.929062,3330.926739,-8503.660028,666.185348
4255.929386,4515.256246,-8273.831378,-1702.473667
4255.929711,3478.967927,-10189.070123,74.020594
4255.930035,2516.700203,-9346.365076,296.082377
4255.930359,148.041188,-9806.022374,518.144159
4255.930683,-888.247130,-8350.440928,-1702.473667
4255.931007,-2738.761985,-8503.660028,888.247130
4255.931332,-1776.494261,-7737.564530,-740.205942
4255.931656,-1406.391290,-7967.393179,222.061783
4255.931980,-2146.597232,-7737.564530,-222.061783
4255.932304,-1184.329507,-7660.954980,592.164754
4255.932628,814.226536,-7967.393179,-1924.535449
4255.932952,-370.102971,-8810.098227,-814.226536
4255.933277,2368.659014,-8733.488677,-296.082377
4255.933601,1776.494261,-7584.345430,-740.205942
4255.933925,2960.823768,-9729.412825,296.082377
4255.934249,3478.967927,-8810.098227,-444.123565
4255.934573,0.000000,-9346.365076,370.102971
4255.934897,-370.102971,-9116.536426,-1110.308913
4255.935222,444.123565,-9422.974625,-148.041188
4255.935546,-1184.329507,-8810.098227,-296.082377
4255.935870,-1184.329507,-8656.879127,0.000000
4255.936194,-592.164754,-8733.488677,370.102971
4255.936518,-2220.617826,-7737.564530,-370.102971
4255.936843,-1628.453072,-8810.098227,-740.205942
4255.937167,814.226536,-9346.365076,0.000000
4255.937491,2294.638420,-8350.440928,-592.164754
4255.937815,-2812.782580,-8427.050478,-962.267725
4255.938139,3775.050304,-8120.612279,-518.144159
4255.938463,296.082377,-7048.078582,74.020594
4255.938788,3256.906145,-10418.898773,888.247130
4255.939112,3478.967927,-7737.564530,74.020594
4255.939436,962.267725,-10418.898773,0.000000
4255.939760,0.000000,-7890.783629,-1332.370696
4255.940084,1702.473667,-9652.803275,-1258.350101
4255.940408,-1184.329507,-8886.707777,296.082377
4255.940733,-1184.329507,-8120.612279,296.082377
4255.941057,-592.164754,-9039.926876,-740.205942
4255.941381,-2664.741391,-8044.002729,0.000000
4255.941705,-296.082377,-8350.440928,-592.164754
4255.942029,-2294.638420,-7814.174080,-1554.432478
4255.942353,74.020594,-8427.050478,-518.144159
4255.942678,1628.453072,-8427.050478,-888.247130
4255.943002,1924.535449,-8733.488677,-1184.329507
4255.943326,888.247130,-9882.631924,0.000000
4255.943650,2294.638420,-7354.516781,370.102971
4255.943974,2960.823768,-8503.660028,-1110.308913
4255.944299,4293.194464,-11031.775171,814.226536
4255.944623,-222.061783,-7354.516781,-1480.411884
4255.944947,-222.061783,-7660.954980,370.102971
4255.945271,-740.205942,-8427.050478,-1184.329507
4255.945595,148.041188,-9729.412825,1036.288319
4255.945919,592.164754,-7354.516781,296.082377
4255.946244,-1998.556043,-8197.221829,-1184.329507
4255.946568,-2368.659014,-9806.022374,-2220.617826
4255.946892,-2664.741391,-7584.345430,-1480.411884
4255.947216,740.205942,-9422.974625,0.000000
4255.947540,-74.020594,-7201.297681,-740.205942
4255.947864,2368.659014,-9039.926876,0.000000
4255.948189,2516.700203,-8503.660028,0.000000
4255.948513,3256.906145,-9193.145976,-444.123565
4255.948837,3849.070898,-8580.269578,74.020594
4255.949161,2072.576638,-9039.926876,-962.267725
4255.949485,518.144159,-9806.022374,-740.205942
4255.949810,-888.247130,-8733.488677,0.000000
4255.950134,-370.102971,-9116.536426,222.061783
4255.950458,-2146.597232,-8197.221829,0.000000
4255.950782,-1554.432478,-8044.002729,148.041188
4255.951106,-1776.494261,-8810.098227,0.000000
4255.951431,-2960.823768,-7814.174080,-666.185348
4255.951755,296.082377,-8886.707777,148.041188
4255.952079,1184.329507,-7124.688131,-1036.288319
4255.952403,2516.700203,-9806.022374,962.267725
4255.952727,3182.885551,-7890.783629,-1258.350101
4255.953051,4515.256246,-9652.803275,1184.329507
4255.953376,3182.885551,-8427.050478,-592.164754
4255.953700,1258.350101,-9422.974625,148.041188
4255.954024,74.020594,-8733.488677,-1110.308913
4255.954348,-222.061783,-9116.536426,814.226536
4255.954672,-1258.350101,-8503.660028,0.000000
4255.954997,-1776.494261,-7584.345430,444.123565
4255.955321,-3034.844362,-7507.735880,-222.061783
4255.955645,-1850.514855,-8733.488677,-888.247130
4255.955969,-518.144159,-8580.269578,-962.267725
4255.956293,814.226536,-8120.612279,-1480.411884
4255.956618,814.226536,-7814.174080,-962.267725
4255.956942,1702.473667,-9039.926876,0.000000
4255.957266,3256.906145,-8044.002729,148.041188
4255.957590,4219.173869,-8810.098227,-444.123565
4255.957914,1924.535449,-8656.879127,-592.164754
4255.958238,1184.329507,-9959.241474,-370.102971
4255.958563,0.000000,-7890.783629,-1036.288319
4255.958887,-666.185348,-9269.755526,1406.391290
4255.959211,-1258.350101,-7507.735880,-518.144159
4255.959535,444.123565,-9116.536426,222.061783
4255.959859,-1184.329507,-7890.783629,-666.185348
4255.960184,-1702.473667,-8503.660028,-740.205942
4255.960508,-2738.761985,-8427.050478,-1406.391290
4255.960832,-1702.473667,-8427.050478,-1036.288319
4255.961156,296.082377,-9193.145976,-222.061783
4255.961480,-888.247130,-7584.345430,-370.102971
4255.961805,2072.576638,-9652.803275,1110.308913
4255.962129,3627.009116,-9269.755526,-1036.288319
4255.962453,3701.029710,-10572.117872,296.082377
4255.962777,2886.803174,-8580.269578,-740.205942
4255.963101,518.144159,-8810.098227,-740.205942
4255.963425,-1110.308913,-7890.783629,-222.061783
4255.963750,740.205942,-9346.365076,0.000000
4255.964074,518.144159,-7967.393179,-444.123565
4255.964398,-1628.453072,-9116.536426,0.000000
4255.964722,-2664.741391,-7354.516781,-814.226536
4255.965046,-1776.494261,-8656.879127,-148.041188
4255.965371,-1480.411884,-8120.612279,-296.082377
4255.965695,1036.288319,-8656.879127,814.226536
4255.966019,2886.803174,-7967.393179,-1110.308913
4255.966343,2590.720797,-9193.145976,-740.205942
4255.966667,2738.761985,-7277.907231,-666.185348
4255.966992,3701.029710,-10572.117872,740.205942
4255.967316,1776.494261,-8503.660028,-666.185348
4255.967640,2368.659014,-9729.412825,592.164754
4255.967964,0.000000,-7431.126331,-1332.370696
4255.968288,-444.123565,-9959.241474,666.185348
4255.968612,-1258.350101,-7737.564530,-1184.329507
4255.968937,-1184.329507,-9039.926876,1332.370696
4255.969261,-1924.535449,-7354.516781,-814.226536
4255.969585,-444.123565,-8197.221829,-444.123565
4255.969909,-1110.308913,-8044.002729,-1258.350101
4255.970233,222.061783,-7354.516781,-1332.370696
4255.970558,1924.535449,-8886.707777,0.000000
4255.970882,1628.453072,-7737.564530,-148.041188
4255.971206,4589.276840,-9652.803275,518.144159
4255.971530,1998.556043,-7660.954980,-1258.350101
4255.971854,2220.617826,-11338.213370,1850.514855
4255.972179,592.164754,-7814.174080,-888.247130
4255.972503,-1184.329507,-9806.022374,444.123565
4255.972827,-222.061783,-7584.345430,-1332.370696
4255.973151,-1110.308913,-8044.002729,592.164754
4255.973475,444.123565,-7507.735880,-518.144159
4255.973799,-1702.473667,-8120.612279,962.267725
4255.974124,-592.164754,-7431.126331,-888.247130
4255.974448,-1110.308913,-9882.631924,518.144159
4255.974772,222.061783,-8120.612279,-1480.411884
4255.975096,0.000000,-8810.098227,-444.123565
4255.975420,2146.597232,-7431.126331,518.144159
4255.975745,2664.741391,-8810.098227,148.041188
4255.976069,3701.029710,-9193.145976,-1184.329507
4255.976393,2146.597232,-9193.145976,814.226536
4255.976717,1554.432478,-9576.193725,148.041188
4255.977041,-814.226536,-8350.440928,-1480.411884
4255.977366,-296.082377,-8427.050478,0.000000
4255.977690,-740.205942,-8656.879127,222.061783
4255.978014,-962.267725,-7431.126331,-1110.308913
4255.978338,1924.535449,-8963.317327,666.185348
4255.978662,-1258.350101,-6894.859482,-1184.329507
4255.978986,-2072.576638,-10418.898773,-666.185348
4255.979311,1480.411884,-8120.612279,-1480.411884
4255.979635,-2368.659014,-9269.755526,-148.041188
4255.979959,-1184.329507,-8120.612279,-592.164754
4255.980283,1036.288319,-7967.393179,370.102971
4255.980607,2146.597232,-8120.612279,0.000000
4255.980932,1406.391290,-9193.145976,1332.370696
4255.981256,2738.761985,-9806.022374,-1776.494261
4255.981580,518.144159,-9729.412825,-296.082377
4255.981904,1036.288319,-9193.145976,-1184.329507
4255.982228,-222.061783,-8273.831378,74.020594
4255.982553,-222.061783,-8886.707777,222.061783
4255.982877,-1184.329507,-7201.297681,0.000000
4255.983201,-814.226536,-8197.221829,-1406.391290
4255.983525,-1702.473667,-9806.022374,148.041188
4255.983849,-1184.329507,-7048.078582,-444.123565
4255.984173,-370.102971,-8503.660028,74.020594
4255.984498,0.000000,-7431.126331,0.000000
4255.984822,2072.576638,-9193.145976,-370.102971
4255.985146,3256.906145,-7584.345430,-1036.288319
4255.985470,4145.153275,-9346.365076,1036.288319
4255.985794,1406.391290,-7507.735880,-814.226536
4255.986119,2220.617826,-9652.803275,740.205942
4255.986443,1406.391290,-8733.488677,0.000000
4255.986767,222.061783,-8733.488677,814.226536
4255.987091,-1036.288319,-7967.393179,-1480.411884
4255.987415,-666.185348,-9116.536426,1110.308913
4255.987740,-1332.370696,-8044.002729,-888.247130
4255.988064,-1110.308913,-8044.002729,-518.144159
4255.988388,-1184.329507,-8427.050478,-296.082377
4255.988712,-444.123565,-7507.735880,-518.144159
4255.989036,518.144159,-8810.098227,-518.144159
4255.989360,2442.679609,-8273.831378,-444.123565
4255.989685,5033.400406,-9346.365076,592.164754
4255.990009,2442.679609,-8197.221829,-1406.391290
4255.990333,1480.411884,-9499.584175,592.164754
4255.990657,148.041188,-9576.193725,-666.185348
4255.990981,-592.164754,-9806.022374,74.020594
4255.991306,-962.267725,-7890.783629,-1480.411884
4255.991630,-1406.391290,-10265.679673,222.061783
4255.991954,1110.308913,-7048.078582,148.041188
4255.992278,-1332.370696,-8886.707777,-962.267725
4255.992602,-2072.576638,-8580.269578,-1110.308913
4255.992927,-2368.659014,-8044.002729,592.164754
4255.993251,222.061783,-7660.954980,-1258.350101
4255.993575,296.082377,-9652.803275,-296.082377
4255.993899,1554.432478,-7431.126331,-1776.494261
4255.994223,1998.556043,-9729.412825,666.185348
4255.994548,888.247130,-7507.735880,-1258.350101
4255.994872,2886.803174,-10955.165621,1628.453072
4255.995196,222.061783,-7201.297681,-666.185348
4255.995520,518.144159,-10801.946522,0.000000
4255.995844,-592.164754,-7584.345430,-1998.556043
4255.996168,666.185348,-10189.070123,1110.308913
4255.996493,444.123565,-7048.078582,-592.164754
4255.996817,-962.267725,-8886.707777,0.000000
4255.997141,-370.102971,-8273.831378,222.061783
4255.997465,-1406.391290,-9039.926876,0.000000
4255.997789,-1036.288319,-8580.269578,-1554.432478
4255.998114,-296.082377,-7890.783629,-296.082377
4255.998438,962.267725,-7890.783629,-518.144159
4255.998762,222.061783,-9729.412825,-444.123565
4255.999086,1036.288319,-8580.269578,-148.041188
4255.999410,2368.659014,-8580.269578,740.205942
4255.999735,1554.432478,-9576.193725,-814.226536
4256.000059,2294.638420,-8963.317327,74.020594
4256.000383,1258.350101,-7660.954980,-1702.473667
4256.000707,1258.350101,-9652.803275,222.061783
4256.001031,740.205942,-7967.393179,0.000000
4256.001355,-814.226536,-8503.660028,1850.514855
4256.001680,-888.247130,-7124.688131,-222.061783
4256.002004,-1554.432478,-9499.584175,-592.164754
4256.002328,-1554.432478,-8503.660028,-2664.741391
4256.002652,-1110.308913,-8733.488677,-962.267725
4256.002976,0.000000,-8273.831378,-296.082377
4256.003301,1036.288319,-7201.297681,0.000000
4256.003625,148.041188,-9346.365076,-222.061783
4256.003949,4145.153275,-8733.488677,222.061783
4256.004273,1850.514855,-10189.070123,-518.144159
4256.004597,3552.988522,-9039.926876,-1332.370696
4256.004922,370.102971,-10572.117872,-222.061783
4256.005246,-1850.514855,-7814.174080,-296.082377
4256.005570,-666.185348,-9346.365076,222.061783
4256.005894,-1998.556043,-6971.469032,-1036.288319
4256.006218,-296.082377,-8350.440928,444.123565
4256.006542,-2738.761985,-6435.202183,-444.123565
4256.006867,-3627.009116,-9422.974625,0.000000
4256.007191,-518.144159,-7737.564530,-962.267725
4256.007515,-296.082377,-8197.221829,-1110.308913
4256.007839,3404.947333,-9269.755526,0.000000
4256.008163,3034.844362,-7890.783629,222.061783
4256.008488,2812.782580,-9422.974625,-962.267725
4256.008812,3775.050304,-9346.365076,0.000000
4256.009136,2146.597232,-8810.098227,-518.144159
4256.009460,1110.308913,-9499.584175,-962.267725
4256.009784,-1184.329507,-8810.098227,0.000000
4256.010109,0.000000,-9039.926876,148.041188
4256.010433,-1406.391290,-8350.440928,-592.164754
4256.010757,1480.411884,-8810.098227,-296.082377
4256.011081,-2072.576638,-7890.783629,-222.061783
4256.011405,-2146.597232,-8810.098227,0.000000
4256.011729,296.082377,-8580.269578,-1332.370696
4256.012054,-222.061783,-8580.269578,-1406.391290
4256.012378,1850.514855,-9806.022374,666.185348
4256.012702,2442.679609,-7584.345430,0.000000
4256.013026,2886.803174,-10112.460574,-370.102971
4256.013350,2368.659014,-8580.269578,-666.185348
4256.013675,2812.782580,-9806.022374,-148.041188
4256.013999,1184.329507,-8733.488677,-1184.329507
4256.014323,1998.556043,-8197.221829,-444.123565
4256.014647,1110.308913,-7431.126331,-740.205942
4256.014971,-1480.411884,-8733.488677,518.144159
4256.015296,-1998.556043,-8580.269578,-740.205942
4256.015620,-2812.782580,-7584.345430,222.061783
4256.015944,-2812.782580,-9499.584175,518.144159
4256.016268,-2516.700203,-7660.954980,-1554.432478
4256.016592,-2072.576638,-8810.098227,-1628.453072
4256.016916,740.205942,-9116.536426,0.000000
4256.017241,1628.453072,-7660.954980,-1406.391290
4256.017565,2368.659014,-9422.974625,-148.041188
4256.017889,3404.947333,-8044.002729,74.020594
4256.018213,2960.823768,-10572.117872,-296.082377
4256.018537,1406.391290,-8427.050478,-1628.453072
4256.018862,814.226536,-9652.803275,518.144159
4256.019186,1332.370696,-8350.440928,-296.082377
4256.019510,-1998.556043,-9193.145976,-148.041188
4256.019834,-518.144159,-9039.926876,-518.144159
4256.020158,-1628.453072,-8273.831378,666.185348
4256.020483,-2294.638420,-7737.564530,0.000000
4256.020807,-4145.153275,-7431.126331,-1332.370696
4256.021131,0.000000,-9652.803275,-2220.617826
4256.021455,222.061783,-8580.269578,-1110.308913
4256.021779,666.185348,-7967.393179,-296.082377
4256.022103,3034.844362,-8580.269578,74.020594
4256.022428,2368.659014,-8810.098227,518.144159
4256.022752,2368.659014,-10725.336972,-814.226536
4256.023076,1554.432478,-10035.851024,-962.267725
4256.023400,2072.576638,-9576.193725,-666.185348
4256.023724,-740.205942,-7737.564530,-518.144159
4256.024049,-1036.288319,-8350.440928,0.000000
4256.024373,-1702.473667,-8350.440928,444.123565
4256.024697,-1406.391290,-8273.831378,0.000000
4256.025021,-1850.514855,-7431.126331,-962.267725
4256.025345,-1628.453072,-8273.831378,0.000000
4256.025670,-1554.432478,-7814.174080,-740.205942
4256.025994,888.247130,-8580.269578,0.000000
4256.026318,148.041188,-7354.516781,-1998.556043
4256.026642,3478.967927,-8580.269578,444.123565
4256.026966,1702.473667,-10035.851024,-370.102971
4256.027290,3182.885551,-8810.098227,888.247130
4256.027615,4589.276840,-8427.050478,-1554.432478
4256.027939,-296.082377,-10495.508323,-666.185348
4256.028263,2590.720797,-7967.393179,1036.288319
4256.028587,0.000000,-7431.126331,-592.164754
4256.028911,888.247130,-9116.536426,-518.144159
4256.029236,-1406.391290,-8197.221829,-666.185348
4256.029560,-1036.288319,-8733.488677,888.247130
4256.029884,-1924.535449,-8503.660028,-888.247130
4256.030208,-2664.741391,-8044.002729,-296.082377
4256.030532,-740.205942,-9806.022374,296.082377
4256.030857,0.000000,-7354.516781,-592.164754
4256.031181,3108.864956,-9346.365076,666.185348
4256.031505,5181.441594,-7277.907231,-1258.350101
4256.031829,2294.638420,-9806.022374,0.000000
4256.032153,2516.700203,-8733.488677,-370.102971
4256.032477,2146.597232,-9269.755526,-444.123565
4256.032802,1554.432478,-8810.098227,-370.102971
4256.033126,-296.082377,-8350.440928,-296.082377
4256.033450,0.000000,-7890.783629,-1036.288319
4256.033774,-444.123565,-8197.221829,0.000000
4256.034098,-962.267725,-7354.516781,-296.082377
4256.034423,-1406.391290,-7660.954980,-518.144159
4256.034747,-1998.556043,-8963.317327,0.000000
4256.035071,-222.061783,-8044.002729,-518.144159
4256.035395,1702.473667,-9422.974625,-296.082377
4256.035719,1184.329507,-7354.516781,-1628.453072
4256.036044,3627.009116,-9346.365076,-296.082377
4256.036368,3108.864956,-8580.269578,-592.164754
4256.036692,4219.173869,-9729.412825,888.247130
4256.037016,1036.288319,-9422.974625,-1776.494261
4256.037340,-148.041188,-9039.926876,-888.247130
4256.037664,222.061783,-9729.412825,-888.247130
4256.037989,-296.082377,-7201.297681,-1258.350101
4256.038313,0.000000,-9499.584175,444.123565
4256.038637,-2516.700203,-6435.202183,-666.185348
4256.038961,-1850.514855,-9806.022374,740.205942
4256.039285,-2368.659014,-6665.030833,-1036.288319
4256.039610,0.000000,-9806.022374,0.000000
4256.039934,148.041188,-7737.564530,74.020594
4256.040258,148.041188,-8350.440928,444.123565
4256.040582,3997.112087,-9576.193725,-296.082377
4256.040906,1406.391290,-8503.660028,-370.102971
4256.041231,3775.050304,-9193.145976,0.000000
4256.041555,1332.370696,-9806.022374,0.000000
4256.041879,2960.823768,-8273.831378,-592.164754
4256.042203,74.020594,-8273.831378,0.000000
4256.042527,0.000000,-7507.735880,-814.226536
4256.042851,0.000000,-8197.221829,888.247130
4256.043176,-1184.329507,-7354.516781,740.205942
4256.043500,-1332.370696,-8963.317327,1110.308913
4256.043824,-1332.370696,-7584.345430,-518.144159
4256.044148,-1258.350101,-9116.536426,370.102971
4256.044472,-1776.494261,-7584.345430,-1554.432478
4256.044797,1480.411884,-9346.365076,-148.041188
4256.045121,1702.473667,-8656.879127,-592.164754
4256.045445,2590.720797,-9499.584175,-148.041188
4256.045769,3997.112087,-8503.660028,0.000000
4256.046093,3478.967927,-10035.851024,-1036.288319
4256.046418,1332.370696,-8503.660028,-518.144159
4256.046742,2220.617826,-8963.317327,-296.082377
4256.047066,0.000000,-8656.879127,-888.247130
4256.047390,-1332.370696,-8656.879127,666.185348
4256.047714,-1776.494261,-7814.174080,0.000000
4256.048038,-2960.823768,-8656.879127,370.102971
4256.048363,-3701.029710,-7967.393179,-444.123565
4256.048687,-3701.029710,-7967.393179,-444.123565
4256.049011,1702.473667,-8963.317327,-1036.288319
4256.049335,2516.700203,-7890.783629,-1258.350101
4256.049659,2442.679609,-8963.317327,0.000000
4256.049984,2960.823768,-8120.612279,-814.226536
4256.050308,4885.359217,-9806.022374,-518.144159
4256.050632,3034.844362,-9729.412825,518.144159
4256.050956,3182.885551,-9116.536426,-814.226536
4256.051280,518.144159,-8810.098227,-1332.370696
4256.051604,-444.123565,-8350.440928,-370.102971
4256.051929,-2590.720797,-7890.783629,-148.041188
4256.052253,-2368.659014,-7890.783629,74.020594
4256.052577,-1850.514855,-8810.098227,518.144159
4256.052901,-3182.885551,-7584.345430,-296.082377
4256.053225,-888.247130,-9346.365076,222.061783
4256.053549,444.123565,-8503.660028,-1554.432478
4256.053874,74.020594,-8963.317327,0.000000
4256.054198,1258.350101,-7584.345430,-962.267725
4256.054522,3923.091493,-9652.803275,148.041188
4256.054846,4737.318029,-8273.831378,-1036.288319
4256.055170,4367.215058,-9269.755526,-222.061783
4256.055494,2812.782580,-10035.851024,518.144159
4256.055819,814.226536,-8427.050478,0.000000
4256.056143,888.247130,-9039.926876,592.164754
4256.056467,-2960.823768,-7354.516781,-740.205942
4256.056791,-222.061783,-8427.050478,-888.247130
4256.057115,-1628.453072,-6971.469032,-370.102971
4256.057440,74.020594,-8580.269578,0.000000
4256.057764,-1776.494261,-7967.393179,0.000000
4256.058088,-1850.514855,-8810.098227,-888.247130
4256.058412,444.123565,-8503.660028,-1184.329507
4256.058736,2368.659014,-8427.050478,-518.144159
4256.059060,3849.070898,-9269.755526,0.000000
4256.059385,3182.885551,-8427.050478,148.041188
4256.059709,2442.679609,-8427.050478,-814.226536
4256.060033,1776.494261,-10112.460574,-518.144159
4256.060357,740.205942,-8427.050478,-1184.329507
4256.060681,592.164754,-9422.974625,370.102971
4256.061005,-1702.473667,-7277.907231,-666.185348
4256.061330,-296.082377,-9039.926876,0.000000
4256.061654,-1924.535449,-7354.516781,-592.164754
4256.061978,-1702.473667,-9193.145976,444.123565
4256.062302,0.000000,-7967.393179,-296.082377
4256.062626,-2146.597232,-8656.879127,-740.205942
4256.062950,666.185348,-9193.145976,-592.164754
4256.063275,888.247130,-9269.755526,222.061783
4256.063599,1110.308913,-8580.269578,-1332.370696
4256.063923,3330.926739,-10265.679673,74.020594
4256.064247,3256.906145,-7354.516781,-444.123565
4256.064571,2072.576638,-9806.022374,518.144159
4256.064895,1702.473667,-8120.612279,-1702.473667
4256.065220,666.185348,-10112.460574,592.164754
4256.065544,222.061783,-7354.516781,-444.123565
4256.065868,0.000000,-9576.193725,0.000000
4256.066192,-2516.700203,-7814.174080,370.102971
4256.066516,2738.761985,-7737.564530,-296.082377
4256.066841,-8882.471304,-8810.098227,-888.247130
4256.067165,592.164754,-9576.193725,-296.082377
4256.067489,-148.041188,-7201.297681,-1628.453072
4256.067813,592.164754,-10725.336972,-444.123565
4256.068137,2812.782580,-8733.488677,-1110.308913
4256.068461,0.000000,-9193.145976,-1332.370696
4256.068786,1998.556043,-10265.679673,1184.329507
4256.069110,4885.359217,-7124.688131,-1998.556043
4256.069434,370.102971,-10342.289223,1110.308913
4256.069758,1702.473667,-6665.030833,-1850.514855
4256.070082,444.123565,-9346.365076,222.061783
4256.070406,-296.082377,-7660.954980,-888.247130
4256.070731,-1110.308913,-7967.393179,0.000000
4256.071055,1850.514855,-8580.269578,1332.370696
4256.071379,-1184.329507,-8350.440928,518.144159
4256.071703,1332.370696,-9499.584175,-1184.329507
4256.072027,-222.061783,-8656.879127,-2072.576638
4256.072351,-2590.720797,-9959.241474,-666.185348
4256.072676,-1628.453072,-7660.954980,222.061783
4256.073000,4589.276840,-8580.269578,-1776.494261
4256.073324,814.226536,-10878.556072,74.020594
4256.073648,1406.391290,-8044.002729,-518.144159
4256.073972,1406.391290,-9499.584175,-592.164754
4256.074297,-1480.411884,-9576.193725,-1036.288319
4256.074621,2072.576638,-10035.851024,518.144159
4256.074945,-1332.370696,-6511.811733,-148.041188
4256.075269,-3108.864956,-9116.536426,-444.123565
4256.075593,1554.432478,-9193.145976,-666.185348
4256.075917,-2442.679609,-7737.564530,-1184.329507
4256.076242,-2294.638420,-8733.488677,1776.494261
4256.076566,-518.144159,-7584.345430,-2664.741391
4256.076890,814.226536,-10265.679673,1184.329507
4256.077214,-888.247130,-5822.325785,-1036.288319
4256.077538,3256.906145,-9422.974625,518.144159
4256.077862,2886.803174,-7277.907231,-2146.597232
4256.078187,370.102971,-9806.022374,2146.597232
4256.078511,3034.844362,-7890.783629,-1628.453072
4256.078835,1628.453072,-9499.584175,-518.144159
4256.079159,740.205942,-8120.612279,444.123565
4256.079483,962.267725,-7354.516781,-666.185348
4256.079807,592.164754,-9576.193725,74.020594
4256.080132,-518.144159,-6818.249932,0.000000
4256.080456,1332.370696,-7584.345430,148.041188
4256.080780,-3034.844362,-9116.536426,-296.082377
4256.081104,444.123565,-8810.098227,518.144159
4256.081428,-592.164754,-7431.126331,-1554.432478
4256.081753,-1258.350101,-9039.926876,296.082377
4256.082077,2368.659014,-8350.440928,-666.185348
4256.082401,4441.235652,-8120.612279,-1036.288319
4256.082725,1850.514855,-9422.974625,-444.123565
4256.083049,1850.514855,-8580.269578,1184.329507
4256.083373,2368.659014,-9039.926876,-370.102971
4256.083698,-296.082377,-9499.584175,-962.267725
4256.084022,1258.350101,-9576.193725,0.000000
4256.084346,370.102971,-8044.002729,-962.267725
4256.084670,-1406.391290,-8580.269578,148.041188
4256.084994,222.061783,-8350.440928,-444.123565
4256.085318,-592.164754,-8197.221829,222.061783
4256.085643,-1258.350101,-8886.707777,-1036.288319
4256.085967,-1998.556043,-8044.002729,-370.102971
4256.086291,-1702.473667,-7814.174080,-592.164754
4256.086615,-148.041188,-9116.536426,-148.041188
4256.086939,2886.803174,-7967.393179,-1184.329507
4256.087263,2812.782580,-9959.241474,148.041188
4256.087588,1406.391290,-8580.269578,-814.226536
4256.087912,2294.638420,-10265.679673,296.082377
4256.088236,1702.473667,-8273.831378,-1110.308913
4256.088560,1628.453072,-9729.412825,222.061783
4256.088884,1184.329507,-7814.174080,74.020594
4256.089209,0.000000,-7507.735880,0.000000
4256.089533,-1628.453072,-8810.098227,-296.082377
4256.089857,-444.123565,-8273.831378,-666.185348
4256.090181,-1776.494261,-8044.002729,222.061783
4256.090505,-3034.844362,-8350.440928,0.000000
4256.090829,888.247130,-8656.879127,-1184.329507
4256.091154,296.082377,-8733.488677,-888.247130
4256.091478,2072.576638,-8580.269578,-666.185348
4256.091802,4441.235652,-9039.926876,0.000000
4256.092126,3256.906145,-8886.707777,-814.226536
4256.092450,1776.494261,-10418.898773,-888.247130
4256.092774,-370.102971,-9806.022374,-1258.350101
4256.093099,1036.288319,-10035.851024,-148.041188
4256.093423,-1184.329507,-7967.393179,-1036.288319
4256.093747,-1702.473667,-9193.145976,0.000000
4256.094071,-1628.453072,-7431.126331,74.020594
4256.094395,-1628.453072,-9039.926876,444.123565
4256.094719,-2072.576638,-8503.660028,-1480.411884
4256.095044,-1628.453072,-8273.831378,-148.041188
4256.095368,-148.041188,-7890.783629,-962.267725
4256.095692,148.041188,-9499.584175,0.000000
4256.096016,666.185348,-7584.345430,-1480.411884
4256.096340,1998.556043,-10112.460574,-740.205942
4256.096664,2664.741391,-9269.755526,-370.102971
4256.096989,2590.720797,-9806.022374,0.000000
4256.097313,-740.205942,-8273.831378,-1776.494261
4256.097637,-148.041188,-8963.317327,-1258.350101
4256.097961,1184.329507,-9269.755526,0.000000
4256.098285,-444.123565,-6971.469032,-296.082377
4256.098610,-296.082377,-7737.564530,1036.288319
4256.098934,444.123565,-7890.783629,666.185348
4256.099258,-962.267725,-8810.098227,74.020594
4256.099582,0.000000,-8197.221829,148.041188
4256.099906,-740.205942,-8503.660028,-1258.350101
4256.100230,-444.123565,-8886.707777,0.000000
4256.100555,2072.576638,-7354.516781,-962.267725
4256.100879,1850.514855,-10342.289223,74.020594
4256.101203,296.082377,-7048.078582,-888.247130
4256.101527,1702.473667,-9499.584175,1184.329507
4256.101851,1184.329507,-7354.516781,-1258.350101
4256.102175,-666.185348,-9039.926876,814.226536
4256.102500,962.267725,-7354.516781,-1110.308913
4256.102824,370.102971,-8886.707777,0.000000
4256.103148,518.144159,-7584.345430,-962.267725
4256.103472,148.041188,-9039.926876,888.247130
4256.103796,-1406.391290,-6818.249932,-1258.350101
4256.104120,-2812.782580,-9576.193725,74.020594
4256.104445,-1702.473667,-7814.174080,-814.226536
4256.104769,-1184.329507,-8427.050478,-296.082377
4256.105093,370.102971,-8733.488677,-1184.329507
4256.105417,2146.597232,-8350.440928,0.000000
4256.105741,1998.556043,-7967.393179,-592.164754
4256.106066,2294.638420,-9499.584175,-814.226536
4256.106390,3775.050304,-9806.022374,0.000000
4256.106714,2220.617826,-8350.440928,-370.102971
4256.107038,2516.700203,-8810.098227,0.000000
4256.107362,2294.638420,-8044.002729,0.000000
4256.107686,-814.226536,-9039.926876,-1332.370696
4256.108011,-1628.453072,-8503.660028,296.082377
4256.108335,-2886.803174,-9039.926876,-148.041188
4256.108659,-814.226536,-9039.926876,-888.247130
4256.108983,-2368.659014,-8120.612279,-296.082377
4256.109307,-518.144159,-8580.269578,-444.123565
4256.109631,444.123565,-9576.193725,814.226536
4256.109956,74.020594,-6281.983084,-1554.432478
4256.110280,3256.906145,-10955.165621,0.000000
4256.110604,2368.659014,-7354.516781,-1258.350101
4256.110928,4811.338623,-10801.946522,296.082377
4256.111252,-222.061783,-8733.488677,-1702.473667
4256.111576,0.000000,-9806.022374,-962.267725
4256.111901,296.082377,-9422.974625,-222.061783
4256.112225,-4219.173869,-8503.660028,-1110.308913
4256.112549,-296.082377,-8503.660028,592.164754
4256.112873,-3478.967927,-6588.421283,444.123565
4256.113197,222.061783,-9346.365076,370.102971
4256.113522,-2664.741391,-7354.516781,-1850.514855
4256.113846,-592.164754,-10035.851024,444.123565
4256.114170,1406.391290,-7277.907231,-888.247130
4256.114494,2072.576638,-7890.783629,-592.164754
4256.114818,2664.741391,-8886.707777,-740.205942
4256.115142,3256.906145,-8197.221829,-814.226536
4256.115467,3034.844362,-10265.679673,444.123565
4256.115791,1850.514855,-7890.783629,-1480.411884
4256.116115,1406.391290,-9116.536426,370.102971
4256.116439,-666.185348,-8656.879127,444.123565
4256.116763,-148.041188,-8886.707777,0.000000
4256.117087,-1036.288319,-7967.393179,-1184.329507
4256.117412,-518.144159,-8350.440928,148.041188
4256.117736,-962.267725,-6971.469032,1184.329507
4256.118060,-1184.329507,-8044.002729,-740.205942
4256.118384,-1036.288319,-9193.145976,814.226536
4256.118708,-518.144159,-8580.269578,518.144159
4256.119032,4959.379811,-8120.612279,0.000000
4256.119357,962.267725,-10342.289223,-2960.823768
4256.119681,74.020594,-9269.755526,-666.185348
4256.120005,518.144159,-8044.002729,-1554.432478
4256.120329,2220.617826,-10418.898773,-296.082377
4256.120653,1924.535449,-7431.126331,1036.288319
4256.120978,1406.391290,-9346.365076,-518.144159
4256.121302,-2960.823768,-8044.002729,-740.205942
4256.121626,74.020594,-8044.002729,-222.061783
4256.121950,-4145.153275,-9116.536426,1332.370696
4256.122274,0.000000,-6511.811733,-1702.473667
4256.122598,-592.164754,-9193.145976,444.123565
4256.122923,-2072.576638,-7048.078582,-740.205942
4256.123247,-518.144159,-9116.536426,370.102971
4256.123571,1998.556043,-8197.221829,-740.205942
4256.123895,666.185348,-9729.412825,-1036.288319
4256.124219,3701.029710,-8733.488677,-222.061783
4256.124543,1924.535449,-8044.002729,-2294.638420
4256.124868,1702.473667,-10035.851024,1480.411884
4256.125192,0.000000,-7277.907231,-1554.432478
4256.125516,-962.267725,-9729.412825,518.144159
4256.125840,-518.144159,-8427.050478,-962.267725
4256.126164,-740.205942,-8733.488677,0.000000
4256.126488,-2590.720797,-8120.612279,-1036.288319
4256.126813,-518.144159,-8350.440928,962.267725
4256.127137,-888.247130,-8427.050478,-1036.288319
4256.127461,-148.041188,-9346.365076,-962.267725
4256.127785,-296.082377,-8350.440928,-370.102971
4256.128109,74.020594,-8810.098227,-370.102971
4256.128434,2368.659014,-8427.050478,-1036.288319
4256.128758,2590.720797,-9346.365076,-370.102971
4256.129082,2442.679609,-8273.831378,-666.185348
4256.129406,592.164754,-9499.584175,-814.226536
4256.129730,962.267725,-9882.631924,-222.061783
4256.130054,-962.267725,-8427.050478,-1702.473667
4256.130379,-740.205942,-8197.221829,-148.041188
4256.130703,-1554.432478,-8273.831378,444.123565
4256.131027,296.082377,-8197.221829,-1480.411884
4256.131351,0.000000,-8810.098227,222.061783
4256.131675,-2516.700203,-8273.831378,148.041188
4256.131999,0.000000,-8197.221829,-222.061783
4256.132324,-222.061783,-8580.269578,-370.102971
4256.132648,888.247130,-7890.783629,-222.061783
4256.132972,1628.453072,-9499.584175,-444.123565
4256.133296,3108.864956,-7737.564530,-740.205942
4256.133620,2738.761985,-9576.193725,0.000000
4256.133944,2294.638420,-7890.783629,-1258.350101
4256.134269,2368.659014,-11568.042020,1480.411884
4256.134593,1184.329507,-7048.078582,-1554.432478
4256.134917,1406.391290,-9806.022374,222.061783
4256.135241,-1258.350101,-7354.516781,-666.185348
4256.135565,0.000000,-8120.612279,0.000000
4256.135889,-148.041188,-8350.440928,518.144159
4256.136214,148.041188,-8503.660028,-370.102971
4256.136538,1258.350101,-9422.974625,-592.164754
4256.136862,-2146.597232,-7354.516781,-888.247130
4256.137186,-1480.411884,-8963.317327,0.000000
4256.137510,518.144159,-7814.174080,0.000000
4256.137835,1332.370696,-7967.393179,-518.144159
4256.138159,3182.885551,-9422.974625,-370.102971
4256.138483,666.185348,-7890.783629,-1850.514855
4256.138807,1850.514855,-10725.336972,518.144159
4256.139131,962.267725,-8044.002729,-2146.597232
4256.139455,1184.329507,-10189.070123,74.020594
4256.139780,-148.041188,-7584.345430,-1332.370696
4256.140104,-1628.453072,-8273.831378,296.082377
4256.140428,-296.082377,-8120.612279,-666.185348
4256.140752,-592.164754,-8120.612279,74.020594
4256.141076,444.123565,-8120.612279,148.041188
4256.141400,-2590.720797,-7431.126331,-1110.308913
4256.141725,0.000000,-8733.488677,-222.061783
4256.142049,888.247130,-8580.269578,-740.205942
4256.142373,1628.453072,-8044.002729,-888.247130
4256.142697,2960.823768,-10112.460574,-666.185348
4256.143021,444.123565,-7507.735880,-1998.556043
4256.143345,1776.494261,-10955.165621,1110.308913
4256.143670,814.226536,-7890.783629,-1628.453072
4256.143994,444.123565,-9959.241474,740.205942
4256.144318,-370.102971,-7431.126331,-296.082377
4256.144642,0.000000,-8503.660028,814.226536
4256.144966,-2146.597232,-8044.002729,-1332.370696
4256.145291,-518.144159,-8197.221829,-888.247130
4256.145615,-1406.391290,-8810.098227,-444.123565
4256.145939,-3330.926739,-8580.269578,-444.123565
4256.146263,-888.247130,-8810.098227,518.144159
4256.146587,-962.267725,-8044.002729,-1184.329507
4256.146911,1776.494261,-9806.022374,0.000000
4256.147236,1776.494261,-7048.078582,-2146.597232
4256.147560,1332.370696,-10648.727422,-370.102971
4256.147884,1110.308913,-9806.022374,-296.082377
4256.148208,1554.432478,-9882.631924,962.267725
4256.148532,1776.494261,-7814.174080,-1554.432478
4256.148857,-592.164754,-9422.974625,-370.102971
4256.149181,222.061783,-7890.783629,-1110.308913
4256.149505,74.020594,-7967.393179,-962.267725
4256.149829,1406.391290,-8733.488677,148.041188
4256.150154,444.123565,-7737.564530,592.164754
4256.150478,-1702.473667,-8427.050478,-888.247130
4256.150802,-1258.350101,-8580.269578,-296.082377
4256.151127,-2072.576638,-8044.002729,148.041188
4256.151451,444.123565,-8503.660028,-740.205942
4256.151775,1110.308913,-8044.002729,-1036.288319
4256.152100,1850.514855,-9422.974625,-518.144159
4256.152424,1850.514855,-7967.393179,-1110.308913
4256.152748,2220.617826,-9576.193725,962.267725
4256.153072,1110.308913,-9039.926876,-1110.308913
4256.153397,2368.659014,-9193.145976,-370.102971
4256.153721,1110.308913,-8044.002729,370.102971
4256.154045,296.082377,-8273.831378,-1184.329507
4256.154370,-1258.350101,-8963.317327,-888.247130
4256.154694,-1332.370696,-8503.660028,-148.041188
4256.155018,-1332.370696,-7431.126331,74.020594
4256.155342,-3330.926739,-8197.221829,-370.102971
4256.155667,-1554.432478,-8886.707777,-222.061783
4256.155991,962.267725,-8503.660028,-666.185348
4256.156315,2886.803174,-8273.831378,-222.061783
4256.156640,1258.350101,-9499.584175,-444.123565
4256.156964,3849.070898,-8580.269578,-666.185348
4256.157288,3701.029710,-9959.241474,74.020594
4256.157613,1850.514855,-9959.241474,-1480.411884
4256.157937,1332.370696,-8733.488677,-222.061783
4256.158261,-814.226536,-8810.098227,-148.041188
4256.158585,-1332.370696,-9806.022374,-296.082377
4256.158910,-1776.494261,-8044.002729,-370.102971
4256.159234,-2146.597232,-8810.098227,444.123565
4256.159558,-2294.638420,-7967.393179,222.061783
4256.159883,-2368.659014,-7431.126331,-666.185348
4256.160207,-2146.597232,-8810.098227,-592.164754
4256.160531,962.267725,-8580.269578,-518.144159
4256.160856,2294.638420,-8197.221829,-1110.308913
4256.161180,4441.235652,-9116.536426,0.000000
4256.161504,4589.276840,-9193.145976,0.000000
4256.161828,4589.276840,-9576.193725,-666.185348
4256.162153,2368.659014,-7507.735880,-1184.329507
4256.162477,1258.350101,-8273.831378,888.247130
4256.162801,222.061783,-7967.393179,-222.061783
4256.163126,-518.144159,-7124.688131,-1036.288319
4256.163450,0.000000,-9806.022374,370.102971
4256.163774,-2516.700203,-5362.668486,0.000000
4256.164098,-1036.288319,-9346.365076,740.205942
4256.164423,-518.144159,-7890.783629,-1406.391290
4256.164747,-1332.370696,-9039.926876,148.041188
4256.165071,370.102971,-7890.783629,-814.226536
4256.165396,4737.318029,-9039.926876,740.205942
4256.165720,4737.318029,-8656.879127,-1332.370696
4256.166044,-222.061783,-9116.536426,-1776.494261
4256.166369,666.185348,-11184.994271,1258.350101
4256.166693,1406.391290,-8427.050478,-592.164754
4256.167017,888.247130,-8350.440928,-814.226536
4256.167341,1702.473667,-8120.612279,-666.185348
4256.167666,-1628.453072,-9652.803275,222.061783
4256.167990,-1628.453072,-6358.592633,-666.185348
4256.168314,-1406.391290,-9499.584175,1332.370696
4256.168639,-2146.597232,-7048.078582,-888.247130
4256.168963,-370.102971,-9806.022374,0.000000
4256.169287,-1998.556043,-8350.440928,74.020594
4256.169611,-814.226536,-8656.879127,-1258.350101
4256.169936,2738.761985,-8886.707777,1036.288319
4256.170260,888.247130,-7890.783629,-1702.473667
4256.170584,4959.379811,-10418.898773,-666.185348
4256.170909,2072.576638,-7967.393179,-962.267725
4256.171233,1554.432478,-9576.193725,1184.329507
4256.171557,2442.679609,-7277.907231,-1406.391290
4256.171882,592.164754,-9422.974625,814.226536
4256.172206,-1702.473667,-8120.612279,-296.082377
4256.172530,-1184.329507,-8197.221829,-370.102971
4256.172854,-1110.308913,-8197.221829,666.185348
4256.173179,-1110.308913,-7354.516781,-740.205942
4256.173503,-592.164754,-7660.954980,-296.082377
4256.173827,-370.102971,-8197.221829,0.000000
4256.174152,1480.411884,-7967.393179,-148.041188
4256.174476,2072.576638,-9422.974625,-222.061783
4256.174800,1850.514855,-7660.954980,-666.185348
4256.175125,3256.906145,-9346.365076,-370.102971
4256.175449,3182.885551,-7814.174080,-592.164754
4256.175773,1258.350101,-9499.584175,0.000000
4256.176097,1258.350101,-8350.440928,-1036.288319
4256.176422,740.205942,-9039.926876,148.041188
4256.176746,-148.041188,-7431.126331,-370.102971
4256.177070,-296.082377,-8350.440928,888.247130
4256.177395,-296.082377,-8120.612279,74.020594
4256.177719,-296.082377,-7814.174080,592.164754
4256.178043,592.164754,-8963.317327,-296.082377
4256.178367,740.205942,-8503.660028,0.000000
4256.178692,-1110.308913,-7890.783629,-2368.659014
4256.179016,-1184.329507,-10112.460574,-1258.350101
4256.179340,296.082377,-8427.050478,148.041188
4256.179665,1776.494261,-8963.317327,-888.247130
4256.179989,740.205942,-9499.584175,-888.247130
4256.180313,148.041188,-9422.974625,-222.061783
4256.180638,0.000000,-7737.564530,444.123565
4256.180962,1406.391290,-7967.393179,-444.123565
4256.181286,1776.494261,-8580.269578,-814.226536
4256.181610,1480.411884,-8733.488677,0.000000
4256.181935,148.041188,-7814.174080,0.000000
4256.182259,888.247130,-8427.050478,370.102971
4256.182583,1110.308913,-9269.755526,-666.185348
4256.182908,74.020594,-7890.783629,-1110.308913
4256.183232,-2294.638420,-9422.974625,-1480.411884
4256.183556,-1554.432478,-8427.050478,-1554.432478
