#time,accel_x,accel_y,accel_z
4537.260939,444.123565,-8427.050478,-370.102971
4537.261264,296.082377,-8350.440928,-148.041188
4537.261588,666.185348,-8273.831378,148.041188
4537.261912,666.185348,-8503.660028,0.000000
4537.262237,518.144159,-8810.098227,0.000000
4537.262561,740.205942,-8886.707777,148.041188
4537.262886,444.123565,-8733.488677,296.082377
4537.263210,148.041188,-8810.098227,74.020594
4537.263534,222.061783,-8503.660028,222.061783
4537.263859,0.000000,-8810.098227,296.082377
4537.264183,0.000000,-8580.269578,370.102971
4537.264508,444.123565,-8197.221829,444.123565
4537.264832,74.020594,-8427.050478,444.123565
4537.265156,0.000000,-8197.221829,592.164754
4537.265481,148.041188,-8350.440928,518.144159
4537.265805,740.205942,-8886.707777,962.267725
4537.266130,296.082377,-8733.488677,814.226536
4537.266454,444.123565,-8580.269578,814.226536
4537.266778,222.061783,-8503.660028,740.205942
4537.267103,74.020594,-8503.660028,888.247130
4537.267427,444.123565,-8810.098227,518.144159
4537.267752,296.082377,-8350.440928,592.164754
4537.268076,148.041188,-8503.660028,666.185348
4537.268400,296.082377,-8580.269578,444.123565
4537.268725,592.164754,-8197.221829,222.061783
4537.269049,592.164754,-8503.660028,518.144159
4537.269374,666.185348,-8503.660028,444.123565
4537.269698,296.082377,-8733.488677,740.205942
4537.270022,370.102971,-9039.926876,444.123565
4537.270347,296.082377,-8656.879127,518.144159
4537.270671,444.123565,-8197.221829,296.082377
4537.270996,148.041188,-8810.098227,148.041188
4537.271320,444.123565,-8273.831378,370.102971
4537.271645,222.061783,-8503.660028,0.000000
4537.271969,74.020594,-8733.488677,222.061783
4537.272293,518.144159,-8580.269578,0.000000
4537.272618,518.144159,-8503.660028,-222.061783
4537.272942,222.061783,-9346.365076,444.123565
4537.273267,444.123565,-8810.098227,-148.041188
4537.273591,444.123565,-8656.879127,0.000000
4537.273915,518.144159,-8810.098227,-148.041188
4537.274240,370.102971,-8733.488677,-370.102971
4537.274564,370.102971,-8810.098227,-740.205942
4537.274889,148.041188,-8733.488677,-444.123565
4537.275213,444.123565,-8580.269578,-592.164754
4537.275537,296.082377,-8656.879127,-592.164754
4537.275862,666.185348,-8427.050478,-666.185348
4537.276186,666.185348,-8580.269578,-740.205942
4537.276511,740.205942,-8503.660028,-370.102971
4537.276835,666.185348,-8656.879127,-740.205942
4537.277159,592.164754,-8886.707777,-740.205942
4537.277484,592.164754,-8273.831378,-814.226536
4537.277808,444.123565,-8733.488677,-1110.308913
4537.278132,592.164754,-8810.098227,-888.247130
4537.278457,592.164754,-8427.050478,-888.247130
4537.278781,518.144159,-8427.050478,-1258.350101
4537.279105,592.164754,-8273.831378,-1110.308913
4537.279430,592.164754,-8580.269578,-962.267725
4537.279754,740.205942,-8733.488677,-1258.350101
4537.280078,592.164754,-8350.440928,-1184.329507
4537.280403,296.082377,-8733.488677,-1184.329507
4537.280727,444.123565,-8656.879127,-962.267725
4537.281051,666.185348,-8810.098227,-1110.308913
4537.281376,444.123565,-8503.660028,-1554.432478
4537.281700,666.185348,-8350.440928,-1480.411884
4537.282024,370.102971,-8810.098227,-1184.329507
4537.282349,518.144159,-8886.707777,-1332.370696
4537.282673,518.144159,-8656.879127,-1110.308913
4537.282997,666.185348,-8886.707777,-1332.370696
4537.283322,518.144159,-8886.707777,-1258.350101
4537.283646,222.061783,-8733.488677,-888.247130
4537.283970,222.061783,-8886.707777,-962.267725
4537.284295,222.061783,-8580.269578,-814.226536
4537.284619,370.102971,-8810.098227,-962.267725
4537.284943,222.061783,-9193.145976,-962.267725
4537.285268,370.102971,-8810.098227,-592.164754
4537.285592,74.020594,-9346.365076,-1036.288319
4537.285916,0.000000,-8810.098227,-814.226536
4537.286241,222.061783,-8580.269578,-814.226536
4537.286565,296.082377,-8503.660028,-962.267725
4537.286889,296.082377,-8656.879127,-666.185348
4537.287214,-148.041188,-8580.269578,-518.144159
4537.287538,148.041188,-8656.879127,-518.144159
4537.287862,296.082377,-8886.707777,-518.144159
4537.288187,370.102971,-8963.317327,-814.226536
4537.288511,740.205942,-8733.488677,-888.247130
4537.288835,370.102971,-8273.831378,-592.164754
4537.289160,148.041188,-8963.317327,-592.164754
4537.289484,148.041188,-8656.879127,-666.185348
4537.289808,222.061783,-9039.926876,-444.123565
4537.290133,296.082377,-8733.488677,-444.123565
4537.290457,518.144159,-8656.879127,-518.144159
4537.290781,444.123565,-8580.269578,-370.102971
4537.291106,222.061783,-8503.660028,0.000000
4537.291430,592.164754,-8580.269578,0.000000
4537.291754,518.144159,-8656.879127,-296.082377
4537.292078,814.226536,-8656.879127,0.000000
4537.292403,740.205942,-8427.050478,0.000000
4537.292727,740.205942,-9193.145976,444.123565
4537.293051,666.185348,-8580.269578,148.041188
4537.293376,740.205942,-8580.269578,74.020594
4537.293700,1036.288319,-8810.098227,74.020594
4537.294024,888.247130,-8963.317327,370.102971
4537.294349,518.144159,-8427.050478,370.102971
4537.294673,666.185348,-8580.269578,296.082377
4537.294997,888.247130,-8656.879127,222.061783
4537.295322,962.267725,-8886.707777,518.144159
4537.295646,518.144159,-8656.879127,814.226536
4537.295970,666.185348,-8886.707777,592.164754
4537.296295,592.164754,-8580.269578,740.205942
4537.296619,518.144159,-8427.050478,740.205942
4537.296943,296.082377,-8427.050478,1110.308913
4537.297268,296.082377,-8503.660028,888.247130
4537.297592,370.102971,-8580.269578,814.226536
4537.297916,518.144159,-8810.098227,592.164754
4537.298241,592.164754,-8503.660028,592.164754
4537.298565,666.185348,-8810.098227,814.226536
4537.298889,666.185348,-8656.879127,814.226536
4537.299214,962.267725,-8427.050478,666.185348
4537.299538,518.144159,-8427.050478,740.205942
4537.299862,148.041188,-8197.221829,1036.288319
4537.300187,296.082377,-8503.660028,666.185348
4537.300511,74.020594,-8580.269578,666.185348
4537.300835,74.020594,-8503.660028,740.205942
4537.301160,0.000000,-8044.002729,740.205942
4537.301484,222.061783,-8503.660028,592.164754
4537.301808,74.020594,-8503.660028,740.205942
4537.302133,74.020594,-8580.269578,518.144159
4537.302457,518.144159,-8580.269578,518.144159
4537.302781,74.020594,-8044.002729,666.185348
4537.303106,222.061783,-8656.879127,592.164754
4537.303430,74.020594,-8044.002729,444.123565
4537.303754,518.144159,-8427.050478,222.061783
4537.304079,0.000000,-8350.440928,296.082377
4537.304403,222.061783,-8503.660028,518.144159
4537.304727,148.041188,-8350.440928,222.061783
4537.305052,74.020594,-8656.879127,148.041188
4537.305376,148.041188,-8350.440928,518.144159
4537.305700,0.000000,-8656.879127,148.041188
4537.306025,518.144159,-8273.831378,0.000000
4537.306349,148.041188,-8580.269578,74.020594
4537.306673,222.061783,-8733.488677,0.000000
4537.306998,518.144159,-8886.707777,0.000000
4537.307322,592.164754,-8656.879127,-148.041188
4537.307646,518.144159,-8810.098227,0.000000
4537.307971,592.164754,-8656.879127,0.000000
4537.308295,740.205942,-9193.145976,0.000000
4537.308619,222.061783,-8350.440928,0.000000
4537.308944,296.082377,-8350.440928,-296.082377
4537.309268,444.123565,-8427.050478,-296.082377
4537.309592,370.102971,-7584.345430,0.000000
4537.309917,444.123565,-8427.050478,0.000000
4537.310241,370.102971,-9039.926876,0.000000
4537.310565,518.144159,-8503.660028,-148.041188
4537.310890,592.164754,-8580.269578,-296.082377
4537.311214,518.144159,-8503.660028,-592.164754
4537.311538,592.164754,-8503.660028,-222.061783
4537.311863,740.205942,-8503.660028,-518.144159
4537.312187,518.144159,-8580.269578,-518.144159
4537.312511,888.247130,-9499.584175,-370.102971
4537.312836,592.164754,-8580.269578,-222.061783
4537.313160,148.041188,-8197.221829,0.000000
4537.313484,296.082377,-8197.221829,-370.102971
4537.313809,222.061783,-8197.221829,-222.061783
4537.314133,222.061783,-8273.831378,0.000000
4537.314457,222.061783,-8580.269578,-148.041188
4537.314782,148.041188,-8273.831378,-148.041188
4537.315106,296.082377,-8733.488677,-296.082377
4537.315430,222.061783,-8427.050478,0.000000
4537.315755,296.082377,-8733.488677,0.000000
4537.316079,444.123565,-8733.488677,-222.061783
4537.316403,666.185348,-8733.488677,0.000000
4537.316728,222.061783,-8120.612279,-296.082377
4537.317052,74.020594,-8427.050478,0.000000
4537.317376,74.020594,-8427.050478,148.041188
4537.317701,0.000000,-8503.660028,-148.041188
4537.318025,0.000000,-8503.660028,222.061783
4537.318349,-296.082377,-8427.050478,222.061783
4537.318674,0.000000,-8963.317327,148.041188
4537.318998,222.061783,-8503.660028,444.123565
4537.319322,444.123565,-8733.488677,222.061783
4537.319647,518.144159,-9039.926876,74.020594
4537.319971,962.267725,-8733.488677,592.164754
4537.320295,740.205942,-8810.098227,222.061783
4537.320620,592.164754,-8810.098227,444.123565
4537.320944,370.102971,-9193.145976,740.205942
4537.321268,296.082377,-8503.660028,0.000000
4537.321593,148.041188,-8503.660028,74.020594
4537.321917,0.000000,-8810.098227,370.102971
4537.322241,0.000000,-8427.050478,296.082377
4537.322566,148.041188,-8350.440928,370.102971
4537.322890,592.164754,-8886.707777,222.061783
4537.323214,814.226536,-8810.098227,296.082377
4537.323539,888.247130,-8427.050478,148.041188
4537.323863,592.164754,-8656.879127,518.144159
4537.324187,592.164754,-8427.050478,0.000000
4537.324512,740.205942,-8656.879127,0.000000
4537.324836,518.144159,-8273.831378,0.000000
4537.325160,0.000000,-8503.660028,74.020594
4537.325485,0.000000,-8503.660028,0.000000
4537.325809,0.000000,-8350.440928,0.000000
4537.326133,74.020594,-8427.050478,-444.123565
4537.326458,0.000000,-8656.879127,-296.082377
4537.326782,814.226536,-8656.879127,-74.020594
4537.327106,814.226536,-8656.879127,-444.123565
4537.327431,888.247130,-8503.660028,-518.144159
4537.327755,1110.308913,-8580.269578,-592.164754
4537.328079,1184.329507,-8733.488677,-518.144159
4537.328404,814.226536,-8656.879127,-740.205942
4537.328728,592.164754,-8350.440928,-962.267725
4537.329052,296.082377,-8580.269578,-888.247130
4537.329377,0.000000,-8886.707777,-666.185348
4537.329701,148.041188,-8733.488677,-1332.370696
4537.330025,0.000000,-8656.879127,-888.247130
4537.330350,222.061783,-8197.221829,-888.247130
4537.330674,0.000000,-8733.488677,-740.205942
4537.330998,0.000000,-8733.488677,-296.082377
4537.331323,222.061783,-8580.269578,-666.185348
4537.331647,592.164754,-8427.050478,-444.123565
4537.331971,296.082377,-8580.269578,-444.123565
4537.332296,592.164754,-8580.269578,-1110.308913
4537.332620,666.185348,-8580.269578,-962.267725
4537.332944,592.164754,-8427.050478,-962.267725
4537.333269,370.102971,-8656.879127,-1110.308913
4537.333593,148.041188,-8503.660028,-1036.288319
4537.333917,222.061783,-8427.050478,-814.226536
4537.334242,0.000000,-8503.660028,-1110.308913
4537.334566,0.000000,-8580.269578,-740.205942
4537.334890,74.020594,-8273.831378,-740.205942
4537.335215,888.247130,-8886.707777,-1184.329507
4537.335539,444.123565,-8733.488677,-888.247130
4537.335863,518.144159,-8503.660028,-814.226536
4537.336188,814.226536,-8810.098227,-962.267725
4537.336512,814.226536,-8810.098227,-740.205942
4537.336836,666.185348,-8656.879127,-1406.391290
4537.337161,222.061783,-8273.831378,-962.267725
4537.337485,0.000000,-8350.440928,-814.226536
4537.337809,0.000000,-8503.660028,-888.247130
4537.338134,0.000000,-8733.488677,-666.185348
4537.338458,0.000000,-8350.440928,-740.205942
4537.338782,0.000000,-8427.050478,-592.164754
4537.339107,370.102971,-8503.660028,-518.144159
4537.339431,444.123565,-9116.536426,0.000000
4537.339755,444.123565,-8503.660028,-518.144159
4537.340080,814.226536,-8733.488677,-592.164754
4537.340404,740.205942,-8656.879127,-814.226536
4537.340728,1036.288319,-8350.440928,-592.164754
4537.341053,814.226536,-8427.050478,-888.247130
4537.341377,444.123565,-8810.098227,-888.247130
4537.341701,370.102971,-8427.050478,-814.226536
4537.342026,222.061783,-8963.317327,-666.185348
4537.342350,0.000000,-8656.879127,-592.164754
4537.342674,74.020594,-8886.707777,-296.082377
4537.342999,370.102971,-8427.050478,-296.082377
4537.343323,814.226536,-9116.536426,-74.020594
4537.343647,1110.308913,-9269.755526,-518.144159
4537.343972,1036.288319,-9193.145976,-296.082377
4537.344296,1036.288319,-8197.221829,-370.102971
4537.344620,1036.288319,-8733.488677,-518.144159
4537.344945,814.226536,-9039.926876,-814.226536
4537.345269,888.247130,-8733.488677,-296.082377
4537.345593,740.205942,-8733.488677,-666.185348
4537.345918,592.164754,-8886.707777,-444.123565
4537.346242,296.082377,-8733.488677,-518.144159
4537.346566,296.082377,-9039.926876,-296.082377
4537.346891,444.123565,-8350.440928,-296.082377
4537.347215,370.102971,-9116.536426,-222.061783
4537.347539,888.247130,-8810.098227,-74.020594
4537.347864,1258.350101,-8197.221829,0.000000
4537.348188,888.247130,-8886.707777,-444.123565
4537.348512,888.247130,-8427.050478,-296.082377
4537.348837,1110.308913,-8580.269578,-518.144159
4537.349161,962.267725,-8810.098227,-740.205942
4537.349485,740.205942,-8197.221829,-296.082377
4537.349810,518.144159,-8580.269578,-296.082377
4537.350134,370.102971,-8656.879127,-518.144159
4537.350458,222.061783,-8580.269578,-444.123565
4537.350783,222.061783,-8810.098227,-666.185348
4537.351107,148.041188,-8427.050478,-444.123565
4537.351431,296.082377,-8810.098227,-296.082377
4537.351756,370.102971,-8733.488677,-370.102971
4537.352080,962.267725,-8886.707777,-888.247130
4537.352404,888.247130,-8963.317327,-888.247130
4537.352729,666.185348,-8503.660028,-592.164754
4537.353053,814.226536,-8656.879127,-1036.288319
4537.353377,592.164754,-8503.660028,-1258.350101
4537.353702,370.102971,-8503.660028,-888.247130
4537.354026,74.020594,-8580.269578,-1110.308913
4537.354350,148.041188,-8733.488677,-1036.288319
4537.354675,0.000000,-8273.831378,-888.247130
4537.354999,0.000000,-8656.879127,-370.102971
4537.355323,0.000000,-8886.707777,-814.226536
4537.355648,222.061783,-8810.098227,-740.205942
4537.355972,444.123565,-8886.707777,-740.205942
4537.356296,740.205942,-8580.269578,-814.226536
4537.356621,888.247130,-8580.269578,-740.205942
4537.356945,888.247130,-8580.269578,-888.247130
4537.357269,666.185348,-8503.660028,-1184.329507
4537.357594,370.102971,-8503.660028,-1258.350101
4537.357918,222.061783,-8273.831378,-1184.329507
4537.358242,0.000000,-8427.050478,-888.247130
4537.358567,-296.082377,-8733.488677,-1036.288319
4537.358891,0.000000,-8580.269578,-1036.288319
4537.359215,-370.102971,-8733.488677,-592.164754
4537.359540,222.061783,-8886.707777,-1036.288319
4537.359864,444.123565,-8580.269578,-1258.350101
4537.360188,592.164754,-8580.269578,-1332.370696
4537.360513,518.144159,-8733.488677,-1184.329507
4537.360837,888.247130,-8350.440928,-1184.329507
4537.361161,1258.350101,-8580.269578,-1554.432478
4537.361486,1110.308913,-8273.831378,-1480.411884
4537.361810,666.185348,-8044.002729,-1554.432478
4537.362134,74.020594,-8580.269578,-1406.391290
4537.362459,444.123565,-8350.440928,-1184.329507
4537.362783,0.000000,-8810.098227,-1184.329507
4537.363107,0.000000,-8733.488677,-1110.308913
4537.363432,74.020594,-8656.879127,-666.185348
4537.363756,148.041188,-8810.098227,-814.226536
4537.364080,592.164754,-8580.269578,-740.205942
4537.364405,1110.308913,-8503.660028,-962.267725
4537.364729,1036.288319,-8580.269578,-592.164754
4537.365053,1184.329507,-7890.783629,-740.205942
4537.365378,888.247130,-8580.269578,-814.226536
4537.365702,444.123565,-8350.440928,-592.164754
4537.366026,370.102971,-8044.002729,-444.123565
4537.366351,222.061783,-8427.050478,-592.164754
4537.366675,0.000000,-8427.050478,0.000000
4537.366999,0.000000,-8886.707777,74.020594
4537.367324,74.020594,-8656.879127,0.000000
4537.367648,592.164754,-8733.488677,-444.123565
4537.367972,592.164754,-9116.536426,-296.082377
4537.368297,1036.288319,-8580.269578,0.000000
4537.368621,1036.288319,-8427.050478,0.000000
4537.368945,962.267725,-8503.660028,-444.123565
4537.369270,1110.308913,-8580.269578,-370.102971
4537.369594,1184.329507,-8580.269578,-444.123565
4537.369918,518.144159,-8656.879127,-444.123565
4537.370243,370.102971,-8350.440928,-222.061783
4537.370567,0.000000,-9039.926876,74.020594
4537.370891,0.000000,-8503.660028,-296.082377
4537.371216,-148.041188,-8810.098227,0.000000
4537.371540,0.000000,-8886.707777,-296.082377
4537.371864,-222.061783,-9039.926876,148.041188
4537.372189,0.000000,-9116.536426,74.020594
4537.372513,518.144159,-8810.098227,0.000000
4537.372837,370.102971,-8350.440928,-222.061783
4537.373162,814.226536,-8810.098227,0.000000
4537.373486,666.185348,-8350.440928,-222.061783
4537.373810,592.164754,-8656.879127,0.000000
4537.374135,370.102971,-8427.050478,-370.102971
4537.374460,296.082377,-8503.660028,0.000000
4537.374784,148.041188,-8427.050478,-444.123565
4537.375109,222.061783,-8350.440928,-222.061783
4537.375433,0.000000,-8503.660028,74.020594
4537.375758,74.020594,-8656.879127,74.020594
4537.376083,592.164754,-9039.926876,-148.041188
4537.376407,814.226536,-8503.660028,0.000000
4537.376732,962.267725,-8273.831378,-370.102971
4537.377056,888.247130,-8273.831378,-148.041188
4537.377381,888.247130,-8273.831378,0.000000
4537.377706,814.226536,-8580.269578,-296.082377
4537.378030,444.123565,-8503.660028,-518.144159
4537.378355,296.082377,-8733.488677,-592.164754
4537.378679,74.020594,-8350.440928,-518.144159
4537.379004,148.041188,-8427.050478,-888.247130
4537.379329,0.000000,-8656.879127,-444.123565
4537.379653,0.000000,-8503.660028,-222.061783
4537.379978,370.102971,-8580.269578,-222.061783
4537.380302,592.164754,-8656.879127,-592.164754
4537.380627,814.226536,-8810.098227,-666.185348
4537.380952,1258.350101,-8503.660028,-444.123565
4537.381276,1184.329507,-8503.660028,-592.164754
4537.381601,962.267725,-8503.660028,-888.247130
4537.381925,962.267725,-8273.831378,-444.123565
4537.382250,518.144159,-8197.221829,-666.185348
4537.382575,296.082377,-8580.269578,-666.185348
4537.382899,148.041188,-8427.050478,-814.226536
4537.383224,222.061783,-8810.098227,-296.082377
4537.383549,0.000000,-8503.660028,-740.205942
4537.383873,296.082377,-8580.269578,-370.102971
4537.384198,370.102971,-8733.488677,-370.102971
4537.384522,666.185348,-8656.879127,-296.082377
4537.384847,592.164754,-8656.879127,-740.205942
4537.385172,962.267725,-8656.879127,-518.144159
4537.385496,814.226536,-8580.269578,-666.185348
4537.385821,888.247130,-8580.269578,-592.164754
4537.386145,814.226536,-8733.488677,-1036.288319
4537.386470,296.082377,-8427.050478,-962.267725
4537.386795,518.144159,-8427.050478,-1036.288319
4537.387119,444.123565,-8656.879127,-740.205942
4537.387444,74.020594,-8733.488677,-592.164754
4537.387768,74.020594,-8503.660028,-444.123565
4537.388093,296.082377,-8503.660028,-518.144159
4537.388418,148.041188,-8427.050478,-518.144159
4537.388742,444.123565,-8886.707777,-592.164754
4537.389067,888.247130,-8580.269578,-444.123565
4537.389391,1036.288319,-8197.221829,-444.123565
4537.389716,962.267725,-8886.707777,-370.102971
4537.390041,814.226536,-8350.440928,-444.123565
4537.390365,1110.308913,-8733.488677,-370.102971
4537.390690,444.123565,-8273.831378,-444.123565
4537.391014,0.000000,-8427.050478,0.000000
4537.391339,0.000000,-8350.440928,0.000000
4537.391664,74.020594,-8197.221829,296.082377
4537.391988,74.020594,-8350.440928,148.041188
4537.392313,296.082377,-8733.488677,0.000000
4537.392637,592.164754,-8656.879127,222.061783
4537.392962,666.185348,-8273.831378,74.020594
4537.393287,888.247130,-8810.098227,74.020594
4537.393611,740.205942,-8273.831378,222.061783
4537.393936,1110.308913,-8810.098227,0.000000
4537.394261,592.164754,-8503.660028,0.000000
4537.394585,370.102971,-8733.488677,-296.082377
4537.394910,296.082377,-8580.269578,0.000000
4537.395234,0.000000,-8273.831378,222.061783
4537.395559,0.000000,-8503.660028,0.000000
4537.395884,0.000000,-8733.488677,296.082377
4537.396208,148.041188,-7967.393179,518.144159
4537.396533,296.082377,-8810.098227,370.102971
4537.396857,296.082377,-8963.317327,444.123565
4537.397182,888.247130,-8656.879127,222.061783
4537.397507,444.123565,-8656.879127,444.123565
4537.397831,888.247130,-8350.440928,148.041188
4537.398156,666.185348,-8886.707777,148.041188
4537.398480,592.164754,-8656.879127,0.000000
4537.398805,370.102971,-8427.050478,370.102971
4537.399130,296.082377,-8886.707777,148.041188
4537.399454,0.000000,-8886.707777,296.082377
4537.399779,0.000000,-8427.050478,148.041188
4537.400103,0.000000,-8963.317327,740.205942
4537.400428,518.144159,-8350.440928,74.020594
4537.400753,666.185348,-8810.098227,74.020594
4537.401077,814.226536,-8810.098227,0.000000
4537.401402,1184.329507,-8733.488677,0.000000
4537.401726,1406.391290,-8580.269578,-222.061783
4537.402051,888.247130,-8810.098227,-148.041188
4537.402376,518.144159,-8733.488677,-222.061783
4537.402700,370.102971,-8733.488677,-370.102971
4537.403025,222.061783,-8580.269578,-518.144159
4537.403349,296.082377,-8350.440928,0.000000
4537.403674,0.000000,-8656.879127,-518.144159
4537.403999,0.000000,-8733.488677,0.000000
4537.404323,0.000000,-8580.269578,0.000000
4537.404648,0.000000,-9039.926876,0.000000
4537.404973,296.082377,-8886.707777,0.000000
4537.405297,370.102971,-8656.879127,-296.082377
4537.405622,592.164754,-8580.269578,0.000000
4537.405946,814.226536,-9193.145976,0.000000
4537.406271,740.205942,-8810.098227,-592.164754
4537.406596,518.144159,-8733.488677,0.000000
4537.406920,518.144159,-8350.440928,-592.164754
4537.407245,444.123565,-8733.488677,-444.123565
4537.407569,0.000000,-8427.050478,-444.123565
4537.407894,222.061783,-8733.488677,-222.061783
4537.408219,0.000000,-8503.660028,-74.020594
4537.408543,74.020594,-8427.050478,0.000000
4537.408868,444.123565,-8733.488677,74.020594
4537.409192,222.061783,-8580.269578,0.000000
4537.409517,444.123565,-8427.050478,-222.061783
4537.409842,888.247130,-8503.660028,0.000000
4537.410166,1036.288319,-7737.564530,296.082377
4537.410491,814.226536,-8656.879127,0.000000
4537.410815,444.123565,-8350.440928,-370.102971
4537.411140,148.041188,-8427.050478,0.000000
4537.411465,74.020594,-8886.707777,0.000000
4537.411789,0.000000,-8733.488677,0.000000
4537.412114,-370.102971,-8427.050478,74.020594
4537.412438,0.000000,-8350.440928,148.041188
4537.412763,0.000000,-8120.612279,148.041188
4537.413088,370.102971,-9039.926876,444.123565
4537.413412,518.144159,-8656.879127,0.000000
4537.413737,518.144159,-8350.440928,148.041188
4537.414061,888.247130,-8503.660028,74.020594
4537.414386,962.267725,-7660.954980,0.000000
4537.414711,962.267725,-8427.050478,0.000000
4537.415035,444.123565,-8503.660028,0.000000
4537.415360,370.102971,-8503.660028,74.020594
4537.415685,0.000000,-8810.098227,0.000000
4537.416009,-148.041188,-8733.488677,0.000000
4537.416334,-222.061783,-8580.269578,0.000000
4537.416658,-296.082377,-8886.707777,222.061783
4537.416983,0.000000,-8503.660028,296.082377
4537.417308,148.041188,-8886.707777,222.061783
4537.417632,296.082377,-9039.926876,296.082377
4537.417957,740.205942,-8273.831378,0.000000
4537.418281,518.144159,-9039.926876,74.020594
4537.418606,962.267725,-8656.879127,0.000000
4537.418931,296.082377,-8733.488677,74.020594
4537.419255,0.000000,-8350.440928,148.041188
4537.419580,-148.041188,-8580.269578,0.000000
4537.419904,0.000000,-8733.488677,-148.041188
4537.420229,0.000000,-8656.879127,0.000000
4537.420554,74.020594,-8427.050478,0.000000
4537.420878,0.000000,-8503.660028,74.020594
4537.421203,148.041188,-8733.488677,0.000000
4537.421527,666.185348,-8963.317327,-444.123565
4537.421852,962.267725,-8503.660028,-296.082377
4537.422177,444.123565,-9039.926876,0.000000
4537.422501,888.247130,-8580.269578,-222.061783
4537.422826,1110.308913,-9039.926876,-148.041188
4537.423150,222.061783,-8810.098227,-222.061783
4537.423475,222.061783,-8503.660028,-296.082377
4537.423800,74.020594,-8580.269578,0.000000
4537.424124,0.000000,-8656.879127,-222.061783
4537.424449,-296.082377,-8656.879127,0.000000
4537.424773,0.000000,-8733.488677,0.000000
4537.425098,0.000000,-8810.098227,74.020594
4537.425423,444.123565,-8886.707777,0.000000
4537.425747,222.061783,-8503.660028,-222.061783
4537.426072,592.164754,-8810.098227,74.020594
4537.426397,740.205942,-8273.831378,0.000000
4537.426721,814.226536,-8810.098227,-148.041188
4537.427046,740.205942,-8427.050478,-370.102971
4537.427370,444.123565,-8273.831378,-370.102971
4537.427695,296.082377,-8580.269578,-666.185348
4537.428020,148.041188,-8427.050478,-592.164754
4537.428344,0.000000,-8656.879127,-666.185348
4537.428669,0.000000,-8503.660028,-444.123565
4537.428993,0.000000,-8350.440928,-148.041188
4537.429318,0.000000,-8810.098227,0.000000
4537.429643,148.041188,-8656.879127,-370.102971
4537.429967,740.205942,-9422.974625,-740.205942
4537.430292,814.226536,-8427.050478,-444.123565
4537.430616,962.267725,-8503.660028,-518.144159
4537.430941,962.267725,-8503.660028,-666.185348
4537.431266,814.226536,-8580.269578,-666.185348
4537.431590,370.102971,-8273.831378,-814.226536
4537.431915,0.000000,-8197.221829,-592.164754
4537.432239,148.041188,-8503.660028,-740.205942
4537.432564,74.020594,-8580.269578,-296.082377
4537.432889,222.061783,-8580.269578,-518.144159
4537.433213,74.020594,-8273.831378,-148.041188
4537.433538,222.061783,-8350.440928,0.000000
4537.433862,444.123565,-9193.145976,-370.102971
4537.434187,1036.288319,-8580.269578,-222.061783
4537.434512,814.226536,-8580.269578,-444.123565
4537.434836,814.226536,-8656.879127,-370.102971
4537.435161,666.185348,-8427.050478,-666.185348
4537.435485,666.185348,-8656.879127,-740.205942
4537.435810,222.061783,-8120.612279,-518.144159
4537.436135,74.020594,-8580.269578,-222.061783
4537.436459,0.000000,-8886.707777,-370.102971
4537.436784,0.000000,-8350.440928,-444.123565
4537.437109,0.000000,-8427.050478,0.000000
4537.437433,0.000000,-8733.488677,-296.082377
4537.437758,148.041188,-8427.050478,0.000000
4537.438082,296.082377,-8580.269578,-222.061783
4537.438407,74.020594,-9193.145976,0.000000
4537.438732,814.226536,-8273.831378,-296.082377
4537.439056,1036.288319,-8810.098227,-444.123565
4537.439381,592.164754,-8503.660028,-444.123565
4537.439705,814.226536,-8580.269578,-148.041188
4537.440030,370.102971,-8273.831378,-518.144159
4537.440355,0.000000,-8580.269578,-148.041188
4537.440679,74.020594,-8656.879127,-296.082377
4537.441004,-222.061783,-8656.879127,0.000000
4537.441328,444.123565,-7814.174080,0.000000
4537.441653,148.041188,-8580.269578,148.041188
4537.441978,518.144159,-8656.879127,-370.102971
4537.442302,666.185348,-8503.660028,0.000000
4537.442627,888.247130,-8733.488677,-222.061783
4537.442951,1110.308913,-8733.488677,74.020594
4537.443276,1110.308913,-8580.269578,-222.061783
4537.443601,1110.308913,-8810.098227,-592.164754
4537.443925,592.164754,-8197.221829,-518.144159
4537.444250,518.144159,-8503.660028,-592.164754
4537.444574,444.123565,-8810.098227,-518.144159
4537.444899,222.061783,-8427.050478,-370.102971
4537.445224,0.000000,-8580.269578,-222.061783
4537.445548,814.226536,-8656.879127,-148.041188
4537.445873,740.205942,-8580.269578,-222.061783
4537.446197,1036.288319,-8886.707777,-740.205942
4537.446522,1184.329507,-8427.050478,-518.144159
4537.446847,1110.308913,-9039.926876,0.000000
4537.447171,1184.329507,-8810.098227,-814.226536
4537.447496,1184.329507,-8733.488677,-1036.288319
4537.447821,814.226536,-8503.660028,-1184.329507
4537.448145,444.123565,-8197.221829,-444.123565
4537.448470,296.082377,-8273.831378,-592.164754
4537.448794,296.082377,-8580.269578,-666.185348
4537.449119,444.123565,-8427.050478,-740.205942
4537.449444,296.082377,-8810.098227,-666.185348
4537.449768,296.082377,-8427.050478,-296.082377
4537.450093,370.102971,-8733.488677,-296.082377
4537.450417,296.082377,-8886.707777,-666.185348
4537.450742,518.144159,-8886.707777,-370.102971
4537.451067,888.247130,-8580.269578,-592.164754
4537.451391,962.267725,-8963.317327,-740.205942
4537.451716,1110.308913,-8197.221829,-814.226536
4537.452040,740.205942,-8503.660028,-740.205942
4537.452365,222.061783,-8656.879127,-962.267725
4537.452690,592.164754,-8733.488677,-740.205942
4537.453014,148.041188,-8580.269578,-814.226536
4537.453339,0.000000,-8580.269578,-518.144159
4537.453663,-148.041188,-8197.221829,-592.164754
4537.453988,222.061783,-8580.269578,-370.102971
4537.454313,222.061783,-8503.660028,-666.185348
4537.454637,370.102971,-8810.098227,-814.226536
4537.454962,1036.288319,-8427.050478,-666.185348
4537.455286,888.247130,-8120.612279,-444.123565
4537.455611,1406.391290,-8733.488677,-962.267725
4537.455936,888.247130,-8427.050478,-888.247130
4537.456260,814.226536,-8197.221829,-740.205942
4537.456585,296.082377,-8656.879127,-962.267725
4537.456909,74.020594,-8580.269578,-740.205942
4537.457234,0.000000,-8656.879127,-592.164754
4537.457559,-74.020594,-8350.440928,-814.226536
4537.457883,-148.041188,-8503.660028,-370.102971
4537.458208,444.123565,-9806.022374,-370.102971
4537.458533,740.205942,-8503.660028,-370.102971
4537.458857,814.226536,-8580.269578,-740.205942
4537.459182,592.164754,-8350.440928,0.000000
4537.459506,1258.350101,-8580.269578,-518.144159
4537.459831,888.247130,-8963.317327,-370.102971
4537.460156,740.205942,-8197.221829,-888.247130
4537.460480,592.164754,-8044.002729,-296.082377
4537.460805,222.061783,-8503.660028,-518.144159
4537.461129,0.000000,-8963.317327,-296.082377
4537.461454,0.000000,-8350.440928,-592.164754
4537.461779,74.020594,-8733.488677,0.000000
4537.462103,0.000000,-8197.221829,-148.041188
4537.462428,518.144159,-8963.317327,-296.082377
4537.462752,666.185348,-8810.098227,-370.102971
4537.463077,888.247130,-8273.831378,-296.082377
4537.463402,888.247130,-8733.488677,-592.164754
4537.463726,888.247130,-8503.660028,-222.061783
4537.464051,1184.329507,-8350.440928,-666.185348
4537.464375,518.144159,-8810.098227,-592.164754
4537.464700,444.123565,-8120.612279,-518.144159
4537.465025,0.000000,-8656.879127,-518.144159
4537.465349,0.000000,-9116.536426,-666.185348
4537.465674,0.000000,-8120.612279,-296.082377
4537.465998,74.020594,-8810.098227,-148.041188
4537.466323,222.061783,-8580.269578,-592.164754
4537.466648,740.205942,-8886.707777,-518.144159
4537.466972,888.247130,-8580.269578,-592.164754
4537.467297,1036.288319,-8580.269578,-444.123565
4537.467621,1184.329507,-8656.879127,-518.144159
4537.467946,1036.288319,-8886.707777,-666.185348
4537.468271,814.226536,-9039.926876,-740.205942
4537.468595,518.144159,-8810.098227,-888.247130
4537.468920,370.102971,-8350.440928,-666.185348
4537.469245,0.000000,-8580.269578,-444.123565
4537.469569,-370.102971,-9116.536426,0.000000
4537.469894,-222.061783,-8350.440928,-592.164754
4537.470218,0.000000,-8580.269578,-444.123565
4537.470543,148.041188,-8810.098227,-666.185348
4537.470868,0.000000,-9116.536426,-518.144159
4537.471192,814.226536,-8580.269578,-444.123565
4537.471517,370.102971,-8733.488677,-296.082377
4537.471841,740.205942,-8810.098227,-592.164754
4537.472166,666.185348,-8503.660028,-370.102971
4537.472491,814.226536,-8273.831378,-740.205942
4537.472815,518.144159,-8427.050478,-370.102971
4537.473140,370.102971,-8350.440928,-666.185348
4537.473464,0.000000,-8656.879127,-666.185348
4537.473789,-518.144159,-8427.050478,-666.185348
4537.474114,74.020594,-8427.050478,-444.123565
4537.474438,296.082377,-8503.660028,0.000000
4537.474763,518.144159,-8580.269578,-444.123565
4537.475087,814.226536,-8886.707777,-518.144159
4537.475412,962.267725,-8503.660028,-518.144159
4537.475737,1110.308913,-8580.269578,-222.061783
4537.476061,888.247130,-8427.050478,-518.144159
4537.476386,1036.288319,-8350.440928,-296.082377
4537.476710,296.082377,-8273.831378,-222.061783
4537.477035,0.000000,-8273.831378,-592.164754
4537.477359,222.061783,-8427.050478,-518.144159
4537.477684,0.000000,-8503.660028,-370.102971
4537.478009,-222.061783,-8733.488677,222.061783
4537.478333,-370.102971,-8580.269578,-74.020594
4537.478658,0.000000,-8350.440928,0.000000
4537.478982,444.123565,-9039.926876,-296.082377
4537.479307,888.247130,-8197.221829,-444.123565
4537.479632,1110.308913,-8503.660028,-148.041188
4537.479956,1036.288319,-8503.660028,-518.144159
4537.480281,1184.329507,-8580.269578,-740.205942
4537.480605,1036.288319,-8197.221829,-1184.329507
4537.480930,814.226536,-8580.269578,-888.247130
4537.481255,518.144159,-8273.831378,-592.164754
4537.481579,296.082377,-8656.879127,-592.164754
4537.481904,-148.041188,-8427.050478,-666.185348
4537.482228,74.020594,-8427.050478,-592.164754
4537.482553,148.041188,-8733.488677,-740.205942
4537.482877,444.123565,-8427.050478,0.000000
4537.483202,296.082377,-8810.098227,-740.205942
4537.483527,592.164754,-8733.488677,-444.123565
4537.483851,1036.288319,-8656.879127,-814.226536
4537.484176,888.247130,-9116.536426,-518.144159
4537.484500,814.226536,-8580.269578,-888.247130
4537.484825,444.123565,-8886.707777,-592.164754
4537.485150,888.247130,-8273.831378,-518.144159
4537.485474,0.000000,-8886.707777,-666.185348
4537.485799,0.000000,-9193.145976,-814.226536
4537.486123,0.000000,-8810.098227,-444.123565
4537.486448,0.000000,-8886.707777,-222.061783
4537.486772,296.082377,-8963.317327,-518.144159
4537.487097,518.144159,-9039.926876,-370.102971
4537.487422,740.205942,-8963.317327,-444.123565
4537.487746,1036.288319,-8656.879127,-666.185348
4537.488071,1332.370696,-8886.707777,-296.082377
4537.488395,1110.308913,-8886.707777,-296.082377
4537.488720,888.247130,-8656.879127,-666.185348
4537.489045,518.144159,-8197.221829,-370.102971
4537.489369,518.144159,-9193.145976,-444.123565
4537.489694,74.020594,-8810.098227,-370.102971
4537.490018,-222.061783,-8733.488677,-370.102971
4537.490343,0.000000,-8733.488677,-444.123565
4537.490667,296.082377,-8810.098227,0.000000
4537.490992,296.082377,-8580.269578,-222.061783
4537.491317,962.267725,-8963.317327,-518.144159
4537.491641,740.205942,-8580.269578,-444.123565
4537.491966,814.226536,-8427.050478,-296.082377
4537.492290,1036.288319,-8810.098227,-222.061783
4537.492615,1110.308913,-8350.440928,-740.205942
4537.492940,1110.308913,-8886.707777,-962.267725
4537.493264,814.226536,-8350.440928,-666.185348
4537.493589,740.205942,-7967.393179,-444.123565
4537.493913,518.144159,-8656.879127,-666.185348
4537.494238,444.123565,-8197.221829,-666.185348
4537.494562,444.123565,-8733.488677,-444.123565
4537.494887,222.061783,-8427.050478,-296.082377
4537.495212,518.144159,-8810.098227,-370.102971
4537.495536,592.164754,-8733.488677,-296.082377
4537.495861,518.144159,-8503.660028,-222.061783
4537.496185,666.185348,-8580.269578,-296.082377
4537.496510,1036.288319,-9039.926876,-370.102971
4537.496835,962.267725,-8503.660028,-222.061783
4537.497159,370.102971,-8503.660028,-148.041188
4537.497484,148.041188,-8350.440928,-518.144159
4537.497808,370.102971,-8963.317327,-222.061783
4537.498133,-370.102971,-8273.831378,-148.041188
4537.498458,-370.102971,-8273.831378,-222.061783
4537.498782,-518.144159,-8350.440928,74.020594
4537.499107,-296.082377,-8580.269578,0.000000
4537.499431,296.082377,-8580.269578,0.000000
4537.499756,518.144159,-8733.488677,-222.061783
4537.500080,962.267725,-8350.440928,-74.020594
4537.500405,1110.308913,-8120.612279,0.000000
4537.500730,1258.350101,-9422.974625,-74.020594
4537.501054,1258.350101,-8197.221829,-592.164754
4537.501379,592.164754,-8350.440928,-666.185348
4537.501703,370.102971,-8503.660028,-518.144159
4537.502028,296.082377,-9039.926876,-148.041188
4537.502353,0.000000,-8503.660028,-666.185348
4537.502677,-148.041188,-8427.050478,0.000000
4537.503002,-222.061783,-8273.831378,-444.123565
4537.503326,0.000000,-8886.707777,0.000000
4537.503651,148.041188,-8963.317327,0.000000
4537.503975,740.205942,-8503.660028,0.000000
4537.504300,296.082377,-8656.879127,0.000000
4537.504625,518.144159,-8503.660028,0.000000
4537.504949,444.123565,-8580.269578,-296.082377
4537.505274,592.164754,-8427.050478,0.000000
4537.505598,148.041188,-8350.440928,0.000000
4537.505923,148.041188,-8733.488677,0.000000
4537.506248,0.000000,-8580.269578,74.020594
4537.506572,-370.102971,-8580.269578,0.000000
4537.506897,74.020594,-8503.660028,74.020594
4537.507221,444.123565,-8273.831378,148.041188
4537.507546,518.144159,-9039.926876,0.000000
4537.507870,740.205942,-8963.317327,0.000000
4537.508195,1332.370696,-8427.050478,0.000000
4537.508520,1554.432478,-8810.098227,0.000000
4537.508844,1184.329507,-8503.660028,-148.041188
4537.509169,1036.288319,-8656.879127,74.020594
4537.509493,444.123565,-8580.269578,-518.144159
4537.509818,296.082377,-8350.440928,-222.061783
4537.510143,0.000000,-8733.488677,0.000000
4537.510467,0.000000,-8656.879127,0.000000
4537.510792,-296.082377,-8427.050478,0.000000
4537.511116,-370.102971,-8503.660028,148.041188
4537.511441,0.000000,-8273.831378,0.000000
4537.511766,296.082377,-9116.536426,0.000000
4537.512090,518.144159,-8810.098227,-444.123565
4537.512415,814.226536,-8503.660028,148.041188
4537.512739,814.226536,-8733.488677,0.000000
4537.513064,888.247130,-8886.707777,-592.164754
4537.513388,814.226536,-8350.440928,-444.123565
4537.513713,296.082377,-8886.707777,-148.041188
4537.514038,518.144159,-8273.831378,-296.082377
4537.514362,296.082377,-8427.050478,-296.082377
4537.514687,0.000000,-8656.879127,-444.123565
4537.515011,0.000000,-8503.660028,222.061783
4537.515336,222.061783,-8733.488677,-296.082377
4537.515661,222.061783,-8886.707777,-148.041188
4537.515985,222.061783,-8886.707777,0.000000
4537.516310,1036.288319,-8350.440928,148.041188
4537.516634,518.144159,-8503.660028,0.000000
4537.516959,666.185348,-8656.879127,0.000000
4537.517283,962.267725,-8733.488677,-296.082377
4537.517608,444.123565,-8733.488677,148.041188
4537.517933,-148.041188,-8350.440928,-148.041188
4537.518257,0.000000,-8503.660028,-444.123565
4537.518582,-296.082377,-8656.879127,-370.102971
4537.518906,-222.061783,-8733.488677,-370.102971
4537.519231,-666.185348,-8197.221829,148.041188
4537.519556,-222.061783,-8580.269578,0.000000
4537.519880,0.000000,-8733.488677,-222.061783
4537.520205,74.020594,-8503.660028,-370.102971
4537.520529,888.247130,-8580.269578,-518.144159
4537.520854,1184.329507,-8427.050478,0.000000
4537.521178,814.226536,-8197.221829,-666.185348
4537.521503,814.226536,-8963.317327,-444.123565
4537.521828,666.185348,-8273.831378,-888.247130
4537.522152,444.123565,-8273.831378,-814.226536
4537.522477,296.082377,-8580.269578,-444.123565
4537.522801,-222.061783,-8656.879127,0.000000
4537.523126,-444.123565,-8273.831378,0.000000
4537.523451,0.000000,-8733.488677,0.000000
4537.523775,0.000000,-8503.660028,0.000000
4537.524100,74.020594,-8963.317327,74.020594
4537.524424,740.205942,-8503.660028,0.000000
4537.524749,518.144159,-8120.612279,296.082377
4537.525073,666.185348,-8656.879127,148.041188
4537.525398,1036.288319,-8656.879127,-296.082377
4537.525723,814.226536,-8503.660028,-444.123565
4537.526047,666.185348,-8580.269578,-296.082377
4537.526372,370.102971,-8120.612279,-148.041188
4537.526696,222.061783,-8656.879127,-74.020594
4537.527021,148.041188,-8120.612279,-370.102971
4537.527346,370.102971,-8733.488677,0.000000
4537.527670,148.041188,-8350.440928,74.020594
4537.527995,296.082377,-8503.660028,370.102971
4537.528319,444.123565,-8810.098227,-148.041188
4537.528644,370.102971,-8580.269578,0.000000
4537.528969,962.267725,-8044.002729,0.000000
4537.529293,1110.308913,-8810.098227,-148.041188
4537.529618,1036.288319,-8886.707777,-296.082377
4537.529942,518.144159,-8810.098227,0.000000
4537.530267,222.061783,-8427.050478,0.000000
4537.530591,444.123565,-8580.269578,0.000000
4537.530916,0.000000,-8886.707777,0.000000
4537.531241,0.000000,-8656.879127,74.020594
4537.531565,0.000000,-8427.050478,296.082377
4537.531890,-444.123565,-8273.831378,370.102971
4537.532214,74.020594,-8656.879127,0.000000
4537.532539,444.123565,-9269.755526,0.000000
4537.532864,814.226536,-8886.707777,0.000000
4537.533188,814.226536,-8886.707777,-222.061783
4537.533513,814.226536,-8886.707777,222.061783
4537.533837,888.247130,-8580.269578,-370.102971
4537.534162,518.144159,-8656.879127,-222.061783
4537.534486,370.102971,-8656.879127,-444.123565
4537.534811,592.164754,-8503.660028,-148.041188
4537.535136,0.000000,-8273.831378,-370.102971
4537.535460,-222.061783,-8886.707777,0.000000
4537.535785,-148.041188,-8580.269578,-296.082377
4537.536109,0.000000,-9039.926876,0.000000
4537.536434,222.061783,-8886.707777,0.000000
4537.536759,222.061783,-8656.879127,0.000000
4537.537083,814.226536,-8580.269578,148.041188
4537.537408,814.226536,-9269.755526,0.000000
4537.537732,1036.288319,-8733.488677,-148.041188
4537.538057,518.144159,-8427.050478,-296.082377
4537.538381,444.123565,-8350.440928,-222.061783
4537.538706,370.102971,-8503.660028,-148.041188
4537.539031,0.000000,-8810.098227,-222.061783
4537.539355,-370.102971,-8656.879127,0.000000
4537.539680,-148.041188,-8427.050478,0.000000
4537.540004,-222.061783,-9116.536426,222.061783
4537.540329,-222.061783,-9346.365076,222.061783
4537.540654,592.164754,-8886.707777,0.000000
4537.540978,814.226536,-8427.050478,-222.061783
4537.541303,1110.308913,-8733.488677,-148.041188
4537.541627,1406.391290,-8044.002729,-222.061783
4537.541952,1554.432478,-8503.660028,0.000000
4537.542277,740.205942,-8580.269578,-814.226536
4537.542601,444.123565,-8350.440928,-370.102971
4537.542926,296.082377,-8273.831378,-592.164754
4537.543250,148.041188,-9116.536426,-148.041188
4537.543575,0.000000,-8503.660028,-592.164754
4537.543899,-148.041188,-8580.269578,-148.041188
4537.544224,0.000000,-8427.050478,-296.082377
4537.544549,-296.082377,-9193.145976,0.000000
4537.544873,518.144159,-8810.098227,-666.185348
4537.545198,814.226536,-8427.050478,-222.061783
4537.545522,888.247130,-8273.831378,-666.185348
4537.545847,888.247130,-8886.707777,-296.082377
4537.546172,962.267725,-8273.831378,-666.185348
4537.546496,888.247130,-8733.488677,-814.226536
4537.546821,370.102971,-8120.612279,-888.247130
4537.547145,148.041188,-8733.488677,-444.123565
4537.547470,370.102971,-8656.879127,-666.185348
4537.547794,-222.061783,-8197.221829,-666.185348
4537.548119,0.000000,-8580.269578,-296.082377
4537.548444,592.164754,-8273.831378,-666.185348
4537.548768,814.226536,-9039.926876,-222.061783
4537.549093,888.247130,-8350.440928,-592.164754
4537.549417,1258.350101,-8810.098227,-592.164754
4537.549742,1480.411884,-8503.660028,-444.123565
4537.550067,1332.370696,-8963.317327,-740.205942
4537.550391,888.247130,-8580.269578,-296.082377
4537.550716,296.082377,-8503.660028,-592.164754
4537.551040,222.061783,-8580.269578,-296.082377
4537.551365,0.000000,-8503.660028,-296.082377
4537.551689,-370.102971,-8503.660028,0.000000
4537.552014,-222.061783,-8886.707777,0.000000
4537.552339,-148.041188,-8580.269578,0.000000
4537.552663,148.041188,-9116.536426,0.000000
4537.552988,740.205942,-8810.098227,-222.061783
4537.553312,962.267725,-8733.488677,-148.041188
4537.553637,1036.288319,-9039.926876,0.000000
4537.553962,1184.329507,-8810.098227,-296.082377
4537.554286,1258.350101,-8810.098227,-592.164754
4537.554611,962.267725,-8273.831378,-370.102971
4537.554935,222.061783,-8580.269578,-370.102971
4537.555260,222.061783,-9039.926876,-666.185348
4537.555584,222.061783,-8580.269578,-296.082377
4537.555909,148.041188,-8273.831378,-74.020594
4537.556234,0.000000,-8427.050478,-444.123565
4537.556558,0.000000,-8503.660028,-148.041188
4537.556883,370.102971,-8580.269578,-370.102971
4537.557207,444.123565,-8886.707777,-148.041188
4537.557532,592.164754,-8503.660028,-222.061783
4537.557857,888.247130,-8350.440928,-370.102971
4537.558181,888.247130,-8656.879127,-444.123565
4537.558506,962.267725,-8427.050478,-888.247130
4537.558830,444.123565,-8350.440928,-370.102971
4537.559155,148.041188,-8197.221829,-222.061783
4537.559480,0.000000,-8273.831378,-370.102971
4537.559804,0.000000,-8427.050478,-370.102971
4537.560129,444.123565,-8350.440928,-444.123565
4537.560453,0.000000,-8427.050478,-444.123565
4537.560778,148.041188,-8427.050478,-222.061783
4537.561102,666.185348,-8810.098227,-518.144159
4537.561427,814.226536,-8503.660028,-444.123565
4537.561752,1036.288319,-7967.393179,-518.144159
4537.562076,1258.350101,-8503.660028,-444.123565
4537.562401,1258.350101,-8656.879127,-592.164754
4537.562725,1110.308913,-8733.488677,-592.164754
4537.563050,1036.288319,-8580.269578,-962.267725
4537.563375,370.102971,-8350.440928,-666.185348
4537.563699,370.102971,-8273.831378,-592.164754
4537.564024,222.061783,-8733.488677,-518.144159
4537.564348,0.000000,-8044.002729,0.000000
4537.564673,-74.020594,-8810.098227,148.041188
4537.564997,74.020594,-8656.879127,0.000000
4537.565322,370.102971,-8733.488677,-444.123565
4537.565647,592.164754,-8886.707777,-370.102971
4537.565971,888.247130,-8197.221829,0.000000
4537.566296,740.205942,-8503.660028,-444.123565
4537.566620,592.164754,-8886.707777,-592.164754
4537.566945,814.226536,-8273.831378,-814.226536
4537.567270,518.144159,-7967.393179,-1036.288319
4537.567594,74.020594,-8503.660028,-666.185348
4537.567919,74.020594,-8656.879127,-888.247130
4537.568243,148.041188,-8503.660028,-666.185348
4537.568568,0.000000,-8120.612279,-222.061783
4537.568892,74.020594,-8733.488677,-740.205942
4537.569217,444.123565,-8963.317327,-666.185348
4537.569542,518.144159,-8656.879127,-740.205942
4537.569866,888.247130,-8427.050478,-814.226536
4537.570191,962.267725,-8427.050478,-1036.288319
4537.570515,1332.370696,-8886.707777,-888.247130
4537.570840,1036.288319,-8273.831378,-1036.288319
4537.571165,518.144159,-8503.660028,-740.205942
4537.571489,74.020594,-8886.707777,-888.247130
4537.571814,0.000000,-8656.879127,-962.267725
4537.572138,-518.144159,-8427.050478,-814.226536
4537.572463,0.000000,-8350.440928,-592.164754
4537.572787,0.000000,-8963.317327,-740.205942
4537.573112,444.123565,-8886.707777,-74.020594
4537.573437,222.061783,-8733.488677,-888.247130
4537.573761,888.247130,-8886.707777,-666.185348
4537.574086,962.267725,-8350.440928,-962.267725
4537.574410,1036.288319,-9116.536426,-370.102971
4537.574735,1406.391290,-8427.050478,-888.247130
4537.575060,1110.308913,-8580.269578,-888.247130
4537.575384,1036.288319,-8427.050478,-814.226536
4537.575709,592.164754,-7814.174080,-666.185348
4537.576033,370.102971,-8963.317327,-666.185348
4537.576358,296.082377,-8273.831378,-592.164754
4537.576683,0.000000,-8273.831378,-296.082377
4537.577007,-222.061783,-8810.098227,0.000000
4537.577332,148.041188,-8656.879127,-592.164754
4537.577656,370.102971,-9039.926876,-222.061783
4537.577981,740.205942,-8427.050478,-370.102971
4537.578306,666.185348,-8733.488677,0.000000
4537.578630,1258.350101,-8733.488677,-370.102971
4537.578955,814.226536,-8350.440928,-666.185348
4537.579279,666.185348,-8580.269578,-296.082377
4537.579604,296.082377,-8503.660028,-296.082377
4537.579929,222.061783,-8044.002729,-370.102971
4537.580253,0.000000,-8810.098227,-222.061783
4537.580578,-148.041188,-8197.221829,-370.102971
4537.580902,0.000000,-8656.879127,-148.041188
4537.581227,0.000000,-8580.269578,-370.102971
4537.581552,444.123565,-9116.536426,-370.102971
4537.581876,296.082377,-8580.269578,-592.164754
4537.582201,962.267725,-8580.269578,-518.144159
4537.582525,1036.288319,-8197.221829,-592.164754
4537.582850,962.267725,-8733.488677,-296.082377
4537.583175,1110.308913,-8197.221829,-814.226536
4537.583499,592.164754,-7967.393179,-888.247130
4537.583824,222.061783,-8427.050478,-888.247130
4537.584148,0.000000,-9269.755526,-962.267725
4537.584473,-222.061783,-8656.879127,-518.144159
4537.584798,-444.123565,-8733.488677,-444.123565
4537.585122,-518.144159,-8580.269578,-370.102971
4537.585447,-222.061783,-9039.926876,0.000000
4537.585771,-296.082377,-8733.488677,-148.041188
4537.586096,370.102971,-9116.536426,-74.020594
4537.586421,814.226536,-8656.879127,-444.123565
4537.586745,1110.308913,-8963.317327,0.000000
4537.587070,1702.473667,-8350.440928,-592.164754
4537.587394,1184.329507,-8656.879127,-592.164754
4537.587719,888.247130,-8427.050478,-592.164754
4537.588044,518.144159,-8350.440928,-740.205942
4537.588368,0.000000,-9116.536426,-666.185348
4537.588693,148.041188,-8656.879127,-296.082377
4537.589017,0.000000,-8427.050478,-222.061783
4537.589342,0.000000,-8886.707777,-518.144159
4537.589667,296.082377,-8733.488677,-370.102971
4537.589991,666.185348,-9193.145976,0.000000
4537.590316,888.247130,-8273.831378,-370.102971
4537.590640,1110.308913,-8580.269578,-370.102971
4537.590965,1036.288319,-8886.707777,-666.185348
4537.591290,1184.329507,-8733.488677,-370.102971
4537.591614,666.185348,-8733.488677,-888.247130
4537.591939,296.082377,-8503.660028,-592.164754
4537.592263,0.000000,-8580.269578,-666.185348
4537.592588,0.000000,-9346.365076,-888.247130
4537.592913,-444.123565,-8503.660028,-370.102971
4537.593237,74.020594,-8733.488677,-370.102971
4537.593562,518.144159,-8427.050478,-296.082377
4537.593886,666.185348,-8580.269578,-296.082377
4537.594211,666.185348,-8733.488677,-148.041188
4537.594536,1184.329507,-8350.440928,-592.164754
4537.594860,1406.391290,-8580.269578,-518.144159
4537.595185,1332.370696,-8733.488677,-888.247130
4537.595509,888.247130,-8044.002729,-296.082377
4537.595834,666.185348,-8503.660028,-888.247130
4537.596159,296.082377,-8197.221829,-666.185348
4537.596483,296.082377,-8656.879127,-592.164754
4537.596808,0.000000,-8503.660028,-740.205942
4537.597132,0.000000,-8886.707777,-222.061783
4537.597457,0.000000,-7967.393179,-666.185348
4537.597782,0.000000,-8963.317327,0.000000
4537.598106,0.000000,-8810.098227,-666.185348
4537.598431,0.000000,-8580.269578,0.000000
4537.598755,592.164754,-8580.269578,-148.041188
4537.599080,666.185348,-8733.488677,-296.082377
4537.599405,814.226536,-8810.098227,-740.205942
4537.599729,518.144159,-7890.783629,-222.061783
4537.600054,370.102971,-8580.269578,-518.144159
4537.600378,222.061783,-8427.050478,-444.123565
4537.600703,0.000000,-8810.098227,-296.082377
4537.601028,-148.041188,-8197.221829,-444.123565
4537.601352,-444.123565,-8503.660028,0.000000
4537.601677,0.000000,-8886.707777,0.000000
4537.602001,0.000000,-8656.879127,0.000000
4537.602326,222.061783,-8886.707777,0.000000
4537.602651,518.144159,-8350.440928,0.000000
4537.602975,962.267725,-8733.488677,74.020594
4537.603300,814.226536,-8733.488677,-296.082377
4537.603624,962.267725,-8810.098227,-444.123565
4537.603949,666.185348,-8656.879127,0.000000
4537.604274,222.061783,-8350.440928,0.000000
4537.604598,-74.020594,-8733.488677,-296.082377
4537.604923,-370.102971,-8733.488677,0.000000
4537.605247,-222.061783,-8120.612279,-296.082377
4537.605572,0.000000,-9116.536426,0.000000
4537.605897,0.000000,-8580.269578,148.041188
4537.606221,370.102971,-8963.317327,0.000000
4537.606546,592.164754,-8580.269578,-370.102971
4537.606870,1332.370696,-8427.050478,-296.082377
4537.607195,1184.329507,-8733.488677,-518.144159
4537.607520,1406.391290,-8810.098227,-296.082377
4537.607844,1036.288319,-8120.612279,-518.144159
4537.608169,592.164754,-8733.488677,-592.164754
4537.608493,370.102971,-8120.612279,-888.247130
4537.608818,444.123565,-8963.317327,-592.164754
4537.609143,0.000000,-8350.440928,-666.185348
4537.609467,-148.041188,-8810.098227,0.000000
4537.609792,0.000000,-8963.317327,-444.123565
4537.610116,0.000000,-8733.488677,148.041188
4537.610441,296.082377,-8656.879127,0.000000
4537.610766,444.123565,-8733.488677,-222.061783
4537.611090,814.226536,-9039.926876,296.082377
4537.611415,962.267725,-8810.098227,-222.061783
4537.611739,740.205942,-8886.707777,-444.123565
4537.612064,740.205942,-8733.488677,0.000000
4537.612389,518.144159,-8733.488677,-222.061783
4537.612713,0.000000,-8810.098227,0.000000
4537.613038,74.020594,-8810.098227,-518.144159
4537.613362,0.000000,-8580.269578,-148.041188
4537.613687,0.000000,-8656.879127,-296.082377
4537.614012,0.000000,-8656.879127,0.000000
4537.614336,296.082377,-8963.317327,-222.061783
4537.614661,444.123565,-8656.879127,-296.082377
4537.614985,1184.329507,-8733.488677,-444.123565
4537.615310,1332.370696,-8197.221829,-814.226536
4537.615635,1628.453072,-8733.488677,-518.144159
4537.615959,1332.370696,-8427.050478,-962.267725
4537.616284,666.185348,-8350.440928,-814.226536
4537.616608,444.123565,-8350.440928,-666.185348
4537.616933,0.000000,-8350.440928,-518.144159
4537.617258,0.000000,-8580.269578,-814.226536
4537.617582,-444.123565,-8427.050478,-518.144159
4537.617907,-222.061783,-8427.050478,0.000000
4537.618231,0.000000,-8886.707777,0.000000
4537.618556,296.082377,-8963.317327,0.000000
4537.618881,444.123565,-8427.050478,-222.061783
4537.619205,814.226536,-8120.612279,-148.041188
4537.619530,1110.308913,-9116.536426,296.082377
4537.619854,1110.308913,-8580.269578,0.000000
4537.620179,888.247130,-8350.440928,0.000000
4537.620504,592.164754,-8273.831378,-222.061783
4537.620828,148.041188,-8503.660028,-74.020594
4537.621153,0.000000,-8733.488677,-222.061783
4537.621477,0.000000,-8197.221829,0.000000
4537.621802,-296.082377,-8503.660028,74.020594
4537.622127,-222.061783,-8810.098227,0.000000
4537.622451,444.123565,-8350.440928,444.123565
4537.622776,444.123565,-8886.707777,0.000000
4537.623100,666.185348,-8503.660028,-148.041188
4537.623425,962.267725,-8350.440928,-222.061783
4537.623750,1184.329507,-8733.488677,-296.082377
4537.624074,1184.329507,-8656.879127,-518.144159
4537.624399,222.061783,-8120.612279,-666.185348
4537.624723,444.123565,-8656.879127,-222.061783
4537.625048,148.041188,-8273.831378,-222.061783
4537.625373,0.000000,-8810.098227,-296.082377
4537.625697,-518.144159,-8503.660028,-148.041188
4537.626022,-222.061783,-8503.660028,74.020594
4537.626346,0.000000,-8733.488677,148.041188
4537.626671,592.164754,-9193.145976,0.000000
4537.626996,962.267725,-8810.098227,-222.061783
4537.627320,888.247130,-8656.879127,-148.041188
4537.627645,962.267725,-8503.660028,-296.082377
4537.627969,1110.308913,-9729.412825,-296.082377
4537.628294,1258.350101,-8886.707777,-370.102971
4537.628619,1036.288319,-8580.269578,-222.061783
4537.628943,0.000000,-8503.660028,-148.041188
4537.629268,0.000000,-8886.707777,-518.144159
4537.629592,-222.061783,-8810.098227,0.000000
4537.629917,-296.082377,-8810.098227,-222.061783
4537.630242,-148.041188,-8580.269578,74.020594
4537.630566,0.000000,-8656.879127,0.000000
4537.630891,518.144159,-9346.365076,296.082377
4537.631215,814.226536,-8656.879127,-222.061783
4537.631540,888.247130,-8810.098227,0.000000
4537.631865,1110.308913,-8810.098227,-222.061783
4537.632189,962.267725,-8733.488677,-444.123565
4537.632514,666.185348,-9039.926876,-444.123565
4537.632838,444.123565,-8273.831378,-370.102971
4537.633163,148.041188,-8503.660028,-740.205942
4537.633488,-222.061783,-8733.488677,0.000000
4537.633812,-444.123565,-8120.612279,222.061783
4537.634137,-148.041188,-8580.269578,0.000000
4537.634461,0.000000,-8427.050478,74.020594
4537.634786,370.102971,-8503.660028,0.000000
4537.635111,666.185348,-9346.365076,148.041188
4537.635435,592.164754,-8350.440928,0.000000
4537.635760,666.185348,-8580.269578,296.082377
4537.636084,1036.288319,-8810.098227,-296.082377
4537.636409,888.247130,-8656.879127,0.000000
4537.636734,518.144159,-8656.879127,-444.123565
4537.637058,222.061783,-8503.660028,148.041188
4537.637383,0.000000,-8273.831378,0.000000
4537.637707,0.000000,-8427.050478,0.000000
4537.638032,-222.061783,-8120.612279,222.061783
4537.638357,0.000000,-8656.879127,74.020594
4537.638681,444.123565,-8810.098227,148.041188
4537.639006,296.082377,-8580.269578,222.061783
4537.639330,740.205942,-8733.488677,148.041188
4537.639655,740.205942,-8350.440928,-148.041188
4537.639980,1110.308913,-8656.879127,-222.061783
4537.640304,962.267725,-8810.098227,-296.082377
4537.640629,814.226536,-8120.612279,-222.061783
4537.640953,962.267725,-8886.707777,-444.123565
4537.641278,444.123565,-8350.440928,-444.123565
4537.641603,0.000000,-8580.269578,-518.144159
4537.641927,222.061783,-8580.269578,-518.144159
4537.642252,296.082377,-8120.612279,0.000000
4537.642576,0.000000,-8350.440928,0.000000
4537.642901,296.082377,-8656.879127,0.000000
4537.643226,370.102971,-8503.660028,-444.123565
4537.643550,518.144159,-8044.002729,-296.082377
4537.643875,592.164754,-8503.660028,-296.082377
4537.644199,814.226536,-8810.098227,222.061783
4537.644524,888.247130,-8503.660028,-296.082377
4537.644849,740.205942,-8733.488677,-444.123565
4537.645173,296.082377,-8120.612279,-666.185348
4537.645498,0.000000,-8580.269578,-518.144159
4537.645822,148.041188,-8656.879127,-370.102971
4537.646147,-444.123565,-8503.660028,-222.061783
4537.646472,-370.102971,-9193.145976,0.000000
4537.646796,0.000000,-8733.488677,-296.082377
4537.647121,370.102971,-9193.145976,-222.061783
4537.647445,296.082377,-8810.098227,-296.082377
4537.647770,666.185348,-8733.488677,-222.061783
4537.648095,1036.288319,-8656.879127,-370.102971
4537.648419,1184.329507,-8733.488677,-518.144159
4537.648744,1406.391290,-8886.707777,-962.267725
4537.649068,962.267725,-8580.269578,-740.205942
4537.649393,518.144159,-8580.269578,-1036.288319
4537.649718,444.123565,-9039.926876,-740.205942
4537.650042,148.041188,-8580.269578,-888.247130
4537.650367,0.000000,-8580.269578,-518.144159
4537.650691,74.020594,-8886.707777,-370.102971
4537.651016,0.000000,-8810.098227,-222.061783
4537.651341,296.082377,-9039.926876,-370.102971
4537.651665,740.205942,-8580.269578,-666.185348
4537.651990,666.185348,-8580.269578,-370.102971
4537.652314,1258.350101,-9039.926876,-592.164754
4537.652639,1036.288319,-8733.488677,-296.082377
4537.652964,962.267725,-8503.660028,-518.144159
4537.653288,370.102971,-8733.488677,-518.144159
4537.653613,148.041188,-7967.393179,-592.164754
4537.653937,-148.041188,-9039.926876,-296.082377
4537.654262,0.000000,-8503.660028,-592.164754
4537.654587,0.000000,-8427.050478,0.000000
4537.654911,-222.061783,-8273.831378,74.020594
4537.655236,222.061783,-8580.269578,74.020594
4537.655560,814.226536,-8886.707777,0.000000
4537.655885,1036.288319,-8273.831378,0.000000
4537.656210,1110.308913,-7967.393179,0.000000
4537.656534,888.247130,-8733.488677,-222.061783
4537.656859,888.247130,-8580.269578,-74.020594
4537.657183,814.226536,-8273.831378,-296.082377
4537.657508,444.123565,-8503.660028,-296.082377
4537.657833,222.061783,-8273.831378,0.000000
4537.658157,0.000000,-8427.050478,-222.061783
4537.658482,-222.061783,-8503.660028,-296.082377
4537.658806,-444.123565,-8273.831378,-222.061783
4537.659131,-222.061783,-8503.660028,0.000000
4537.659456,0.000000,-8503.660028,0.000000
4537.659780,148.041188,-8580.269578,0.000000
4537.660105,370.102971,-8427.050478,-296.082377
4537.660429,666.185348,-8580.269578,0.000000
4537.660754,1110.308913,-8580.269578,-888.247130
4537.661079,1110.308913,-8733.488677,-592.164754
4537.661403,518.144159,-8427.050478,-148.041188
4537.661728,444.123565,-8427.050478,-296.082377
4537.662052,222.061783,-8120.612279,-740.205942
4537.662377,0.000000,-8656.879127,-444.123565
4537.662702,-370.102971,-8273.831378,-370.102971
4537.663026,0.000000,-8350.440928,0.000000
4537.663351,0.000000,-8580.269578,0.000000
4537.663675,296.082377,-9039.926876,0.000000
4537.664000,518.144159,-8656.879127,-370.102971
4537.664325,518.144159,-8733.488677,-296.082377
4537.664649,666.185348,-8580.269578,-296.082377
4537.664974,814.226536,-9193.145976,-222.061783
4537.665298,1036.288319,-8656.879127,-370.102971
4537.665623,518.144159,-8886.707777,-518.144159
4537.665948,222.061783,-8580.269578,-666.185348
4537.666272,222.061783,-8580.269578,-444.123565
4537.666597,-222.061783,-7967.393179,-740.205942
4537.666921,0.000000,-8580.269578,-444.123565
4537.667246,0.000000,-8427.050478,-444.123565
4537.667571,296.082377,-8580.269578,-370.102971
4537.667895,518.144159,-8733.488677,-740.205942
4537.668220,1110.308913,-8503.660028,-370.102971
4537.668544,1406.391290,-8580.269578,-222.061783
4537.668869,1406.391290,-8733.488677,-814.226536
4537.669194,962.267725,-8120.612279,-962.267725
4537.669518,740.205942,-8427.050478,-740.205942
4537.669843,296.082377,-8427.050478,-814.226536
4537.670167,0.000000,-8350.440928,-814.226536
4537.670492,-296.082377,-8656.879127,-444.123565
4537.670817,0.000000,-8427.050478,-666.185348
4537.671141,-74.020594,-8580.269578,-444.123565
4537.671466,0.000000,-8810.098227,-148.041188
4537.671790,592.164754,-8810.098227,0.000000
4537.672115,1036.288319,-8733.488677,-296.082377
4537.672440,962.267725,-8503.660028,-444.123565
4537.672764,1258.350101,-8273.831378,-370.102971
4537.673089,1332.370696,-8810.098227,-370.102971
4537.673413,1924.535449,-8656.879127,-888.247130
4537.673738,666.185348,-8503.660028,-592.164754
4537.674063,370.102971,-8656.879127,-666.185348
4537.674387,222.061783,-8427.050478,-444.123565
4537.674712,296.082377,-9193.145976,-740.205942
4537.675036,0.000000,-8427.050478,-666.185348
4537.675361,74.020594,-8427.050478,-148.041188
4537.675686,74.020594,-8886.707777,-666.185348
4537.676010,222.061783,-8810.098227,-370.102971
4537.676335,296.082377,-8656.879127,-592.164754
4537.676659,592.164754,-8733.488677,-296.082377
4537.676984,888.247130,-8427.050478,-666.185348
4537.677308,592.164754,-9116.536426,-518.144159
4537.677633,962.267725,-8733.488677,-592.164754
4537.677957,444.123565,-8273.831378,-814.226536
4537.678282,0.000000,-8733.488677,-518.144159
4537.678607,0.000000,-8580.269578,-444.123565
4537.678931,-296.082377,-8580.269578,-370.102971
4537.679256,-444.123565,-8580.269578,-222.061783
4537.679580,-296.082377,-8350.440928,-222.061783
4537.679905,370.102971,-8810.098227,148.041188
4537.680229,518.144159,-8810.098227,-370.102971
4537.680554,1184.329507,-8580.269578,-370.102971
4537.680878,666.185348,-8350.440928,-296.082377
4537.681203,1110.308913,-8810.098227,0.000000
4537.681528,1184.329507,-8656.879127,-666.185348
4537.681852,962.267725,-8580.269578,-888.247130
4537.682177,518.144159,-8427.050478,-740.205942
4537.682501,74.020594,-8656.879127,-592.164754
4537.682826,0.000000,-8733.488677,-740.205942
4537.683150,-222.061783,-8503.660028,-518.144159
4537.683475,-148.041188,-8503.660028,-370.102971
4537.683800,0.000000,-8580.269578,0.000000
4537.684124,222.061783,-8580.269578,-444.123565
4537.684449,666.185348,-8810.098227,-666.185348
4537.684773,1406.391290,-8350.440928,-740.205942
4537.685098,740.205942,-8580.269578,-518.144159
4537.685422,1110.308913,-8656.879127,-592.164754
4537.685747,888.247130,-8427.050478,-814.226536
4537.686071,814.226536,-8963.317327,-296.082377
4537.686396,444.123565,-8044.002729,-666.185348
4537.686721,0.000000,-8733.488677,-740.205942
4537.687045,148.041188,-8580.269578,-666.185348
4537.687370,74.020594,-8273.831378,-222.061783
4537.687694,296.082377,-8503.660028,-370.102971
4537.688019,222.061783,-8580.269578,-444.123565
4537.688343,814.226536,-8656.879127,-518.144159
4537.688668,888.247130,-8810.098227,-518.144159
4537.688993,1776.494261,-8580.269578,-518.144159
4537.689317,1184.329507,-8810.098227,-296.082377
4537.689642,962.267725,-8580.269578,-370.102971
4537.689966,814.226536,-8580.269578,-518.144159
4537.690291,592.164754,-8350.440928,-740.205942
4537.690615,740.205942,-8733.488677,-222.061783
4537.690940,296.082377,-8503.660028,-370.102971
4537.691264,0.000000,-8733.488677,-296.082377
4537.691589,-222.061783,-8350.440928,-222.061783
4537.691914,0.000000,-8580.269578,-444.123565
4537.692238,0.000000,-8656.879127,-148.041188
4537.692563,222.061783,-8886.707777,-370.102971
4537.692887,592.164754,-8427.050478,-370.102971
4537.693212,1036.288319,-8197.221829,-370.102971
4537.693536,1036.288319,-8580.269578,-666.185348
4537.693861,888.247130,-8733.488677,-666.185348
4537.694185,1036.288319,-8350.440928,-740.205942
4537.694510,296.082377,-8656.879127,-740.205942
4537.694835,0.000000,-8580.269578,-666.185348
4537.695159,0.000000,-8580.269578,-666.185348
4537.695484,-370.102971,-8427.050478,-740.205942
4537.695808,-296.082377,-8656.879127,-592.164754
4537.696133,-296.082377,-8350.440928,0.000000
4537.696457,222.061783,-8810.098227,-222.061783
4537.696782,814.226536,-8580.269578,-666.185348
4537.697107,962.267725,-8656.879127,-518.144159
4537.697431,1628.453072,-9729.412825,-370.102971
4537.697756,1258.350101,-8503.660028,-148.041188
4537.698080,1036.288319,-8350.440928,-740.205942
4537.698405,518.144159,-8273.831378,-518.144159
4537.698729,518.144159,-8273.831378,-592.164754
4537.699054,0.000000,-8886.707777,0.000000
4537.699378,-296.082377,-8656.879127,-444.123565
4537.699703,-370.102971,-8656.879127,-148.041188
4537.700028,0.000000,-8580.269578,0.000000
4537.700352,-222.061783,-8733.488677,222.061783
4537.700677,740.205942,-8886.707777,-444.123565
4537.701001,666.185348,-8427.050478,-296.082377
4537.701326,814.226536,-8273.831378,-148.041188
4537.701650,1406.391290,-8733.488677,-370.102971
4537.701975,1258.350101,-8963.317327,-592.164754
4537.702299,1184.329507,-8273.831378,-666.185348
4537.702624,666.185348,-8810.098227,-444.123565
4537.702949,222.061783,-8120.612279,-222.061783
4537.703273,0.000000,-8350.440928,-296.082377
4537.703598,0.000000,-8580.269578,-222.061783
4537.703922,-370.102971,-8120.612279,0.000000
4537.704247,74.020594,-8580.269578,-148.041188
4537.704571,518.144159,-8350.440928,0.000000
4537.704896,592.164754,-8810.098227,-148.041188
4537.705221,1036.288319,-8886.707777,-370.102971
4537.705545,962.267725,-8350.440928,-296.082377
4537.705870,1480.411884,-8656.879127,-518.144159
4537.706194,1036.288319,-8733.488677,-814.226536
4537.706519,444.123565,-8580.269578,-222.061783
4537.706843,518.144159,-8733.488677,-592.164754
4537.707168,0.000000,-8733.488677,-518.144159
4537.707492,222.061783,-8810.098227,-1110.308913
4537.707817,-222.061783,-8580.269578,-518.144159
4537.708142,0.000000,-8350.440928,-222.061783
4537.708466,148.041188,-8656.879127,-296.082377
4537.708791,0.000000,-8886.707777,-370.102971
4537.709115,592.164754,-8886.707777,-370.102971
4537.709440,666.185348,-8503.660028,-370.102971
4537.709764,814.226536,-9116.536426,-296.082377
4537.710089,1036.288319,-9806.022374,-370.102971
4537.710414,888.247130,-8733.488677,-666.185348
4537.710738,370.102971,-8580.269578,-592.164754
4537.711063,222.061783,-8733.488677,-518.144159
4537.711387,0.000000,-8733.488677,-666.185348
4537.711712,-148.041188,-8580.269578,0.000000
4537.712036,-518.144159,-8733.488677,-370.102971
4537.712361,0.000000,-8580.269578,0.000000
4537.712685,148.041188,-8656.879127,-222.061783
4537.713010,740.205942,-9499.584175,-296.082377
4537.713335,518.144159,-9116.536426,0.000000
4537.713659,962.267725,-8503.660028,0.000000
4537.713984,1036.288319,-8886.707777,-222.061783
4537.714308,1184.329507,-8580.269578,-518.144159
4537.714633,1184.329507,-8810.098227,-666.185348
4537.714957,592.164754,-8044.002729,-592.164754
4537.715282,370.102971,-8350.440928,0.000000
4537.715606,222.061783,-8503.660028,-814.226536
4537.715931,0.000000,-8503.660028,0.000000
4537.716256,-148.041188,-8350.440928,0.000000
4537.716580,-148.041188,-8656.879127,0.000000
4537.716905,74.020594,-8656.879127,0.000000
4537.717229,666.185348,-9193.145976,74.020594
4537.717554,962.267725,-8580.269578,0.000000
4537.717878,1332.370696,-8273.831378,0.000000
4537.718203,1258.350101,-8656.879127,-370.102971
4537.718528,1480.411884,-8197.221829,-296.082377
4537.718852,740.205942,-8350.440928,0.000000
4537.719177,518.144159,-8733.488677,-370.102971
4537.719501,222.061783,-8120.612279,-296.082377
4537.719826,0.000000,-8580.269578,-222.061783
4537.720150,74.020594,-8503.660028,148.041188
4537.720475,0.000000,-8503.660028,-222.061783
4537.720799,222.061783,-8733.488677,-148.041188
4537.721124,0.000000,-8350.440928,0.000000
4537.721449,222.061783,-9269.755526,0.000000
4537.721773,740.205942,-8197.221829,0.000000
4537.722098,1258.350101,-8503.660028,0.000000
4537.722422,1110.308913,-8886.707777,-222.061783
4537.722747,962.267725,-8810.098227,-666.185348
4537.723071,296.082377,-8580.269578,-148.041188
4537.723396,296.082377,-8580.269578,-222.061783
4537.723720,0.000000,-8810.098227,-148.041188
4537.724045,-370.102971,-8733.488677,-518.144159
4537.724370,-444.123565,-8886.707777,74.020594
4537.724694,-370.102971,-8810.098227,0.000000
4537.725019,-296.082377,-8886.707777,0.000000
4537.725343,222.061783,-8963.317327,0.000000
4537.725668,518.144159,-8273.831378,148.041188
4537.725992,518.144159,-8580.269578,-222.061783
4537.726317,962.267725,-8656.879127,-370.102971
4537.726642,1036.288319,-8427.050478,-518.144159
4537.726966,888.247130,-8963.317327,-444.123565
4537.727291,222.061783,-8350.440928,-666.185348
4537.727615,74.020594,-8656.879127,-518.144159
4537.727940,74.020594,-8503.660028,-518.144159
4537.728264,-222.061783,-8503.660028,-592.164754
4537.728589,74.020594,-8810.098227,-296.082377
4537.728913,0.000000,-8273.831378,0.000000
4537.729238,-148.041188,-8886.707777,0.000000
4537.729563,74.020594,-8886.707777,0.000000
4537.729887,888.247130,-8733.488677,74.020594
4537.730212,666.185348,-8810.098227,-148.041188
4537.730536,888.247130,-8810.098227,0.000000
4537.730861,888.247130,-8427.050478,0.000000
4537.731185,444.123565,-8197.221829,-296.082377
4537.731510,592.164754,-8350.440928,0.000000
4537.731834,444.123565,-8350.440928,-296.082377
4537.732159,-296.082377,-9116.536426,0.000000
4537.732484,0.000000,-8120.612279,0.000000
4537.732808,-518.144159,-7890.783629,296.082377
4537.733133,0.000000,-8350.440928,74.020594
4537.733457,444.123565,-8733.488677,0.000000
4537.733782,518.144159,-8733.488677,0.000000
4537.734106,962.267725,-8503.660028,74.020594
4537.734431,1406.391290,-8503.660028,0.000000
4537.734756,1480.411884,-8580.269578,-222.061783
4537.735080,1628.453072,-8197.221829,-296.082377
4537.735405,1036.288319,-8733.488677,-518.144159
4537.735729,370.102971,-8273.831378,-222.061783
4537.736054,74.020594,-8656.879127,0.000000
4537.736378,-444.123565,-8656.879127,-370.102971
4537.736703,-666.185348,-8427.050478,0.000000
4537.737027,0.000000,-8580.269578,296.082377
4537.737352,0.000000,-8886.707777,0.000000
4537.737677,296.082377,-8810.098227,148.041188
4537.738001,1036.288319,-8580.269578,0.000000
4537.738326,962.267725,-8580.269578,0.000000
4537.738650,1332.370696,-8810.098227,-296.082377
4537.738975,1406.391290,-8810.098227,-518.144159
4537.739299,740.205942,-8503.660028,-444.123565
4537.739624,518.144159,-8197.221829,-592.164754
4537.739949,814.226536,-8886.707777,-666.185348
4537.740273,0.000000,-8656.879127,-666.185348
4537.740598,148.041188,-8810.098227,-444.123565
4537.740922,-222.061783,-8350.440928,-222.061783
4537.741247,0.000000,-7890.783629,296.082377
4537.741571,296.082377,-8810.098227,-444.123565
4537.741896,370.102971,-8886.707777,-518.144159
4537.742220,444.123565,-8656.879127,0.000000
4537.742545,1036.288319,-8963.317327,-444.123565
4537.742870,1480.411884,-9039.926876,-666.185348
4537.743194,962.267725,-8580.269578,-740.205942
4537.743519,444.123565,-8656.879127,-592.164754
4537.743843,296.082377,-8350.440928,-740.205942
4537.744168,296.082377,-8733.488677,-222.061783
4537.744492,-370.102971,-8656.879127,-296.082377
4537.744817,-148.041188,-8273.831378,-592.164754
4537.745141,-370.102971,-8427.050478,-222.061783
4537.745466,592.164754,-8197.221829,-296.082377
4537.745791,222.061783,-8580.269578,-444.123565
4537.746115,888.247130,-8656.879127,0.000000
4537.746440,814.226536,-8350.440928,-444.123565
4537.746764,1110.308913,-8656.879127,-370.102971
4537.747089,1554.432478,-8350.440928,-592.164754
4537.747413,1184.329507,-8580.269578,-518.144159
4537.747738,814.226536,-8656.879127,-666.185348
4537.748063,444.123565,-8427.050478,-370.102971
4537.748387,74.020594,-9116.536426,0.000000
4537.748712,-148.041188,-8273.831378,-296.082377
4537.749036,-296.082377,-8580.269578,74.020594
4537.749361,-74.020594,-8886.707777,0.000000
4537.749685,0.000000,-8503.660028,222.061783
4537.750010,148.041188,-8656.879127,74.020594
4537.750334,518.144159,-8656.879127,148.041188
4537.750659,518.144159,-8197.221829,296.082377
4537.750984,888.247130,-8886.707777,0.000000
4537.751308,1110.308913,-8273.831378,-518.144159
4537.751633,814.226536,-8580.269578,-296.082377
4537.751957,740.205942,-8350.440928,0.000000
4537.752282,74.020594,-8120.612279,-296.082377
4537.752606,74.020594,-9499.584175,-888.247130
4537.752931,0.000000,-8273.831378,-296.082377
4537.753255,0.000000,-8273.831378,74.020594
4537.753580,-222.061783,-8580.269578,0.000000
4537.753905,444.123565,-8503.660028,0.000000
4537.754229,518.144159,-8427.050478,-296.082377
4537.754554,592.164754,-8656.879127,0.000000
4537.754878,1036.288319,-8733.488677,0.000000
4537.755203,1332.370696,-8886.707777,0.000000
4537.755527,888.247130,-9039.926876,-444.123565
4537.755852,444.123565,-8044.002729,-666.185348
4537.756177,222.061783,-8503.660028,-592.164754
4537.756501,0.000000,-8427.050478,-222.061783
4537.756826,-370.102971,-9039.926876,-148.041188
4537.757150,-666.185348,-8810.098227,0.000000
4537.757475,-814.226536,-8580.269578,148.041188
4537.757799,0.000000,-8733.488677,0.000000
4537.758124,148.041188,-8963.317327,-370.102971
4537.758448,592.164754,-8886.707777,-222.061783
4537.758773,888.247130,-8503.660028,-296.082377
4537.759098,1036.288319,-8656.879127,-222.061783
4537.759422,1332.370696,-9039.926876,-666.185348
4537.759747,444.123565,-8273.831378,-814.226536
4537.760071,962.267725,-8503.660028,-518.144159
4537.760396,222.061783,-8580.269578,-592.164754
4537.760720,0.000000,-9039.926876,-592.164754
4537.761045,0.000000,-8810.098227,-888.247130
4537.761370,0.000000,-8886.707777,-518.144159
4537.761694,0.000000,-8810.098227,-222.061783
4537.762019,74.020594,-8886.707777,-296.082377
4537.762343,740.205942,-9039.926876,-222.061783
4537.762668,666.185348,-8427.050478,-666.185348
4537.762992,814.226536,-8580.269578,-444.123565
4537.763317,1258.350101,-8810.098227,-296.082377
4537.763641,962.267725,-8427.050478,-592.164754
4537.763966,518.144159,-9039.926876,0.000000
4537.764291,518.144159,-8810.098227,-666.185348
4537.764615,222.061783,-8503.660028,-592.164754
4537.764940,0.000000,-8810.098227,-370.102971
4537.765264,0.000000,-8120.612279,-296.082377
4537.765589,-370.102971,-8350.440928,0.000000
4537.765913,0.000000,-8656.879127,0.000000
4537.766238,222.061783,-8427.050478,-666.185348
4537.766562,888.247130,-8810.098227,-592.164754
4537.766887,814.226536,-8427.050478,0.000000
4537.767212,1332.370696,-8656.879127,-444.123565
4537.767536,1480.411884,-8963.317327,-666.185348
4537.767861,1184.329507,-8273.831378,-962.267725
4537.768185,444.123565,-8656.879127,0.000000
4537.768510,518.144159,-8580.269578,-592.164754
4537.768834,0.000000,-8580.269578,-444.123565
4537.769159,0.000000,-8580.269578,-444.123565
4537.769484,-148.041188,-8350.440928,-444.123565
4537.769808,-296.082377,-8580.269578,-296.082377
4537.770133,222.061783,-8886.707777,-518.144159
4537.770457,518.144159,-8656.879127,0.000000
4537.770782,592.164754,-8580.269578,-148.041188
4537.771106,518.144159,-8120.612279,-148.041188
4537.771431,1036.288319,-8810.098227,-370.102971
4537.771755,962.267725,-8886.707777,-888.247130
4537.772080,888.247130,-8733.488677,-666.185348
4537.772405,74.020594,-8503.660028,-296.082377
4537.772729,296.082377,-8503.660028,-592.164754
4537.773054,0.000000,-8273.831378,-740.205942
4537.773378,0.000000,-8427.050478,-740.205942
4537.773703,0.000000,-8350.440928,-222.061783
4537.774027,148.041188,-8580.269578,0.000000
4537.774352,74.020594,-9039.926876,-370.102971
4537.774676,296.082377,-8656.879127,-296.082377
4537.775001,592.164754,-7890.783629,-296.082377
4537.775326,666.185348,-8197.221829,74.020594
4537.775650,888.247130,-8350.440928,-296.082377
4537.775975,962.267725,-8350.440928,-148.041188
4537.776299,444.123565,-8120.612279,-666.185348
4537.776624,296.082377,-8656.879127,0.000000
4537.776948,222.061783,-8733.488677,-518.144159
4537.777273,0.000000,-8733.488677,0.000000
4537.777597,-370.102971,-8427.050478,-296.082377
4537.777922,-148.041188,-8503.660028,-222.061783
4537.778246,222.061783,-8273.831378,-222.061783
4537.778571,296.082377,-9193.145976,-592.164754
4537.778895,888.247130,-8733.488677,-592.164754
4537.779220,888.247130,-8350.440928,-148.041188
4537.779544,1480.411884,-8810.098227,-518.144159
4537.779869,1332.370696,-8886.707777,-592.164754
4537.780193,1184.329507,-9269.755526,-962.267725
4537.780518,888.247130,-8886.707777,-592.164754
4537.780842,666.185348,-8197.221829,-444.123565
4537.781167,444.123565,-8963.317327,-296.082377
4537.781491,74.020594,-8503.660028,-296.082377
4537.781816,-518.144159,-8656.879127,0.000000
4537.782140,-148.041188,-8427.050478,-296.082377
4537.782465,222.061783,-8963.317327,74.020594
4537.782790,370.102971,-9039.926876,0.000000
4537.783114,740.205942,-8503.660028,-222.061783
4537.783439,592.164754,-8427.050478,74.020594
4537.783763,1332.370696,-8503.660028,0.000000
4537.784088,1332.370696,-8656.879127,-518.144159
4537.784412,888.247130,-8273.831378,-148.041188
4537.784737,592.164754,-8656.879127,-148.041188
4537.785061,222.061783,-8503.660028,-592.164754
4537.785386,0.000000,-8427.050478,-518.144159
4537.785710,-222.061783,-8503.660028,-222.061783
4537.786035,-444.123565,-8503.660028,-148.041188
4537.786359,-296.082377,-8580.269578,-222.061783
4537.786684,592.164754,-8810.098227,-222.061783
4537.787008,370.102971,-8733.488677,-592.164754
4537.787333,592.164754,-8503.660028,-444.123565
4537.787657,1184.329507,-8427.050478,-148.041188
4537.787982,1110.308913,-8810.098227,-222.061783
4537.788306,962.267725,-8886.707777,-1036.288319
4537.788631,444.123565,-8273.831378,-666.185348
4537.788955,444.123565,-8656.879127,-592.164754
4537.789280,74.020594,-8197.221829,-740.205942
4537.789604,74.020594,-8810.098227,-518.144159
4537.789929,-148.041188,-8580.269578,-740.205942
4537.790253,-518.144159,-8656.879127,-444.123565
4537.790578,-370.102971,-8656.879127,-370.102971
4537.790902,518.144159,-9269.755526,-296.082377
4537.791227,666.185348,-8427.050478,-518.144159
4537.791551,592.164754,-8886.707777,-148.041188
4537.791876,740.205942,-8963.317327,-814.226536
4537.792200,1332.370696,-9269.755526,-370.102971
4537.792525,888.247130,-8427.050478,-740.205942
4537.792849,518.144159,-8580.269578,-666.185348
4537.793174,444.123565,-8273.831378,-592.164754
4537.793498,370.102971,-8350.440928,-814.226536
4537.793823,0.000000,-8273.831378,-296.082377
4537.794147,0.000000,-8503.660028,-592.164754
4537.794472,0.000000,-8503.660028,-296.082377
4537.794796,518.144159,-8580.269578,-370.102971
4537.795121,518.144159,-8580.269578,-814.226536
4537.795445,592.164754,-8427.050478,-370.102971
4537.795770,962.267725,-8197.221829,-592.164754
4537.796094,1110.308913,-8733.488677,-592.164754
4537.796419,814.226536,-8503.660028,-666.185348
4537.796743,888.247130,-8273.831378,-592.164754
4537.797068,518.144159,-8503.660028,-592.164754
4537.797393,444.123565,-8197.221829,-518.144159
4537.797717,148.041188,-8580.269578,-888.247130
4537.798042,148.041188,-8580.269578,-296.082377
4537.798366,0.000000,-8273.831378,-518.144159
4537.798691,0.000000,-8886.707777,-148.041188
4537.799015,222.061783,-8503.660028,-518.144159
4537.799340,666.185348,-8350.440928,-518.144159
4537.799664,1258.350101,-8503.660028,-296.082377
4537.799989,1258.350101,-8656.879127,-370.102971
4537.800313,1480.411884,-8810.098227,-518.144159
4537.800638,1258.350101,-8044.002729,-666.185348
4537.800962,740.205942,-8656.879127,-592.164754
4537.801287,370.102971,-8580.269578,-666.185348
4537.801611,370.102971,-8503.660028,0.000000
4537.801936,0.000000,-8886.707777,-444.123565
4537.802260,0.000000,-8963.317327,-444.123565
4537.802585,-148.041188,-8580.269578,-296.082377
4537.802909,0.000000,-8886.707777,-296.082377
4537.803234,222.061783,-8886.707777,0.000000
4537.803558,518.144159,-9576.193725,-296.082377
4537.803883,740.205942,-8580.269578,0.000000
4537.804207,814.226536,-8733.488677,-296.082377
4537.804532,740.205942,-8963.317327,-370.102971
4537.804856,888.247130,-8656.879127,-740.205942
4537.805181,888.247130,-8350.440928,-444.123565
4537.805505,74.020594,-8427.050478,-518.144159
4537.805830,0.000000,-8810.098227,-518.144159
4537.806154,0.000000,-8580.269578,-592.164754
4537.806479,-148.041188,-8963.317327,-296.082377
4537.806803,0.000000,-8503.660028,0.000000
4537.807128,0.000000,-8886.707777,0.000000
4537.807452,518.144159,-8886.707777,-592.164754
4537.807777,222.061783,-8350.440928,-148.041188
4537.808101,814.226536,-8733.488677,-444.123565
4537.808426,1184.329507,-8963.317327,-222.061783
4537.808750,1332.370696,-8580.269578,-814.226536
4537.809075,370.102971,-8503.660028,-148.041188
4537.809399,518.144159,-8580.269578,-296.082377
4537.809724,74.020594,-8656.879127,-222.061783
4537.810048,0.000000,-8427.050478,-222.061783
4537.810373,-444.123565,-8503.660028,444.123565
4537.810697,0.000000,-8580.269578,592.164754
4537.811022,-148.041188,-8580.269578,148.041188
4537.811346,370.102971,-8580.269578,-222.061783
4537.811671,592.164754,-8810.098227,-296.082377
4537.811996,962.267725,-8733.488677,666.185348
4537.812320,1184.329507,-8503.660028,0.000000
4537.812645,1702.473667,-8503.660028,-444.123565
4537.812969,1554.432478,-8503.660028,-592.164754
4537.813294,518.144159,-8197.221829,-740.205942
4537.813618,814.226536,-8733.488677,-592.164754
4537.813943,74.020594,-8580.269578,-740.205942
4537.814267,222.061783,-8886.707777,-592.164754
4537.814592,0.000000,-8350.440928,-592.164754
4537.814916,-370.102971,-8120.612279,0.000000
4537.815241,74.020594,-8503.660028,-370.102971
4537.815565,148.041188,-8273.831378,-296.082377
4537.815890,370.102971,-9039.926876,-222.061783
4537.816214,666.185348,-8427.050478,-666.185348
4537.816539,1036.288319,-8427.050478,0.000000
4537.816863,666.185348,-8580.269578,-518.144159
4537.817188,592.164754,-8733.488677,-444.123565
4537.817512,296.082377,-8733.488677,-296.082377
4537.817837,296.082377,-9116.536426,-296.082377
4537.818161,74.020594,-8273.831378,-444.123565
4537.818486,0.000000,-8656.879127,-370.102971
4537.818810,0.000000,-8580.269578,-370.102971
4537.819135,666.185348,-8503.660028,-296.082377
4537.819459,222.061783,-9116.536426,-222.061783
4537.819784,592.164754,-8503.660028,-518.144159
4537.820108,666.185348,-8810.098227,-592.164754
4537.820433,962.267725,-8810.098227,-296.082377
4537.820757,1184.329507,-9039.926876,-444.123565
4537.821082,1110.308913,-8810.098227,-1036.288319
4537.821406,740.205942,-8427.050478,-444.123565
4537.821731,666.185348,-8350.440928,-1036.288319
4537.822055,444.123565,-8503.660028,-370.102971
4537.822380,148.041188,-8273.831378,-740.205942
4537.822704,0.000000,-8580.269578,-518.144159
4537.823029,-444.123565,-8427.050478,-592.164754
4537.823353,0.000000,-8810.098227,-222.061783
4537.823678,0.000000,-8886.707777,-666.185348
4537.824002,222.061783,-8963.317327,-370.102971
4537.824327,296.082377,-8273.831378,-370.102971
4537.824651,740.205942,-8886.707777,-148.041188
4537.824976,1110.308913,-8580.269578,-444.123565
4537.825300,1110.308913,-8656.879127,-370.102971
4537.825625,1258.350101,-8503.660028,-592.164754
4537.825949,814.226536,-8197.221829,0.000000
4537.826274,222.061783,-8733.488677,-666.185348
4537.826599,296.082377,-8733.488677,-148.041188
4537.826923,0.000000,-8350.440928,-222.061783
4537.827248,0.000000,-8656.879127,74.020594
4537.827572,296.082377,-8120.612279,222.061783
4537.827897,444.123565,-8810.098227,222.061783
4537.828221,666.185348,-8656.879127,148.041188
4537.828546,1036.288319,-8350.440928,148.041188
4537.828870,1406.391290,-8810.098227,148.041188
4537.829195,1554.432478,-8810.098227,0.000000
4537.829519,666.185348,-8350.440928,0.000000
4537.829844,296.082377,-8427.050478,-74.020594
4537.830168,148.041188,-8810.098227,0.000000
4537.830493,0.000000,-8503.660028,-296.082377
4537.830817,-370.102971,-8810.098227,-370.102971
4537.831142,-518.144159,-8656.879127,0.000000
4537.831466,-370.102971,-8733.488677,0.000000
4537.831791,148.041188,-8580.269578,0.000000
4537.832115,814.226536,-8350.440928,-592.164754
4537.832440,518.144159,-8810.098227,-296.082377
4537.832764,1110.308913,-8120.612279,-296.082377
4537.833089,1184.329507,-8580.269578,-296.082377
4537.833413,1332.370696,-8656.879127,-962.267725
4537.833738,1036.288319,-8427.050478,-148.041188
4537.834062,222.061783,-8733.488677,-592.164754
4537.834387,222.061783,-8580.269578,-222.061783
4537.834711,0.000000,-8886.707777,-592.164754
4537.835036,-444.123565,-9039.926876,0.000000
4537.835360,-518.144159,-8350.440928,-370.102971
4537.835685,0.000000,-8810.098227,0.000000
4537.836009,222.061783,-8886.707777,0.000000
4537.836334,888.247130,-8503.660028,0.000000
4537.836658,740.205942,-8733.488677,0.000000
4537.836983,888.247130,-8580.269578,-148.041188
4537.837307,1258.350101,-8580.269578,-370.102971
4537.837632,814.226536,-8733.488677,-296.082377
4537.837956,444.123565,-8733.488677,-148.041188
4537.838281,296.082377,-8580.269578,0.000000
4537.838605,0.000000,-8810.098227,0.000000
4537.838930,0.000000,-8886.707777,-518.144159
4537.839254,-296.082377,-8810.098227,-222.061783
4537.839579,0.000000,-8427.050478,0.000000
4537.839903,222.061783,-8503.660028,-444.123565
4537.840228,296.082377,-8427.050478,-370.102971
4537.840552,888.247130,-8427.050478,-592.164754
4537.840877,814.226536,-7967.393179,-370.102971
4537.841202,1258.350101,-8733.488677,-518.144159
4537.841526,1110.308913,-8427.050478,-518.144159
4537.841851,962.267725,-8963.317327,-370.102971
4537.842175,518.144159,-8273.831378,-592.164754
4537.842500,592.164754,-8273.831378,-518.144159
4537.842824,0.000000,-8503.660028,-518.144159
4537.843149,0.000000,-8963.317327,0.000000
4537.843473,-370.102971,-7890.783629,0.000000
4537.843798,-222.061783,-8503.660028,0.000000
4537.844122,296.082377,-8427.050478,-370.102971
4537.844447,592.164754,-8733.488677,-222.061783
4537.844771,666.185348,-8427.050478,0.000000
4537.845096,1258.350101,-8350.440928,0.000000
4537.845420,1406.391290,-8886.707777,-296.082377
4537.845745,1110.308913,-8427.050478,-518.144159
4537.846069,962.267725,-8350.440928,-370.102971
4537.846394,814.226536,-8503.660028,-444.123565
4537.846718,148.041188,-8120.612279,-296.082377
4537.847043,74.020594,-8580.269578,-444.123565
4537.847367,-592.164754,-8886.707777,0.000000
4537.847692,-222.061783,-8120.612279,-222.061783
4537.848016,-222.061783,-8810.098227,0.000000
4537.848341,148.041188,-8963.317327,-74.020594
4537.848665,518.144159,-8580.269578,-148.041188
4537.848990,962.267725,-8273.831378,74.020594
4537.849314,740.205942,-8733.488677,0.000000
4537.849639,1332.370696,-8810.098227,-444.123565
4537.849963,1036.288319,-8656.879127,-370.102971
4537.850288,1036.288319,-8427.050478,-518.144159
4537.850612,222.061783,-8580.269578,-592.164754
4537.850937,222.061783,-8733.488677,-296.082377
4537.851261,-444.123565,-8810.098227,-296.082377
4537.851586,-222.061783,-8886.707777,-444.123565
4537.851910,-148.041188,-9039.926876,222.061783
4537.852235,-296.082377,-8656.879127,-222.061783
4537.852559,222.061783,-9269.755526,-296.082377
4537.852884,444.123565,-8656.879127,-370.102971
4537.853208,962.267725,-8810.098227,-444.123565
4537.853533,1406.391290,-8810.098227,-444.123565
4537.853857,1110.308913,-8656.879127,-666.185348
4537.854182,888.247130,-8810.098227,-444.123565
4537.854506,1110.308913,-8427.050478,-666.185348
4537.854831,0.000000,-8963.317327,-296.082377
4537.855155,0.000000,-8733.488677,-444.123565
4537.855480,-740.205942,-8580.269578,-296.082377
4537.855805,-592.164754,-8656.879127,0.000000
4537.856129,-296.082377,-8580.269578,74.020594
4537.856454,222.061783,-9116.536426,-148.041188
4537.856778,370.102971,-8733.488677,-296.082377
4537.857103,666.185348,-8427.050478,-222.061783
4537.857427,1110.308913,-8580.269578,0.000000
4537.857752,1036.288319,-8886.707777,-370.102971
4537.858076,1628.453072,-8656.879127,-518.144159
4537.858401,1036.288319,-8273.831378,-666.185348
4537.858725,962.267725,-8120.612279,-148.041188
4537.859050,518.144159,-8580.269578,-592.164754
4537.859374,0.000000,-8656.879127,-518.144159
4537.859699,-222.061783,-8350.440928,-592.164754
4537.860023,-296.082377,-8656.879127,0.000000
4537.860348,148.041188,-8656.879127,-296.082377
4537.860672,296.082377,-8733.488677,74.020594
4537.860997,740.205942,-9116.536426,-444.123565
4537.861321,962.267725,-8580.269578,0.000000
4537.861646,1110.308913,-7890.783629,148.041188
4537.861970,1628.453072,-8886.707777,-370.102971
4537.862295,1258.350101,-8580.269578,-444.123565
4537.862619,814.226536,-8503.660028,-74.020594
4537.862944,222.061783,-7967.393179,0.000000
4537.863268,148.041188,-8580.269578,0.000000
4537.863593,0.000000,-8886.707777,-518.144159
4537.863917,-444.123565,-8273.831378,0.000000
4537.864242,-666.185348,-8503.660028,370.102971
4537.864566,0.000000,-8810.098227,0.000000
4537.864891,222.061783,-8503.660028,-148.041188
4537.865215,740.205942,-8656.879127,-222.061783
4537.865540,1332.370696,-8503.660028,0.000000
4537.865864,1628.453072,-9116.536426,0.000000
4537.866189,1258.350101,-8810.098227,-444.123565
4537.866513,888.247130,-8120.612279,-740.205942
4537.866838,444.123565,-8810.098227,-814.226536
4537.867162,666.185348,-8427.050478,-666.185348
4537.867487,148.041188,-8427.050478,-148.041188
4537.867811,-222.061783,-8350.440928,-666.185348
4537.868136,-444.123565,-8580.269578,0.000000
4537.868460,0.000000,-8656.879127,-148.041188
4537.868785,0.000000,-8656.879127,-370.102971
4537.869109,222.061783,-8580.269578,-296.082377
4537.869434,222.061783,-8350.440928,-296.082377
4537.869758,444.123565,-8656.879127,-222.061783
4537.870083,1332.370696,-9039.926876,0.000000
4537.870408,962.267725,-8656.879127,-740.205942
4537.870732,1036.288319,-8503.660028,-444.123565
4537.871057,518.144159,-8197.221829,-518.144159
4537.871381,148.041188,-8044.002729,-296.082377
4537.871706,-296.082377,-8656.879127,-666.185348
4537.872030,-148.041188,-8273.831378,-370.102971
4537.872355,-444.123565,-8503.660028,-296.082377
4537.872679,0.000000,-8886.707777,0.000000
4537.873004,222.061783,-8427.050478,-148.041188
4537.873328,444.123565,-8810.098227,-370.102971
4537.873653,888.247130,-8273.831378,-370.102971
4537.873977,1258.350101,-8733.488677,0.000000
4537.874302,1850.514855,-9806.022374,-370.102971
4537.874626,1406.391290,-8503.660028,-444.123565
4537.874951,888.247130,-8656.879127,-518.144159
4537.875275,0.000000,-8197.221829,-444.123565
4537.875600,0.000000,-8656.879127,-370.102971
4537.875924,-296.082377,-8810.098227,-222.061783
4537.876249,-370.102971,-8733.488677,0.000000
4537.876573,-518.144159,-8350.440928,74.020594
4537.876898,-222.061783,-8810.098227,0.000000
4537.877222,296.082377,-8733.488677,0.000000
4537.877547,962.267725,-8580.269578,-296.082377
4537.877871,1258.350101,-8427.050478,-222.061783
4537.878195,1406.391290,-8886.707777,0.000000
4537.878520,1702.473667,-9652.803275,-592.164754
4537.878844,1184.329507,-8350.440928,-296.082377
4537.879169,740.205942,-8273.831378,-592.164754
4537.879493,518.144159,-8503.660028,-296.082377
4537.879817,296.082377,-8580.269578,-370.102971
4537.880142,0.000000,-8886.707777,-222.061783
4537.880466,-296.082377,-8120.612279,-444.123565
4537.880791,-370.102971,-8733.488677,-74.020594
4537.881115,296.082377,-8580.269578,0.000000
4537.881439,666.185348,-8580.269578,-222.061783
4537.881764,444.123565,-8656.879127,-370.102971
4537.882088,962.267725,-8656.879127,0.000000
4537.882413,1332.370696,-8733.488677,-666.185348
4537.882737,1036.288319,-8886.707777,-962.267725
4537.883061,518.144159,-8197.221829,-370.102971
4537.883386,148.041188,-8810.098227,-518.144159
4537.883710,0.000000,-8733.488677,-592.164754
4537.884035,-370.102971,-8427.050478,-666.185348
4537.884359,-444.123565,-8580.269578,-740.205942
4537.884683,-444.123565,-8197.221829,-592.164754
4537.885008,-296.082377,-8963.317327,-444.123565
4537.885332,222.061783,-9116.536426,-370.102971
4537.885657,814.226536,-9269.755526,0.000000
4537.885981,740.205942,-8810.098227,-740.205942
4537.886305,1332.370696,-8580.269578,-592.164754
4537.886630,1258.350101,-8810.098227,-444.123565
4537.886954,1184.329507,-9039.926876,-962.267725
4537.887279,592.164754,-8197.221829,-888.247130
4537.887603,74.020594,-8580.269578,-666.185348
4537.887927,-222.061783,-9193.145976,-666.185348
4537.888252,-296.082377,-8273.831378,-592.164754
4537.888576,-222.061783,-8810.098227,-296.082377
4537.888901,-222.061783,-8580.269578,-148.041188
4537.889225,0.000000,-8733.488677,-518.144159
4537.889549,296.082377,-8963.317327,-370.102971
4537.889874,148.041188,-8733.488677,0.000000
4537.890198,814.226536,-8350.440928,0.000000
4537.890523,1184.329507,-8810.098227,-370.102971
4537.890847,1406.391290,-8427.050478,-814.226536
4537.891171,1110.308913,-8580.269578,-1036.288319
4537.891496,740.205942,-8427.050478,-740.205942
4537.891820,592.164754,-8044.002729,-592.164754
4537.892145,148.041188,-8580.269578,-740.205942
4537.892469,0.000000,-8503.660028,-666.185348
4537.892793,296.082377,-8044.002729,-592.164754
4537.893118,370.102971,-8810.098227,-444.123565
4537.893442,592.164754,-8427.050478,-222.061783
4537.893767,740.205942,-8886.707777,-296.082377
4537.894091,814.226536,-8886.707777,-222.061783
4537.894415,1110.308913,-8273.831378,-592.164754
4537.894740,1480.411884,-8963.317327,-518.144159
4537.895064,1554.432478,-8273.831378,-740.205942
4537.895389,518.144159,-8656.879127,-518.144159
4537.895713,444.123565,-8886.707777,-222.061783
4537.896037,74.020594,-8350.440928,-518.144159
4537.896362,222.061783,-8963.317327,-296.082377
4537.896686,-518.144159,-8350.440928,-222.061783
4537.897011,-592.164754,-8963.317327,148.041188
4537.897335,-296.082377,-8810.098227,0.000000
4537.897659,0.000000,-8656.879127,74.020594
4537.897984,518.144159,-8810.098227,-148.041188
4537.898308,222.061783,-8197.221829,370.102971
4537.898633,1036.288319,-8656.879127,0.000000
4537.898957,1110.308913,-8427.050478,-666.185348
4537.899281,1036.288319,-8733.488677,-592.164754
4537.899606,592.164754,-8427.050478,-666.185348
4537.899930,148.041188,-8350.440928,-444.123565
4537.900255,-148.041188,-8656.879127,-148.041188
4537.900579,-222.061783,-8733.488677,-370.102971
4537.900903,-296.082377,-8656.879127,-296.082377
4537.901228,0.000000,-7967.393179,0.000000
4537.901552,74.020594,-8886.707777,-296.082377
4537.901877,444.123565,-8733.488677,-296.082377
4537.902201,740.205942,-8427.050478,0.000000
4537.902525,888.247130,-8044.002729,-518.144159
4537.902850,888.247130,-9116.536426,-222.061783
4537.903174,1110.308913,-8733.488677,-962.267725
4537.903499,962.267725,-8427.050478,-518.144159
4537.903823,518.144159,-8273.831378,-740.205942
4537.904147,518.144159,-8580.269578,-518.144159
4537.904472,0.000000,-8350.440928,-888.247130
4537.904796,0.000000,-8963.317327,-518.144159
4537.905121,0.000000,-8197.221829,-592.164754
4537.905445,740.205942,-8656.879127,296.082377
4537.905769,222.061783,-8350.440928,-370.102971
4537.906094,666.185348,-8963.317327,-148.041188
4537.906418,814.226536,-8120.612279,-518.144159
4537.906743,1184.329507,-9193.145976,148.041188
4537.907067,1406.391290,-8580.269578,-518.144159
4537.907391,1184.329507,-8427.050478,-222.061783
4537.907716,740.205942,-8273.831378,-444.123565
4537.908040,222.061783,-8580.269578,-296.082377
4537.908365,74.020594,-8733.488677,-148.041188
4537.908689,-296.082377,-8810.098227,-296.082377
4537.909013,-370.102971,-8044.002729,0.000000
4537.909338,-518.144159,-8503.660028,74.020594
4537.909662,444.123565,-8963.317327,0.000000
4537.909987,222.061783,-8656.879127,0.000000
4537.910311,666.185348,-8656.879127,0.000000
4537.910635,1036.288319,-8886.707777,0.000000
4537.910960,1036.288319,-8810.098227,-148.041188
4537.911284,1628.453072,-8963.317327,-148.041188
4537.911609,888.247130,-8350.440928,-740.205942
4537.911933,1036.288319,-8656.879127,-740.205942
4537.912257,370.102971,-8350.440928,-518.144159
4537.912582,740.205942,-8273.831378,-444.123565
4537.912906,-222.061783,-8503.660028,-888.247130
4537.913231,-518.144159,-8503.660028,-666.185348
4537.913555,0.000000,-8580.269578,-222.061783
4537.913879,-296.082377,-8580.269578,-148.041188
4537.914204,0.000000,-8503.660028,-222.061783
4537.914528,666.185348,-8503.660028,-370.102971
4537.914853,666.185348,-8580.269578,-444.123565
4537.915177,1332.370696,-8810.098227,-740.205942
4537.915501,814.226536,-8810.098227,-592.164754
4537.915826,1036.288319,-8580.269578,0.000000
4537.916150,740.205942,-8427.050478,-740.205942
4537.916475,222.061783,-9193.145976,-592.164754
4537.916799,-148.041188,-8120.612279,-814.226536
4537.917123,-370.102971,-8733.488677,-592.164754
4537.917448,-592.164754,-8350.440928,-296.082377
4537.917772,0.000000,-8733.488677,0.000000
4537.918097,296.082377,-9269.755526,-370.102971
4537.918421,296.082377,-8810.098227,-444.123565
4537.918745,1110.308913,-8427.050478,-740.205942
4537.919070,1184.329507,-8656.879127,-518.144159
4537.919394,1628.453072,-8350.440928,-740.205942
4537.919719,1258.350101,-8810.098227,-1110.308913
4537.920043,666.185348,-8273.831378,-888.247130
4537.920367,370.102971,-8656.879127,-814.226536
4537.920692,370.102971,-8580.269578,-814.226536
4537.921016,74.020594,-8580.269578,-444.123565
4537.921341,-518.144159,-8350.440928,0.000000
4537.921665,0.000000,-8656.879127,-296.082377
4537.921989,0.000000,-8580.269578,0.000000
4537.922314,222.061783,-8810.098227,-444.123565
4537.922638,592.164754,-8503.660028,-296.082377
4537.922963,962.267725,-8273.831378,222.061783
4537.923287,1036.288319,-8580.269578,-518.144159
4537.923611,1480.411884,-8810.098227,-222.061783
4537.923936,1554.432478,-8427.050478,-518.144159
4537.924260,888.247130,-8580.269578,-148.041188
4537.924585,444.123565,-8120.612279,-592.164754
4537.924909,222.061783,-8503.660028,-444.123565
4537.925233,0.000000,-8886.707777,-444.123565
4537.925558,-222.061783,-8580.269578,-222.061783
4537.925882,-222.061783,-8580.269578,-592.164754
4537.926206,296.082377,-8503.660028,0.000000
4537.926531,592.164754,-8656.879127,0.000000
4537.926855,666.185348,-8197.221829,-444.123565
4537.927180,1036.288319,-8503.660028,-222.061783
4537.927504,1480.411884,-8580.269578,-370.102971
4537.927828,1406.391290,-8580.269578,-740.205942
4537.928153,666.185348,-8197.221829,-296.082377
4537.928477,296.082377,-8427.050478,-518.144159
4537.928802,222.061783,-8427.050478,-222.061783
4537.929126,-370.102971,-8886.707777,-296.082377
4537.929450,-222.061783,-8886.707777,-370.102971
4537.929775,-444.123565,-7814.174080,148.041188
4537.930099,-222.061783,-9039.926876,74.020594
4537.930424,0.000000,-8503.660028,0.000000
4537.930748,444.123565,-8580.269578,0.000000
4537.931072,740.205942,-8580.269578,0.000000
4537.931397,1110.308913,-8733.488677,0.000000
4537.931721,1036.288319,-8580.269578,-370.102971
4537.932046,1258.350101,-8656.879127,-370.102971
4537.932370,888.247130,-8503.660028,-370.102971
4537.932694,296.082377,-8580.269578,-444.123565
4537.933019,444.123565,-8733.488677,-518.144159
4537.933343,0.000000,-8350.440928,-296.082377
4537.933668,-888.247130,-8580.269578,0.000000
4537.933992,-444.123565,-8580.269578,-222.061783
4537.934316,-444.123565,-8656.879127,0.000000
4537.934641,222.061783,-8810.098227,0.000000
4537.934965,666.185348,-8733.488677,0.000000
4537.935290,666.185348,-8580.269578,0.000000
4537.935614,1258.350101,-8427.050478,-148.041188
4537.935938,1184.329507,-8427.050478,-370.102971
4537.936263,962.267725,-8580.269578,-666.185348
4537.936587,1110.308913,-7814.174080,-444.123565
4537.936912,296.082377,-8503.660028,-592.164754
4537.937236,-370.102971,-8656.879127,-592.164754
4537.937560,-370.102971,-8503.660028,-370.102971
4537.937885,-370.102971,-8733.488677,-148.041188
4537.938209,-296.082377,-8656.879127,-296.082377
4537.938534,74.020594,-9039.926876,0.000000
4537.938858,962.267725,-8733.488677,-222.061783
4537.939182,666.185348,-8503.660028,-666.185348
4537.939507,1110.308913,-8580.269578,0.000000
4537.939831,1702.473667,-8963.317327,-296.082377
4537.940156,1406.391290,-8044.002729,-592.164754
4537.940480,1184.329507,-8350.440928,-592.164754
4537.940804,222.061783,-8580.269578,-370.102971
4537.941129,444.123565,-8427.050478,-370.102971
4537.941453,0.000000,-8427.050478,-370.102971
4537.941778,-222.061783,-8656.879127,0.000000
4537.942102,-592.164754,-8503.660028,444.123565
4537.942426,-222.061783,-9039.926876,148.041188
4537.942751,0.000000,-8273.831378,74.020594
4537.943075,592.164754,-8963.317327,0.000000
4537.943400,888.247130,-8427.050478,74.020594
4537.943724,1406.391290,-7967.393179,0.000000
4537.944048,1332.370696,-8963.317327,-296.082377
4537.944373,1110.308913,-8810.098227,-518.144159
4537.944697,666.185348,-8427.050478,-518.144159
4537.945022,518.144159,-8963.317327,-592.164754
4537.945346,592.164754,-8580.269578,-444.123565
4537.945670,0.000000,-8886.707777,-518.144159
4537.945995,0.000000,-8427.050478,-518.144159
4537.946319,0.000000,-8427.050478,-74.020594
4537.946644,-296.082377,-8810.098227,-518.144159
4537.946968,592.164754,-8427.050478,-518.144159
4537.947292,518.144159,-8427.050478,-518.144159
4537.947617,814.226536,-8810.098227,-370.102971
4537.947941,1554.432478,-8886.707777,-518.144159
4537.948266,1554.432478,-8733.488677,-814.226536
4537.948590,666.185348,-8273.831378,-592.164754
4537.948914,370.102971,-8656.879127,-296.082377
4537.949239,370.102971,-8120.612279,-148.041188
4537.949563,-518.144159,-8503.660028,-296.082377
4537.949888,-296.082377,-8656.879127,-370.102971
4537.950212,-592.164754,-8503.660028,-296.082377
4537.950536,-222.061783,-8656.879127,0.000000
4537.950861,0.000000,-8580.269578,222.061783
4537.951185,296.082377,-8810.098227,-222.061783
4537.951510,962.267725,-8580.269578,-222.061783
4537.951834,1258.350101,-8503.660028,-518.144159
4537.952158,1702.473667,-8580.269578,-518.144159
4537.952483,1258.350101,-8733.488677,-592.164754
4537.952807,888.247130,-8886.707777,-148.041188
4537.953132,740.205942,-8350.440928,-296.082377
4537.953456,814.226536,-9116.536426,-962.267725
4537.953780,74.020594,-8503.660028,-518.144159
4537.954105,0.000000,-8120.612279,-444.123565
4537.954429,-296.082377,-8580.269578,-148.041188
4537.954754,-222.061783,-8580.269578,0.000000
4537.955078,370.102971,-8733.488677,-296.082377
4537.955402,740.205942,-8503.660028,0.000000
4537.955727,814.226536,-8427.050478,0.000000
4537.956051,1036.288319,-8503.660028,-370.102971
4537.956376,1554.432478,-8886.707777,-888.247130
4537.956700,1036.288319,-8503.660028,-296.082377
4537.957024,666.185348,-8810.098227,-518.144159
4537.957349,592.164754,-8427.050478,-518.144159
4537.957673,74.020594,-7814.174080,-370.102971
4537.957998,74.020594,-8656.879127,-444.123565
4537.958322,-518.144159,-8427.050478,-296.082377
4537.958646,0.000000,-8273.831378,148.041188
4537.958971,222.061783,-8810.098227,-222.061783
4537.959295,666.185348,-8580.269578,-296.082377
4537.959620,740.205942,-8810.098227,-444.123565
4537.959944,1036.288319,-8503.660028,0.000000
4537.960268,1480.411884,-8427.050478,-370.102971
4537.960593,1554.432478,-9499.584175,-592.164754
4537.960917,1258.350101,-8120.612279,-222.061783
4537.961242,518.144159,-8427.050478,-296.082377
4537.961566,74.020594,-8427.050478,-370.102971
4537.961890,148.041188,-8656.879127,-518.144159
4537.962215,-518.144159,-8503.660028,-148.041188
4537.962539,-740.205942,-8427.050478,0.000000
4537.962864,-592.164754,-8580.269578,148.041188
4537.963188,-148.041188,-9039.926876,0.000000
4537.963512,148.041188,-9116.536426,-222.061783
4537.963837,740.205942,-8656.879127,-296.082377
4537.964161,666.185348,-8503.660028,0.000000
4537.964486,1184.329507,-8733.488677,-296.082377
4537.964810,1258.350101,-9039.926876,-296.082377
4537.965134,740.205942,-8580.269578,-370.102971
4537.965459,370.102971,-8197.221829,-666.185348
4537.965783,74.020594,-8656.879127,-592.164754
4537.966108,-148.041188,-8886.707777,0.000000
4537.966432,-592.164754,-8350.440928,-444.123565
4537.966756,-296.082377,-8656.879127,0.000000
4537.967081,-74.020594,-8733.488677,-296.082377
4537.967405,592.164754,-9116.536426,-296.082377
4537.967730,296.082377,-8197.221829,0.000000
4537.968054,666.185348,-8503.660028,0.000000
4537.968378,888.247130,-8656.879127,74.020594
4537.968703,1036.288319,-8656.879127,-296.082377
4537.969027,1036.288319,-8427.050478,-666.185348
4537.969352,370.102971,-8350.440928,-296.082377
4537.969676,148.041188,-8810.098227,0.000000
4537.970000,0.000000,-8350.440928,-518.144159
4537.970325,-296.082377,-9039.926876,-370.102971
4537.970649,-222.061783,-8197.221829,-148.041188
4537.970974,-148.041188,-8810.098227,0.000000
4537.971298,0.000000,-8197.221829,-296.082377
4537.971622,592.164754,-8503.660028,0.000000
4537.971947,814.226536,-8656.879127,-518.144159
4537.972271,1036.288319,-8656.879127,-370.102971
4537.972596,1480.411884,-8503.660028,-740.205942
4537.972920,1850.514855,-8810.098227,-740.205942
4537.973244,1110.308913,-8656.879127,-592.164754
4537.973569,962.267725,-8580.269578,-740.205942
4537.973893,518.144159,-8503.660028,-888.247130
4537.974218,0.000000,-8503.660028,-740.205942
4537.974542,0.000000,-8580.269578,-148.041188
4537.974866,0.000000,-8044.002729,-370.102971
4537.975191,-222.061783,-9039.926876,74.020594
4537.975515,148.041188,-8580.269578,-370.102971
4537.975840,444.123565,-8810.098227,0.000000
4537.976164,1554.432478,-8580.269578,-592.164754
4537.976488,1406.391290,-8733.488677,-296.082377
4537.976813,1480.411884,-8810.098227,-148.041188
4537.977137,1036.288319,-8503.660028,-222.061783
4537.977462,666.185348,-8120.612279,-222.061783
4537.977786,370.102971,-8656.879127,-370.102971
4537.978110,0.000000,-8580.269578,-370.102971
4537.978435,-222.061783,-8656.879127,0.000000
4537.978759,-518.144159,-8503.660028,-296.082377
4537.979083,0.000000,-8503.660028,0.000000
4537.979407,0.000000,-8580.269578,-148.041188
4537.979732,444.123565,-8810.098227,-518.144159
4537.980056,518.144159,-8656.879127,-370.102971
4537.980380,1554.432478,-8503.660028,-296.082377
4537.980705,1110.308913,-8656.879127,-148.041188
4537.981029,1332.370696,-8580.269578,-888.247130
4537.981353,962.267725,-8580.269578,-666.185348
4537.981678,666.185348,-8273.831378,-740.205942
4537.982002,0.000000,-8503.660028,-222.061783
4537.982326,-296.082377,-8580.269578,-666.185348
4537.982650,-370.102971,-8656.879127,-592.164754
4537.982975,-592.164754,-8350.440928,-518.144159
4537.983299,-740.205942,-8044.002729,518.144159
4537.983623,-296.082377,-8503.660028,-222.061783
4537.983948,592.164754,-8886.707777,148.041188
4537.984272,444.123565,-8197.221829,-518.144159
4537.984596,888.247130,-8886.707777,296.082377
4537.984920,1258.350101,-8350.440928,-370.102971
4537.985245,1480.411884,-8580.269578,-592.164754
4537.985569,1184.329507,-8197.221829,-1036.288319
4537.985893,666.185348,-8350.440928,-370.102971
4537.986218,444.123565,-8733.488677,-666.185348
4537.986542,74.020594,-8580.269578,-740.205942
4537.986866,0.000000,-8350.440928,-222.061783
4537.987191,-296.082377,-8503.660028,0.000000
4537.987515,222.061783,-8656.879127,148.041188
4537.987839,222.061783,-8503.660028,-296.082377
4537.988163,518.144159,-8886.707777,-296.082377
4537.988488,888.247130,-8273.831378,0.000000
4537.988812,1036.288319,-8044.002729,148.041188
4537.989136,1184.329507,-8810.098227,-148.041188
4537.989461,962.267725,-8503.660028,-444.123565
4537.989785,962.267725,-8580.269578,-592.164754
4537.990109,444.123565,-8503.660028,-518.144159
4537.990433,0.000000,-8427.050478,-148.041188
4537.990758,-222.061783,-8886.707777,-666.185348
4537.991082,-222.061783,-8503.660028,-444.123565
4537.991406,-444.123565,-8120.612279,-444.123565
4537.991731,148.041188,-8733.488677,-148.041188
4537.992055,740.205942,-8580.269578,-370.102971
4537.992379,1036.288319,-8733.488677,-296.082377
4537.992704,962.267725,-8656.879127,-444.123565
4537.993028,1332.370696,-7890.783629,-296.082377
4537.993352,1850.514855,-9039.926876,-962.267725
4537.993676,1184.329507,-8427.050478,-666.185348
4537.994001,592.164754,-8427.050478,-370.102971
4537.994325,222.061783,-8350.440928,-888.247130
4537.994649,370.102971,-8733.488677,-444.123565
4537.994974,0.000000,-8503.660028,-592.164754
4537.995298,-444.123565,-8427.050478,-296.082377
4537.995622,-296.082377,-8044.002729,-148.041188
4537.995947,-148.041188,-8580.269578,-370.102971
4537.996271,518.144159,-8810.098227,-296.082377
4537.996595,740.205942,-8273.831378,-444.123565
4537.996919,1184.329507,-8733.488677,-222.061783
4537.997244,1110.308913,-8886.707777,-518.144159
4537.997568,962.267725,-8886.707777,-592.164754
4537.997892,1036.288319,-8427.050478,-888.247130
4537.998217,148.041188,-8427.050478,-518.144159
4537.998541,74.020594,-8886.707777,-444.123565
4537.998865,222.061783,-8273.831378,-814.226536
4537.999189,0.000000,-8580.269578,-370.102971
4537.999514,-370.102971,-8273.831378,-296.082377
4537.999838,0.000000,-8656.879127,-296.082377
4538.000162,222.061783,-9039.926876,-666.185348
4538.000487,666.185348,-8503.660028,-296.082377
4538.000811,592.164754,-8273.831378,-148.041188
4538.001135,814.226536,-8733.488677,148.041188
4538.001460,1184.329507,-8580.269578,-370.102971
4538.001784,1184.329507,-8656.879127,-518.144159
4538.002108,814.226536,-8656.879127,-222.061783
4538.002432,370.102971,-8120.612279,0.000000
4538.002757,-222.061783,-8427.050478,0.000000
4538.003081,-222.061783,-9193.145976,0.000000
4538.003405,-296.082377,-8427.050478,0.000000
4538.003730,0.000000,-8580.269578,0.000000
4538.004054,0.000000,-8503.660028,370.102971
4538.004378,296.082377,-9269.755526,74.020594
4538.004702,518.144159,-8733.488677,-148.041188
4538.005027,1110.308913,-8350.440928,-296.082377
4538.005351,1406.391290,-8580.269578,-222.061783
4538.005675,1776.494261,-8427.050478,-296.082377
4538.006000,1110.308913,-7890.783629,-370.102971
4538.006324,592.164754,-8580.269578,-592.164754
4538.006648,222.061783,-8580.269578,-592.164754
4538.006973,0.000000,-8733.488677,-592.164754
4538.007297,0.000000,-8273.831378,-444.123565
4538.007621,-370.102971,-8580.269578,-222.061783
4538.007945,-296.082377,-8427.050478,0.000000
4538.008270,0.000000,-8810.098227,-296.082377
4538.008594,444.123565,-8503.660028,-518.144159
4538.008918,444.123565,-8810.098227,-370.102971
4538.009243,1184.329507,-8503.660028,-148.041188
4538.009567,1332.370696,-8273.831378,-370.102971
4538.009891,1184.329507,-9116.536426,-666.185348
4538.010216,1036.288319,-8503.660028,-666.185348
4538.010540,444.123565,-8656.879127,-370.102971
4538.010864,0.000000,-8963.317327,-518.144159
4538.011188,-296.082377,-8886.707777,-296.082377
4538.011513,-222.061783,-8886.707777,-518.144159
4538.011837,-370.102971,-8120.612279,-222.061783
4538.012161,0.000000,-8580.269578,-296.082377
4538.012486,370.102971,-9116.536426,-370.102971
4538.012810,1110.308913,-8427.050478,-296.082377
4538.013134,1036.288319,-8503.660028,-370.102971
4538.013458,1184.329507,-8810.098227,-518.144159
4538.013783,1258.350101,-8580.269578,-592.164754
4538.014107,1258.350101,-8656.879127,-962.267725
4538.014431,444.123565,-8580.269578,-592.164754
4538.014756,222.061783,-8733.488677,-592.164754
4538.015080,0.000000,-8656.879127,-740.205942
4538.015404,0.000000,-8810.098227,-1036.288319
4538.015729,-296.082377,-8963.317327,-148.041188
4538.016053,-222.061783,-8503.660028,-296.082377
4538.016377,148.041188,-8580.269578,-444.123565
4538.016701,222.061783,-9039.926876,-370.102971
4538.017026,518.144159,-8580.269578,-666.185348
4538.017350,1184.329507,-8427.050478,-296.082377
4538.017674,1406.391290,-8503.660028,-666.185348
4538.017999,962.267725,-8886.707777,-444.123565
4538.018323,962.267725,-8350.440928,-592.164754
4538.018647,1110.308913,-8733.488677,-666.185348
4538.018972,370.102971,-8580.269578,-592.164754
4538.019296,74.020594,-8580.269578,-518.144159
4538.019620,0.000000,-8580.269578,-444.123565
4538.019944,-148.041188,-8656.879127,-296.082377
4538.020269,-296.082377,-8886.707777,74.020594
4538.020593,222.061783,-8733.488677,-370.102971
4538.020917,740.205942,-8886.707777,-296.082377
4538.021242,1036.288319,-8580.269578,0.000000
4538.021566,1110.308913,-8503.660028,222.061783
4538.021890,1406.391290,-8427.050478,-370.102971
4538.022214,1184.329507,-8503.660028,-296.082377
4538.022539,888.247130,-8044.002729,-370.102971
4538.022863,0.000000,-8273.831378,0.000000
4538.023187,0.000000,-7967.393179,-370.102971
4538.023512,-148.041188,-8886.707777,-444.123565
4538.023836,-518.144159,-8427.050478,-592.164754
4538.024160,-74.020594,-8733.488677,148.041188
4538.024485,-444.123565,-8350.440928,-370.102971
4538.024809,148.041188,-8580.269578,-296.082377
4538.025133,592.164754,-8273.831378,-296.082377
4538.025457,592.164754,-8197.221829,-222.061783
4538.025782,1184.329507,-8580.269578,-518.144159
4538.026106,1554.432478,-8733.488677,-592.164754
4538.026430,1184.329507,-8810.098227,-666.185348
4538.026755,814.226536,-8044.002729,-444.123565
4538.027079,592.164754,-8810.098227,-518.144159
4538.027403,74.020594,-8503.660028,-592.164754
4538.027727,-74.020594,-8580.269578,-444.123565
4538.028052,-444.123565,-8580.269578,-74.020594
4538.028376,0.000000,-8733.488677,148.041188
4538.028700,0.000000,-8810.098227,0.000000
4538.029025,518.144159,-8810.098227,74.020594
4538.029349,296.082377,-8273.831378,0.000000
4538.029673,888.247130,-8963.317327,0.000000
4538.029998,1184.329507,-8273.831378,-296.082377
4538.030322,1184.329507,-8580.269578,-444.123565
4538.030646,962.267725,-8580.269578,-444.123565
4538.030970,740.205942,-8503.660028,-740.205942
4538.031295,148.041188,-8273.831378,-592.164754
4538.031619,0.000000,-8810.098227,-518.144159
4538.031943,-592.164754,-8656.879127,-222.061783
4538.032268,-740.205942,-8503.660028,0.000000
4538.032592,0.000000,-8503.660028,-74.020594
4538.032916,74.020594,-8886.707777,-148.041188
4538.033241,888.247130,-8580.269578,-592.164754
4538.033565,1184.329507,-8350.440928,-222.061783
4538.033889,1110.308913,-8733.488677,-370.102971
4538.034213,1184.329507,-9193.145976,-518.144159
4538.034538,1110.308913,-8656.879127,-666.185348
4538.034862,444.123565,-8503.660028,-592.164754
4538.035186,296.082377,-8503.660028,-222.061783
4538.035511,296.082377,-8810.098227,-518.144159
4538.035835,0.000000,-8810.098227,-296.082377
4538.036159,-518.144159,-8273.831378,-222.061783
4538.036483,-148.041188,-8810.098227,74.020594
4538.036808,0.000000,-8810.098227,148.041188
4538.037132,148.041188,-8656.879127,74.020594
4538.037456,740.205942,-8810.098227,0.000000
4538.037781,592.164754,-8580.269578,-74.020594
4538.038105,1110.308913,-8733.488677,-296.082377
4538.038429,1480.411884,-8503.660028,0.000000
4538.038754,1036.288319,-8427.050478,-148.041188
4538.039078,888.247130,-8580.269578,-74.020594
4538.039402,370.102971,-8503.660028,-518.144159
4538.039726,0.000000,-8120.612279,-518.144159
4538.040051,0.000000,-8503.660028,-518.144159
4538.040375,-148.041188,-8580.269578,0.000000
4538.040699,74.020594,-8350.440928,-296.082377
4538.041024,0.000000,-8963.317327,0.000000
4538.041348,222.061783,-8810.098227,-222.061783
4538.041672,666.185348,-8427.050478,-370.102971
4538.041996,814.226536,-8886.707777,-444.123565
4538.042321,1110.308913,-8580.269578,-222.061783
4538.042645,962.267725,-8886.707777,-444.123565
4538.042969,814.226536,-8427.050478,-370.102971
4538.043294,592.164754,-8273.831378,-666.185348
4538.043618,74.020594,-8733.488677,-518.144159
4538.043942,74.020594,-8503.660028,-592.164754
4538.044267,-518.144159,-8503.660028,-740.205942
4538.044591,-740.205942,-8503.660028,-296.082377
4538.044915,-296.082377,-8580.269578,0.000000
4538.045239,0.000000,-8963.317327,-296.082377
4538.045564,370.102971,-8427.050478,-592.164754
4538.045888,740.205942,-8427.050478,-222.061783
4538.046212,1036.288319,-8503.660028,0.000000
4538.046537,1258.350101,-8273.831378,-370.102971
4538.046861,1258.350101,-8580.269578,-888.247130
4538.047185,962.267725,-8350.440928,-370.102971
4538.047510,592.164754,-8350.440928,-518.144159
4538.047834,0.000000,-8656.879127,-370.102971
4538.048158,-296.082377,-8733.488677,-444.123565
4538.048482,-444.123565,-8810.098227,-296.082377
4538.048807,-296.082377,-8810.098227,-222.061783
4538.049131,0.000000,-8886.707777,0.000000
4538.049455,592.164754,-8810.098227,0.000000
4538.049780,814.226536,-8733.488677,-370.102971
4538.050104,1258.350101,-8197.221829,-222.061783
4538.050428,1258.350101,-8810.098227,-592.164754
4538.050752,1406.391290,-8580.269578,-592.164754
4538.051077,444.123565,-8350.440928,-296.082377
4538.051401,666.185348,-8580.269578,-1036.288319
4538.051725,0.000000,-8733.488677,-962.267725
4538.052050,0.000000,-8656.879127,-740.205942
4538.052374,-148.041188,-8733.488677,-666.185348
4538.052698,0.000000,-8656.879127,-666.185348
4538.053023,0.000000,-8963.317327,-222.061783
4538.053347,74.020594,-8656.879127,-296.082377
4538.053671,370.102971,-8733.488677,-518.144159
4538.053995,962.267725,-8580.269578,-518.144159
4538.054320,1110.308913,-8350.440928,0.000000
4538.054644,1036.288319,-8503.660028,-296.082377
4538.054968,1332.370696,-8733.488677,-592.164754
4538.055293,1406.391290,-8350.440928,-296.082377
4538.055617,592.164754,-8886.707777,0.000000
4538.055941,444.123565,-8580.269578,0.000000
4538.056265,-148.041188,-8656.879127,148.041188
4538.056590,-370.102971,-8656.879127,0.000000
4538.056914,-370.102971,-8580.269578,444.123565
4538.057238,296.082377,-8580.269578,74.020594
4538.057563,370.102971,-8963.317327,0.000000
4538.057887,814.226536,-8197.221829,0.000000
4538.058211,222.061783,-8044.002729,296.082377
4538.058536,1332.370696,-8427.050478,0.000000
4538.058860,1480.411884,-8580.269578,-444.123565
4538.059184,1110.308913,-8427.050478,-666.185348
4538.059508,666.185348,-8810.098227,0.000000
4538.059833,74.020594,-8197.221829,-148.041188
4538.060157,222.061783,-8656.879127,-444.123565
4538.060481,-296.082377,-8503.660028,-666.185348
4538.060806,-296.082377,-8580.269578,-222.061783
4538.061130,-296.082377,-8503.660028,0.000000
4538.061454,-148.041188,-8656.879127,-296.082377
4538.061779,0.000000,-8656.879127,-148.041188
4538.062103,666.185348,-8273.831378,-148.041188
4538.062427,1258.350101,-8733.488677,-444.123565
4538.062751,1110.308913,-8656.879127,-222.061783
4538.063076,1184.329507,-8350.440928,-296.082377
4538.063400,1036.288319,-8503.660028,-296.082377
4538.063724,444.123565,-8427.050478,-296.082377
4538.064049,222.061783,-8656.879127,-444.123565
4538.064373,0.000000,-8656.879127,-518.144159
4538.064697,-74.020594,-8656.879127,0.000000
4538.065021,-518.144159,-8427.050478,-222.061783
4538.065346,74.020594,-8656.879127,74.020594
4538.065670,0.000000,-8656.879127,-518.144159
4538.065994,814.226536,-9039.926876,-370.102971
4538.066319,740.205942,-8197.221829,-370.102971
4538.066643,1258.350101,-9039.926876,0.000000
4538.066967,1258.350101,-8044.002729,-592.164754
4538.067292,1036.288319,-8733.488677,-592.164754
4538.067616,666.185348,-8273.831378,-888.247130
4538.067940,74.020594,-8886.707777,-666.185348
4538.068264,74.020594,-8733.488677,-518.144159
4538.068589,-370.102971,-8810.098227,-444.123565
4538.068913,-518.144159,-8503.660028,-444.123565
4538.069237,-370.102971,-8197.221829,0.000000
4538.069562,-148.041188,-8810.098227,0.000000
4538.069886,222.061783,-8810.098227,0.000000
4538.070210,666.185348,-8427.050478,-666.185348
4538.070534,888.247130,-8350.440928,0.000000
4538.070859,962.267725,-8120.612279,-148.041188
4538.071183,1258.350101,-8580.269578,-740.205942
4538.071507,1258.350101,-8197.221829,-888.247130
4538.071832,592.164754,-8044.002729,0.000000
4538.072156,592.164754,-8503.660028,-518.144159
4538.072480,370.102971,-8427.050478,-518.144159
4538.072805,296.082377,-8656.879127,-444.123565
4538.073129,-222.061783,-8273.831378,0.000000
4538.073453,0.000000,-8810.098227,74.020594
4538.073777,518.144159,-8197.221829,74.020594
4538.074102,444.123565,-8350.440928,-222.061783
4538.074426,1036.288319,-8503.660028,-370.102971
4538.074750,888.247130,-8580.269578,0.000000
4538.075075,1184.329507,-8044.002729,148.041188
4538.075399,1332.370696,-8503.660028,-370.102971
4538.075723,814.226536,-8580.269578,-370.102971
4538.076048,592.164754,-8656.879127,-296.082377
4538.076372,0.000000,-8656.879127,-222.061783
4538.076696,74.020594,-8656.879127,-444.123565
4538.077020,-296.082377,-8503.660028,-444.123565
4538.077345,-370.102971,-8733.488677,-370.102971
4538.077669,-148.041188,-8580.269578,0.000000
4538.077993,518.144159,-9193.145976,-666.185348
4538.078318,814.226536,-8580.269578,-444.123565
4538.078642,1110.308913,-8197.221829,-444.123565
4538.078966,1036.288319,-8810.098227,-222.061783
4538.079290,1406.391290,-9116.536426,-296.082377
4538.079615,1184.329507,-8503.660028,-592.164754
4538.079939,740.205942,-8810.098227,-666.185348
4538.080263,518.144159,-8656.879127,-222.061783
4538.080588,0.000000,-8886.707777,-444.123565
4538.080912,-666.185348,-9346.365076,74.020594
4538.081236,-740.205942,-8197.221829,-148.041188
4538.081560,-370.102971,-8733.488677,148.041188
4538.081885,222.061783,-8656.879127,0.000000
4538.082209,444.123565,-9116.536426,74.020594
4538.082533,518.144159,-8886.707777,-296.082377
4538.082858,814.226536,-8580.269578,0.000000
4538.083182,1110.308913,-8580.269578,-148.041188
