#time,accel_x,accel_y,accel_z
4198.720010,592.164754,-8427.050478,0.000000
4198.720335,370.102971,-8427.050478,-518.144159
4198.720659,296.082377,-8656.879127,-148.041188
4198.720984,444.123565,-8273.831378,-296.082377
4198.721308,592.164754,-8733.488677,-814.226536
4198.721633,444.123565,-8733.488677,-370.102971
4198.721957,222.061783,-8810.098227,-148.041188
4198.722282,444.123565,-8427.050478,-592.164754
4198.722606,444.123565,-8580.269578,-666.185348
4198.722931,518.144159,-8427.050478,-444.123565
4198.723255,518.144159,-8886.707777,-370.102971
4198.723580,592.164754,-8427.050478,-518.144159
4198.723904,518.144159,-8656.879127,-296.082377
4198.724229,148.041188,-8656.879127,-518.144159
4198.724553,518.144159,-8427.050478,-666.185348
4198.724878,518.144159,-8733.488677,-296.082377
4198.725202,370.102971,-8733.488677,-296.082377
4198.725526,444.123565,-8350.440928,-666.185348
4198.725851,296.082377,-8810.098227,-222.061783
4198.726175,518.144159,-8503.660028,0.000000
4198.726500,592.164754,-8427.050478,-518.144159
4198.726824,296.082377,-8427.050478,0.000000
4198.727149,444.123565,-8273.831378,0.000000
4198.727473,518.144159,-8656.879127,-370.102971
4198.727798,222.061783,-8503.660028,-296.082377
4198.728122,518.144159,-8273.831378,-222.061783
4198.728447,740.205942,-8503.660028,-666.185348
4198.728771,370.102971,-8656.879127,-518.144159
4198.729096,370.102971,-8350.440928,-296.082377
4198.729420,518.144159,-8580.269578,-222.061783
4198.729745,518.144159,-9116.536426,-592.164754
4198.730069,814.226536,-8733.488677,-518.144159
4198.730394,592.164754,-8580.269578,-518.144159
4198.730718,296.082377,-8656.879127,-296.082377
4198.731043,444.123565,-8810.098227,-370.102971
4198.731367,74.020594,-8427.050478,-222.061783
4198.731692,592.164754,-8810.098227,-444.123565
4198.732016,814.226536,-8427.050478,-814.226536
4198.732341,296.082377,-8503.660028,-444.123565
4198.732665,592.164754,-8886.707777,-444.123565
4198.732990,518.144159,-8427.050478,-296.082377
4198.733314,444.123565,-8810.098227,-296.082377
4198.733639,518.144159,-8810.098227,-592.164754
4198.733963,518.144159,-8733.488677,-296.082377
4198.734288,148.041188,-8427.050478,-592.164754
4198.734612,444.123565,-8656.879127,-296.082377
4198.734937,518.144159,-8427.050478,-518.144159
4198.735261,148.041188,-9499.584175,-222.061783
4198.735586,370.102971,-8427.050478,-296.082377
4198.735910,222.061783,-8350.440928,-518.144159
4198.736235,-370.102971,-9193.145976,-740.205942
4198.736559,-740.205942,-8503.660028,-370.102971
4198.736883,-740.205942,-9193.145976,-296.082377
4198.737208,-1110.308913,-8350.440928,-1036.288319
4198.737532,-1702.473667,-8580.269578,-222.061783
4198.737857,-1850.514855,-8044.002729,-296.082377
4198.738181,-1998.556043,-9346.365076,0.000000
4198.738506,-1184.329507,-8350.440928,-888.247130
4198.738830,-814.226536,-8810.098227,0.000000
4198.739155,-666.185348,-8197.221829,-592.164754
4198.739479,-1480.411884,-8656.879127,-370.102971
4198.739804,-2146.597232,-8963.317327,-666.185348
4198.740128,-2590.720797,-8503.660028,-518.144159
4198.740453,-3108.864956,-8810.098227,-444.123565
4198.740777,-3404.947333,-8733.488677,-222.061783
4198.741102,-3478.967927,-9039.926876,148.041188
4198.741426,-3552.988522,-8810.098227,-444.123565
4198.741751,-2664.741391,-8810.098227,-444.123565
4198.742075,-2294.638420,-8427.050478,-296.082377
4198.742400,-1924.535449,-8810.098227,0.000000
4198.742724,-2146.597232,-8427.050478,-148.041188
4198.743049,-2072.576638,-8886.707777,-296.082377
4198.743373,-2368.659014,-8886.707777,-296.082377
4198.743698,-3034.844362,-8886.707777,-296.082377
4198.744022,-3256.906145,-9576.193725,-370.102971
4198.744347,-3775.050304,-8886.707777,0.000000
4198.744671,-3849.070898,-9269.755526,0.000000
4198.744996,-3478.967927,-8886.707777,-296.082377
4198.745320,-1924.535449,-8733.488677,0.000000
4198.745645,-2146.597232,-8427.050478,-666.185348
4198.745969,-1554.432478,-8580.269578,-370.102971
4198.746294,-1702.473667,-8503.660028,-370.102971
4198.746618,-1850.514855,-8503.660028,0.000000
4198.746943,-2368.659014,-8580.269578,-148.041188
4198.747267,-2516.700203,-8810.098227,0.000000
4198.747592,-2516.700203,-8810.098227,-148.041188
4198.747916,-2368.659014,-8350.440928,-222.061783
4198.748240,-2146.597232,-8963.317327,0.000000
4198.748565,-1924.535449,-8733.488677,-370.102971
4198.748889,-1332.370696,-8427.050478,-666.185348
4198.749214,-1110.308913,-8273.831378,-444.123565
4198.749538,-1184.329507,-7967.393179,-518.144159
4198.749863,-1702.473667,-8197.221829,-592.164754
4198.750187,-2072.576638,-8197.221829,-740.205942
4198.750512,-2294.638420,-7890.783629,-518.144159
4198.750836,-2146.597232,-8427.050478,-666.185348
4198.751161,-2294.638420,-8350.440928,-444.123565
4198.751485,-2220.617826,-7967.393179,0.000000
4198.751810,-1406.391290,-8350.440928,-592.164754
4198.752134,-592.164754,-8120.612279,-888.247130
4198.752459,0.000000,-8273.831378,-740.205942
4198.752783,222.061783,-8197.221829,-1036.288319
4198.753108,74.020594,-8656.879127,-592.164754
4198.753432,296.082377,-8350.440928,-962.267725
4198.753757,-148.041188,-9039.926876,-518.144159
4198.754081,-592.164754,-8656.879127,-592.164754
4198.754406,-666.185348,-8810.098227,-666.185348
4198.754730,-296.082377,-8963.317327,-518.144159
4198.755055,0.000000,-9346.365076,-370.102971
4198.755379,444.123565,-8886.707777,-666.185348
4198.755704,1184.329507,-8810.098227,-592.164754
4198.756028,2072.576638,-9116.536426,-370.102971
4198.756353,1628.453072,-8427.050478,-666.185348
4198.756677,1258.350101,-9806.022374,-444.123565
4198.757002,-962.267725,-9039.926876,-814.226536
4198.757326,-1480.411884,-9652.803275,0.000000
4198.757651,-2590.720797,-8503.660028,-444.123565
4198.757975,-2812.782580,-10265.679673,-370.102971
4198.758300,-3256.906145,-8427.050478,-296.082377
4198.758624,-3849.070898,-8963.317327,0.000000
4198.758949,-3182.885551,-7890.783629,-814.226536
4198.759273,-1850.514855,-8503.660028,0.000000
4198.759597,-1184.329507,-8273.831378,-666.185348
4198.759922,-444.123565,-8810.098227,-666.185348
4198.760246,-1036.288319,-8580.269578,-814.226536
4198.760571,-1702.473667,-9039.926876,0.000000
4198.760895,-1480.411884,-9039.926876,0.000000
4198.761220,-1998.556043,-9806.022374,0.000000
4198.761544,-2960.823768,-8503.660028,148.041188
4198.761869,-3034.844362,-9422.974625,814.226536
4198.762193,-1554.432478,-9039.926876,-1258.350101
4198.762518,-1332.370696,-8273.831378,296.082377
4198.762842,592.164754,-8427.050478,-814.226536
4198.763167,296.082377,-8733.488677,0.000000
4198.763491,-148.041188,-7967.393179,-518.144159
4198.763816,-1110.308913,-9269.755526,-296.082377
4198.764140,-1850.514855,-8810.098227,-296.082377
4198.764465,-3552.988522,-8963.317327,-296.082377
4198.764789,-4589.276840,-9039.926876,222.061783
4198.765114,-4589.276840,-8044.002729,74.020594
4198.765438,-4515.256246,-9346.365076,0.000000
4198.765763,-3701.029710,-8503.660028,0.000000
4198.766087,-2220.617826,-8044.002729,0.000000
4198.766412,-962.267725,-8503.660028,0.000000
4198.766736,-370.102971,-8197.221829,-666.185348
4198.767061,1184.329507,-8963.317327,148.041188
4198.767385,-296.082377,-8427.050478,-370.102971
4198.767710,-1480.411884,-9346.365076,444.123565
4198.768034,-962.267725,-8810.098227,-296.082377
4198.768359,-2220.617826,-10725.336972,0.000000
4198.768683,-4293.194464,-9346.365076,148.041188
4198.769008,-5255.462188,-9499.584175,0.000000
4198.769332,-5255.462188,-8656.879127,-1406.391290
4198.769657,-4589.276840,-8656.879127,0.000000
4198.769981,-2960.823768,-8044.002729,-740.205942
4198.770306,-2368.659014,-7277.907231,-1184.329507
4198.770630,-444.123565,-7737.564530,-148.041188
4198.770954,1406.391290,-7124.688131,-370.102971
4198.771279,2590.720797,-7890.783629,0.000000
4198.771603,2072.576638,-7354.516781,0.000000
4198.771928,2368.659014,-8810.098227,518.144159
4198.772252,1628.453072,-9039.926876,-518.144159
4198.772577,0.000000,-9346.365076,-962.267725
4198.772901,-1850.514855,-9422.974625,-444.123565
4198.773226,-2960.823768,-8580.269578,-1480.411884
4198.773550,-4293.194464,-10112.460574,-1628.453072
4198.773875,-6069.688724,-8197.221829,-2516.700203
4198.774199,-5699.585753,-8810.098227,-1406.391290
4198.774524,-3849.070898,-7201.297681,-1998.556043
4198.774848,-1702.473667,-8350.440928,0.000000
4198.775173,370.102971,-7124.688131,-370.102971
4198.775497,3997.112087,-8273.831378,0.000000
4198.775822,5329.482782,-7660.954980,74.020594
4198.776146,5477.523971,-9806.022374,0.000000
4198.776471,3701.029710,-8963.317327,-740.205942
4198.776795,148.041188,-10572.117872,-370.102971
4198.777120,-3849.070898,-9959.241474,-1036.288319
4198.777444,-6291.750507,-10035.851024,-296.082377
4198.777769,-7328.038826,-8503.660028,-814.226536
4198.778093,-7402.059420,-8656.879127,-444.123565
4198.778418,-5403.503377,-7660.954980,-1332.370696
4198.778742,-2442.679609,-7354.516781,-1036.288319
4198.779067,1480.411884,-7277.907231,74.020594
4198.779391,4737.318029,-6588.421283,-1036.288319
4198.779715,6587.832884,-8197.221829,-370.102971
4198.780039,7105.977043,-8120.612279,-592.164754
4198.780364,4219.173869,-9882.631924,-592.164754
4198.780688,-1258.350101,-11491.432470,-1036.288319
4198.781012,-5699.585753,-11874.480219,-1332.370696
4198.781337,-9918.759623,-11261.603821,-370.102971
4198.781661,-11843.295072,-9959.241474,-222.061783
4198.781985,-10362.883188,-8197.221829,0.000000
4198.782309,-8808.450710,-6894.859482,-296.082377
4198.782634,-2886.803174,-5975.544884,-296.082377
4198.782958,3182.885551,-4903.011187,-888.247130
4198.783282,6957.935855,-6665.030833,222.061783
4198.783607,10140.821405,-5822.325785,-296.082377
4198.783931,9030.512492,-8580.269578,740.205942
4198.784255,4589.276840,-8886.707777,-666.185348
4198.784579,-814.226536,-11338.213370,1332.370696
4198.784904,-6143.709319,-10572.117872,814.226536
4198.785228,-10881.027347,-13023.623466,1184.329507
4198.785552,-12065.356855,-10955.165621,-370.102971
4198.785876,-10140.821405,-10801.946522,518.144159
4198.786201,-7179.997637,-7814.174080,-1184.329507
4198.786525,-1776.494261,-7660.954980,-666.185348
4198.786849,2294.638420,-5515.887586,-1554.432478
4198.787174,4071.132681,-6818.249932,-296.082377
4198.787498,5625.565159,-4903.011187,-814.226536
4198.787822,3256.906145,-6588.421283,444.123565
4198.788146,-148.041188,-8427.050478,666.185348
4198.788471,-2664.741391,-9346.365076,1110.308913
4198.788795,-5625.565159,-10342.289223,1628.453072
4198.789119,-5477.523971,-10342.289223,962.267725
4198.789444,-4515.256246,-10955.165621,0.000000
4198.789768,-2072.576638,-10035.851024,-296.082377
4198.790092,962.267725,-8886.707777,-2072.576638
4198.790416,3034.844362,-7814.174080,-1110.308913
4198.790741,2442.679609,-6971.469032,-1332.370696
4198.791065,2220.617826,-6741.640382,0.000000
4198.791389,2368.659014,-6818.249932,444.123565
4198.791713,2960.823768,-7814.174080,740.205942
4198.792038,2960.823768,-6894.859482,444.123565
4198.792362,1628.453072,-9422.974625,1184.329507
4198.792686,1332.370696,-10035.851024,-1924.535449
4198.793011,666.185348,-11261.603821,-1258.350101
4198.793335,444.123565,-9882.631924,-1554.432478
4198.793659,-1110.308913,-9806.022374,-1554.432478
4198.793983,-1998.556043,-8044.002729,-1924.535449
4198.794308,-1110.308913,-8350.440928,74.020594
4198.794632,148.041188,-6741.640382,74.020594
4198.794956,1628.453072,-6511.811733,962.267725
4198.795281,5033.400406,-6205.373534,0.000000
4198.795605,6217.729913,-6435.202183,148.041188
4198.795929,7031.956449,-8197.221829,74.020594
4198.796253,5255.462188,-7507.735880,-1554.432478
4198.796578,3701.029710,-10189.070123,-1258.350101
4198.796902,0.000000,-9652.803275,-3701.029710
4198.797226,-1702.473667,-11797.870669,-1036.288319
4198.797550,-2960.823768,-8120.612279,-1850.514855
4198.797875,74.020594,-11338.213370,-1258.350101
4198.798199,1776.494261,-9039.926876,-1184.329507
4198.798523,3330.926739,-8273.831378,0.000000
4198.798848,5625.565159,-7660.954980,370.102971
4198.799172,5403.503377,-6281.983084,-666.185348
4198.799496,5403.503377,-8733.488677,296.082377
4198.799820,4071.132681,-5286.058936,-1036.288319
4198.800145,962.267725,-7890.783629,-444.123565
4198.800469,-1258.350101,-8197.221829,-1850.514855
4198.800793,-1110.308913,-9729.412825,-888.247130
4198.801117,-2220.617826,-10035.851024,-1184.329507
4198.801442,-1998.556043,-10801.946522,-296.082377
4198.801766,-740.205942,-8810.098227,148.041188
4198.802090,-148.041188,-9959.241474,666.185348
4198.802415,1702.473667,-9039.926876,-296.082377
4198.802739,1776.494261,-7737.564530,148.041188
4198.803063,1258.350101,-7890.783629,-888.247130
4198.803387,-1258.350101,-7967.393179,0.000000
4198.803712,-888.247130,-7584.345430,-222.061783
4198.804036,-2294.638420,-8120.612279,-666.185348
4198.804360,-1406.391290,-8503.660028,-296.082377
4198.804685,-2072.576638,-9499.584175,-592.164754
4198.805009,-2960.823768,-10035.851024,-518.144159
4198.805333,-2812.782580,-9959.241474,-740.205942
4198.805657,-3552.988522,-9729.412825,0.000000
4198.805982,-3849.070898,-9499.584175,1332.370696
4198.806306,-2294.638420,-8273.831378,1036.288319
4198.806630,-2220.617826,-8197.221829,814.226536
4198.806954,-1184.329507,-7048.078582,814.226536
4198.807279,1850.514855,-6511.811733,-296.082377
4198.807603,2960.823768,-7967.393179,148.041188
4198.807927,2368.659014,-7354.516781,-1184.329507
4198.808252,1702.473667,-9499.584175,-666.185348
4198.808576,222.061783,-9116.536426,-518.144159
4198.808900,-2220.617826,-9882.631924,-814.226536
4198.809224,-4367.215058,-9882.631924,-444.123565
4198.809549,-4885.359217,-10112.460574,0.000000
4198.809873,-5033.400406,-9882.631924,518.144159
4198.810197,-2368.659014,-8044.002729,0.000000
4198.810522,962.267725,-8503.660028,1702.473667
4198.810846,3330.926739,-6128.763984,-740.205942
4198.811170,5181.441594,-8044.002729,-296.082377
4198.811494,4071.132681,-7354.516781,-1924.535449
4198.811819,2738.761985,-7890.783629,-666.185348
4198.812143,-148.041188,-7201.297681,-370.102971
4198.812467,-1776.494261,-8810.098227,888.247130
4198.812791,-2368.659014,-8273.831378,666.185348
4198.813116,-1702.473667,-8733.488677,518.144159
4198.813440,0.000000,-8733.488677,962.267725
4198.813764,1184.329507,-8656.879127,-74.020594
4198.814089,3108.864956,-9193.145976,-592.164754
4198.814413,4737.318029,-8503.660028,-370.102971
4198.814737,4885.359217,-7277.907231,-1036.288319
4198.815061,3849.070898,-7967.393179,-740.205942
4198.815386,4441.235652,-8044.002729,-1406.391290
4198.815710,1110.308913,-7507.735880,-1924.535449
4198.816034,2590.720797,-7967.393179,-666.185348
4198.816359,1184.329507,-7890.783629,-222.061783
4198.816683,1850.514855,-9269.755526,0.000000
4198.817007,2368.659014,-9499.584175,0.000000
4198.817331,2072.576638,-9729.412825,-888.247130
4198.817656,1332.370696,-9346.365076,-1924.535449
4198.817980,1998.556043,-8503.660028,-1924.535449
4198.818304,518.144159,-8350.440928,-888.247130
4198.818628,1036.288319,-8044.002729,-740.205942
4198.818953,1998.556043,-7814.174080,-296.082377
4198.819277,2368.659014,-7584.345430,-592.164754
4198.819601,4663.297435,-7354.516781,-1184.329507
4198.819926,4515.256246,-8963.317327,-1036.288319
4198.820250,2812.782580,-9959.241474,-222.061783
4198.820574,666.185348,-10035.851024,-1258.350101
4198.820898,-888.247130,-9806.022374,-1554.432478
4198.821223,-3108.864956,-10572.117872,-1036.288319
4198.821547,-5107.421000,-9499.584175,-1406.391290
4198.821871,-3627.009116,-10801.946522,-1702.473667
4198.822196,-2368.659014,-8733.488677,-444.123565
4198.822520,1258.350101,-8810.098227,-444.123565
4198.822844,2590.720797,-8503.660028,-518.144159
4198.823168,3256.906145,-8503.660028,-518.144159
4198.823493,2442.679609,-8197.221829,-740.205942
4198.823817,370.102971,-8580.269578,-1554.432478
4198.824141,-888.247130,-9039.926876,74.020594
4198.824465,-3404.947333,-8656.879127,814.226536
4198.824790,-6069.688724,-8886.707777,1036.288319
4198.825114,-1332.370696,-9882.631924,1554.432478
4198.825438,-1184.329507,-8197.221829,74.020594
4198.825763,-1850.514855,-10648.727422,1258.350101
4198.826087,888.247130,-7431.126331,-1036.288319
4198.826411,666.185348,-9729.412825,1628.453072
4198.826735,2146.597232,-7048.078582,-1258.350101
4198.827060,1850.514855,-8580.269578,888.247130
4198.827384,-1554.432478,-7890.783629,0.000000
4198.827708,-2886.803174,-8580.269578,592.164754
4198.828033,-2072.576638,-7890.783629,666.185348
4198.828357,-3034.844362,-8886.707777,962.267725
4198.828681,-814.226536,-8273.831378,444.123565
4198.829005,370.102971,-8503.660028,444.123565
4198.829330,0.000000,-9116.536426,-148.041188
4198.829654,-370.102971,-8886.707777,222.061783
4198.829978,-296.082377,-7737.564530,-814.226536
4198.830302,-1776.494261,-8273.831378,592.164754
4198.830627,-962.267725,-6971.469032,592.164754
4198.830951,-1110.308913,-7967.393179,592.164754
4198.831275,0.000000,-8197.221829,888.247130
4198.831600,1332.370696,-6971.469032,1258.350101
4198.831924,1406.391290,-7354.516781,-666.185348
4198.832248,3404.947333,-8197.221829,814.226536
4198.832572,3182.885551,-7660.954980,-1110.308913
4198.832897,2886.803174,-10035.851024,-444.123565
4198.833221,444.123565,-7431.126331,-1184.329507
4198.833545,740.205942,-9269.755526,-444.123565
4198.833870,666.185348,-7967.393179,-1332.370696
4198.834194,1924.535449,-8656.879127,-296.082377
4198.834518,3997.112087,-8580.269578,-666.185348
4198.834842,3404.947333,-8886.707777,74.020594
4198.835167,3775.050304,-8656.879127,-1406.391290
4198.835491,2960.823768,-8733.488677,-1628.453072
4198.835815,2146.597232,-9039.926876,-814.226536
4198.836139,444.123565,-7354.516781,-1998.556043
4198.836464,-296.082377,-8733.488677,-1184.329507
4198.836788,-888.247130,-8733.488677,-962.267725
4198.837112,740.205942,-9422.974625,-740.205942
4198.837437,1036.288319,-8044.002729,-1998.556043
4198.837761,2368.659014,-10035.851024,-370.102971
4198.838085,3478.967927,-8733.488677,-1184.329507
4198.838409,3997.112087,-9422.974625,-518.144159
4198.838734,3997.112087,-9422.974625,-814.226536
4198.839058,2220.617826,-9039.926876,-1628.453072
4198.839382,-444.123565,-8963.317327,-1110.308913
4198.839707,-962.267725,-9039.926876,-592.164754
4198.840031,-1258.350101,-9806.022374,-1554.432478
4198.840355,-518.144159,-9269.755526,-1406.391290
4198.840679,962.267725,-8350.440928,-1036.288319
4198.841004,1924.535449,-8733.488677,-1480.411884
4198.841328,2294.638420,-9346.365076,-1702.473667
4198.841652,2072.576638,-8963.317327,-1406.391290
4198.841976,1110.308913,-8886.707777,-814.226536
4198.842301,-592.164754,-8503.660028,-1036.288319
4198.842625,-1998.556043,-8656.879127,0.000000
4198.842949,-2146.597232,-7737.564530,0.000000
4198.843274,-2368.659014,-8350.440928,222.061783
4198.843598,-888.247130,-8427.050478,0.000000
4198.843922,296.082377,-8273.831378,148.041188
4198.844246,0.000000,-8503.660028,666.185348
4198.844571,1554.432478,-8197.221829,-518.144159
4198.844895,518.144159,-8197.221829,-444.123565
4198.845219,0.000000,-9039.926876,592.164754
4198.845544,-2072.576638,-8810.098227,-296.082377
4198.845868,-2442.679609,-8886.707777,740.205942
4198.846192,-2220.617826,-8886.707777,1628.453072
4198.846516,-2072.576638,-8197.221829,518.144159
4198.846841,-592.164754,-9422.974625,444.123565
4198.847165,1110.308913,-8886.707777,0.000000
4198.847489,-1406.391290,-9346.365076,370.102971
4198.847813,-888.247130,-7660.954980,0.000000
4198.848138,-1702.473667,-7814.174080,0.000000
4198.848462,-2516.700203,-7277.907231,1332.370696
4198.848786,-2886.803174,-7507.735880,814.226536
4198.849111,-2294.638420,-7737.564530,888.247130
4198.849435,0.000000,-7584.345430,1332.370696
4198.849759,666.185348,-8120.612279,962.267725
4198.850083,2960.823768,-8120.612279,370.102971
4198.850408,3182.885551,-9422.974625,296.082377
4198.850732,2590.720797,-7814.174080,0.000000
4198.851056,2368.659014,-8120.612279,370.102971
4198.851381,0.000000,-6971.469032,74.020594
4198.851705,-444.123565,-9116.536426,518.144159
4198.852029,814.226536,-7660.954980,-370.102971
4198.852353,1184.329507,-9652.803275,0.000000
4198.852678,1924.535449,-6358.592633,-740.205942
4198.853002,3182.885551,-9039.926876,-370.102971
4198.853326,1850.514855,-9499.584175,-1332.370696
4198.853650,2294.638420,-9039.926876,-1332.370696
4198.853975,1258.350101,-8656.879127,-666.185348
4198.854299,-296.082377,-9422.974625,-1332.370696
4198.854623,-1702.473667,-8350.440928,-814.226536
4198.854948,-592.164754,-8273.831378,-1332.370696
4198.855272,-296.082377,-9116.536426,-296.082377
4198.855596,1998.556043,-7814.174080,-1184.329507
4198.855920,2664.741391,-8733.488677,-1184.329507
4198.856245,4663.297435,-8197.221829,-1480.411884
4198.856569,4737.318029,-8427.050478,-1406.391290
4198.856893,3923.091493,-8963.317327,-1184.329507
4198.857218,2590.720797,-9269.755526,-1554.432478
4198.857542,740.205942,-9729.412825,-1332.370696
4198.857866,-666.185348,-9729.412825,-1406.391290
4198.858190,-1110.308913,-9039.926876,-1776.494261
4198.858515,-592.164754,-9652.803275,-888.247130
4198.858839,1184.329507,-9039.926876,-814.226536
4198.859163,2812.782580,-10265.679673,-1406.391290
4198.859487,2812.782580,-8963.317327,-1850.514855
4198.859812,3552.988522,-9039.926876,-518.144159
4198.860136,740.205942,-7967.393179,-2072.576638
4198.860460,0.000000,-8580.269578,-592.164754
4198.860785,-148.041188,-8350.440928,370.102971
4198.861109,-148.041188,-8580.269578,0.000000
4198.861433,-1554.432478,-8350.440928,-888.247130
4198.861757,518.144159,-8963.317327,518.144159
4198.862082,814.226536,-9422.974625,370.102971
4198.862406,2146.597232,-9116.536426,-592.164754
4198.862730,2072.576638,-9652.803275,296.082377
4198.863054,-296.082377,-7967.393179,-1036.288319
4198.863379,-1036.288319,-8656.879127,-148.041188
4198.863703,-1332.370696,-8350.440928,-1332.370696
4198.864027,-1406.391290,-10342.289223,1184.329507
4198.864352,-1850.514855,-6971.469032,-370.102971
4198.864676,-1258.350101,-9116.536426,1258.350101
4198.865000,-740.205942,-7354.516781,74.020594
4198.865324,1184.329507,-8656.879127,74.020594
4198.865649,-370.102971,-8503.660028,-740.205942
4198.865973,296.082377,-8044.002729,148.041188
4198.866297,-962.267725,-7431.126331,-148.041188
4198.866622,-3034.844362,-8350.440928,444.123565
4198.866946,-2146.597232,-7277.907231,1480.411884
4198.867270,-3330.926739,-7201.297681,814.226536
4198.867594,592.164754,-9116.536426,814.226536
4198.867919,-518.144159,-5745.716235,296.082377
4198.868243,518.144159,-9959.241474,2368.659014
4198.868567,1998.556043,-6588.421283,-888.247130
4198.868891,2368.659014,-8810.098227,1554.432478
4198.869216,2220.617826,-7890.783629,-444.123565
4198.869540,888.247130,-9269.755526,0.000000
4198.869864,-1702.473667,-8273.831378,148.041188
4198.870189,-2072.576638,-9039.926876,-222.061783
4198.870513,0.000000,-8580.269578,0.000000
4198.870837,666.185348,-9269.755526,592.164754
4198.871161,814.226536,-9652.803275,740.205942
4198.871486,1332.370696,-8810.098227,-1480.411884
4198.871810,444.123565,-9652.803275,-444.123565
4198.872134,444.123565,-7967.393179,-1184.329507
4198.872459,1480.411884,-8427.050478,-370.102971
4198.872783,-1036.288319,-7431.126331,-592.164754
4198.873107,-666.185348,-8963.317327,740.205942
4198.873431,148.041188,-7354.516781,-1332.370696
4198.873756,1258.350101,-9652.803275,-518.144159
4198.874080,3108.864956,-8503.660028,-592.164754
4198.874404,3478.967927,-8810.098227,-444.123565
4198.874728,2664.741391,-8963.317327,-888.247130
4198.875053,2368.659014,-9193.145976,-592.164754
4198.875377,1702.473667,-9499.584175,-1110.308913
4198.875701,74.020594,-9576.193725,-1110.308913
4198.876026,-518.144159,-8963.317327,-1258.350101
4198.876350,-1110.308913,-9193.145976,-1258.350101
4198.876674,962.267725,-8197.221829,-592.164754
4198.876998,1998.556043,-8580.269578,-962.267725
4198.877323,3404.947333,-9806.022374,-1480.411884
4198.877647,3108.864956,-8810.098227,-2072.576638
4198.877971,1776.494261,-9116.536426,-1184.329507
4198.878296,592.164754,-7814.174080,-1850.514855
4198.878620,-222.061783,-8427.050478,-148.041188
4198.878944,-370.102971,-8273.831378,-592.164754
4198.879268,-148.041188,-9269.755526,0.000000
4198.879593,592.164754,-7890.783629,-518.144159
4198.879917,1850.514855,-9039.926876,-296.082377
4198.880241,2072.576638,-8044.002729,-518.144159
4198.880565,2368.659014,-9039.926876,-296.082377
4198.880890,2812.782580,-9269.755526,-518.144159
4198.881214,1258.350101,-7737.564530,-1036.288319
4198.881538,370.102971,-9193.145976,0.000000
4198.881863,-1480.411884,-8656.879127,-370.102971
4198.882187,-1554.432478,-9422.974625,370.102971
4198.882511,-1924.535449,-8350.440928,518.144159
4198.882835,-814.226536,-8886.707777,222.061783
4198.883160,518.144159,-8733.488677,0.000000
4198.883484,1776.494261,-8810.098227,0.000000
4198.883808,518.144159,-7967.393179,-518.144159
4198.884133,-814.226536,-8120.612279,-666.185348
4198.884457,-814.226536,-8273.831378,74.020594
4198.884781,-2368.659014,-7967.393179,370.102971
4198.885105,-2960.823768,-8197.221829,1110.308913
4198.885430,-3330.926739,-7967.393179,0.000000
4198.885754,-1258.350101,-8044.002729,1998.556043
4198.886078,1184.329507,-6971.469032,0.000000
4198.886403,3108.864956,-9576.193725,1184.329507
4198.886727,2812.782580,-7584.345430,0.000000
4198.887051,1924.535449,-9422.974625,370.102971
4198.887375,666.185348,-7814.174080,-740.205942
4198.887700,-1998.556043,-8963.317327,962.267725
4198.888024,-2368.659014,-7967.393179,-444.123565
4198.888348,-2368.659014,-8963.317327,222.061783
4198.888673,-1998.556043,-7967.393179,-296.082377
4198.888997,-888.247130,-8580.269578,0.000000
4198.889321,518.144159,-8580.269578,518.144159
4198.889645,814.226536,-8886.707777,-296.082377
4198.889970,1184.329507,-8197.221829,-148.041188
4198.890294,592.164754,-7354.516781,-444.123565
4198.890618,-370.102971,-8197.221829,-592.164754
4198.890943,-1110.308913,-8656.879127,-444.123565
4198.891267,-1184.329507,-8886.707777,-148.041188
4198.891591,-1702.473667,-8580.269578,148.041188
4198.891915,-740.205942,-9116.536426,-222.061783
4198.892240,1628.453072,-9193.145976,-148.041188
4198.892564,2442.679609,-9116.536426,-592.164754
4198.892888,2590.720797,-9039.926876,-1110.308913
4198.893213,2442.679609,-9499.584175,-1332.370696
4198.893537,1924.535449,-7584.345430,-1110.308913
4198.893861,1258.350101,-8273.831378,0.000000
4198.894185,296.082377,-8963.317327,-1332.370696
4198.894510,888.247130,-8273.831378,-370.102971
4198.894834,1628.453072,-8120.612279,-148.041188
4198.895158,2294.638420,-9806.022374,-888.247130
4198.895483,2812.782580,-9576.193725,-962.267725
4198.895807,1776.494261,-9806.022374,-1184.329507
4198.896131,888.247130,-9806.022374,-1036.288319
4198.896455,-814.226536,-8580.269578,-2072.576638
4198.896780,-1184.329507,-8963.317327,-962.267725
4198.897104,-1628.453072,-8120.612279,-296.082377
4198.897428,-666.185348,-8120.612279,-888.247130
4198.897753,-444.123565,-7814.174080,-740.205942
4198.898077,2516.700203,-8427.050478,-148.041188
4198.898401,3701.029710,-8656.879127,-592.164754
4198.898725,4441.235652,-9116.536426,-592.164754
4198.899050,5255.462188,-8810.098227,0.000000
4198.899374,4589.276840,-8886.707777,-1036.288319
4198.899698,1776.494261,-9116.536426,0.000000
4198.900023,0.000000,-7354.516781,-444.123565
4198.900347,-518.144159,-10648.727422,518.144159
4198.900671,74.020594,-7967.393179,-740.205942
4198.900995,518.144159,-9729.412825,222.061783
4198.901320,666.185348,-7737.564530,-962.267725
4198.901644,0.000000,-8273.831378,-740.205942
4198.901968,0.000000,-9422.974625,0.000000
4198.902292,740.205942,-7814.174080,-1184.329507
4198.902617,-1406.391290,-8273.831378,0.000000
4198.902941,-1924.535449,-8503.660028,0.000000
4198.903265,-2368.659014,-8044.002729,666.185348
4198.903590,-1628.453072,-8044.002729,0.000000
4198.903914,0.000000,-8810.098227,222.061783
4198.904238,1184.329507,-8273.831378,518.144159
4198.904562,2812.782580,-8963.317327,0.000000
4198.904887,1850.514855,-8044.002729,0.000000
4198.905211,1332.370696,-8120.612279,148.041188
4198.905535,-666.185348,-8197.221829,-370.102971
4198.905860,-1332.370696,-8503.660028,592.164754
4198.906184,-1924.535449,-7737.564530,296.082377
4198.906508,-1258.350101,-8503.660028,296.082377
4198.906832,-740.205942,-7890.783629,518.144159
4198.907157,1406.391290,-8963.317327,74.020594
4198.907481,2072.576638,-8503.660028,370.102971
4198.907805,1628.453072,-8886.707777,0.000000
4198.908130,1184.329507,-8580.269578,74.020594
4198.908454,0.000000,-8503.660028,-148.041188
4198.908778,-962.267725,-8044.002729,-296.082377
4198.909102,-2442.679609,-8656.879127,518.144159
4198.909427,-2960.823768,-7431.126331,0.000000
4198.909751,-1924.535449,-8120.612279,296.082377
4198.910075,148.041188,-8197.221829,740.205942
4198.910400,1406.391290,-8427.050478,74.020594
4198.910724,2442.679609,-7124.688131,-74.020594
4198.911048,2812.782580,-8044.002729,370.102971
4198.911372,2812.782580,-8580.269578,-592.164754
4198.911697,1628.453072,-8580.269578,-1258.350101
4198.912021,1702.473667,-9576.193725,-370.102971
4198.912345,-1184.329507,-8886.707777,-814.226536
4198.912670,-1702.473667,-8427.050478,-962.267725
4198.912994,-814.226536,-9116.536426,296.082377
4198.913318,1184.329507,-8810.098227,-1332.370696
4198.913642,592.164754,-8810.098227,-296.082377
4198.913967,1924.535449,-8503.660028,-2072.576638
4198.914291,2368.659014,-9039.926876,-1184.329507
4198.914615,222.061783,-8427.050478,-1628.453072
4198.914940,-444.123565,-9039.926876,-740.205942
4198.915264,-444.123565,-8120.612279,-148.041188
4198.915588,-518.144159,-7814.174080,-148.041188
4198.915912,1258.350101,-8886.707777,-666.185348
4198.916237,3108.864956,-9116.536426,-888.247130
4198.916561,2812.782580,-9346.365076,-296.082377
4198.916885,2590.720797,-9269.755526,-1110.308913
4198.917210,2516.700203,-9193.145976,-888.247130
4198.917534,1924.535449,-9116.536426,-1110.308913
4198.917858,962.267725,-8273.831378,-296.082377
4198.918182,0.000000,-8733.488677,-666.185348
4198.918507,-1776.494261,-8580.269578,-1554.432478
4198.918831,0.000000,-9269.755526,-148.041188
4198.919155,814.226536,-8503.660028,-148.041188
4198.919480,1332.370696,-9499.584175,-222.061783
4198.919804,1332.370696,-8044.002729,-888.247130
4198.920128,814.226536,-9422.974625,-518.144159
4198.920452,-222.061783,-8656.879127,-592.164754
4198.920777,-222.061783,-8963.317327,-1184.329507
4198.921101,-1998.556043,-8580.269578,-666.185348
4198.921425,-1702.473667,-8120.612279,740.205942
4198.921750,-888.247130,-8044.002729,222.061783
4198.922074,592.164754,-8044.002729,296.082377
4198.922398,2072.576638,-7890.783629,518.144159
4198.922722,2368.659014,-7890.783629,74.020594
4198.923047,2664.741391,-8273.831378,-296.082377
4198.923371,2220.617826,-8350.440928,0.000000
4198.923695,1924.535449,-8886.707777,148.041188
4198.924020,-1924.535449,-8427.050478,0.000000
4198.924344,-1924.535449,-9116.536426,444.123565
4198.924668,-1702.473667,-8886.707777,0.000000
4198.924992,-666.185348,-8733.488677,370.102971
4198.925317,0.000000,-8580.269578,0.000000
4198.925641,1258.350101,-8810.098227,0.000000
4198.925965,1406.391290,-8580.269578,0.000000
4198.926289,518.144159,-8197.221829,-148.041188
4198.926614,0.000000,-7814.174080,-518.144159
4198.926938,-2146.597232,-7737.564530,296.082377
4198.927262,-1702.473667,-7584.345430,0.000000
4198.927587,-2220.617826,-7967.393179,296.082377
4198.927911,-1628.453072,-8197.221829,148.041188
4198.928235,-296.082377,-8427.050478,814.226536
4198.928559,2294.638420,-8580.269578,296.082377
4198.928884,2442.679609,-8656.879127,-666.185348
4198.929208,2442.679609,-8810.098227,-444.123565
4198.929532,2072.576638,-8656.879127,0.000000
4198.929857,962.267725,-8733.488677,-666.185348
4198.930181,0.000000,-8733.488677,-592.164754
4198.930505,-148.041188,-9422.974625,148.041188
4198.930829,0.000000,-8273.831378,-1110.308913
4198.931154,-296.082377,-8503.660028,148.041188
4198.931478,740.205942,-8427.050478,-1332.370696
4198.931802,888.247130,-9806.022374,-74.020594
4198.932127,518.144159,-8350.440928,-962.267725
4198.932451,740.205942,-8656.879127,-962.267725
4198.932775,444.123565,-8656.879127,-1554.432478
4198.933099,-1110.308913,-8273.831378,-666.185348
4198.933424,-592.164754,-8963.317327,-444.123565
4198.933748,0.000000,-8273.831378,-444.123565
4198.934072,2072.576638,-8044.002729,296.082377
4198.934397,3034.844362,-7814.174080,-888.247130
4198.934721,3552.988522,-9193.145976,-592.164754
4198.935045,3997.112087,-8273.831378,-962.267725
4198.935369,2442.679609,-9806.022374,-444.123565
4198.935694,1332.370696,-8273.831378,-2294.638420
4198.936018,-1258.350101,-9729.412825,-296.082377
4198.936342,-1036.288319,-9193.145976,-1258.350101
4198.936667,-1850.514855,-8886.707777,-592.164754
4198.936991,-296.082377,-8503.660028,-518.144159
4198.937315,1628.453072,-8963.317327,-888.247130
4198.937639,2072.576638,-9729.412825,-962.267725
4198.937964,2220.617826,-9806.022374,-888.247130
4198.938288,2220.617826,-8503.660028,-1480.411884
4198.938612,666.185348,-8427.050478,-888.247130
4198.938937,74.020594,-8580.269578,-666.185348
4198.939261,-1110.308913,-8580.269578,-814.226536
4198.939585,-2146.597232,-8120.612279,518.144159
4198.939909,-1998.556043,-8580.269578,296.082377
4198.940234,-296.082377,-9116.536426,0.000000
4198.940558,1184.329507,-8273.831378,222.061783
4198.940882,2368.659014,-8733.488677,-148.041188
4198.941207,3256.906145,-7890.783629,-592.164754
4198.941531,3330.926739,-8656.879127,-444.123565
4198.941855,2664.741391,-8044.002729,-518.144159
4198.942179,888.247130,-7890.783629,-296.082377
4198.942504,-962.267725,-8886.707777,0.000000
4198.942828,-1258.350101,-8044.002729,-296.082377
4198.943152,-222.061783,-8044.002729,592.164754
4198.943477,1036.288319,-8963.317327,0.000000
4198.943801,1110.308913,-9116.536426,148.041188
4198.944125,-1036.288319,-8733.488677,-962.267725
4198.944449,-1258.350101,-9576.193725,-740.205942
4198.944774,-1110.308913,-7814.174080,-370.102971
4198.945098,-2738.761985,-8120.612279,592.164754
4198.945422,-1998.556043,-7277.907231,592.164754
4198.945747,-962.267725,-7431.126331,666.185348
4198.946071,1776.494261,-8350.440928,370.102971
4198.946395,2738.761985,-7354.516781,0.000000
4198.946719,2368.659014,-8656.879127,222.061783
4198.947044,1628.453072,-9116.536426,-592.164754
4198.947368,2368.659014,-8350.440928,-370.102971
4198.947692,74.020594,-9499.584175,-592.164754
4198.948016,-962.267725,-7967.393179,-296.082377
4198.948341,-814.226536,-9346.365076,0.000000
4198.948665,-1406.391290,-9499.584175,-888.247130
4198.948989,-296.082377,-9576.193725,0.000000
4198.949314,370.102971,-8044.002729,0.000000
4198.949638,1332.370696,-9039.926876,-666.185348
4198.949962,2368.659014,-8427.050478,-518.144159
4198.950286,2442.679609,-8273.831378,-1036.288319
4198.950611,666.185348,-8350.440928,-1184.329507
4198.950935,-296.082377,-8044.002729,-444.123565
4198.951259,-2738.761985,-8656.879127,-740.205942
4198.951584,-1776.494261,-9269.755526,296.082377
4198.951908,-1110.308913,-8427.050478,-370.102971
4198.952232,0.000000,-8350.440928,0.000000
4198.952556,814.226536,-7890.783629,0.000000
4198.952881,2220.617826,-9193.145976,-370.102971
4198.953205,3182.885551,-9346.365076,0.000000
4198.953529,2886.803174,-7660.954980,-666.185348
4198.953854,1850.514855,-8810.098227,-592.164754
4198.954178,222.061783,-7660.954980,-1628.453072
4198.954502,74.020594,-9039.926876,370.102971
4198.954826,592.164754,-8733.488677,-1258.350101
4198.955151,1036.288319,-9499.584175,-518.144159
4198.955475,-222.061783,-7814.174080,-666.185348
4198.955799,888.247130,-10418.898773,0.000000
4198.956124,-592.164754,-8350.440928,-1924.535449
4198.956448,-148.041188,-9806.022374,0.000000
4198.956772,-740.205942,-7660.954980,-2368.659014
4198.957096,-962.267725,-8503.660028,74.020594
4198.957421,-370.102971,-7354.516781,-1406.391290
4198.957745,888.247130,-8197.221829,518.144159
4198.958069,1554.432478,-7431.126331,0.000000
4198.958394,2368.659014,-8427.050478,296.082377
4198.958718,3923.091493,-8350.440928,-222.061783
4198.959042,3404.947333,-8810.098227,0.000000
4198.959366,4293.194464,-9269.755526,-222.061783
4198.959691,666.185348,-8656.879127,-1036.288319
4198.960015,-444.123565,-9576.193725,-370.102971
4198.960339,-2368.659014,-9576.193725,0.000000
4198.960664,-1850.514855,-9499.584175,-74.020594
4198.960988,-3034.844362,-8120.612279,-296.082377
4198.961312,-1332.370696,-8503.660028,74.020594
4198.961636,962.267725,-8120.612279,-148.041188
4198.961961,2886.803174,-8503.660028,-592.164754
4198.962285,1406.391290,-9652.803275,-592.164754
4198.962609,1628.453072,-8197.221829,-370.102971
4198.962934,-222.061783,-8044.002729,-296.082377
4198.963258,-296.082377,-8733.488677,0.000000
4198.963582,-2146.597232,-8273.831378,0.000000
4198.963906,-1924.535449,-9576.193725,1332.370696
4198.964231,-962.267725,-7737.564530,-74.020594
4198.964555,370.102971,-7814.174080,1036.288319
4198.964879,1332.370696,-8656.879127,0.000000
4198.965204,2146.597232,-8273.831378,-444.123565
4198.965528,2812.782580,-7967.393179,-592.164754
4198.965852,2590.720797,-8350.440928,-666.185348
4198.966176,1480.411884,-8120.612279,-370.102971
4198.966501,0.000000,-8273.831378,0.000000
4198.966825,-814.226536,-8810.098227,74.020594
4198.967149,-1036.288319,-8197.221829,-296.082377
4198.967474,296.082377,-9346.365076,592.164754
4198.967798,888.247130,-9116.536426,-444.123565
4198.968122,296.082377,-9576.193725,-740.205942
4198.968446,148.041188,-9652.803275,-296.082377
4198.968771,-1480.411884,-7967.393179,-888.247130
4198.969095,-1406.391290,-8503.660028,-666.185348
4198.969419,-74.020594,-8350.440928,-370.102971
4198.969743,-1480.411884,-7660.954980,444.123565
4198.970068,-666.185348,-6818.249932,0.000000
4198.970392,1554.432478,-8580.269578,1332.370696
4198.970716,2812.782580,-7507.735880,-592.164754
4198.971041,3256.906145,-10035.851024,518.144159
4198.971365,3108.864956,-8044.002729,-1184.329507
4198.971689,1036.288319,-9422.974625,-518.144159
4198.972013,148.041188,-9346.365076,-740.205942
4198.972338,-1480.411884,-9346.365076,-148.041188
4198.972662,-2220.617826,-9116.536426,-222.061783
4198.972986,-2886.803174,-8580.269578,-148.041188
4198.973311,74.020594,-8656.879127,74.020594
4198.973635,1628.453072,-8503.660028,-888.247130
4198.973959,2368.659014,-8656.879127,-888.247130
4198.974283,1702.473667,-8350.440928,-888.247130
4198.974608,1628.453072,-9116.536426,-1184.329507
4198.974932,0.000000,-8197.221829,-296.082377
4198.975256,-222.061783,-8120.612279,-1110.308913
4198.975581,-1628.453072,-8503.660028,-444.123565
4198.975905,-518.144159,-8580.269578,148.041188
4198.976229,-296.082377,-9039.926876,0.000000
4198.976553,1924.535449,-8580.269578,-518.144159
4198.976878,2294.638420,-8580.269578,0.000000
4198.977202,2960.823768,-9806.022374,-592.164754
4198.977526,1924.535449,-8580.269578,-814.226536
4198.977851,2442.679609,-8197.221829,-296.082377
4198.978175,666.185348,-8503.660028,-666.185348
4198.978499,-222.061783,-8810.098227,-962.267725
4198.978823,-962.267725,-9269.755526,-296.082377
4198.979148,-1628.453072,-8886.707777,-1036.288319
4198.979472,592.164754,-9193.145976,370.102971
4198.979796,444.123565,-8044.002729,-888.247130
4198.980121,740.205942,-9499.584175,148.041188
4198.980445,518.144159,-7967.393179,-666.185348
4198.980769,1184.329507,-9422.974625,-740.205942
4198.981093,74.020594,-8580.269578,-1406.391290
4198.981418,-740.205942,-8427.050478,-370.102971
4198.981742,-3849.070898,-7967.393179,0.000000
4198.982066,-888.247130,-8120.612279,148.041188
4198.982391,518.144159,-7890.783629,222.061783
4198.982715,518.144159,-8350.440928,740.205942
4198.983039,2442.679609,-8350.440928,444.123565
4198.983363,2368.659014,-8503.660028,-1110.308913
4198.983688,1850.514855,-8886.707777,-296.082377
4198.984012,2812.782580,-8273.831378,-740.205942
4198.984336,518.144159,-10112.460574,0.000000
4198.984660,-1998.556043,-8273.831378,-814.226536
4198.984985,-444.123565,-8580.269578,296.082377
4198.985309,-2368.659014,-8580.269578,0.000000
4198.985633,518.144159,-8886.707777,-518.144159
4198.985958,1702.473667,-8273.831378,-222.061783
4198.986282,888.247130,-8810.098227,-296.082377
4198.986606,888.247130,-8580.269578,-666.185348
4198.986930,1036.288319,-8810.098227,-1332.370696
4198.987255,-1628.453072,-7814.174080,-444.123565
4198.987579,-962.267725,-8197.221829,0.000000
4198.987903,0.000000,-8503.660028,74.020594
4198.988227,296.082377,-7814.174080,370.102971
4198.988552,1036.288319,-8197.221829,888.247130
4198.988876,1184.329507,-7814.174080,-370.102971
4198.989200,1036.288319,-9499.584175,-444.123565
4198.989524,1850.514855,-9499.584175,-148.041188
4198.989849,3034.844362,-8810.098227,-740.205942
4198.990173,0.000000,-8810.098227,-740.205942
4198.990497,148.041188,-9652.803275,0.000000
4198.990822,-666.185348,-7507.735880,-740.205942
4198.991146,-1850.514855,-9652.803275,0.000000
4198.991470,444.123565,-7354.516781,-222.061783
4198.991794,1258.350101,-9039.926876,444.123565
4198.992119,1036.288319,-8886.707777,-962.267725
4198.992443,1554.432478,-9193.145976,-444.123565
4198.992767,518.144159,-9729.412825,-962.267725
4198.993091,-592.164754,-8580.269578,-1184.329507
4198.993416,-1036.288319,-8733.488677,-370.102971
4198.993740,-1850.514855,-8197.221829,-370.102971
4198.994064,-370.102971,-7507.735880,370.102971
4198.994388,-444.123565,-8197.221829,0.000000
4198.994713,1628.453072,-8886.707777,-296.082377
4198.995037,2072.576638,-8044.002729,-518.144159
4198.995361,2590.720797,-9116.536426,-962.267725
4198.995685,1480.411884,-8886.707777,-740.205942
4198.996010,1406.391290,-8273.831378,-740.205942
4198.996334,-666.185348,-9193.145976,-814.226536
4198.996658,-296.082377,-9422.974625,0.000000
4198.996983,-518.144159,-8656.879127,-962.267725
4198.997307,-296.082377,-8580.269578,-370.102971
4198.997631,0.000000,-8273.831378,0.000000
4198.997955,-74.020594,-8580.269578,222.061783
4198.998280,1776.494261,-8350.440928,-814.226536
4198.998604,1554.432478,-9269.755526,-592.164754
4198.998928,888.247130,-8120.612279,-222.061783
4198.999252,-888.247130,-8120.612279,-740.205942
4198.999577,-2146.597232,-7967.393179,-962.267725
4198.999901,-2368.659014,-9346.365076,1628.453072
4199.000225,-1406.391290,-7124.688131,1924.535449
4199.000549,2072.576638,-8350.440928,74.020594
4199.000874,962.267725,-8886.707777,74.020594
4199.001198,3182.885551,-8580.269578,-222.061783
4199.001522,4145.153275,-8120.612279,0.000000
4199.001847,2442.679609,-8427.050478,-1332.370696
4199.002171,962.267725,-8350.440928,0.000000
4199.002495,0.000000,-8120.612279,-74.020594
4199.002819,-1332.370696,-9039.926876,-592.164754
4199.003144,-592.164754,-8580.269578,-296.082377
4199.003468,-1110.308913,-8427.050478,370.102971
4199.003792,0.000000,-8503.660028,-444.123565
4199.004116,814.226536,-10265.679673,-148.041188
4199.004441,1332.370696,-8044.002729,-740.205942
4199.004765,0.000000,-9346.365076,0.000000
4199.005089,-444.123565,-8120.612279,-1554.432478
4199.005413,0.000000,-8044.002729,-370.102971
4199.005738,-1628.453072,-7584.345430,-148.041188
4199.006062,-1554.432478,-7737.564530,370.102971
4199.006386,518.144159,-8427.050478,-518.144159
4199.006711,3182.885551,-9576.193725,444.123565
4199.007035,3923.091493,-8120.612279,296.082377
4199.007359,1554.432478,-8963.317327,-888.247130
4199.007683,1184.329507,-8503.660028,-296.082377
4199.008008,2368.659014,-8427.050478,-518.144159
4199.008332,-888.247130,-9959.241474,444.123565
4199.008656,-1702.473667,-8197.221829,-1406.391290
4199.008980,-888.247130,-9346.365076,-666.185348
4199.009305,-2516.700203,-8733.488677,-1184.329507
4199.009629,-666.185348,-8273.831378,-222.061783
4199.009953,814.226536,-8733.488677,-444.123565
4199.010277,888.247130,-8733.488677,-444.123565
4199.010602,1406.391290,-9193.145976,-592.164754
4199.010926,1110.308913,-8580.269578,-1776.494261
4199.011250,0.000000,-9269.755526,-592.164754
4199.011574,-666.185348,-8350.440928,-666.185348
4199.011899,-666.185348,-9193.145976,444.123565
4199.012223,-1184.329507,-7660.954980,-814.226536
4199.012547,518.144159,-9269.755526,814.226536
4199.012872,1480.411884,-8197.221829,0.000000
4199.013196,2146.597232,-9039.926876,222.061783
4199.013520,2442.679609,-9269.755526,-814.226536
4199.013844,2368.659014,-8656.879127,-296.082377
4199.014169,888.247130,-7967.393179,-1036.288319
4199.014493,962.267725,-9039.926876,-444.123565
4199.014817,-1036.288319,-8580.269578,0.000000
4199.015141,-1036.288319,-9193.145976,-518.144159
4199.015466,-1036.288319,-8810.098227,0.000000
4199.015790,-814.226536,-8886.707777,444.123565
4199.016114,296.082377,-9346.365076,-370.102971
4199.016438,74.020594,-8656.879127,-740.205942
4199.016763,296.082377,-9116.536426,-592.164754
4199.017087,-1702.473667,-7890.783629,-1480.411884
4199.017411,-814.226536,-8197.221829,-370.102971
4199.017736,-1184.329507,-8503.660028,592.164754
4199.018060,-1702.473667,-8044.002729,592.164754
4199.018384,222.061783,-7201.297681,518.144159
4199.018708,1998.556043,-7354.516781,740.205942
4199.019033,2812.782580,-7507.735880,370.102971
4199.019357,4589.276840,-9346.365076,0.000000
4199.019681,4219.173869,-8120.612279,-370.102971
4199.020005,2960.823768,-8427.050478,0.000000
4199.020330,814.226536,-9193.145976,0.000000
4199.020654,-666.185348,-8733.488677,-962.267725
4199.020978,-1628.453072,-9193.145976,296.082377
4199.021302,-1924.535449,-7890.783629,-666.185348
4199.021627,0.000000,-8044.002729,296.082377
4199.021951,-518.144159,-7660.954980,-370.102971
4199.022275,740.205942,-9116.536426,-222.061783
4199.022600,444.123565,-8044.002729,-888.247130
4199.022924,-370.102971,-8656.879127,-1036.288319
4199.023248,666.185348,-8427.050478,-1554.432478
4199.023572,-370.102971,-7890.783629,-518.144159
4199.023897,-1776.494261,-8427.050478,592.164754
4199.024221,-74.020594,-8580.269578,-222.061783
4199.024545,1036.288319,-9116.536426,74.020594
4199.024869,2294.638420,-8044.002729,-444.123565
4199.025194,3997.112087,-8810.098227,0.000000
4199.025518,1998.556043,-8427.050478,-666.185348
4199.025842,2738.761985,-9422.974625,-444.123565
4199.026166,3182.885551,-9499.584175,-296.082377
4199.026491,2072.576638,-7890.783629,-1258.350101
4199.026815,-1554.432478,-9116.536426,0.000000
4199.027139,-1110.308913,-8044.002729,-888.247130
4199.027464,0.000000,-9269.755526,-370.102971
4199.027788,-1110.308913,-8273.831378,-222.061783
4199.028112,1258.350101,-8963.317327,-962.267725
4199.028436,370.102971,-9039.926876,-592.164754
4199.028761,-518.144159,-9039.926876,-888.247130
4199.029085,592.164754,-9116.536426,-1332.370696
4199.029409,-814.226536,-9729.412825,-1258.350101
4199.029733,-2072.576638,-8350.440928,-814.226536
4199.030058,-2072.576638,-8427.050478,-518.144159
4199.030382,-1110.308913,-8044.002729,-666.185348
4199.030706,-296.082377,-7737.564530,666.185348
4199.031030,1702.473667,-7660.954980,0.000000
4199.031355,3701.029710,-8963.317327,74.020594
4199.031679,3182.885551,-8427.050478,-740.205942
4199.032003,2738.761985,-9576.193725,-1110.308913
4199.032327,1554.432478,-8810.098227,-1110.308913
4199.032652,148.041188,-9039.926876,0.000000
4199.032976,-962.267725,-8963.317327,-666.185348
4199.033300,-1554.432478,-8810.098227,0.000000
4199.033625,-1850.514855,-8197.221829,0.000000
4199.033949,0.000000,-8580.269578,-444.123565
4199.034273,0.000000,-8733.488677,148.041188
4199.034597,-148.041188,-9116.536426,-666.185348
4199.034922,-296.082377,-8427.050478,-1258.350101
4199.035246,-1110.308913,-8120.612279,-888.247130
4199.035570,-2072.576638,-8273.831378,-592.164754
4199.035894,-2368.659014,-8503.660028,148.041188
4199.036219,-592.164754,-8120.612279,370.102971
4199.036543,-1332.370696,-8273.831378,296.082377
4199.036867,1998.556043,-8427.050478,444.123565
4199.037191,3997.112087,-8273.831378,666.185348
4199.037516,3478.967927,-8273.831378,666.185348
4199.037840,3182.885551,-8810.098227,0.000000
4199.038164,3997.112087,-8197.221829,-740.205942
4199.038489,814.226536,-8350.440928,0.000000
4199.038813,1258.350101,-9039.926876,-666.185348
4199.039137,-814.226536,-8580.269578,518.144159
4199.039461,-2738.761985,-8197.221829,-666.185348
4199.039786,-1258.350101,-8963.317327,518.144159
4199.040110,-1184.329507,-7967.393179,-1036.288319
4199.040434,-222.061783,-9806.022374,-74.020594
4199.040758,-222.061783,-8350.440928,-1036.288319
4199.041083,-296.082377,-9729.412825,-296.082377
4199.041407,0.000000,-8656.879127,-1924.535449
4199.041731,-1480.411884,-8810.098227,-444.123565
4199.042055,-1554.432478,-8427.050478,74.020594
4199.042380,1036.288319,-7354.516781,74.020594
4199.042704,1776.494261,-7814.174080,0.000000
4199.043028,2294.638420,-7431.126331,518.144159
4199.043353,3108.864956,-7890.783629,740.205942
4199.043677,4145.153275,-7967.393179,-888.247130
4199.044001,4071.132681,-8886.707777,-518.144159
4199.044325,2294.638420,-8427.050478,-370.102971
4199.044650,1258.350101,-9039.926876,-518.144159
4199.044974,-592.164754,-8044.002729,0.000000
4199.045298,-518.144159,-9116.536426,-148.041188
4199.045622,-740.205942,-8120.612279,-888.247130
4199.045947,222.061783,-9269.755526,-296.082377
4199.046271,444.123565,-8503.660028,-1110.308913
4199.046595,-962.267725,-8580.269578,-1258.350101
4199.046919,-666.185348,-8886.707777,-518.144159
4199.047244,-2220.617826,-8044.002729,-1850.514855
4199.047568,-1110.308913,-8886.707777,-1110.308913
4199.047892,-1554.432478,-8656.879127,-1184.329507
4199.048216,-1776.494261,-8580.269578,-444.123565
4199.048541,-370.102971,-7584.345430,296.082377
4199.048865,1258.350101,-8120.612279,74.020594
4199.049189,3108.864956,-9269.755526,518.144159
4199.049514,4737.318029,-7660.954980,-370.102971
4199.049838,5107.421000,-9269.755526,-296.082377
4199.050162,3701.029710,-8044.002729,-1702.473667
4199.050486,2220.617826,-9269.755526,-222.061783
4199.050811,74.020594,-9116.536426,-740.205942
4199.051135,-370.102971,-8963.317327,-518.144159
4199.051459,-2442.679609,-7967.393179,-740.205942
4199.051783,-2220.617826,-9116.536426,0.000000
4199.052108,-1184.329507,-8503.660028,-296.082377
4199.052432,0.000000,-9806.022374,-1332.370696
4199.052756,-592.164754,-9193.145976,-888.247130
4199.053080,-962.267725,-8503.660028,-1258.350101
4199.053405,-1480.411884,-9422.974625,-666.185348
4199.053729,-2294.638420,-8350.440928,-962.267725
4199.054053,-1702.473667,-8810.098227,0.000000
4199.054378,-592.164754,-8580.269578,296.082377
4199.054702,-222.061783,-8273.831378,148.041188
4199.055026,1628.453072,-8656.879127,370.102971
4199.055350,2516.700203,-8273.831378,444.123565
4199.055675,3552.988522,-8350.440928,0.000000
4199.055999,3404.947333,-8427.050478,-296.082377
4199.056323,3404.947333,-8656.879127,-296.082377
4199.056647,518.144159,-9039.926876,0.000000
4199.056972,0.000000,-8733.488677,222.061783
4199.057296,-444.123565,-8810.098227,0.000000
4199.057620,-888.247130,-8656.879127,-518.144159
4199.057944,-296.082377,-8886.707777,444.123565
4199.058269,888.247130,-9193.145976,148.041188
4199.058593,222.061783,-8963.317327,-666.185348
4199.058917,-296.082377,-8810.098227,-518.144159
4199.059242,-1480.411884,-8886.707777,-666.185348
4199.059566,-1776.494261,-9039.926876,-740.205942
4199.059890,-2294.638420,-8350.440928,0.000000
4199.060214,-2294.638420,-7737.564530,0.000000
4199.060539,0.000000,-8733.488677,296.082377
4199.060863,666.185348,-7507.735880,222.061783
4199.061187,2590.720797,-7814.174080,666.185348
4199.061511,4959.379811,-7584.345430,296.082377
4199.061836,4737.318029,-8503.660028,74.020594
4199.062160,7772.162391,-8886.707777,1258.350101
4199.062484,0.000000,-8120.612279,-370.102971
4199.062808,3330.926739,-9346.365076,-1184.329507
4199.063133,-1332.370696,-8427.050478,814.226536
4199.063457,-1998.556043,-7660.954980,-962.267725
4199.063781,-1332.370696,-7431.126331,666.185348
4199.064105,-1036.288319,-8350.440928,-296.082377
4199.064430,0.000000,-9652.803275,-296.082377
4199.064754,814.226536,-8580.269578,-2220.617826
4199.065078,-592.164754,-10342.289223,148.041188
4199.065403,-1332.370696,-7354.516781,-1998.556043
4199.065727,1110.308913,-8886.707777,-74.020594
4199.066051,-2368.659014,-7354.516781,-1110.308913
4199.066375,0.000000,-9576.193725,1702.473667
4199.066700,888.247130,-7277.907231,-370.102971
4199.067024,3182.885551,-9576.193725,0.000000
4199.067348,3108.864956,-8427.050478,0.000000
4199.067672,3701.029710,-8273.831378,-666.185348
4199.067997,3034.844362,-8733.488677,-74.020594
4199.068321,1776.494261,-9193.145976,-592.164754
4199.068645,-518.144159,-8810.098227,-518.144159
4199.068969,-814.226536,-9039.926876,-1036.288319
4199.069294,-1554.432478,-8886.707777,-962.267725
4199.069618,-1110.308913,-8503.660028,-1258.350101
4199.069942,-592.164754,-8580.269578,-148.041188
4199.070267,-888.247130,-8886.707777,-370.102971
4199.070591,518.144159,-9346.365076,-222.061783
4199.070915,0.000000,-8963.317327,-1480.411884
4199.071239,222.061783,-9346.365076,-1776.494261
4199.071564,-888.247130,-9116.536426,-1924.535449
4199.071888,-2072.576638,-8656.879127,-888.247130
4199.072212,-2368.659014,-8963.317327,-370.102971
4199.072536,-740.205942,-7890.783629,-222.061783
4199.072861,-1924.535449,-7890.783629,592.164754
4199.073185,1776.494261,-7967.393179,-444.123565
4199.073509,2368.659014,-8656.879127,814.226536
4199.073833,3849.070898,-8427.050478,-666.185348
4199.074158,2960.823768,-8963.317327,148.041188
4199.074482,2960.823768,-7814.174080,-1258.350101
4199.074806,518.144159,-9729.412825,222.061783
4199.075131,518.144159,-7967.393179,-888.247130
4199.075455,-814.226536,-9039.926876,-148.041188
4199.075779,-740.205942,-8427.050478,-148.041188
4199.076103,-1184.329507,-8503.660028,296.082377
4199.076428,-518.144159,-8810.098227,-444.123565
4199.076752,-1258.350101,-9039.926876,-370.102971
4199.077076,-888.247130,-8886.707777,-296.082377
4199.077400,-1110.308913,-8197.221829,-962.267725
4199.077725,-592.164754,-8656.879127,-666.185348
4199.078049,-1406.391290,-8350.440928,-296.082377
4199.078373,-1406.391290,-8044.002729,666.185348
4199.078697,-444.123565,-7354.516781,444.123565
4199.079022,2516.700203,-8350.440928,1554.432478
4199.079346,3997.112087,-7584.345430,888.247130
4199.079670,4293.194464,-8044.002729,592.164754
4199.079994,4737.318029,-8656.879127,148.041188
4199.080319,2738.761985,-8350.440928,-222.061783
4199.080643,2664.741391,-9039.926876,148.041188
4199.080967,0.000000,-7967.393179,0.000000
4199.081292,-1406.391290,-8656.879127,148.041188
4199.081616,-1924.535449,-8273.831378,-666.185348
4199.081940,-1184.329507,-8427.050478,296.082377
4199.082264,592.164754,-8886.707777,-296.082377
4199.082589,148.041188,-8886.707777,-370.102971
4199.082913,666.185348,-9116.536426,-1332.370696
4199.083237,74.020594,-8656.879127,-962.267725
4199.083561,-740.205942,-8963.317327,-370.102971
4199.083886,0.000000,-8273.831378,-1850.514855
4199.084210,-296.082377,-8963.317327,-222.061783
4199.084534,-1036.288319,-8044.002729,0.000000
4199.084859,74.020594,-9193.145976,-148.041188
4199.085183,1258.350101,-7814.174080,74.020594
4199.085507,2368.659014,-8580.269578,740.205942
4199.085832,3330.926739,-9193.145976,-1184.329507
4199.086156,3182.885551,-8810.098227,-222.061783
4199.086480,2072.576638,-8733.488677,-1110.308913
4199.086805,1776.494261,-9422.974625,-962.267725
4199.087129,592.164754,-8273.831378,-888.247130
4199.087453,-296.082377,-9269.755526,-592.164754
4199.087778,-222.061783,-8886.707777,-666.185348
4199.088102,-592.164754,-9422.974625,-814.226536
4199.088426,296.082377,-9729.412825,-740.205942
4199.088751,0.000000,-9116.536426,-1258.350101
4199.089075,-962.267725,-9959.241474,-740.205942
4199.089399,-2516.700203,-9193.145976,-1554.432478
4199.089723,-3330.926739,-9116.536426,-888.247130
4199.090048,-3034.844362,-9269.755526,0.000000
4199.090372,-2146.597232,-7584.345430,-148.041188
4199.090696,-666.185348,-8503.660028,-370.102971
4199.091021,2886.803174,-7967.393179,0.000000
4199.091345,3404.947333,-7354.516781,370.102971
4199.091669,4737.318029,-8350.440928,-666.185348
4199.091994,4737.318029,-8810.098227,1036.288319
4199.092318,3034.844362,-8503.660028,-592.164754
4199.092642,1554.432478,-9039.926876,-518.144159
4199.092967,0.000000,-8273.831378,-1184.329507
4199.093291,-1628.453072,-9346.365076,296.082377
4199.093615,-1850.514855,-8427.050478,-370.102971
4199.093940,-1776.494261,-9039.926876,222.061783
4199.094264,-444.123565,-8580.269578,222.061783
4199.094588,-296.082377,-7431.126331,666.185348
4199.094913,148.041188,-8197.221829,-444.123565
4199.095237,814.226536,-8273.831378,-296.082377
4199.095561,814.226536,-7967.393179,-962.267725
4199.095886,0.000000,-8656.879127,-962.267725
4199.096210,-444.123565,-8273.831378,0.000000
4199.096534,-222.061783,-9729.412825,518.144159
4199.096859,-1332.370696,-7967.393179,0.000000
4199.097183,888.247130,-9269.755526,1702.473667
4199.097507,1924.535449,-6665.030833,-296.082377
4199.097831,2442.679609,-8810.098227,814.226536
4199.098156,3404.947333,-7814.174080,-592.164754
4199.098480,3182.885551,-8886.707777,-148.041188
4199.098804,888.247130,-7584.345430,-518.144159
4199.099129,740.205942,-8733.488677,-518.144159
4199.099453,0.000000,-8810.098227,-666.185348
4199.099777,-370.102971,-8273.831378,-444.123565
4199.100102,0.000000,-8963.317327,0.000000
4199.100426,1258.350101,-8810.098227,-814.226536
4199.100750,74.020594,-9576.193725,-222.061783
4199.101075,222.061783,-9576.193725,-888.247130
4199.101399,-962.267725,-9039.926876,-888.247130
4199.101723,-592.164754,-7814.174080,-592.164754
4199.102048,-2294.638420,-8427.050478,-666.185348
4199.102372,-962.267725,-8273.831378,-148.041188
4199.102696,-1110.308913,-8273.831378,-296.082377
4199.103021,1332.370696,-7890.783629,370.102971
4199.103345,2590.720797,-8120.612279,444.123565
4199.103669,3701.029710,-8810.098227,444.123565
4199.103994,3478.967927,-8733.488677,0.000000
4199.104318,3552.988522,-9269.755526,-1110.308913
4199.104642,2368.659014,-9882.631924,-1702.473667
4199.104967,1110.308913,-9039.926876,-1036.288319
4199.105291,-1036.288319,-8580.269578,-962.267725
4199.105615,-3108.864956,-9346.365076,-666.185348
4199.105940,-3701.029710,-8273.831378,-814.226536
4199.106264,-1628.453072,-8503.660028,-444.123565
4199.106588,-1258.350101,-8886.707777,-444.123565
4199.106912,962.267725,-8886.707777,-1036.288319
4199.107237,148.041188,-8733.488677,-1258.350101
4199.107561,1258.350101,-9576.193725,-740.205942
4199.107885,444.123565,-8273.831378,-1406.391290
4199.108210,370.102971,-9346.365076,-592.164754
4199.108534,592.164754,-8810.098227,0.000000
4199.108858,-444.123565,-8656.879127,370.102971
4199.109183,148.041188,-8120.612279,-296.082377
4199.109507,1554.432478,-8810.098227,444.123565
4199.109831,1480.411884,-7814.174080,518.144159
4199.110156,1850.514855,-7584.345430,-222.061783
4199.110480,1184.329507,-7890.783629,-518.144159
4199.110804,962.267725,-8350.440928,-518.144159
4199.111129,-518.144159,-8427.050478,-1110.308913
4199.111453,74.020594,-8580.269578,-1332.370696
4199.111777,-1702.473667,-8733.488677,0.000000
4199.112102,-1110.308913,-8120.612279,222.061783
4199.112426,888.247130,-9039.926876,0.000000
4199.112750,74.020594,-9039.926876,-296.082377
4199.113075,0.000000,-8656.879127,-592.164754
4199.113399,666.185348,-8427.050478,-740.205942
4199.113723,-1628.453072,-8656.879127,-592.164754
4199.114048,-1184.329507,-8427.050478,0.000000
4199.114372,-1406.391290,-7737.564530,222.061783
4199.114696,-1332.370696,-8503.660028,1184.329507
4199.115021,-148.041188,-7431.126331,0.000000
4199.115345,2368.659014,-8503.660028,148.041188
4199.115669,3256.906145,-8197.221829,740.205942
4199.115993,3775.050304,-7890.783629,0.000000
4199.116318,3182.885551,-9346.365076,-444.123565
4199.116642,2146.597232,-8810.098227,0.000000
4199.116966,888.247130,-8733.488677,-296.082377
4199.117291,-888.247130,-8733.488677,-1184.329507
4199.117615,-1998.556043,-8810.098227,74.020594
4199.117939,-1332.370696,-8503.660028,-814.226536
4199.118264,-1184.329507,-8580.269578,-296.082377
4199.118588,814.226536,-8580.269578,-296.082377
4199.118912,1036.288319,-9039.926876,-518.144159
4199.119237,1554.432478,-8886.707777,-1184.329507
4199.119561,1406.391290,-8886.707777,-1036.288319
4199.119885,666.185348,-8427.050478,-740.205942
4199.120210,-888.247130,-8580.269578,-888.247130
4199.120534,-592.164754,-8350.440928,0.000000
4199.120858,-518.144159,-8427.050478,148.041188
4199.121183,666.185348,-8656.879127,0.000000
4199.121507,2442.679609,-8044.002729,0.000000
4199.121831,2590.720797,-8886.707777,0.000000
4199.122156,2516.700203,-8733.488677,-962.267725
4199.122480,2516.700203,-8197.221829,-666.185348
4199.122804,1702.473667,-9269.755526,0.000000
4199.123129,-666.185348,-8427.050478,-1702.473667
4199.123453,-1184.329507,-9346.365076,-740.205942
4199.123777,-1850.514855,-9193.145976,-888.247130
4199.124102,-1628.453072,-8580.269578,-740.205942
4199.124426,-370.102971,-8503.660028,-296.082377
4199.124750,-370.102971,-9193.145976,-740.205942
4199.125074,1184.329507,-9729.412825,-962.267725
4199.125399,296.082377,-8810.098227,-888.247130
4199.125723,74.020594,-9039.926876,-1036.288319
4199.126047,148.041188,-7890.783629,-962.267725
4199.126372,0.000000,-8656.879127,-518.144159
4199.126696,370.102971,-9422.974625,0.000000
4199.127020,0.000000,-7890.783629,0.000000
4199.127345,296.082377,-8963.317327,666.185348
4199.127669,1406.391290,-8044.002729,296.082377
4199.127993,1776.494261,-8273.831378,0.000000
4199.128318,2960.823768,-9116.536426,-962.267725
4199.128642,1332.370696,-8120.612279,-740.205942
4199.128966,370.102971,-7967.393179,-444.123565
4199.129291,-148.041188,-8503.660028,-1184.329507
4199.129615,-1924.535449,-9193.145976,-148.041188
4199.129939,-1480.411884,-9116.536426,-888.247130
4199.130264,-296.082377,-7890.783629,-518.144159
4199.130588,-666.185348,-8886.707777,148.041188
4199.130912,1184.329507,-9806.022374,-222.061783
4199.131237,0.000000,-8503.660028,-814.226536
4199.131561,296.082377,-8810.098227,-444.123565
4199.131885,0.000000,-8273.831378,-740.205942
4199.132210,-888.247130,-7967.393179,-296.082377
4199.132534,-518.144159,-8427.050478,370.102971
4199.132858,-740.205942,-8044.002729,148.041188
4199.133183,0.000000,-7584.345430,444.123565
4199.133507,1702.473667,-8273.831378,666.185348
4199.133831,1998.556043,-8120.612279,148.041188
4199.134155,3627.009116,-8350.440928,296.082377
4199.134480,2294.638420,-7507.735880,74.020594
4199.134804,2368.659014,-8503.660028,0.000000
4199.135128,74.020594,-8810.098227,-592.164754
4199.135453,-148.041188,-9116.536426,0.000000
4199.135777,-962.267725,-8503.660028,-814.226536
4199.136101,-370.102971,-8886.707777,-1406.391290
4199.136426,-296.082377,-8656.879127,222.061783
4199.136750,222.061783,-8197.221829,0.000000
4199.137074,814.226536,-9576.193725,-148.041188
4199.137399,0.000000,-8503.660028,-666.185348
4199.137723,666.185348,-8656.879127,-518.144159
4199.138047,0.000000,-8427.050478,-444.123565
4199.138372,-814.226536,-8580.269578,-518.144159
4199.138696,-444.123565,-8427.050478,74.020594
4199.139020,1110.308913,-7737.564530,0.000000
4199.139345,296.082377,-7814.174080,296.082377
4199.139669,2812.782580,-8197.221829,-148.041188
4199.139993,2886.803174,-8580.269578,296.082377
4199.140318,1776.494261,-9193.145976,-296.082377
4199.140642,666.185348,-8044.002729,-1332.370696
4199.140966,1702.473667,-9422.974625,-444.123565
4199.141291,-1554.432478,-8427.050478,-592.164754
4199.141615,0.000000,-9116.536426,-518.144159
4199.141939,-1924.535449,-8197.221829,-1332.370696
4199.142264,-1406.391290,-9116.536426,0.000000
4199.142588,592.164754,-8350.440928,-1184.329507
4199.142912,1628.453072,-9193.145976,-740.205942
4199.143236,666.185348,-8733.488677,-518.144159
4199.143561,518.144159,-8350.440928,-1406.391290
4199.143885,148.041188,-9346.365076,-1406.391290
4199.144209,-962.267725,-9039.926876,-1184.329507
4199.144534,-148.041188,-9116.536426,-444.123565
4199.144858,-1258.350101,-8503.660028,0.000000
4199.145182,0.000000,-8273.831378,814.226536
4199.145507,1702.473667,-8350.440928,-444.123565
4199.145831,2516.700203,-8580.269578,222.061783
4199.146155,2664.741391,-8963.317327,-370.102971
4199.146480,3256.906145,-8580.269578,-370.102971
4199.146804,2368.659014,-8044.002729,-444.123565
4199.147128,0.000000,-9039.926876,-888.247130
4199.147453,-1702.473667,-8733.488677,-370.102971
4199.147777,-1554.432478,-8350.440928,-592.164754
4199.148101,-1628.453072,-9499.584175,-666.185348
4199.148426,222.061783,-8656.879127,444.123565
4199.148750,148.041188,-8810.098227,-592.164754
4199.149074,74.020594,-8963.317327,-370.102971
4199.149399,-222.061783,-8733.488677,-666.185348
4199.149723,444.123565,-9729.412825,-444.123565
4199.150047,-444.123565,-8350.440928,0.000000
4199.150372,-296.082377,-8120.612279,-296.082377
4199.150696,-1554.432478,-8580.269578,0.000000
4199.151020,-370.102971,-7431.126331,592.164754
4199.151345,814.226536,-7584.345430,888.247130
4199.151669,1850.514855,-8273.831378,222.061783
4199.151993,3034.844362,-8810.098227,888.247130
4199.152317,2590.720797,-8120.612279,-518.144159
4199.152642,2368.659014,-8197.221829,-222.061783
4199.152966,-296.082377,-8044.002729,222.061783
4199.153290,370.102971,-8886.707777,-296.082377
4199.153615,-666.185348,-7737.564530,0.000000
4199.153939,-814.226536,-9039.926876,-148.041188
4199.154263,0.000000,-7890.783629,-888.247130
4199.154588,592.164754,-7431.126331,0.000000
4199.154912,2146.597232,-9346.365076,296.082377
4199.155236,2516.700203,-8427.050478,-740.205942
4199.155561,2294.638420,-9422.974625,-222.061783
4199.155885,370.102971,-7814.174080,-962.267725
4199.156209,666.185348,-8580.269578,-148.041188
4199.156534,-2220.617826,-7967.393179,-444.123565
4199.156858,-666.185348,-9346.365076,1110.308913
4199.157182,-592.164754,-7660.954980,-74.020594
4199.157507,148.041188,-9193.145976,0.000000
4199.157831,1628.453072,-7584.345430,0.000000
4199.158155,2146.597232,-8044.002729,222.061783
4199.158480,1998.556043,-9422.974625,-888.247130
4199.158804,1776.494261,-8120.612279,-296.082377
4199.159128,2072.576638,-8733.488677,-370.102971
4199.159453,-888.247130,-8580.269578,-1036.288319
4199.159777,0.000000,-8503.660028,-222.061783
4199.160101,-1480.411884,-8656.879127,-592.164754
4199.160426,518.144159,-8810.098227,-370.102971
4199.160750,1036.288319,-8810.098227,-296.082377
4199.161074,814.226536,-9193.145976,-666.185348
4199.161398,592.164754,-9346.365076,-740.205942
4199.161723,888.247130,-9116.536426,-1110.308913
4199.162047,-740.205942,-8503.660028,-1480.411884
4199.162371,-444.123565,-9039.926876,0.000000
4199.162696,-2072.576638,-7967.393179,-148.041188
4199.163020,-962.267725,-8580.269578,296.082377
4199.163344,74.020594,-8120.612279,-666.185348
4199.163669,2368.659014,-9116.536426,222.061783
4199.163993,3182.885551,-8120.612279,296.082377
4199.164317,1776.494261,-9039.926876,-592.164754
4199.164642,2368.659014,-9193.145976,-1332.370696
4199.164966,888.247130,-8044.002729,-1110.308913
4199.165290,222.061783,-9576.193725,-666.185348
4199.165615,-1406.391290,-9116.536426,-814.226536
4199.165939,-1258.350101,-9193.145976,-740.205942
4199.166263,-1184.329507,-8197.221829,-592.164754
4199.166588,0.000000,-7814.174080,-666.185348
4199.166912,0.000000,-8886.707777,-148.041188
4199.167236,740.205942,-8963.317327,148.041188
4199.167561,1406.391290,-7890.783629,-1850.514855
4199.167885,1036.288319,-9116.536426,-888.247130
4199.168209,222.061783,-7660.954980,-1480.411884
4199.168534,0.000000,-9193.145976,74.020594
4199.168858,-74.020594,-9729.412825,0.000000
4199.169182,0.000000,-8503.660028,222.061783
4199.169507,-148.041188,-8044.002729,518.144159
4199.169831,74.020594,-7737.564530,0.000000
4199.170155,1480.411884,-8427.050478,740.205942
4199.170479,2442.679609,-9193.145976,-296.082377
4199.170804,1776.494261,-8120.612279,296.082377
4199.171128,1702.473667,-7660.954980,-296.082377
4199.171452,222.061783,-8503.660028,-814.226536
4199.171777,0.000000,-8810.098227,370.102971
4199.172101,-222.061783,-8656.879127,-740.205942
4199.172425,-296.082377,-9652.803275,-1110.308913
4199.172750,1036.288319,-8963.317327,962.267725
4199.173074,1406.391290,-9269.755526,0.000000
4199.173398,74.020594,-8580.269578,-888.247130
4199.173723,1036.288319,-9269.755526,296.082377
4199.174047,-518.144159,-8120.612279,-1036.288319
4199.174371,-814.226536,-8427.050478,-740.205942
4199.174696,-1702.473667,-8197.221829,222.061783
4199.175020,-1998.556043,-8503.660028,444.123565
4199.175344,444.123565,-7048.078582,-592.164754
4199.175669,2442.679609,-8886.707777,740.205942
4199.175993,1406.391290,-7584.345430,0.000000
4199.176317,2664.741391,-8656.879127,0.000000
4199.176642,2886.803174,-8656.879127,-1110.308913
4199.176966,1998.556043,-8580.269578,-518.144159
4199.177290,1628.453072,-8427.050478,-1258.350101
4199.177615,-1258.350101,-9806.022374,222.061783
4199.177939,-1110.308913,-8120.612279,-740.205942
4199.178263,-296.082377,-8197.221829,148.041188
4199.178587,-592.164754,-8350.440928,-1258.350101
4199.178912,1110.308913,-8886.707777,148.041188
4199.179236,1110.308913,-8120.612279,-888.247130
4199.179560,1332.370696,-8656.879127,-888.247130
4199.179885,888.247130,-9116.536426,-518.144159
4199.180209,518.144159,-8427.050478,-1258.350101
4199.180533,148.041188,-8350.440928,-296.082377
4199.180858,-666.185348,-8580.269578,-1036.288319
4199.181182,962.267725,-9499.584175,-148.041188
4199.181506,444.123565,-7354.516781,-222.061783
4199.181831,962.267725,-9116.536426,592.164754
4199.182155,2146.597232,-8120.612279,-370.102971
4199.182479,2220.617826,-9346.365076,740.205942
4199.182804,666.185348,-8503.660028,-1258.350101
4199.183128,814.226536,-9269.755526,-1110.308913
4199.183452,-1554.432478,-8886.707777,-666.185348
4199.183777,-1184.329507,-9422.974625,444.123565
4199.184101,-1850.514855,-7967.393179,-2146.597232
4199.184425,444.123565,-9729.412825,296.082377
4199.184750,-296.082377,-7431.126331,-1036.288319
4199.185074,1480.411884,-9729.412825,814.226536
4199.185398,1110.308913,-7814.174080,-1554.432478
4199.185723,1036.288319,-9882.631924,-666.185348
4199.186047,0.000000,-8044.002729,-1924.535449
4199.186372,-666.185348,-8733.488677,-444.123565
4199.186696,-666.185348,-8656.879127,-666.185348
4199.187020,-1850.514855,-7890.783629,444.123565
4199.187345,-222.061783,-8580.269578,592.164754
4199.187669,370.102971,-7431.126331,-444.123565
4199.187994,2368.659014,-8350.440928,888.247130
4199.188318,2072.576638,-7890.783629,296.082377
4199.188642,3034.844362,-9269.755526,-222.061783
4199.188967,2442.679609,-8197.221829,-740.205942
4199.189291,1332.370696,-8963.317327,74.020594
4199.189615,0.000000,-8197.221829,-962.267725
4199.189940,-518.144159,-9346.365076,148.041188
4199.190264,-444.123565,-8503.660028,-296.082377
4199.190589,-222.061783,-8580.269578,0.000000
4199.190913,148.041188,-8656.879127,370.102971
4199.191237,888.247130,-8273.831378,0.000000
4199.191562,1480.411884,-8656.879127,-222.061783
4199.191886,1702.473667,-8427.050478,-222.061783
4199.192211,74.020594,-8197.221829,-740.205942
4199.192535,-148.041188,-8427.050478,0.000000
4199.192859,-1110.308913,-8427.050478,-148.041188
4199.193184,-888.247130,-8656.879127,592.164754
4199.193508,0.000000,-7890.783629,-148.041188
4199.193832,1776.494261,-8886.707777,962.267725
4199.194157,1036.288319,-7967.393179,-518.144159
4199.194481,2442.679609,-9346.365076,296.082377
4199.194806,2368.659014,-8197.221829,-888.247130
4199.195130,1998.556043,-8427.050478,0.000000
4199.195454,740.205942,-8580.269578,-296.082377
4199.195779,592.164754,-8886.707777,-962.267725
4199.196103,-296.082377,-9116.536426,-1258.350101
4199.196428,-1776.494261,-8656.879127,-666.185348
4199.196752,0.000000,-8350.440928,74.020594
4199.197076,666.185348,-8656.879127,-296.082377
4199.197401,888.247130,-9422.974625,-962.267725
4199.197725,1332.370696,-8503.660028,-370.102971
4199.198050,-740.205942,-8273.831378,-1776.494261
4199.198374,888.247130,-9346.365076,-518.144159
4199.198698,74.020594,-7814.174080,-1110.308913
4199.199023,-370.102971,-9882.631924,814.226536
4199.199347,-592.164754,-7584.345430,-1036.288319
4199.199671,-370.102971,-9039.926876,592.164754
4199.199996,1184.329507,-8886.707777,-148.041188
4199.200320,2368.659014,-8580.269578,-444.123565
4199.200645,2368.659014,-8350.440928,-222.061783
4199.200969,592.164754,-8503.660028,-370.102971
4199.201293,370.102971,-8503.660028,-1480.411884
4199.201618,-740.205942,-8963.317327,-370.102971
4199.201942,-962.267725,-9039.926876,-592.164754
4199.202267,-1850.514855,-8120.612279,-962.267725
4199.202591,-222.061783,-8963.317327,-740.205942
4199.202915,1258.350101,-7967.393179,-296.082377
4199.203240,1998.556043,-8580.269578,0.000000
4199.203564,888.247130,-9269.755526,-1184.329507
4199.203888,962.267725,-9499.584175,-666.185348
4199.204213,-1036.288319,-8197.221829,-1110.308913
4199.204537,-1480.411884,-9346.365076,-1036.288319
4199.204862,-2664.741391,-8120.612279,148.041188
4199.205186,-3552.988522,-8350.440928,74.020594
4199.205510,-1480.411884,-8427.050478,444.123565
4199.205835,-222.061783,-7967.393179,740.205942
4199.206159,2294.638420,-9193.145976,148.041188
4199.206484,3034.844362,-7814.174080,-1258.350101
4199.206808,3997.112087,-8810.098227,740.205942
4199.207132,1850.514855,-7201.297681,-1998.556043
4199.207457,2442.679609,-9806.022374,518.144159
4199.207781,1184.329507,-7967.393179,0.000000
4199.208105,0.000000,-10112.460574,666.185348
4199.208430,-962.267725,-7354.516781,-1850.514855
4199.208754,0.000000,-9729.412825,888.247130
4199.209079,0.000000,-6894.859482,-740.205942
4199.209403,1184.329507,-9269.755526,666.185348
4199.209727,222.061783,-7890.783629,-962.267725
4199.210052,592.164754,-8886.707777,148.041188
4199.210376,-222.061783,-7967.393179,-1258.350101
4199.210701,-518.144159,-9039.926876,74.020594
4199.211025,-592.164754,-7737.564530,0.000000
4199.211349,148.041188,-8733.488677,222.061783
4199.211674,222.061783,-8427.050478,74.020594
4199.211998,1258.350101,-8427.050478,74.020594
4199.212323,2072.576638,-8273.831378,148.041188
4199.212647,1628.453072,-8427.050478,-444.123565
4199.212971,2072.576638,-8273.831378,-592.164754
4199.213296,1850.514855,-8273.831378,-296.082377
4199.213620,370.102971,-8273.831378,-592.164754
4199.213944,-296.082377,-8427.050478,222.061783
4199.214269,-222.061783,-8350.440928,0.000000
4199.214593,814.226536,-8350.440928,-666.185348
4199.214918,2146.597232,-8810.098227,-962.267725
4199.215242,3034.844362,-8503.660028,-740.205942
4199.215566,2664.741391,-9193.145976,-888.247130
4199.215891,1258.350101,-8427.050478,-74.020594
4199.216215,-296.082377,-8656.879127,-444.123565
4199.216540,-666.185348,-8963.317327,-222.061783
4199.216864,-2368.659014,-8656.879127,-444.123565
4199.217188,-2812.782580,-8503.660028,-444.123565
4199.217513,-518.144159,-9039.926876,148.041188
4199.217837,1110.308913,-7507.735880,-296.082377
4199.218161,2072.576638,-9422.974625,222.061783
4199.218486,2368.659014,-7737.564530,-962.267725
4199.218810,2664.741391,-8503.660028,592.164754
4199.219135,2294.638420,-8886.707777,-1036.288319
4199.219459,1628.453072,-9499.584175,-1184.329507
4199.219783,-296.082377,-10955.165621,-370.102971
4199.220108,-2738.761985,-7737.564530,-222.061783
4199.220432,-1554.432478,-9193.145976,-2368.659014
4199.220757,-2590.720797,-11261.603821,0.000000
4199.221081,-2072.576638,-8197.221829,-962.267725
4199.221405,962.267725,-8273.831378,-148.041188
4199.221730,0.000000,-8503.660028,-1258.350101
4199.222054,814.226536,-8350.440928,-518.144159
4199.222378,666.185348,-8120.612279,-1258.350101
4199.222703,-1036.288319,-9499.584175,-592.164754
4199.223027,-666.185348,-7660.954980,0.000000
4199.223352,-1258.350101,-8810.098227,444.123565
4199.223676,-518.144159,-8656.879127,296.082377
4199.224000,1406.391290,-8656.879127,-222.061783
4199.224325,1850.514855,-8503.660028,-592.164754
4199.224649,1924.535449,-9422.974625,74.020594
4199.224974,1184.329507,-7967.393179,-666.185348
4199.225298,962.267725,-8273.831378,0.000000
4199.225622,148.041188,-7584.345430,148.041188
4199.225947,-444.123565,-8810.098227,-444.123565
4199.226271,-740.205942,-8044.002729,0.000000
4199.226596,-148.041188,-8580.269578,0.000000
4199.226920,1406.391290,-9193.145976,-888.247130
4199.227244,1628.453072,-8350.440928,-592.164754
4199.227569,1776.494261,-9116.536426,0.000000
4199.227893,518.144159,-8120.612279,-962.267725
4199.228217,-296.082377,-8810.098227,518.144159
4199.228542,-666.185348,-8273.831378,-148.041188
4199.228866,-1406.391290,-9039.926876,-518.144159
4199.229191,-1924.535449,-8197.221829,0.000000
4199.229515,-666.185348,-7967.393179,0.000000
4199.229839,296.082377,-7277.907231,740.205942
4199.230164,1850.514855,-8120.612279,962.267725
4199.230488,3478.967927,-8044.002729,222.061783
4199.230813,3627.009116,-8503.660028,0.000000
4199.231137,1702.473667,-7890.783629,-740.205942
4199.231461,2664.741391,-9039.926876,-740.205942
4199.231786,962.267725,-8580.269578,-296.082377
4199.232110,-444.123565,-9193.145976,-148.041188
4199.232434,-370.102971,-9039.926876,-888.247130
4199.232759,-1036.288319,-8503.660028,-444.123565
4199.233083,-740.205942,-8886.707777,1480.411884
4199.233408,740.205942,-7584.345430,-814.226536
4199.233732,2146.597232,-8886.707777,-1184.329507
4199.234056,814.226536,-8350.440928,-814.226536
4199.234381,1998.556043,-8580.269578,-1110.308913
4199.234705,1110.308913,-8044.002729,-518.144159
4199.235030,-148.041188,-8810.098227,-296.082377
4199.235354,-444.123565,-8810.098227,74.020594
4199.235678,-740.205942,-8656.879127,-370.102971
4199.236003,444.123565,-9116.536426,296.082377
4199.236327,2664.741391,-8656.879127,0.000000
4199.236651,2516.700203,-8810.098227,-592.164754
4199.236976,2812.782580,-9193.145976,-1554.432478
4199.237300,1406.391290,-8120.612279,-1332.370696
4199.237625,74.020594,-9422.974625,-814.226536
4199.237949,-962.267725,-9039.926876,-1036.288319
4199.238273,-1776.494261,-8733.488677,-370.102971
4199.238598,-1554.432478,-9039.926876,-444.123565
4199.238922,-444.123565,-9652.803275,-962.267725
4199.239247,666.185348,-9422.974625,-1406.391290
4199.239571,444.123565,-9346.365076,-666.185348
4199.239895,740.205942,-9193.145976,-740.205942
4199.240220,444.123565,-9499.584175,-666.185348
4199.240544,0.000000,-8656.879127,-1110.308913
4199.240868,-1406.391290,-8503.660028,-444.123565
4199.241193,-2220.617826,-8197.221829,-592.164754
4199.241517,-1110.308913,-9116.536426,370.102971
4199.241842,-296.082377,-7584.345430,-148.041188
4199.242166,1924.535449,-8656.879127,370.102971
4199.242490,2294.638420,-8120.612279,0.000000
4199.242815,4959.379811,-8273.831378,0.000000
4199.243139,4367.215058,-8963.317327,-1036.288319
4199.243464,814.226536,-8503.660028,-814.226536
4199.243788,666.185348,-9422.974625,2072.576638
4199.244112,-1480.411884,-7354.516781,-1406.391290
4199.244437,888.247130,-9269.755526,888.247130
4199.244761,-1332.370696,-8044.002729,-814.226536
4199.245086,222.061783,-9039.926876,1110.308913
4199.245410,-222.061783,-7201.297681,-518.144159
4199.245734,1628.453072,-9422.974625,1258.350101
4199.246059,370.102971,-7354.516781,-1406.391290
4199.246383,74.020594,-9116.536426,-592.164754
4199.246707,-1480.411884,-8427.050478,370.102971
4199.247032,-1406.391290,-7814.174080,370.102971
4199.247356,-2072.576638,-8503.660028,1110.308913
4199.247681,592.164754,-8886.707777,518.144159
4199.248005,518.144159,-7201.297681,-222.061783
4199.248329,2960.823768,-8656.879127,1110.308913
4199.248654,2368.659014,-7201.297681,-222.061783
4199.248978,3108.864956,-9193.145976,1406.391290
4199.249303,1480.411884,-7814.174080,-1110.308913
4199.249627,1554.432478,-9346.365076,148.041188
4199.249951,74.020594,-7660.954980,-222.061783
4199.250276,-1110.308913,-9039.926876,0.000000
4199.250600,-1036.288319,-8350.440928,-296.082377
4199.250924,-1258.350101,-7967.393179,0.000000
4199.251249,-370.102971,-8733.488677,-518.144159
4199.251573,1850.514855,-8044.002729,-592.164754
4199.251898,1850.514855,-8810.098227,-296.082377
4199.252222,1406.391290,-8810.098227,-888.247130
4199.252546,1480.411884,-8350.440928,-962.267725
4199.252871,0.000000,-8197.221829,-518.144159
4199.253195,666.185348,-8273.831378,-518.144159
4199.253520,0.000000,-8733.488677,0.000000
4199.253844,0.000000,-8810.098227,666.185348
4199.254168,1480.411884,-7967.393179,0.000000
4199.254493,1850.514855,-9193.145976,0.000000
4199.254817,2664.741391,-8580.269578,-666.185348
4199.255141,1480.411884,-8810.098227,-1110.308913
4199.255466,1480.411884,-9116.536426,-1406.391290
4199.255790,-148.041188,-8503.660028,-814.226536
4199.256115,-444.123565,-9806.022374,-148.041188
4199.256439,-1554.432478,-8963.317327,-1258.350101
4199.256763,-814.226536,-9039.926876,-962.267725
4199.257088,370.102971,-8580.269578,-1480.411884
4199.257412,1406.391290,-9729.412825,-370.102971
4199.257737,1628.453072,-9039.926876,-1184.329507
4199.258061,888.247130,-9652.803275,-1184.329507
4199.258385,-592.164754,-9269.755526,-1110.308913
4199.258710,-740.205942,-8580.269578,-1258.350101
4199.259034,-2072.576638,-8427.050478,-148.041188
4199.259359,-1702.473667,-8427.050478,148.041188
4199.259683,-1332.370696,-8427.050478,0.000000
4199.260007,518.144159,-8503.660028,0.000000
4199.260332,1850.514855,-8886.707777,148.041188
4199.260656,2220.617826,-8197.221829,-666.185348
4199.260980,2812.782580,-8886.707777,0.000000
4199.261305,1850.514855,-8886.707777,-1258.350101
4199.261629,1480.411884,-8963.317327,-888.247130
4199.261954,0.000000,-8886.707777,-666.185348
4199.262278,-1110.308913,-8963.317327,0.000000
4199.262602,-888.247130,-9193.145976,0.000000
4199.262927,-1258.350101,-7660.954980,-666.185348
4199.263251,-518.144159,-8963.317327,962.267725
4199.263576,444.123565,-7737.564530,-444.123565
4199.263900,1110.308913,-9269.755526,0.000000
4199.264224,444.123565,-7967.393179,-814.226536
4199.264549,1554.432478,-8733.488677,0.000000
4199.264873,-814.226536,-7584.345430,-592.164754
4199.265197,-962.267725,-8580.269578,0.000000
4199.265522,-962.267725,-8044.002729,222.061783
4199.265846,-814.226536,-9116.536426,1406.391290
4199.266171,1110.308913,-8273.831378,222.061783
4199.266495,2072.576638,-8427.050478,814.226536
4199.266819,1406.391290,-8120.612279,592.164754
4199.267144,1332.370696,-8197.221829,0.000000
4199.267468,1184.329507,-7814.174080,-1036.288319
4199.267793,814.226536,-9039.926876,444.123565
4199.268117,-888.247130,-7967.393179,-666.185348
4199.268441,-1036.288319,-8733.488677,-148.041188
4199.268766,-518.144159,-8427.050478,-592.164754
4199.269090,-592.164754,-8427.050478,-222.061783
4199.269414,1184.329507,-8580.269578,-148.041188
4199.269739,1628.453072,-8197.221829,148.041188
4199.270063,1406.391290,-9039.926876,0.000000
4199.270388,1332.370696,-8197.221829,-370.102971
4199.270712,1110.308913,-8197.221829,-148.041188
4199.271036,-296.082377,-8044.002729,-592.164754
4199.271361,-962.267725,-8656.879127,0.000000
4199.271685,-666.185348,-8197.221829,222.061783
4199.272010,-1036.288319,-8427.050478,-444.123565
4199.272334,1110.308913,-8580.269578,74.020594
4199.272658,2368.659014,-8350.440928,0.000000
4199.272983,2146.597232,-9346.365076,-444.123565
4199.273307,2146.597232,-9116.536426,-962.267725
4199.273632,2516.700203,-8733.488677,-740.205942
4199.273956,444.123565,-8733.488677,-1702.473667
4199.274280,-666.185348,-9806.022374,-148.041188
4199.274605,-1184.329507,-8810.098227,-814.226536
4199.274929,-592.164754,-8273.831378,296.082377
4199.275253,296.082377,-8120.612279,-296.082377
4199.275578,1184.329507,-8810.098227,-1332.370696
4199.275902,1036.288319,-8963.317327,-740.205942
4199.276227,1036.288319,-8580.269578,-1480.411884
4199.276551,1036.288319,-9882.631924,-962.267725
4199.276875,-962.267725,-8503.660028,-962.267725
4199.277200,-814.226536,-8886.707777,296.082377
4199.277524,-1998.556043,-7737.564530,-666.185348
4199.277849,592.164754,-9346.365076,370.102971
4199.278173,0.000000,-6511.811733,-888.247130
4199.278497,2960.823768,-9269.755526,1036.288319
4199.278822,2738.761985,-8273.831378,-1554.432478
4199.279146,814.226536,-8886.707777,-148.041188
4199.279470,1850.514855,-9193.145976,-740.205942
4199.279795,1036.288319,-8350.440928,-962.267725
4199.280119,-518.144159,-9269.755526,-592.164754
4199.280444,-962.267725,-9422.974625,-592.164754
4199.280768,-1702.473667,-8886.707777,-740.205942
4199.281092,-2220.617826,-8580.269578,-518.144159
4199.281417,148.041188,-8427.050478,-444.123565
4199.281741,1850.514855,-8197.221829,296.082377
4199.282066,1406.391290,-8503.660028,-666.185348
4199.282390,1554.432478,-8963.317327,-592.164754
4199.282715,666.185348,-7660.954980,-962.267725
4199.283039,-222.061783,-9193.145976,-370.102971
4199.283364,-1110.308913,-8273.831378,0.000000
4199.283688,-518.144159,-9116.536426,296.082377
4199.284012,-2072.576638,-8580.269578,296.082377
4199.284337,296.082377,-8810.098227,814.226536
4199.284661,1924.535449,-7814.174080,148.041188
4199.284986,1258.350101,-9346.365076,-370.102971
4199.285310,1924.535449,-7967.393179,0.000000
4199.285635,1776.494261,-8580.269578,518.144159
4199.285959,1184.329507,-8273.831378,0.000000
4199.286284,370.102971,-8350.440928,0.000000
4199.286608,0.000000,-8733.488677,74.020594
4199.286933,0.000000,-8427.050478,518.144159
4199.287257,370.102971,-7967.393179,-814.226536
4199.287582,1406.391290,-8963.317327,0.000000
4199.287906,1036.288319,-8273.831378,0.000000
4199.288231,1332.370696,-9116.536426,0.000000
4199.288555,592.164754,-8503.660028,-666.185348
4199.288880,-148.041188,-7890.783629,0.000000
4199.289204,-962.267725,-8503.660028,370.102971
4199.289528,-1480.411884,-8197.221829,-592.164754
4199.289853,-74.020594,-8886.707777,1332.370696
4199.290177,1184.329507,-7048.078582,-592.164754
4199.290502,1332.370696,-9652.803275,1554.432478
4199.290826,3034.844362,-7737.564530,-1406.391290
4199.291151,3478.967927,-9882.631924,888.247130
4199.291475,2368.659014,-8503.660028,-1480.411884
4199.291800,2146.597232,-8580.269578,-1036.288319
4199.292124,296.082377,-8963.317327,-592.164754
4199.292449,-1184.329507,-8886.707777,-222.061783
4199.292773,-2294.638420,-8656.879127,-666.185348
4199.293098,-962.267725,-8120.612279,-814.226536
4199.293422,444.123565,-8656.879127,-518.144159
4199.293747,1184.329507,-8273.831378,-814.226536
4199.294071,1110.308913,-9422.974625,0.000000
4199.294396,888.247130,-8044.002729,-1554.432478
4199.294720,1258.350101,-9039.926876,-1258.350101
4199.295044,296.082377,-9116.536426,-1628.453072
4199.295369,74.020594,-9499.584175,-740.205942
4199.295693,-2072.576638,-7507.735880,0.000000
4199.296018,-1850.514855,-9193.145976,370.102971
4199.296342,-296.082377,-8963.317327,-1110.308913
4199.296667,1406.391290,-8963.317327,0.000000
4199.296991,1776.494261,-7814.174080,-888.247130
4199.297316,2368.659014,-9193.145976,-518.144159
4199.297640,1554.432478,-8580.269578,-1036.288319
4199.297965,296.082377,-8886.707777,-962.267725
4199.298289,666.185348,-9652.803275,0.000000
4199.298614,-1554.432478,-8810.098227,-592.164754
4199.298938,-666.185348,-9499.584175,-1036.288319
4199.299263,296.082377,-8503.660028,-740.205942
4199.299587,-222.061783,-9269.755526,-148.041188
4199.299912,962.267725,-7890.783629,-962.267725
4199.300236,1110.308913,-8963.317327,0.000000
4199.300560,740.205942,-8580.269578,-666.185348
4199.300885,518.144159,-9116.536426,-444.123565
4199.301209,-1628.453072,-7660.954980,-370.102971
4199.301534,-1406.391290,-9116.536426,888.247130
4199.301858,-1776.494261,-7431.126331,-592.164754
4199.302183,592.164754,-9039.926876,888.247130
4199.302507,1628.453072,-7431.126331,518.144159
4199.302832,2738.761985,-8886.707777,592.164754
4199.303156,2072.576638,-8503.660028,-1036.288319
4199.303481,1924.535449,-8503.660028,0.000000
4199.303805,1628.453072,-8197.221829,-222.061783
4199.304130,814.226536,-8580.269578,-740.205942
4199.304454,-592.164754,-8810.098227,74.020594
4199.304779,-1332.370696,-8350.440928,-148.041188
4199.305103,-1110.308913,-8273.831378,-148.041188
4199.305428,-444.123565,-8580.269578,74.020594
4199.305752,1406.391290,-8810.098227,0.000000
4199.306076,1406.391290,-7967.393179,-222.061783
4199.306401,1480.411884,-8197.221829,-666.185348
4199.306725,1184.329507,-9039.926876,-296.082377
4199.307050,1258.350101,-7890.783629,0.000000
4199.307374,-666.185348,-8656.879127,0.000000
4199.307699,-1332.370696,-8427.050478,148.041188
4199.308023,-518.144159,-8350.440928,518.144159
4199.308348,0.000000,-8044.002729,518.144159
4199.308672,1850.514855,-8197.221829,74.020594
4199.308997,2294.638420,-8810.098227,370.102971
4199.309321,2590.720797,-8580.269578,-666.185348
4199.309646,814.226536,-8273.831378,222.061783
4199.309970,1850.514855,-8273.831378,-592.164754
4199.310295,444.123565,-8963.317327,-296.082377
4199.310619,-518.144159,-8656.879127,-666.185348
4199.310944,-1036.288319,-8886.707777,-370.102971
4199.311268,518.144159,-8273.831378,-1480.411884
4199.311592,1554.432478,-9729.412825,74.020594
4199.311917,1554.432478,-7814.174080,-740.205942
4199.312241,518.144159,-9422.974625,-296.082377
4199.312566,-296.082377,-8503.660028,-1702.473667
4199.312890,-370.102971,-9652.803275,-962.267725
4199.313215,-444.123565,-8580.269578,-592.164754
4199.313539,-1924.535449,-8580.269578,-740.205942
4199.313864,-2442.679609,-8044.002729,0.000000
4199.314188,-1258.350101,-8427.050478,74.020594
4199.314513,518.144159,-8810.098227,-666.185348
4199.314837,2146.597232,-9269.755526,0.000000
4199.315162,2442.679609,-8197.221829,-444.123565
4199.315486,1924.535449,-9269.755526,-370.102971
4199.315811,1110.308913,-7660.954980,-1850.514855
4199.316135,962.267725,-9652.803275,0.000000
4199.316460,-592.164754,-8656.879127,-444.123565
4199.316784,-1258.350101,-8963.317327,-1480.411884
4199.317108,-1110.308913,-8886.707777,-814.226536
4199.317433,-2146.597232,-8656.879127,-666.185348
4199.317757,962.267725,-9269.755526,-1184.329507
4199.318082,2220.617826,-9652.803275,-296.082377
4199.318406,444.123565,-7507.735880,0.000000
4199.318731,2442.679609,-8120.612279,-1554.432478
4199.319055,222.061783,-9652.803275,-444.123565
4199.319380,-666.185348,-8580.269578,-888.247130
4199.319704,-518.144159,-8044.002729,-222.061783
4199.320029,-1702.473667,-8963.317327,666.185348
4199.320353,-296.082377,-7584.345430,222.061783
4199.320678,1184.329507,-8120.612279,962.267725
4199.321002,2960.823768,-7967.393179,-148.041188
4199.321327,2294.638420,-8656.879127,-148.041188
4199.321651,2368.659014,-7737.564530,-296.082377
4199.321976,1850.514855,-8580.269578,444.123565
4199.322300,1924.535449,-8273.831378,-518.144159
4199.322625,74.020594,-9039.926876,0.000000
4199.322949,-814.226536,-8810.098227,-296.082377
4199.323273,-518.144159,-8580.269578,0.000000
4199.323598,740.205942,-8503.660028,0.000000
4199.323922,1554.432478,-8503.660028,0.000000
4199.324247,1184.329507,-8810.098227,0.000000
4199.324571,296.082377,-7890.783629,-296.082377
4199.324896,0.000000,-8963.317327,-296.082377
4199.325220,814.226536,-8656.879127,74.020594
4199.325545,-1406.391290,-8273.831378,518.144159
4199.325869,-2442.679609,-7967.393179,74.020594
4199.326194,-592.164754,-7660.954980,-518.144159
4199.326518,2368.659014,-8733.488677,1036.288319
4199.326843,2960.823768,-7967.393179,-370.102971
4199.327167,2886.803174,-8350.440928,518.144159
4199.327492,3478.967927,-8273.831378,-370.102971
4199.327816,2368.659014,-7660.954980,-518.144159
4199.328141,2442.679609,-9422.974625,-962.267725
4199.328465,370.102971,-7814.174080,-740.205942
4199.328789,-962.267725,-9193.145976,74.020594
4199.329114,-2220.617826,-8197.221829,-666.185348
4199.329438,-814.226536,-9882.631924,296.082377
4199.329763,592.164754,-7737.564530,-1554.432478
4199.330087,1406.391290,-10035.851024,0.000000
4199.330412,1702.473667,-7507.735880,-1554.432478
4199.330736,1406.391290,-8810.098227,-518.144159
4199.331061,814.226536,-8963.317327,-1332.370696
4199.331385,-962.267725,-9193.145976,-592.164754
4199.331710,-1332.370696,-8886.707777,222.061783
4199.332034,-1776.494261,-8963.317327,518.144159
4199.332359,-962.267725,-9193.145976,-222.061783
4199.332683,666.185348,-8273.831378,-666.185348
4199.333008,1998.556043,-9193.145976,-296.082377
4199.333332,1184.329507,-7890.783629,-1036.288319
4199.333657,2664.741391,-9576.193725,74.020594
4199.333981,1702.473667,-7967.393179,-888.247130
4199.334305,222.061783,-9346.365076,0.000000
4199.334630,-962.267725,-8580.269578,-814.226536
4199.334954,-592.164754,-9422.974625,-814.226536
4199.335279,-1184.329507,-8580.269578,-740.205942
4199.335603,-1036.288319,-9729.412825,-962.267725
4199.335928,-296.082377,-8810.098227,0.000000
4199.336252,1036.288319,-9039.926876,-296.082377
4199.336577,2072.576638,-8350.440928,148.041188
4199.336901,-1184.329507,-8580.269578,-962.267725
4199.337226,296.082377,-7890.783629,-1110.308913
4199.337550,-1628.453072,-8350.440928,-148.041188
4199.337875,-1184.329507,-7814.174080,444.123565
4199.338199,222.061783,-8580.269578,740.205942
4199.338524,444.123565,-7890.783629,-814.226536
4199.338848,1406.391290,-8963.317327,1036.288319
4199.339173,3478.967927,-7814.174080,-370.102971
4199.339497,1924.535449,-9269.755526,0.000000
4199.339821,1554.432478,-8044.002729,-296.082377
4199.340146,1184.329507,-8350.440928,-666.185348
4199.340470,-518.144159,-8580.269578,-518.144159
4199.340795,-444.123565,-8427.050478,0.000000
4199.341119,-370.102971,-8656.879127,222.061783
4199.341444,-814.226536,-8273.831378,-740.205942
4199.341768,370.102971,-8656.879127,-370.102971
4199.342093,1110.308913,-8350.440928,-148.041188
4199.342417,1036.288319,-8427.050478,-740.205942
4199.342742,1110.308913,-8656.879127,-370.102971
4199.343066,1184.329507,-8427.050478,0.000000
4199.343391,222.061783,-8273.831378,-444.123565
4199.343715,-296.082377,-8886.707777,0.000000
4199.344040,296.082377,-8427.050478,74.020594
4199.344364,-1036.288319,-7890.783629,148.041188
4199.344689,888.247130,-8656.879127,592.164754
4199.345013,2146.597232,-8044.002729,222.061783
4199.345337,2886.803174,-8503.660028,0.000000
4199.345662,2812.782580,-8120.612279,-962.267725
4199.345986,2442.679609,-8886.707777,0.000000
4199.346311,1702.473667,-8197.221829,-740.205942
4199.346635,148.041188,-8810.098227,-296.082377
4199.346960,-740.205942,-9269.755526,-370.102971
4199.347284,-1480.411884,-8810.098227,-518.144159
4199.347609,296.082377,-9039.926876,-148.041188
4199.347933,1406.391290,-8044.002729,-370.102971
4199.348258,1924.535449,-9806.022374,-444.123565
4199.348582,1406.391290,-8580.269578,-1110.308913
4199.348907,1628.453072,-8044.002729,-1184.329507
4199.349231,-740.205942,-8044.002729,-296.082377
4199.349556,-1628.453072,-7737.564530,444.123565
4199.349880,518.144159,-9729.412825,-222.061783
4199.350205,-740.205942,-9193.145976,0.000000
4199.350529,0.000000,-8427.050478,-222.061783
4199.350853,2294.638420,-7660.954980,-666.185348
4199.351178,2664.741391,-9193.145976,-296.082377
4199.351502,2516.700203,-8963.317327,-444.123565
4199.351827,1332.370696,-8273.831378,-1258.350101
4199.352151,370.102971,-9116.536426,-444.123565
4199.352476,0.000000,-9116.536426,-1480.411884
4199.352800,-592.164754,-9806.022374,0.000000
4199.353125,-2368.659014,-8886.707777,-1776.494261
4199.353449,-1850.514855,-8350.440928,222.061783
4199.353774,-444.123565,-8810.098227,-1110.308913
4199.354098,666.185348,-8810.098227,-592.164754
4199.354423,222.061783,-8350.440928,-592.164754
4199.354747,1480.411884,-8503.660028,-370.102971
4199.355072,1036.288319,-9116.536426,-1480.411884
4199.355396,666.185348,-8580.269578,-148.041188
4199.355721,-592.164754,-8120.612279,-518.144159
4199.356045,-1776.494261,-9116.536426,0.000000
4199.356369,-1406.391290,-8120.612279,0.000000
4199.356694,-296.082377,-8427.050478,1036.288319
4199.357018,518.144159,-7967.393179,370.102971
4199.357343,1184.329507,-8197.221829,296.082377
4199.357667,2442.679609,-8886.707777,740.205942
4199.357992,1332.370696,-7737.564530,0.000000
4199.358316,1998.556043,-8580.269578,-296.082377
4199.358641,0.000000,-8044.002729,-740.205942
4199.358965,-740.205942,-8963.317327,370.102971
4199.359290,-296.082377,-8197.221829,296.082377
4199.359614,-296.082377,-9116.536426,74.020594
4199.359939,370.102971,-8810.098227,-222.061783
4199.360263,814.226536,-8503.660028,296.082377
4199.360588,962.267725,-8733.488677,-592.164754
4199.360912,666.185348,-9422.974625,0.000000
4199.361237,0.000000,-7967.393179,-666.185348
4199.361561,-444.123565,-8120.612279,444.123565
4199.361885,-814.226536,-7507.735880,0.000000
4199.362210,740.205942,-8810.098227,666.185348
4199.362534,0.000000,-7660.954980,0.000000
4199.362859,1850.514855,-8503.660028,222.061783
4199.363183,2368.659014,-8886.707777,-740.205942
4199.363508,1924.535449,-8427.050478,222.061783
4199.363832,2886.803174,-7737.564530,-444.123565
4199.364157,1776.494261,-8350.440928,-296.082377
4199.364481,1110.308913,-9269.755526,-666.185348
4199.364806,-370.102971,-8197.221829,-1332.370696
4199.365130,-2442.679609,-9422.974625,-296.082377
4199.365455,-1332.370696,-8197.221829,-444.123565
4199.365779,370.102971,-8044.002729,74.020594
4199.366104,1332.370696,-7814.174080,-666.185348
4199.366428,1776.494261,-8580.269578,-888.247130
4199.366753,2368.659014,-8580.269578,-1036.288319
4199.367077,1332.370696,-9116.536426,-814.226536
4199.367401,1480.411884,-8656.879127,-518.144159
4199.367726,888.247130,-8503.660028,-296.082377
4199.368050,-296.082377,-8273.831378,-148.041188
4199.368375,296.082377,-9039.926876,-296.082377
4199.368699,296.082377,-8580.269578,-814.226536
4199.369024,740.205942,-8580.269578,148.041188
4199.369348,1480.411884,-8273.831378,-222.061783
4199.369673,888.247130,-9346.365076,-740.205942
4199.369997,1776.494261,-9116.536426,-1036.288319
4199.370322,666.185348,-8197.221829,-740.205942
4199.370646,0.000000,-9116.536426,-814.226536
4199.370971,592.164754,-8503.660028,-1184.329507
4199.371295,-1110.308913,-9422.974625,-740.205942
4199.371620,222.061783,-9422.974625,-1406.391290
4199.371944,1406.391290,-9959.241474,-1480.411884
4199.372269,0.000000,-9116.536426,0.000000
4199.372593,74.020594,-8503.660028,-444.123565
4199.372917,444.123565,-8580.269578,-1036.288319
4199.373242,0.000000,-9652.803275,-1258.350101
4199.373566,-1332.370696,-8197.221829,-740.205942
4199.373891,-1480.411884,-9346.365076,0.000000
4199.374215,-2146.597232,-8197.221829,222.061783
4199.374540,-1258.350101,-8580.269578,444.123565
4199.374864,962.267725,-7890.783629,0.000000
4199.375189,2442.679609,-8963.317327,-222.061783
4199.375513,2812.782580,-7431.126331,-444.123565
4199.375838,3478.967927,-8580.269578,-222.061783
4199.376162,2220.617826,-8886.707777,-296.082377
4199.376487,1480.411884,-9116.536426,0.000000
4199.376811,-1702.473667,-8350.440928,-666.185348
4199.377136,-2812.782580,-8810.098227,0.000000
4199.377460,-1702.473667,-8886.707777,0.000000
4199.377785,-296.082377,-8350.440928,0.000000
4199.378109,148.041188,-8503.660028,-444.123565
4199.378433,222.061783,-8733.488677,-296.082377
4199.378758,1184.329507,-8580.269578,222.061783
4199.379082,296.082377,-7890.783629,-518.144159
4199.379407,1702.473667,-9576.193725,0.000000
4199.379731,-296.082377,-8044.002729,222.061783
4199.380056,-740.205942,-8580.269578,666.185348
4199.380380,-1702.473667,-8810.098227,888.247130
4199.380705,-518.144159,-9116.536426,592.164754
4199.381029,222.061783,-8427.050478,222.061783
4199.381354,2368.659014,-8810.098227,592.164754
4199.381678,2738.761985,-8120.612279,-518.144159
4199.382003,2072.576638,-8120.612279,-666.185348
4199.382327,1850.514855,-7890.783629,592.164754
4199.382652,1332.370696,-7431.126331,-222.061783
4199.382976,370.102971,-8733.488677,0.000000
4199.383301,0.000000,-7967.393179,74.020594
4199.383625,222.061783,-8656.879127,-370.102971
4199.383949,592.164754,-8963.317327,-1258.350101
4199.384274,740.205942,-9039.926876,-370.102971
4199.384598,1258.350101,-8044.002729,0.000000
4199.384923,888.247130,-8273.831378,-222.061783
4199.385247,666.185348,-9039.926876,-666.185348
4199.385572,-296.082377,-9193.145976,-592.164754
4199.385896,-666.185348,-8580.269578,-666.185348
4199.386221,-1924.535449,-8503.660028,-222.061783
4199.386545,222.061783,-8580.269578,-666.185348
4199.386869,1554.432478,-7967.393179,0.000000
4199.387194,666.185348,-8350.440928,-666.185348
4199.387518,2442.679609,-9806.022374,-592.164754
4199.387842,2516.700203,-8656.879127,-1258.350101
4199.388167,2516.700203,-9346.365076,-148.041188
4199.388491,1406.391290,-8273.831378,-1628.453072
4199.388815,-814.226536,-8886.707777,-740.205942
4199.389140,-1480.411884,-8963.317327,-888.247130
4199.389464,-962.267725,-8580.269578,-1554.432478
4199.389789,1480.411884,-8810.098227,-148.041188
4199.390113,-962.267725,-9116.536426,-1628.453072
4199.390437,74.020594,-8273.831378,-1110.308913
4199.390762,222.061783,-8963.317327,-370.102971
4199.391086,1332.370696,-8427.050478,-1628.453072
4199.391410,1850.514855,-8580.269578,0.000000
4199.391735,-296.082377,-8427.050478,-1110.308913
4199.392059,-814.226536,-9499.584175,296.082377
4199.392383,-222.061783,-8886.707777,-1258.350101
4199.392708,-222.061783,-10342.289223,370.102971
4199.393032,666.185348,-8044.002729,-296.082377
4199.393357,1406.391290,-9346.365076,-148.041188
4199.393681,444.123565,-8350.440928,-370.102971
4199.394005,1628.453072,-7967.393179,-740.205942
4199.394330,1036.288319,-8350.440928,-222.061783
4199.394654,0.000000,-8273.831378,222.061783
4199.394978,0.000000,-9039.926876,-222.061783
4199.395303,-1480.411884,-8886.707777,-148.041188
4199.395627,-1184.329507,-9039.926876,0.000000
4199.395951,444.123565,-8963.317327,0.000000
4199.396276,1554.432478,-8580.269578,-222.061783
4199.396600,1036.288319,-8197.221829,370.102971
4199.396925,888.247130,-7814.174080,-222.061783
4199.397249,888.247130,-9269.755526,0.000000
4199.397573,0.000000,-8886.707777,-296.082377
4199.397898,-518.144159,-8120.612279,370.102971
4199.398222,-2072.576638,-8503.660028,740.205942
4199.398546,-740.205942,-8120.612279,592.164754
4199.398871,1258.350101,-8580.269578,1110.308913
4199.399195,1258.350101,-7660.954980,296.082377
4199.399520,2368.659014,-8580.269578,-148.041188
4199.399844,1628.453072,-8733.488677,518.144159
4199.400168,962.267725,-8503.660028,962.267725
4199.400493,1554.432478,-6588.421283,-1628.453072
4199.400817,74.020594,-9269.755526,74.020594
4199.401141,-370.102971,-7814.174080,148.041188
4199.401466,-1480.411884,-8810.098227,-444.123565
4199.401790,-1406.391290,-8810.098227,0.000000
4199.402114,-148.041188,-8120.612279,0.000000
4199.402439,2072.576638,-8656.879127,296.082377
4199.402763,1998.556043,-8503.660028,-962.267725
4199.403088,2886.803174,-8503.660028,370.102971
4199.403412,1406.391290,-7431.126331,-1776.494261
4199.403736,296.082377,-9039.926876,0.000000
4199.404061,-666.185348,-8044.002729,0.000000
4199.404385,-370.102971,-8963.317327,444.123565
4199.404709,444.123565,-8810.098227,-370.102971
4199.405034,888.247130,-8350.440928,148.041188
4199.405358,666.185348,-8656.879127,-740.205942
4199.405682,1702.473667,-8350.440928,-814.226536
4199.406007,814.226536,-8810.098227,-814.226536
4199.406331,444.123565,-8810.098227,-1110.308913
4199.406656,1554.432478,-9193.145976,-740.205942
4199.406980,148.041188,-8733.488677,-740.205942
4199.407304,-1628.453072,-9422.974625,-370.102971
4199.407629,-2294.638420,-8503.660028,-1850.514855
4199.407953,-962.267725,-9652.803275,-1184.329507
4199.408277,1184.329507,-9116.536426,-888.247130
4199.408602,1332.370696,-8886.707777,-592.164754
4199.408926,740.205942,-9576.193725,-814.226536
4199.409250,666.185348,-9116.536426,-962.267725
4199.409575,148.041188,-9116.536426,-1628.453072
4199.409899,-370.102971,-9882.631924,-1258.350101
4199.410224,-1554.432478,-8273.831378,-296.082377
4199.410548,-2294.638420,-8273.831378,0.000000
4199.410872,-814.226536,-8733.488677,370.102971
4199.411197,1110.308913,-7737.564530,-444.123565
4199.411521,2738.761985,-8886.707777,148.041188
4199.411845,3034.844362,-8503.660028,-518.144159
4199.412170,962.267725,-8656.879127,-1184.329507
4199.412494,2072.576638,-8427.050478,-740.205942
4199.412818,296.082377,-8197.221829,-444.123565
4199.413143,-888.247130,-9116.536426,-666.185348
4199.413467,-1924.535449,-8273.831378,-962.267725
4199.413792,-740.205942,-8656.879127,148.041188
4199.414116,0.000000,-9039.926876,-666.185348
4199.414440,592.164754,-7660.954980,0.000000
4199.414765,1924.535449,-8197.221829,666.185348
4199.415089,1776.494261,-8350.440928,-1258.350101
4199.415413,1332.370696,-8963.317327,-740.205942
4199.415738,666.185348,-7201.297681,0.000000
4199.416062,-444.123565,-8886.707777,592.164754
4199.416386,-1850.514855,-7507.735880,-444.123565
4199.416711,-740.205942,-9269.755526,666.185348
4199.417035,444.123565,-7507.735880,518.144159
4199.417360,888.247130,-8503.660028,1258.350101
4199.417684,1924.535449,-7431.126331,0.000000
4199.418008,2516.700203,-8350.440928,296.082377
4199.418333,1850.514855,-7737.564530,-888.247130
4199.418657,2368.659014,-8886.707777,740.205942
4199.418981,740.205942,-7890.783629,-888.247130
4199.419306,-814.226536,-9499.584175,518.144159
4199.419630,0.000000,-8580.269578,-740.205942
4199.419954,0.000000,-9269.755526,0.000000
4199.420279,592.164754,-8503.660028,-444.123565
4199.420603,1998.556043,-8886.707777,148.041188
4199.420928,814.226536,-7660.954980,-592.164754
4199.421252,1998.556043,-10035.851024,222.061783
4199.421576,222.061783,-8427.050478,-1332.370696
4199.421901,-296.082377,-9269.755526,0.000000
4199.422225,-1332.370696,-8273.831378,-296.082377
4199.422549,-1554.432478,-8503.660028,518.144159
4199.422874,222.061783,-8427.050478,0.000000
4199.423198,1184.329507,-8120.612279,0.000000
4199.423522,2442.679609,-8427.050478,-296.082377
4199.423847,2664.741391,-8197.221829,-888.247130
4199.424171,2812.782580,-8427.050478,518.144159
4199.424496,1480.411884,-7660.954980,-1258.350101
4199.424820,370.102971,-9806.022374,-888.247130
4199.425144,-888.247130,-8810.098227,-888.247130
4199.425469,-1258.350101,-9116.536426,-814.226536
4199.425793,-2442.679609,-8963.317327,-1332.370696
4199.426117,-1036.288319,-9806.022374,0.000000
4199.426442,666.185348,-8427.050478,-1332.370696
4199.426766,1184.329507,-8197.221829,-666.185348
4199.427090,1628.453072,-8197.221829,-1184.329507
4199.427415,1036.288319,-8427.050478,-1036.288319
4199.427739,1184.329507,-9039.926876,-740.205942
4199.428064,370.102971,-8886.707777,-962.267725
4199.428388,-1924.535449,-8810.098227,-370.102971
4199.428712,-1998.556043,-8427.050478,-74.020594
4199.429037,-1480.411884,-9193.145976,-444.123565
4199.429361,0.000000,-8580.269578,74.020594
4199.429685,1480.411884,-8580.269578,370.102971
4199.430010,518.144159,-8656.879127,-148.041188
4199.430334,814.226536,-8427.050478,-1036.288319
4199.430658,1406.391290,-8197.221829,-888.247130
4199.430983,1110.308913,-8656.879127,-444.123565
4199.431307,888.247130,-9576.193725,-740.205942
4199.431632,-296.082377,-8580.269578,-370.102971
4199.431956,-962.267725,-8273.831378,-592.164754
4199.432280,370.102971,-9193.145976,592.164754
4199.432605,518.144159,-8197.221829,-296.082377
4199.432929,1110.308913,-9576.193725,444.123565
4199.433253,444.123565,-8120.612279,-370.102971
4199.433578,962.267725,-9346.365076,0.000000
4199.433902,592.164754,-7660.954980,-1110.308913
4199.434226,-1480.411884,-8273.831378,888.247130
4199.434551,-962.267725,-7890.783629,814.226536
4199.434875,-1332.370696,-8810.098227,888.247130
4199.435200,74.020594,-8120.612279,444.123565
4199.435524,1332.370696,-7660.954980,0.000000
4199.435848,1480.411884,-7737.564530,-444.123565
4199.436173,2442.679609,-8733.488677,0.000000
4199.436497,1776.494261,-7507.735880,-148.041188
4199.436821,1406.391290,-8580.269578,0.000000
4199.437146,0.000000,-7890.783629,-666.185348
4199.437470,0.000000,-9193.145976,222.061783
4199.437794,-296.082377,-7584.345430,-148.041188
4199.438119,962.267725,-8733.488677,-296.082377
4199.438443,1332.370696,-7737.564530,-962.267725
4199.438768,3256.906145,-9806.022374,592.164754
4199.439092,2368.659014,-6741.640382,-1998.556043
4199.439416,1924.535449,-10878.556072,1036.288319
4199.439741,148.041188,-7431.126331,-1776.494261
4199.440065,-1258.350101,-9959.241474,0.000000
4199.440389,-1628.453072,-8810.098227,-222.061783
4199.440714,-888.247130,-9116.536426,74.020594
4199.441038,-222.061783,-8120.612279,-888.247130
4199.441362,1480.411884,-8427.050478,888.247130
4199.441687,2590.720797,-8197.221829,74.020594
4199.442011,2294.638420,-8733.488677,0.000000
4199.442336,3627.009116,-8503.660028,-962.267725
4199.442660,2812.782580,-8733.488677,-1554.432478
4199.442984,1998.556043,-9422.974625,-814.226536
4199.443309,592.164754,-9346.365076,-444.123565
4199.443633,-1850.514855,-9193.145976,-962.267725
4199.443957,-2442.679609,-9422.974625,-814.226536
4199.444282,-962.267725,-9652.803275,0.000000
4199.444606,592.164754,-8273.831378,-1036.288319
4199.444930,1184.329507,-8810.098227,-444.123565
4199.445255,962.267725,-8886.707777,-1258.350101
4199.445579,1258.350101,-9193.145976,-1480.411884
4199.445904,74.020594,-9039.926876,-1406.391290
4199.446228,-296.082377,-9422.974625,-148.041188
4199.446552,-814.226536,-9116.536426,-518.144159
4199.446877,-962.267725,-9269.755526,222.061783
4199.447201,-518.144159,-8963.317327,-666.185348
4199.447525,444.123565,-7967.393179,-592.164754
4199.447850,1332.370696,-8886.707777,370.102971
4199.448174,148.041188,-7814.174080,-740.205942
4199.448498,740.205942,-8963.317327,-888.247130
4199.448823,444.123565,-7967.393179,-666.185348
4199.449147,666.185348,-9039.926876,-740.205942
4199.449472,592.164754,-8120.612279,-814.226536
4199.449796,-518.144159,-8810.098227,-370.102971
4199.450120,-148.041188,-8273.831378,-814.226536
4199.450445,370.102971,-9193.145976,0.000000
4199.450769,740.205942,-8197.221829,-296.082377
4199.451093,1110.308913,-8350.440928,0.000000
4199.451418,518.144159,-8580.269578,0.000000
4199.451742,-592.164754,-9039.926876,-518.144159
4199.452066,-518.144159,-8580.269578,-592.164754
4199.452391,-2368.659014,-8810.098227,0.000000
4199.452715,-2442.679609,-8273.831378,740.205942
4199.453040,-814.226536,-8350.440928,962.267725
4199.453364,222.061783,-7890.783629,592.164754
4199.453688,1850.514855,-8580.269578,740.205942
4199.454013,1332.370696,-7584.345430,0.000000
4199.454337,3182.885551,-8886.707777,1258.350101
4199.454661,2368.659014,-6665.030833,-1258.350101
4199.454986,1702.473667,-9116.536426,814.226536
4199.455310,0.000000,-7431.126331,-370.102971
4199.455634,-888.247130,-8733.488677,1258.350101
4199.455959,-1480.411884,-7354.516781,0.000000
4199.456283,740.205942,-8580.269578,1184.329507
4199.456608,1184.329507,-7507.735880,-1258.350101
4199.456932,888.247130,-8503.660028,814.226536
4199.457256,2072.576638,-8044.002729,-222.061783
4199.457581,888.247130,-8350.440928,-370.102971
4199.457905,1998.556043,-8427.050478,-814.226536
4199.458229,1776.494261,-7431.126331,148.041188
4199.458554,1036.288319,-9039.926876,-370.102971
4199.458878,0.000000,-8350.440928,148.041188
4199.459203,148.041188,-9116.536426,296.082377
4199.459527,222.061783,-9039.926876,-518.144159
4199.459851,518.144159,-8656.879127,296.082377
4199.460176,1554.432478,-7814.174080,-740.205942
4199.460500,1554.432478,-9193.145976,-814.226536
4199.460824,814.226536,-7584.345430,-1406.391290
4199.461149,1924.535449,-9269.755526,0.000000
4199.461473,-666.185348,-7814.174080,-2368.659014
4199.461797,666.185348,-9806.022374,0.000000
4199.462122,666.185348,-7584.345430,-2146.597232
4199.462446,2368.659014,-10265.679673,222.061783
4199.462771,888.247130,-8963.317327,-1702.473667
4199.463095,1184.329507,-9806.022374,-1332.370696
4199.463419,592.164754,-8886.707777,-1628.453072
4199.463744,0.000000,-9576.193725,-148.041188
4199.464068,0.000000,-9269.755526,-1480.411884
4199.464392,-1776.494261,-9269.755526,-592.164754
4199.464717,-2146.597232,-9346.365076,-888.247130
4199.465041,-1628.453072,-8810.098227,-444.123565
4199.465365,-296.082377,-8503.660028,222.061783
4199.465690,1110.308913,-8427.050478,-296.082377
4199.466014,2220.617826,-8733.488677,-1258.350101
4199.466339,1776.494261,-9269.755526,-666.185348
4199.466663,2442.679609,-8503.660028,-740.205942
4199.466987,962.267725,-9116.536426,-1776.494261
4199.467312,0.000000,-9499.584175,-296.082377
4199.467636,-666.185348,-8810.098227,-740.205942
4199.467960,-2442.679609,-9499.584175,-888.247130
4199.468285,-1628.453072,-9039.926876,-444.123565
4199.468609,-370.102971,-8120.612279,0.000000
4199.468933,1110.308913,-8197.221829,-518.144159
4199.469258,1628.453072,-8580.269578,-370.102971
4199.469582,1406.391290,-8273.831378,0.000000
4199.469907,740.205942,-8273.831378,-814.226536
4199.470231,814.226536,-9193.145976,-370.102971
4199.470555,-962.267725,-7967.393179,148.041188
4199.470880,0.000000,-9806.022374,1554.432478
4199.471204,-1924.535449,-8120.612279,0.000000
4199.471528,-1776.494261,-8886.707777,1110.308913
4199.471853,0.000000,-7201.297681,962.267725
4199.472177,-74.020594,-8350.440928,0.000000
4199.472501,1628.453072,-8733.488677,-1110.308913
4199.472826,888.247130,-7814.174080,666.185348
4199.473150,0.000000,-7201.297681,0.000000
4199.473475,-444.123565,-8427.050478,0.000000
4199.473799,1110.308913,-8580.269578,148.041188
4199.474123,1258.350101,-7890.783629,444.123565
4199.474448,74.020594,-8580.269578,148.041188
4199.474772,1850.514855,-8580.269578,222.061783
4199.475096,1924.535449,-8044.002729,740.205942
4199.475421,-1702.473667,-7507.735880,-962.267725
4199.475745,296.082377,-10418.898773,-518.144159
4199.476069,518.144159,-8350.440928,444.123565
4199.476394,-1480.411884,-8120.612279,444.123565
4199.476718,-1110.308913,-7507.735880,-740.205942
4199.477043,-888.247130,-9806.022374,2072.576638
4199.477367,518.144159,-6435.202183,-666.185348
4199.477691,2442.679609,-9116.536426,444.123565
4199.478016,2442.679609,-8044.002729,-888.247130
4199.478340,3701.029710,-9576.193725,518.144159
4199.478664,2220.617826,-7660.954980,-1480.411884
4199.478989,1554.432478,-9346.365076,-740.205942
4199.479313,518.144159,-8886.707777,-518.144159
4199.479637,-444.123565,-9116.536426,-296.082377
4199.479962,-444.123565,-8963.317327,-1406.391290
4199.480286,-370.102971,-8733.488677,-814.226536
4199.480611,370.102971,-8120.612279,-518.144159
4199.480935,518.144159,-8580.269578,-814.226536
4199.481259,1554.432478,-8963.317327,-740.205942
4199.481584,1480.411884,-8580.269578,-814.226536
4199.481908,1480.411884,-8886.707777,-1850.514855
4199.482232,888.247130,-9346.365076,-1110.308913
4199.482557,1110.308913,-9193.145976,-814.226536
4199.482881,-370.102971,-9193.145976,-888.247130
4199.483205,-1924.535449,-9422.974625,-592.164754
4199.483530,-1036.288319,-9346.365076,222.061783
4199.483854,666.185348,-8656.879127,-296.082377
4199.484179,888.247130,-8810.098227,-1406.391290
4199.484503,962.267725,-9269.755526,-1036.288319
4199.484827,0.000000,-7507.735880,-1184.329507
4199.485152,592.164754,-8273.831378,-1406.391290
4199.485476,592.164754,-8733.488677,-1850.514855
4199.485800,222.061783,-8810.098227,0.000000
4199.486125,0.000000,-7814.174080,-1036.288319
4199.486449,740.205942,-9806.022374,0.000000
4199.486774,1332.370696,-8656.879127,-888.247130
4199.487098,1628.453072,-9193.145976,-518.144159
4199.487422,1110.308913,-9269.755526,-740.205942
4199.487747,1036.288319,-8580.269578,-1480.411884
4199.488071,148.041188,-9576.193725,-296.082377
4199.488396,-962.267725,-7584.345430,-1258.350101
4199.488720,-1776.494261,-9652.803275,0.000000
4199.489044,-2368.659014,-7584.345430,0.000000
4199.489369,-370.102971,-8810.098227,592.164754
4199.489693,666.185348,-7277.907231,-148.041188
4199.490018,1406.391290,-9652.803275,962.267725
4199.490342,1776.494261,-6741.640382,-592.164754
4199.490666,3256.906145,-9729.412825,444.123565
4199.490991,740.205942,-7277.907231,-1332.370696
4199.491315,962.267725,-9882.631924,592.164754
4199.491640,-740.205942,-7967.393179,-888.247130
4199.491964,-1850.514855,-9346.365076,888.247130
4199.492289,-1258.350101,-8427.050478,74.020594
4199.492613,-888.247130,-8044.002729,592.164754
4199.492937,0.000000,-8044.002729,666.185348
4199.493262,1406.391290,-7584.345430,370.102971
4199.493586,1776.494261,-7890.783629,0.000000
4199.493911,1850.514855,-8044.002729,444.123565
4199.494235,1258.350101,-8503.660028,-296.082377
4199.494559,370.102971,-8503.660028,444.123565
4199.494884,-666.185348,-9039.926876,296.082377
4199.495208,-888.247130,-8580.269578,888.247130
4199.495533,-666.185348,-8044.002729,814.226536
4199.495857,814.226536,-8427.050478,296.082377
4199.496182,1702.473667,-7737.564530,148.041188
4199.496506,1776.494261,-7890.783629,-296.082377
4199.496830,1702.473667,-8427.050478,-370.102971
4199.497155,2072.576638,-7660.954980,0.000000
4199.497479,1628.453072,-8427.050478,-1110.308913
4199.497804,666.185348,-8197.221829,-1258.350101
4199.498128,740.205942,-8120.612279,0.000000
4199.498452,370.102971,-8427.050478,-1406.391290
4199.498777,1332.370696,-9959.241474,-814.226536
4199.499101,1554.432478,-8350.440928,-518.144159
4199.499426,1628.453072,-9269.755526,-814.226536
4199.499750,666.185348,-9116.536426,-1850.514855
4199.500074,296.082377,-9806.022374,-1184.329507
4199.500399,-1184.329507,-8580.269578,-962.267725
4199.500723,-1628.453072,-9269.755526,-592.164754
4199.501048,-2812.782580,-8963.317327,-1036.288319
4199.501372,-962.267725,-9039.926876,-148.041188
4199.501697,0.000000,-8273.831378,-518.144159
4199.502021,1628.453072,-9652.803275,-740.205942
4199.502345,1480.411884,-8197.221829,-666.185348
4199.502670,2368.659014,-9039.926876,-592.164754
4199.502994,3108.864956,-9346.365076,-1554.432478
4199.503319,888.247130,-8810.098227,-1554.432478
4199.503643,0.000000,-9116.536426,-1332.370696
4199.503967,-1406.391290,-9269.755526,-666.185348
4199.504292,-1406.391290,-8810.098227,-592.164754
4199.504616,-370.102971,-8656.879127,444.123565
4199.504941,592.164754,-8427.050478,-962.267725
4199.505265,1998.556043,-8733.488677,0.000000
4199.505589,1628.453072,-8733.488677,-592.164754
4199.505914,1332.370696,-8427.050478,-814.226536
4199.506238,370.102971,-9729.412825,-148.041188
4199.506563,-666.185348,-7737.564530,-888.247130
4199.506887,-962.267725,-9729.412825,-148.041188
4199.507212,0.000000,-9193.145976,74.020594
4199.507536,-814.226536,-8886.707777,444.123565
4199.507860,-1036.288319,-7277.907231,666.185348
4199.508185,1702.473667,-7967.393179,-666.185348
4199.508509,888.247130,-9422.974625,296.082377
4199.508834,2294.638420,-7201.297681,-148.041188
4199.509158,666.185348,-8350.440928,222.061783
4199.509482,-444.123565,-7354.516781,-888.247130
4199.509807,74.020594,-8886.707777,296.082377
4199.510131,-740.205942,-7201.297681,-370.102971
4199.510456,592.164754,-9499.584175,148.041188
4199.510780,518.144159,-7814.174080,444.123565
4199.511104,2220.617826,-7890.783629,740.205942
4199.511429,2812.782580,-8503.660028,-296.082377
4199.511753,1702.473667,-8350.440928,0.000000
4199.512078,1406.391290,-8350.440928,0.000000
4199.512402,-518.144159,-8427.050478,-370.102971
4199.512727,-1036.288319,-9269.755526,666.185348
4199.513051,-2220.617826,-7354.516781,74.020594
4199.513375,-518.144159,-9116.536426,962.267725
4199.513700,148.041188,-7201.297681,814.226536
4199.514024,2072.576638,-8580.269578,222.061783
4199.514349,2294.638420,-8197.221829,0.000000
4199.514673,3552.988522,-8427.050478,222.061783
4199.514997,2738.761985,-8810.098227,-814.226536
4199.515322,1036.288319,-8273.831378,-518.144159
4199.515646,444.123565,-9193.145976,-370.102971
4199.515971,-1036.288319,-8810.098227,-444.123565
4199.516295,-1110.308913,-8963.317327,0.000000
4199.516619,-222.061783,-8886.707777,-666.185348
4199.516944,222.061783,-8886.707777,-888.247130
4199.517268,1184.329507,-9116.536426,-296.082377
4199.517593,1184.329507,-8886.707777,-888.247130
4199.517917,1554.432478,-8810.098227,-1184.329507
4199.518242,888.247130,-8810.098227,-962.267725
4199.518566,148.041188,-8886.707777,-370.102971
4199.518890,-1332.370696,-8656.879127,-1332.370696
4199.519215,-814.226536,-9806.022374,-592.164754
4199.519539,-1480.411884,-9346.365076,-370.102971
4199.519864,0.000000,-8350.440928,-518.144159
4199.520188,148.041188,-8963.317327,-444.123565
4199.520512,740.205942,-8503.660028,-666.185348
4199.520837,1702.473667,-8503.660028,-2072.576638
4199.521161,1258.350101,-9806.022374,-740.205942
4199.521486,370.102971,-8044.002729,-888.247130
4199.521810,-296.082377,-8963.317327,-814.226536
4199.522135,0.000000,-9193.145976,-1036.288319
4199.522459,-592.164754,-8427.050478,-666.185348
4199.522783,0.000000,-8810.098227,-1332.370696
4199.523108,814.226536,-8810.098227,-296.082377
4199.523432,666.185348,-8120.612279,-518.144159
4199.523757,814.226536,-8963.317327,-1036.288319
4199.524081,1406.391290,-9039.926876,-444.123565
