#time,accel_x,accel_y,accel_z
4170.388014,-1184.329507,-9116.536426,-1406.391290
4170.388338,-962.267725,-8733.488677,-962.267725
4170.388663,-296.082377,-8886.707777,-1332.370696
4170.388988,444.123565,-8963.317327,-1110.308913
4170.389312,888.247130,-8503.660028,-1480.411884
4170.389637,1110.308913,-8350.440928,-1406.391290
4170.389962,1332.370696,-8273.831378,-1480.411884
4170.390286,1036.288319,-8963.317327,-1332.370696
4170.390611,518.144159,-8656.879127,-1110.308913
4170.390936,-518.144159,-9422.974625,-148.041188
4170.391260,-1184.329507,-9499.584175,-1258.350101
4170.391585,-1998.556043,-9729.412825,-1258.350101
4170.391910,-2590.720797,-9652.803275,-1184.329507
4170.392234,-3330.926739,-10495.508323,-222.061783
4170.392559,-3627.009116,-9499.584175,-962.267725
4170.392884,-2590.720797,-9882.631924,370.102971
4170.393208,-3849.070898,-8733.488677,-444.123565
4170.393533,-3108.864956,-9269.755526,222.061783
4170.393858,-3330.926739,-8350.440928,0.000000
4170.394182,-3552.988522,-9422.974625,592.164754
4170.394507,-3330.926739,-8427.050478,0.000000
4170.394831,-3923.091493,-9422.974625,-370.102971
4170.395156,-4515.256246,-9193.145976,-296.082377
4170.395481,-4737.318029,-8963.317327,-296.082377
4170.395805,-4737.318029,-9729.412825,518.144159
4170.396129,-4811.338623,-8580.269578,148.041188
4170.396454,-4441.235652,-9193.145976,-370.102971
4170.396778,-4589.276840,-7967.393179,-222.061783
4170.397103,-3627.009116,-8120.612279,0.000000
4170.397427,-3330.926739,-7737.564530,222.061783
4170.397752,-2664.741391,-7507.735880,222.061783
4170.398076,-2368.659014,-7277.907231,0.000000
4170.398400,-1776.494261,-7507.735880,-148.041188
4170.398725,-1480.411884,-7814.174080,0.000000
4170.399049,-1184.329507,-7584.345430,148.041188
4170.399374,-888.247130,-8656.879127,222.061783
4170.399698,-1332.370696,-8503.660028,222.061783
4170.400022,-1702.473667,-8273.831378,370.102971
4170.400347,-1554.432478,-8427.050478,222.061783
4170.400671,-1628.453072,-8350.440928,296.082377
4170.400996,-1184.329507,-8350.440928,666.185348
4170.401320,-1110.308913,-8120.612279,222.061783
4170.401645,-666.185348,-8580.269578,0.000000
4170.401969,-666.185348,-8273.831378,-148.041188
4170.402293,0.000000,-8273.831378,370.102971
4170.402618,-740.205942,-8503.660028,0.000000
4170.402942,-1110.308913,-8503.660028,0.000000
4170.403267,-666.185348,-8733.488677,0.000000
4170.403591,-1110.308913,-8350.440928,0.000000
4170.403915,-1332.370696,-8886.707777,-222.061783
4170.404240,-1036.288319,-9116.536426,-370.102971
4170.404564,-1554.432478,-8580.269578,-370.102971
4170.404889,-1776.494261,-8656.879127,-592.164754
4170.405213,-1776.494261,-8273.831378,-962.267725
4170.405538,-1480.411884,-8197.221829,-1036.288319
4170.405862,-962.267725,-7967.393179,-1406.391290
4170.406186,-814.226536,-8197.221829,-1184.329507
4170.406511,-444.123565,-8273.831378,-1036.288319
4170.406835,-444.123565,-8733.488677,-1628.453072
4170.407160,-592.164754,-8273.831378,-1480.411884
4170.407484,370.102971,-8733.488677,-1554.432478
4170.407809,296.082377,-9346.365076,-1850.514855
4170.408133,666.185348,-9039.926876,-1554.432478
4170.408457,518.144159,-9422.974625,-1480.411884
4170.408782,444.123565,-9269.755526,-1850.514855
4170.409106,296.082377,-9193.145976,-1628.453072
4170.409431,0.000000,-8963.317327,-1554.432478
4170.409755,-148.041188,-9039.926876,-1332.370696
4170.410079,-592.164754,-8886.707777,-1036.288319
4170.410404,0.000000,-9039.926876,-1258.350101
4170.410728,-814.226536,-8427.050478,-888.247130
4170.411053,0.000000,-9116.536426,-888.247130
4170.411377,0.000000,-9193.145976,-666.185348
4170.411702,-666.185348,-9729.412825,-444.123565
4170.412026,-1184.329507,-9882.631924,-296.082377
4170.412350,-2146.597232,-9652.803275,-814.226536
4170.412675,-3404.947333,-9806.022374,0.000000
4170.412999,-4441.235652,-9499.584175,-666.185348
4170.413324,-5181.441594,-9806.022374,0.000000
4170.413648,-5773.606348,-9346.365076,0.000000
4170.413972,-6217.729913,-8580.269578,-148.041188
4170.414297,-5329.482782,-7890.783629,-370.102971
4170.414621,-4737.318029,-8503.660028,0.000000
4170.414946,-3627.009116,-8273.831378,518.144159
4170.415270,-2960.823768,-7890.783629,0.000000
4170.415595,-2072.576638,-8273.831378,370.102971
4170.415919,-1554.432478,-7967.393179,814.226536
4170.416243,-1406.391290,-8120.612279,518.144159
4170.416568,-1110.308913,-8273.831378,666.185348
4170.416892,-1184.329507,-8656.879127,1036.288319
4170.417217,-1184.329507,-8733.488677,666.185348
4170.417541,-518.144159,-8427.050478,518.144159
4170.417866,-740.205942,-7967.393179,518.144159
4170.418190,-592.164754,-8273.831378,740.205942
4170.418514,-370.102971,-7431.126331,370.102971
4170.418839,-888.247130,-8273.831378,666.185348
4170.419163,-1776.494261,-7431.126331,0.000000
4170.419488,-2220.617826,-7890.783629,222.061783
4170.419812,-2664.741391,-8044.002729,148.041188
4170.420136,-3330.926739,-8656.879127,1184.329507
4170.420461,-2220.617826,-7967.393179,148.041188
4170.420785,-2442.679609,-8810.098227,666.185348
4170.421110,-1702.473667,-8197.221829,518.144159
4170.421434,-814.226536,-8350.440928,222.061783
4170.421759,222.061783,-8273.831378,74.020594
4170.422083,0.000000,-7814.174080,0.000000
4170.422407,0.000000,-8580.269578,-148.041188
4170.422732,-518.144159,-8503.660028,-370.102971
4170.423056,-814.226536,-8427.050478,-370.102971
4170.423381,-1110.308913,-9269.755526,-148.041188
4170.423705,-1036.288319,-8733.488677,-592.164754
4170.424029,-1998.556043,-9269.755526,-1036.288319
4170.424354,-2516.700203,-9576.193725,-1776.494261
4170.424678,-3256.906145,-9422.974625,-1850.514855
4170.425003,-3330.926739,-8733.488677,-1628.453072
4170.425327,-3108.864956,-8656.879127,-1702.473667
4170.425652,-2960.823768,-8810.098227,-1776.494261
4170.425976,-1110.308913,-8656.879127,-1332.370696
4170.426300,222.061783,-8503.660028,-1332.370696
4170.426625,2368.659014,-8120.612279,-1258.350101
4170.426949,3849.070898,-7584.345430,-1628.453072
4170.427274,4293.194464,-8810.098227,-888.247130
4170.427598,4219.173869,-9039.926876,-1628.453072
4170.427923,2812.782580,-8886.707777,-1036.288319
4170.428247,1110.308913,-9806.022374,-1924.535449
4170.428571,-1258.350101,-9576.193725,-1924.535449
4170.428896,-3478.967927,-9882.631924,-2294.638420
4170.429220,-5551.544565,-9422.974625,-1702.473667
4170.429545,-5255.462188,-9729.412825,-1480.411884
4170.429869,-4367.215058,-8503.660028,-1480.411884
4170.430193,-1628.453072,-9039.926876,-370.102971
4170.430518,-3849.070898,-8350.440928,-1110.308913
4170.430842,2220.617826,-9193.145976,-222.061783
4170.431167,3997.112087,-8197.221829,-962.267725
4170.431491,3330.926739,-10112.460574,0.000000
4170.431816,2294.638420,-9576.193725,-1036.288319
4170.432140,-592.164754,-11261.603821,0.000000
4170.432464,-4737.318029,-9806.022374,74.020594
4170.432789,-8364.327145,-9729.412825,-592.164754
4170.433113,-9104.533087,-10189.070123,296.082377
4170.433438,-9918.759623,-7890.783629,222.061783
4170.433762,-9474.636058,-7354.516781,0.000000
4170.434086,-6587.832884,-6665.030833,0.000000
4170.434411,-740.205942,-6894.859482,296.082377
4170.434735,2072.576638,-6511.811733,444.123565
4170.435060,4737.318029,-6741.640382,-296.082377
4170.435384,6735.874072,-7431.126331,666.185348
4170.435709,5181.441594,-8044.002729,0.000000
4170.436033,1628.453072,-9959.241474,296.082377
4170.436357,-3404.947333,-10342.289223,444.123565
4170.436682,-7476.080014,-10495.508323,962.267725
4170.437006,-7476.080014,-9729.412825,740.205942
4170.437331,-8586.388927,-8810.098227,888.247130
4170.437655,-7624.121203,-7814.174080,1036.288319
4170.437980,-1332.370696,-6205.373534,888.247130
4170.438304,3849.070898,-5515.887586,148.041188
4170.438628,8882.471304,-5439.278036,444.123565
4170.438953,10807.006753,-6128.763984,1554.432478
4170.439277,10288.862594,-7048.078582,814.226536
4170.439602,7698.141797,-8886.707777,518.144159
4170.439926,1554.432478,-9499.584175,1036.288319
4170.440250,-4367.215058,-12027.699319,1110.308913
4170.440575,-9400.615463,-11797.870669,0.000000
4170.440899,-10510.924376,-11261.603821,1258.350101
4170.441224,-10584.944971,-10265.679673,888.247130
4170.441548,-7105.977043,-9116.536426,-444.123565
4170.441873,-444.123565,-6971.469032,-962.267725
4170.442197,4663.297435,-6741.640382,-1332.370696
4170.442521,8364.327145,-5745.716235,-1036.288319
4170.442846,10214.842000,-6052.154434,-592.164754
4170.443170,10288.862594,-7890.783629,0.000000
4170.443495,7105.977043,-7737.564530,-666.185348
4170.443819,3108.864956,-10801.946522,0.000000
4170.444143,-1924.535449,-10725.336972,-1036.288319
4170.444468,-3182.885551,-11721.261119,0.000000
4170.444792,-4515.256246,-10342.289223,-1924.535449
4170.445117,-1776.494261,-10725.336972,-888.247130
4170.445441,1628.453072,-7124.688131,-2368.659014
4170.445766,6143.709319,-8197.221829,-1628.453072
4170.446090,7920.203579,-5898.935335,-2664.741391
4170.446414,8586.388927,-6741.640382,-1924.535449
4170.446739,7994.224174,-6971.469032,-1332.370696
4170.447063,5033.400406,-7048.078582,-962.267725
4170.447388,2664.741391,-9269.755526,-962.267725
4170.447712,-222.061783,-9959.241474,-518.144159
4170.448036,-2072.576638,-11261.603821,-962.267725
4170.448361,-3478.967927,-10495.508323,-2368.659014
4170.448685,-2442.679609,-10801.946522,-1258.350101
4170.449010,74.020594,-9652.803275,-2442.679609
4170.449334,1776.494261,-10265.679673,-1406.391290
4170.449659,3478.967927,-7890.783629,-962.267725
4170.449983,3182.885551,-8197.221829,-888.247130
4170.450307,2664.741391,-8427.050478,-222.061783
4170.450632,1628.453072,-7967.393179,0.000000
4170.450956,-814.226536,-8656.879127,1406.391290
4170.451281,-3552.988522,-8656.879127,1702.473667
4170.451605,-3182.885551,-9729.412825,740.205942
4170.451930,-3552.988522,-9193.145976,-148.041188
4170.452254,-740.205942,-10035.851024,-666.185348
4170.452578,1184.329507,-8963.317327,-1406.391290
4170.452903,1332.370696,-9806.022374,-1258.350101
4170.453227,1480.411884,-8886.707777,296.082377
4170.453552,222.061783,-8350.440928,74.020594
4170.453876,-962.267725,-8273.831378,666.185348
4170.454200,-2516.700203,-7431.126331,1036.288319
4170.454525,-3997.112087,-8120.612279,1776.494261
4170.454849,-5625.565159,-7354.516781,1258.350101
4170.455174,-4663.297435,-7660.954980,666.185348
4170.455498,-2146.597232,-7048.078582,962.267725
4170.455823,740.205942,-6205.373534,-592.164754
4170.456147,3330.926739,-8120.612279,-444.123565
4170.456471,2812.782580,-7124.688131,-1924.535449
4170.456796,2368.659014,-9193.145976,-296.082377
4170.457120,888.247130,-8044.002729,-1110.308913
4170.457445,-1702.473667,-8963.317327,888.247130
4170.457769,-3404.947333,-8656.879127,1554.432478
4170.458093,-5255.462188,-8963.317327,2146.597232
4170.458418,-5403.503377,-8656.879127,1628.453072
4170.458742,-2368.659014,-7737.564530,1184.329507
4170.459067,-2368.659014,-7354.516781,-518.144159
4170.459391,1332.370696,-7354.516781,-518.144159
4170.459716,4515.256246,-7354.516781,-1036.288319
4170.460040,3849.070898,-7967.393179,-222.061783
4170.460364,3775.050304,-8044.002729,-1332.370696
4170.460689,2072.576638,-9882.631924,-518.144159
4170.461013,-1924.535449,-9576.193725,-148.041188
4170.461338,-3849.070898,-9499.584175,0.000000
4170.461662,-4441.235652,-10342.289223,1258.350101
4170.461987,-3701.029710,-9729.412825,740.205942
4170.462311,-1776.494261,-7354.516781,-222.061783
4170.462635,2220.617826,-7354.516781,-1332.370696
4170.462960,5403.503377,-5975.544884,-1850.514855
4170.463284,8660.409521,-7507.735880,-2368.659014
4170.463609,7920.203579,-8044.002729,-2886.803174
4170.463933,7328.038826,-8810.098227,-2220.617826
4170.464257,3775.050304,-8580.269578,-1628.453072
4170.464582,740.205942,-10801.946522,-814.226536
4170.464906,-2220.617826,-10572.117872,296.082377
4170.465231,-3478.967927,-10725.336972,740.205942
4170.465555,-2442.679609,-10801.946522,370.102971
4170.465880,-518.144159,-10265.679673,-1184.329507
4170.466204,3182.885551,-8044.002729,-1702.473667
4170.466528,6217.729913,-7737.564530,-1998.556043
4170.466853,8660.409521,-7507.735880,-2886.803174
4170.467177,7994.224174,-7354.516781,-2590.720797
4170.467502,5995.668130,-7660.954980,-1702.473667
4170.467826,1924.535449,-8580.269578,-444.123565
4170.468150,-1998.556043,-9346.365076,148.041188
4170.468475,-4811.338623,-10112.460574,888.247130
4170.468799,-5329.482782,-10189.070123,74.020594
4170.469124,-4737.318029,-10955.165621,74.020594
4170.469448,-962.267725,-9499.584175,-962.267725
4170.469773,2220.617826,-9193.145976,-1110.308913
4170.470097,4663.297435,-7890.783629,-1776.494261
4170.470421,6291.750507,-7814.174080,-1702.473667
4170.470746,6513.812290,-7201.297681,-1924.535449
4170.471070,3404.947333,-7814.174080,-962.267725
4170.471395,888.247130,-8427.050478,-370.102971
4170.471719,-2516.700203,-9422.974625,1184.329507
4170.472044,-5477.523971,-9269.755526,2220.617826
4170.472368,-5773.606348,-9193.145976,1480.411884
4170.472692,-5033.400406,-9959.241474,740.205942
4170.473017,-2072.576638,-9422.974625,370.102971
4170.473341,1480.411884,-7507.735880,-814.226536
4170.473666,4219.173869,-8120.612279,-296.082377
4170.473990,5699.585753,-6894.859482,-1850.514855
4170.474314,4663.297435,-8197.221829,-740.205942
4170.474639,2812.782580,-7814.174080,0.000000
4170.474963,-74.020594,-8350.440928,962.267725
4170.475288,-4737.318029,-8350.440928,1998.556043
4170.475612,-7550.100608,-8580.269578,1332.370696
4170.475937,-8660.409521,-9193.145976,2368.659014
4170.476261,-5847.626942,-7660.954980,592.164754
4170.476585,-2442.679609,-8810.098227,1332.370696
4170.476910,-370.102971,-7201.297681,-1702.473667
4170.477234,3034.844362,-9499.584175,814.226536
4170.477559,4515.256246,-7507.735880,-962.267725
4170.477883,3775.050304,-9039.926876,-1332.370696
4170.478207,2368.659014,-8044.002729,-296.082377
4170.478532,-1332.370696,-8197.221829,1554.432478
4170.478856,-3849.070898,-9576.193725,1998.556043
4170.479181,-5107.421000,-9116.536426,1924.535449
4170.479505,-5403.503377,-9193.145976,1776.494261
4170.479830,-2812.782580,-8350.440928,222.061783
4170.480154,0.000000,-7890.783629,-962.267725
4170.480478,3478.967927,-8197.221829,-1480.411884
4170.480803,5699.585753,-7890.783629,-1406.391290
4170.481127,5033.400406,-8580.269578,-2442.679609
4170.481452,4441.235652,-8733.488677,-2220.617826
4170.481776,1406.391290,-8197.221829,-518.144159
4170.482101,-1776.494261,-9346.365076,74.020594
4170.482425,-4071.132681,-9193.145976,-222.061783
4170.482749,-4589.276840,-10418.898773,1480.411884
4170.483074,-4589.276840,-8733.488677,-740.205942
4170.483398,-1110.308913,-9269.755526,-1110.308913
4170.483723,2220.617826,-7431.126331,-2146.597232
4170.484047,5403.503377,-8503.660028,-2072.576638
4170.484371,7031.956449,-7354.516781,-2960.823768
4170.484696,7105.977043,-8120.612279,-3108.864956
4170.485020,4663.297435,-8810.098227,-2072.576638
4170.485345,1776.494261,-9193.145976,-1184.329507
4170.485669,-148.041188,-10112.460574,666.185348
4170.485994,-2960.823768,-9882.631924,814.226536
4170.486318,-2590.720797,-10112.460574,814.226536
4170.486642,-2368.659014,-8963.317327,-296.082377
4170.486967,740.205942,-9039.926876,-518.144159
4170.487291,4441.235652,-7660.954980,-1628.453072
4170.487616,7550.100608,-8197.221829,-2368.659014
4170.487940,8142.265362,-7814.174080,-2368.659014
4170.488264,5921.647536,-7967.393179,-2516.700203
4170.488589,2294.638420,-8273.831378,-1184.329507
4170.488913,-1184.329507,-9039.926876,-740.205942
4170.489238,-3775.050304,-10342.289223,962.267725
4170.489562,-5773.606348,-9116.536426,1036.288319
4170.489887,-4367.215058,-10418.898773,1776.494261
4170.490211,-2146.597232,-8656.879127,74.020594
4170.490535,2590.720797,-8273.831378,-592.164754
4170.490860,4663.297435,-7890.783629,-740.205942
4170.491184,6439.791695,-7201.297681,-1554.432478
4170.491509,5773.606348,-7354.516781,-1258.350101
4170.491833,5403.503377,-7201.297681,-2072.576638
4170.492158,-518.144159,-9576.193725,-370.102971
4170.492482,-3256.906145,-8273.831378,-296.082377
4170.492806,-6587.832884,-9959.241474,3182.885551
4170.493131,-6661.853478,-9116.536426,370.102971
4170.493455,-5329.482782,-9499.584175,2516.700203
4170.493780,-2516.700203,-8044.002729,444.123565
4170.494104,444.123565,-8733.488677,592.164754
4170.494428,4219.173869,-6818.249932,-370.102971
4170.494753,6735.874072,-8044.002729,-370.102971
4170.495077,5181.441594,-6741.640382,-518.144159
4170.495402,3182.885551,-7814.174080,-1406.391290
4170.495726,-1628.453072,-8580.269578,592.164754
4170.496051,-4737.318029,-8656.879127,814.226536
4170.496375,-5773.606348,-9576.193725,1850.514855
4170.496699,-7994.224174,-9193.145976,1332.370696
4170.497024,-7031.956449,-8963.317327,2146.597232
4170.497348,-4663.297435,-8197.221829,518.144159
4170.497673,0.000000,-8120.612279,-370.102971
4170.497997,4441.235652,-7584.345430,-740.205942
4170.498322,5403.503377,-7890.783629,-740.205942
4170.498646,5995.668130,-7584.345430,-1480.411884
4170.498970,3627.009116,-8044.002729,-370.102971
4170.499295,0.000000,-8963.317327,222.061783
4170.499619,-2368.659014,-8963.317327,1184.329507
4170.499944,-4885.359217,-9576.193725,1258.350101
4170.500268,-5699.585753,-9959.241474,1258.350101
4170.500593,-4959.379811,-8350.440928,148.041188
4170.500917,-1628.453072,-9193.145976,-222.061783
4170.501242,2590.720797,-8273.831378,-1258.350101
4170.501566,5255.462188,-8120.612279,-1110.308913
4170.501890,6069.688724,-8197.221829,-1702.473667
4170.502215,6143.709319,-7431.126331,-1258.350101
4170.502539,3775.050304,-8273.831378,-1184.329507
4170.502864,1036.288319,-8886.707777,-74.020594
4170.503188,-3182.885551,-8656.879127,0.000000
4170.503513,-4811.338623,-9882.631924,518.144159
4170.503837,-4663.297435,-9193.145976,1036.288319
4170.504161,-3108.864956,-8810.098227,-666.185348
4170.504486,1184.329507,-8886.707777,-740.205942
4170.504810,3701.029710,-8580.269578,-2072.576638
4170.505135,6513.812290,-8733.488677,-2664.741391
4170.505459,4885.359217,-7354.516781,-2368.659014
4170.505784,4441.235652,-8427.050478,-2072.576638
4170.506108,2220.617826,-8656.879127,-1184.329507
4170.506432,-666.185348,-9116.536426,-148.041188
4170.506757,-2590.720797,-10035.851024,0.000000
4170.507081,-3923.091493,-10189.070123,444.123565
4170.507406,-2590.720797,-9806.022374,-518.144159
4170.507730,0.000000,-8963.317327,-962.267725
4170.508055,2368.659014,-8733.488677,-962.267725
4170.508379,7031.956449,-7737.564530,-2072.576638
4170.508703,7179.997637,-7431.126331,-2072.576638
4170.509028,6439.791695,-7660.954980,-2072.576638
4170.509352,4441.235652,-7737.564530,-1702.473667
4170.509677,1110.308913,-7814.174080,-1036.288319
4170.510001,-1628.453072,-8810.098227,518.144159
4170.510326,-4737.318029,-9193.145976,592.164754
4170.510650,-4515.256246,-9499.584175,1406.391290
4170.510975,-3775.050304,-8273.831378,-592.164754
4170.511299,-592.164754,-9193.145976,-518.144159
4170.511623,2664.741391,-7660.954980,-1554.432478
4170.511948,4959.379811,-8044.002729,-1776.494261
4170.512272,6069.688724,-8120.612279,-1776.494261
4170.512597,4737.318029,-8656.879127,-1406.391290
4170.512921,2294.638420,-8656.879127,-296.082377
4170.513246,-1258.350101,-8886.707777,814.226536
4170.513570,-4441.235652,-9193.145976,1184.329507
4170.513894,-5773.606348,-9269.755526,1332.370696
4170.514219,-5033.400406,-9193.145976,1332.370696
4170.514543,-3182.885551,-8350.440928,740.205942
4170.514868,296.082377,-7967.393179,-592.164754
4170.515192,2368.659014,-8503.660028,-74.020594
4170.515517,6069.688724,-7201.297681,-1332.370696
4170.515841,5847.626942,-7890.783629,-740.205942
4170.516165,4515.256246,-7431.126331,-1258.350101
4170.516490,1332.370696,-8810.098227,814.226536
4170.516814,-3108.864956,-9193.145976,666.185348
4170.517139,-6957.935855,-9959.241474,1850.514855
4170.517463,-7550.100608,-9269.755526,1258.350101
4170.517788,-6587.832884,-9806.022374,1406.391290
4170.518112,-3923.091493,-8350.440928,296.082377
4170.518437,148.041188,-7967.393179,-592.164754
4170.518761,3701.029710,-7584.345430,-370.102971
4170.519085,5403.503377,-7354.516781,-740.205942
4170.519410,6291.750507,-7967.393179,-1554.432478
4170.519734,3997.112087,-7967.393179,-814.226536
4170.520059,1036.288319,-8273.831378,592.164754
4170.520383,-3330.926739,-9346.365076,592.164754
4170.520708,-4515.256246,-10189.070123,814.226536
4170.521032,-5995.668130,-11568.042020,888.247130
4170.521356,-6217.729913,-8273.831378,814.226536
4170.521681,-814.226536,-8427.050478,-1258.350101
4170.522005,1036.288319,-8810.098227,-814.226536
4170.522330,4959.379811,-6971.469032,-1258.350101
4170.522654,7105.977043,-7507.735880,-888.247130
4170.522979,5477.523971,-7890.783629,-2368.659014
4170.523303,4145.153275,-9346.365076,-962.267725
4170.523627,814.226536,-7507.735880,-740.205942
4170.523952,-3034.844362,-10572.117872,962.267725
4170.524276,-3701.029710,-9269.755526,888.247130
4170.524601,-5107.421000,-9499.584175,888.247130
4170.524925,-3997.112087,-8810.098227,296.082377
4170.525250,-296.082377,-8503.660028,0.000000
4170.525574,3552.988522,-7737.564530,-2368.659014
4170.525899,6143.709319,-7967.393179,-1776.494261
4170.526223,7624.121203,-7737.564530,-1702.473667
4170.526547,6291.750507,-8197.221829,-1332.370696
4170.526872,4145.153275,-8044.002729,-740.205942
4170.527196,1036.288319,-9652.803275,370.102971
4170.527521,-2294.638420,-9652.803275,740.205942
4170.527845,-3849.070898,-9959.241474,1036.288319
4170.528170,-4145.153275,-10648.727422,592.164754
4170.528494,-2368.659014,-9193.145976,-296.082377
4170.528818,1332.370696,-8273.831378,-962.267725
4170.529143,4663.297435,-8197.221829,-1776.494261
4170.529467,6735.874072,-8733.488677,-2146.597232
4170.529792,7105.977043,-8120.612279,-1776.494261
4170.530116,4737.318029,-7584.345430,-2368.659014
4170.530441,2294.638420,-8886.707777,-518.144159
4170.530765,-962.267725,-8580.269578,444.123565
4170.531089,-4071.132681,-9729.412825,814.226536
4170.531414,-5107.421000,-9729.412825,1036.288319
4170.531738,-4515.256246,-9269.755526,296.082377
4170.532063,-2812.782580,-8580.269578,-296.082377
4170.532387,888.247130,-7737.564530,-962.267725
4170.532712,3627.009116,-7967.393179,-1184.329507
4170.533036,5847.626942,-7737.564530,-1554.432478
4170.533360,4959.379811,-7660.954980,-1554.432478
4170.533685,4145.153275,-7967.393179,-888.247130
4170.534009,1258.350101,-8733.488677,74.020594
4170.534334,-1702.473667,-8886.707777,666.185348
4170.534658,-4293.194464,-9729.412825,1702.473667
4170.534983,-5033.400406,-9193.145976,2072.576638
4170.535307,-4219.173869,-9346.365076,888.247130
4170.535632,-1480.411884,-9039.926876,-148.041188
4170.535956,2294.638420,-7814.174080,-1332.370696
4170.536280,4293.194464,-7814.174080,-518.144159
4170.536605,4663.297435,-7354.516781,-370.102971
4170.536929,4145.153275,-8197.221829,-1184.329507
4170.537254,2146.597232,-8197.221829,-370.102971
4170.537578,-1628.453072,-8503.660028,444.123565
4170.537903,-4145.153275,-8886.707777,888.247130
4170.538227,-5995.668130,-9193.145976,1480.411884
4170.538551,-5773.606348,-9729.412825,962.267725
4170.538876,-4441.235652,-8503.660028,148.041188
4170.539200,-740.205942,-9039.926876,0.000000
4170.539525,1702.473667,-7277.907231,-592.164754
4170.539849,4589.276840,-7814.174080,-814.226536
4170.540174,4663.297435,-7967.393179,-1776.494261
4170.540498,3701.029710,-8733.488677,-1036.288319
4170.540822,592.164754,-8350.440928,-296.082377
4170.541147,-962.267725,-9959.241474,592.164754
4170.541471,-3701.029710,-9039.926876,1036.288319
4170.541796,-4367.215058,-9652.803275,1924.535449
4170.542120,-3034.844362,-9422.974625,888.247130
4170.542445,-1628.453072,-8427.050478,592.164754
4170.542769,2738.761985,-8503.660028,-962.267725
4170.543094,5181.441594,-8044.002729,-1480.411884
4170.543418,6143.709319,-7814.174080,-1850.514855
4170.543742,5329.482782,-7354.516781,-1554.432478
4170.544067,2812.782580,-8656.879127,-962.267725
4170.544391,-740.205942,-8503.660028,-1036.288319
4170.544716,-3034.844362,-10418.898773,222.061783
4170.545040,-5033.400406,-9116.536426,296.082377
4170.545365,-5773.606348,-9806.022374,740.205942
4170.545689,-3923.091493,-8350.440928,518.144159
4170.546013,-1258.350101,-8427.050478,-370.102971
4170.546338,3552.988522,-7890.783629,-1184.329507
4170.546662,5625.565159,-6588.421283,-1628.453072
4170.546987,7698.141797,-8963.317327,-1480.411884
4170.547311,5181.441594,-6588.421283,-2738.761985
4170.547636,3478.967927,-10495.508323,0.000000
4170.547960,962.267725,-7354.516781,-1258.350101
4170.548284,-2516.700203,-10878.556072,1998.556043
4170.548609,-4071.132681,-8886.707777,666.185348
4170.548933,-4737.318029,-9959.241474,444.123565
4170.549258,-2886.803174,-8810.098227,740.205942
4170.549582,74.020594,-7967.393179,-592.164754
4170.549907,3849.070898,-7354.516781,-1332.370696
4170.550231,7402.059420,-7584.345430,-1998.556043
4170.550556,6957.935855,-7584.345430,-1406.391290
4170.550880,5255.462188,-7737.564530,-1258.350101
4170.551204,3034.844362,-8733.488677,-1110.308913
4170.551529,-888.247130,-9806.022374,0.000000
4170.551853,-3701.029710,-9116.536426,444.123565
4170.552178,-4959.379811,-9346.365076,1258.350101
4170.552502,-5329.482782,-9806.022374,962.267725
4170.552827,-3330.926739,-8503.660028,222.061783
4170.553151,962.267725,-7890.783629,-962.267725
4170.553475,3775.050304,-8350.440928,-1184.329507
4170.553800,6883.915261,-7584.345430,-1480.411884
4170.554124,6587.832884,-7354.516781,-888.247130
4170.554449,4663.297435,-7507.735880,-1554.432478
4170.554773,2220.617826,-9039.926876,-296.082377
4170.555098,-1110.308913,-9346.365076,370.102971
4170.555422,-4885.359217,-9806.022374,1110.308913
4170.555746,-6143.709319,-9959.241474,1258.350101
4170.556071,-6291.750507,-9959.241474,1480.411884
4170.556395,-2886.803174,-9116.536426,222.061783
4170.556720,370.102971,-8503.660028,-370.102971
4170.557044,3256.906145,-7814.174080,-370.102971
4170.557369,5699.585753,-7431.126331,-1184.329507
4170.557693,6513.812290,-7814.174080,-1184.329507
4170.558018,3404.947333,-7890.783629,-1480.411884
4170.558342,740.205942,-8733.488677,296.082377
4170.558666,-2960.823768,-9039.926876,814.226536
4170.558991,-5329.482782,-9422.974625,1258.350101
4170.559315,-7105.977043,-9039.926876,1554.432478
4170.559640,-5847.626942,-9806.022374,518.144159
4170.559964,-3108.864956,-8733.488677,-444.123565
4170.560289,1036.288319,-8810.098227,-1480.411884
4170.560613,5773.606348,-7277.907231,-1184.329507
4170.560937,3775.050304,-7660.954980,-1406.391290
4170.561262,5773.606348,-8197.221829,-1184.329507
4170.561586,3034.844362,-6971.469032,-1924.535449
4170.561911,1554.432478,-9729.412825,296.082377
4170.562235,-2072.576638,-7967.393179,370.102971
4170.562560,-5033.400406,-9806.022374,1406.391290
4170.562884,-4885.359217,-9806.022374,666.185348
4170.563208,-3552.988522,-9193.145976,148.041188
4170.563533,-962.267725,-9269.755526,-1332.370696
4170.563857,2442.679609,-7967.393179,-2072.576638
4170.564182,4663.297435,-8580.269578,-666.185348
4170.564506,5329.482782,-8044.002729,-1776.494261
4170.564831,4367.215058,-7354.516781,-1332.370696
4170.565155,2146.597232,-7890.783629,-1258.350101
4170.565479,74.020594,-8886.707777,0.000000
4170.565804,-2368.659014,-8810.098227,-518.144159
4170.566128,-5329.482782,-9346.365076,1036.288319
4170.566453,-3330.926739,-8656.879127,296.082377
4170.566777,-2072.576638,-8427.050478,-518.144159
4170.567102,740.205942,-8427.050478,-1184.329507
4170.567426,3923.091493,-8656.879127,-1628.453072
4170.567751,6291.750507,-9806.022374,-1776.494261
4170.568075,4219.173869,-8656.879127,-2368.659014
4170.568399,3182.885551,-9039.926876,-1110.308913
4170.568724,370.102971,-8120.612279,-592.164754
4170.569048,-1332.370696,-9269.755526,444.123565
4170.569373,-2590.720797,-9806.022374,814.226536
4170.569697,-3701.029710,-9269.755526,444.123565
4170.570022,-2146.597232,-9039.926876,370.102971
4170.570346,962.267725,-8350.440928,-592.164754
4170.570670,2294.638420,-8273.831378,-888.247130
4170.570995,5921.647536,-7584.345430,-1258.350101
4170.571319,6217.729913,-7584.345430,-1332.370696
4170.571644,5551.544565,-8350.440928,-1258.350101
4170.571968,3849.070898,-9346.365076,-1258.350101
4170.572293,0.000000,-9806.022374,0.000000
4170.572617,-3552.988522,-8810.098227,296.082377
4170.572941,-5921.647536,-8810.098227,1036.288319
4170.573266,-5329.482782,-9269.755526,1036.288319
4170.573590,-4441.235652,-8120.612279,0.000000
4170.573915,-814.226536,-8810.098227,-814.226536
4170.574239,2590.720797,-7431.126331,-1702.473667
4170.574564,5255.462188,-7814.174080,-592.164754
4170.574888,4959.379811,-7201.297681,-1776.494261
4170.575213,4885.359217,-8733.488677,-1036.288319
4170.575537,2294.638420,-7967.393179,-814.226536
4170.575861,-370.102971,-9116.536426,1184.329507
4170.576186,-3256.906145,-9346.365076,1110.308913
4170.576510,-4885.359217,-9039.926876,1702.473667
4170.576835,-3182.885551,-9499.584175,1184.329507
4170.577159,-2664.741391,-7890.783629,0.000000
4170.577484,1702.473667,-9269.755526,-222.061783
4170.577808,3108.864956,-6971.469032,-1036.288319
4170.578132,4959.379811,-8044.002729,-592.164754
4170.578457,6069.688724,-7354.516781,-1406.391290
4170.578781,4663.297435,-8427.050478,-666.185348
4170.579106,518.144159,-8886.707777,-962.267725
4170.579430,-1924.535449,-9576.193725,296.082377
4170.579755,-5329.482782,-9729.412825,1184.329507
4170.580079,-6069.688724,-9806.022374,740.205942
4170.580403,-6069.688724,-10189.070123,740.205942
4170.580728,-3552.988522,-8427.050478,-222.061783
4170.581052,74.020594,-8427.050478,-74.020594
4170.581377,3552.988522,-7507.735880,-1406.391290
4170.581701,5773.606348,-8580.269578,-962.267725
4170.582026,6143.709319,-8044.002729,-1554.432478
4170.582350,4293.194464,-8810.098227,-1184.329507
4170.582675,1480.411884,-8197.221829,-296.082377
4170.582999,-1258.350101,-9039.926876,1628.453072
4170.583323,-4293.194464,-9806.022374,1480.411884
4170.583648,-5921.647536,-9422.974625,222.061783
4170.583972,-4219.173869,-9806.022374,222.061783
4170.584297,-2812.782580,-9116.536426,-666.185348
4170.584621,1776.494261,-8733.488677,-1776.494261
4170.584946,3478.967927,-8427.050478,-814.226536
4170.585270,4959.379811,-6511.811733,-2738.761985
4170.585594,6513.812290,-9193.145976,-1406.391290
4170.585919,4293.194464,-7814.174080,-1332.370696
4170.586243,444.123565,-8886.707777,-370.102971
4170.586568,-2146.597232,-8503.660028,666.185348
4170.586892,-5995.668130,-9729.412825,666.185348
4170.587217,-4737.318029,-9652.803275,740.205942
4170.587541,-3330.926739,-8273.831378,-296.082377
4170.587865,-1258.350101,-9039.926876,-888.247130
4170.588190,2442.679609,-7584.345430,-1332.370696
4170.588514,5551.544565,-7967.393179,-1184.329507
4170.588839,5847.626942,-8427.050478,-1628.453072
4170.589163,5477.523971,-8197.221829,-1184.329507
4170.589488,3552.988522,-7814.174080,-1258.350101
4170.589812,-222.061783,-8810.098227,-296.082377
4170.590136,-2812.782580,-8963.317327,1554.432478
4170.590461,-4441.235652,-9116.536426,740.205942
4170.590785,-3627.009116,-10572.117872,666.185348
4170.591110,-2368.659014,-8656.879127,-888.247130
4170.591434,444.123565,-8810.098227,-1110.308913
4170.591759,3849.070898,-8273.831378,-1480.411884
4170.592083,6291.750507,-7967.393179,-1480.411884
4170.592408,5921.647536,-8044.002729,-1258.350101
4170.592732,4737.318029,-7277.907231,-962.267725
4170.593056,1628.453072,-8427.050478,-444.123565
4170.593381,-1554.432478,-8733.488677,74.020594
4170.593705,-4441.235652,-8963.317327,296.082377
4170.594030,-5255.462188,-9499.584175,962.267725
4170.594354,-4663.297435,-8580.269578,74.020594
4170.594679,-1406.391290,-8044.002729,-296.082377
4170.595003,888.247130,-7967.393179,-1554.432478
4170.595327,3997.112087,-7660.954980,-1184.329507
4170.595652,5773.606348,-8580.269578,-1998.556043
4170.595976,6143.709319,-8733.488677,-2220.617826
4170.596301,4219.173869,-8044.002729,-1036.288319
4170.596625,148.041188,-8886.707777,-222.061783
4170.596949,-2368.659014,-9269.755526,666.185348
4170.597274,-4589.276840,-9652.803275,814.226536
4170.597598,-4811.338623,-9806.022374,888.247130
4170.597922,-3034.844362,-8886.707777,0.000000
4170.598247,-1628.453072,-8810.098227,-888.247130
4170.598571,2146.597232,-7890.783629,-1554.432478
4170.598895,4071.132681,-7890.783629,-888.247130
4170.599219,5847.626942,-8427.050478,-962.267725
4170.599544,5699.585753,-7814.174080,-1258.350101
4170.599868,2516.700203,-8350.440928,-592.164754
4170.600192,-444.123565,-8886.707777,0.000000
4170.600517,-3849.070898,-9269.755526,444.123565
4170.600841,-5847.626942,-9499.584175,1776.494261
4170.601165,-5403.503377,-9576.193725,1036.288319
4170.601489,-4293.194464,-8810.098227,-296.082377
4170.601814,-666.185348,-9039.926876,-222.061783
4170.602138,2072.576638,-7737.564530,-1258.350101
4170.602462,4811.338623,-7890.783629,-1480.411884
4170.602787,5107.421000,-7431.126331,-962.267725
4170.603111,5551.544565,-8810.098227,-814.226536
4170.603435,3108.864956,-7967.393179,-518.144159
4170.603760,0.000000,-9729.412825,592.164754
4170.604084,-3404.947333,-9422.974625,888.247130
4170.604408,-4737.318029,-9959.241474,1406.391290
4170.604732,-4589.276840,-9499.584175,1110.308913
4170.605057,-2294.638420,-8963.317327,296.082377
4170.605381,740.205942,-7737.564530,-296.082377
4170.605705,3923.091493,-7890.783629,-666.185348
4170.606030,5995.668130,-7584.345430,-1036.288319
4170.606354,6143.709319,-7431.126331,-1110.308913
4170.606678,5477.523971,-7967.393179,-1480.411884
4170.607002,2590.720797,-8044.002729,0.000000
4170.607327,-2294.638420,-9116.536426,370.102971
4170.607651,-5329.482782,-9039.926876,814.226536
4170.607975,-6069.688724,-9882.631924,814.226536
4170.608300,-6069.688724,-9959.241474,370.102971
4170.608624,-2664.741391,-8733.488677,-518.144159
4170.608948,666.185348,-7660.954980,-888.247130
4170.609273,2664.741391,-8427.050478,-1036.288319
4170.609597,6069.688724,-7814.174080,-1184.329507
4170.609921,7031.956449,-8197.221829,-1776.494261
4170.610245,4589.276840,-8503.660028,-962.267725
4170.610570,1554.432478,-7967.393179,-296.082377
4170.610894,-740.205942,-9193.145976,962.267725
4170.611218,-3627.009116,-9729.412825,814.226536
4170.611543,-4145.153275,-9806.022374,962.267725
4170.611867,-3404.947333,-9346.365076,518.144159
4170.612191,-1702.473667,-9269.755526,-1110.308913
4170.612516,1850.514855,-8197.221829,-1406.391290
4170.612840,4663.297435,-7660.954980,-888.247130
4170.613164,5403.503377,-8044.002729,-1406.391290
4170.613488,5921.647536,-8044.002729,-1776.494261
4170.613813,3701.029710,-8197.221829,-962.267725
4170.614137,74.020594,-8197.221829,-518.144159
4170.614461,-2368.659014,-9652.803275,444.123565
4170.614786,-5403.503377,-8886.707777,148.041188
4170.615110,-4589.276840,-9806.022374,1036.288319
4170.615434,-3478.967927,-7890.783629,-666.185348
4170.615758,0.000000,-9116.536426,-888.247130
4170.616083,3182.885551,-8197.221829,-1406.391290
4170.616407,4367.215058,-8273.831378,-1702.473667
4170.616731,4885.359217,-8273.831378,-2072.576638
4170.617056,4663.297435,-8273.831378,-1480.411884
4170.617380,1480.411884,-8656.879127,-222.061783
4170.617704,-888.247130,-7890.783629,370.102971
4170.618029,-2442.679609,-8963.317327,740.205942
4170.618353,-3627.009116,-9882.631924,888.247130
4170.618677,-3330.926739,-9806.022374,148.041188
4170.619001,-1110.308913,-8656.879127,0.000000
4170.619326,888.247130,-7890.783629,-1406.391290
4170.619650,4293.194464,-8810.098227,-740.205942
4170.619974,6217.729913,-8044.002729,-1554.432478
4170.620299,5181.441594,-8427.050478,-1480.411884
4170.620623,3256.906145,-9039.926876,-1184.329507
4170.620947,-444.123565,-8886.707777,0.000000
4170.621271,-3108.864956,-8810.098227,444.123565
4170.621596,-4515.256246,-8963.317327,962.267725
4170.621920,-5773.606348,-8963.317327,962.267725
4170.622244,-4737.318029,-8427.050478,222.061783
4170.622569,-1036.288319,-8427.050478,0.000000
4170.622893,2886.803174,-8120.612279,-888.247130
4170.623217,4737.318029,-7584.345430,-1702.473667
4170.623542,5847.626942,-8427.050478,-1036.288319
4170.623866,4367.215058,-8044.002729,-740.205942
4170.624190,3478.967927,-8886.707777,-370.102971
4170.624514,370.102971,-9269.755526,222.061783
4170.624839,-2590.720797,-9652.803275,370.102971
4170.625163,-4219.173869,-9652.803275,962.267725
4170.625487,-4145.153275,-9576.193725,1184.329507
4170.625812,-3478.967927,-8886.707777,1036.288319
4170.626136,-222.061783,-7737.564530,-296.082377
4170.626460,2368.659014,-7737.564530,-444.123565
4170.626785,5255.462188,-7507.735880,-1184.329507
4170.627109,6217.729913,-7584.345430,-740.205942
4170.627433,4811.338623,-7814.174080,-1332.370696
4170.627757,2368.659014,-8963.317327,-740.205942
4170.628082,-666.185348,-9116.536426,74.020594
4170.628406,-3849.070898,-9652.803275,1110.308913
4170.628730,-6365.771101,-9499.584175,1258.350101
4170.629055,-5403.503377,-9116.536426,962.267725
4170.629379,-4071.132681,-8503.660028,592.164754
4170.629703,814.226536,-7737.564530,-888.247130
4170.630027,4663.297435,-7584.345430,-1110.308913
4170.630352,6217.729913,-7660.954980,-1332.370696
4170.630676,6735.874072,-7431.126331,-1184.329507
4170.631000,4885.359217,-8580.269578,-962.267725
4170.631325,2072.576638,-8350.440928,-592.164754
4170.631649,-1036.288319,-9499.584175,888.247130
4170.631973,-3552.988522,-10112.460574,518.144159
4170.632298,-5033.400406,-9959.241474,1184.329507
4170.632622,-4737.318029,-9499.584175,444.123565
4170.632946,-2960.823768,-9346.365076,0.000000
4170.633270,2072.576638,-7584.345430,-1184.329507
4170.633595,4811.338623,-7814.174080,-814.226536
4170.633919,6143.709319,-7354.516781,-1702.473667
4170.634243,6439.791695,-7737.564530,-592.164754
4170.634568,4441.235652,-8120.612279,-1776.494261
4170.634892,1258.350101,-8886.707777,-740.205942
4170.635216,-2072.576638,-8810.098227,148.041188
4170.635541,-4441.235652,-10342.289223,888.247130
4170.635865,-6217.729913,-9269.755526,0.000000
4170.636189,-4515.256246,-9806.022374,222.061783
4170.636513,-2442.679609,-8886.707777,-814.226536
4170.636838,1036.288319,-7967.393179,-1480.411884
4170.637162,4885.359217,-7584.345430,-1554.432478
4170.637486,6439.791695,-8197.221829,-1924.535449
4170.637811,6439.791695,-8044.002729,-1702.473667
4170.638135,4219.173869,-7890.783629,-888.247130
4170.638459,1628.453072,-9193.145976,-296.082377
4170.638783,-2368.659014,-9039.926876,888.247130
4170.639108,-4663.297435,-9652.803275,518.144159
4170.639432,-3478.967927,-10265.679673,666.185348
4170.639756,-3108.864956,-8273.831378,-148.041188
4170.640081,-370.102971,-8810.098227,-296.082377
4170.640405,2294.638420,-6894.859482,-1258.350101
4170.640729,5255.462188,-8273.831378,-296.082377
4170.641054,6217.729913,-8197.221829,-1998.556043
4170.641378,5033.400406,-8427.050478,-1110.308913
4170.641702,2368.659014,-7737.564530,-592.164754
4170.642026,-518.144159,-8656.879127,-222.061783
4170.642351,-2738.761985,-9346.365076,814.226536
4170.642675,-4219.173869,-9116.536426,888.247130
4170.642999,-5181.441594,-9116.536426,666.185348
4170.643324,-2812.782580,-8427.050478,-222.061783
4170.643648,962.267725,-8350.440928,-518.144159
4170.643972,2886.803174,-7890.783629,-888.247130
4170.644296,5625.565159,-8120.612279,-814.226536
4170.644621,4293.194464,-7890.783629,-1850.514855
4170.644945,3404.947333,-7967.393179,-740.205942
4170.645269,1258.350101,-8580.269578,74.020594
4170.645594,-1036.288319,-9576.193725,148.041188
4170.645918,-3108.864956,-8580.269578,1258.350101
4170.646242,-3997.112087,-9116.536426,1258.350101
4170.646567,-3997.112087,-8503.660028,518.144159
4170.646891,-740.205942,-8197.221829,74.020594
4170.647215,1924.535449,-8273.831378,-444.123565
4170.647539,4293.194464,-7201.297681,-518.144159
4170.647864,5773.606348,-7507.735880,-740.205942
4170.648188,5329.482782,-7814.174080,-1184.329507
4170.648512,2960.823768,-8197.221829,-740.205942
4170.648837,-444.123565,-9422.974625,-222.061783
4170.649161,-3478.967927,-9729.412825,296.082377
4170.649485,-5477.523971,-9269.755526,1332.370696
4170.649810,-5699.585753,-8580.269578,1184.329507
4170.650134,-4515.256246,-8273.831378,222.061783
4170.650458,-1480.411884,-8810.098227,-222.061783
4170.650782,2442.679609,-7584.345430,-1702.473667
4170.651107,4145.153275,-7737.564530,-1332.370696
4170.651431,5847.626942,-7431.126331,-1924.535449
4170.651755,4737.318029,-8197.221829,-1184.329507
4170.652080,3552.988522,-9193.145976,-1406.391290
4170.652404,814.226536,-9422.974625,-222.061783
4170.652728,-1998.556043,-9959.241474,888.247130
4170.653052,-5033.400406,-10572.117872,296.082377
4170.653377,-4219.173869,-9806.022374,444.123565
4170.653701,-3330.926739,-9193.145976,0.000000
4170.654025,-148.041188,-8350.440928,-1110.308913
4170.654350,3108.864956,-7354.516781,-962.267725
4170.654674,4811.338623,-7660.954980,-1036.288319
4170.654998,5773.606348,-7890.783629,-1776.494261
4170.655323,4663.297435,-7890.783629,-1258.350101
4170.655647,2146.597232,-8886.707777,-740.205942
4170.655971,-814.226536,-9346.365076,-296.082377
4170.656295,-3256.906145,-9499.584175,148.041188
4170.656620,-5625.565159,-10265.679673,1036.288319
4170.656944,-5551.544565,-9116.536426,592.164754
4170.657268,-3404.947333,-8810.098227,296.082377
4170.657593,-370.102971,-8656.879127,-666.185348
4170.657917,3182.885551,-7814.174080,-962.267725
4170.658241,6069.688724,-7584.345430,-1480.411884
4170.658565,5255.462188,-7507.735880,-1480.411884
4170.658890,5181.441594,-7890.783629,-1036.288319
4170.659214,2442.679609,-9116.536426,-740.205942
4170.659538,-148.041188,-9269.755526,666.185348
4170.659863,-2664.741391,-8963.317327,666.185348
4170.660187,-2960.823768,-9882.631924,1554.432478
4170.660511,-2960.823768,-8503.660028,148.041188
4170.660836,-296.082377,-8886.707777,296.082377
4170.661160,1332.370696,-7584.345430,-444.123565
4170.661484,4293.194464,-7124.688131,-592.164754
4170.661808,6217.729913,-7967.393179,-1258.350101
4170.662133,5403.503377,-7737.564530,-1110.308913
4170.662457,3701.029710,-8656.879127,-1702.473667
4170.662781,-444.123565,-8044.002729,-962.267725
4170.663106,-2812.782580,-9269.755526,1184.329507
4170.663430,-4441.235652,-8810.098227,0.000000
4170.663754,-4145.153275,-9806.022374,814.226536
4170.664079,-3182.885551,-7660.954980,-148.041188
4170.664403,-518.144159,-8503.660028,0.000000
4170.664727,3182.885551,-7660.954980,-666.185348
4170.665051,5625.565159,-7737.564530,-814.226536
4170.665376,5329.482782,-7814.174080,-1998.556043
4170.665700,4219.173869,-8197.221829,-1406.391290
4170.666024,2220.617826,-8733.488677,-962.267725
4170.666349,-296.082377,-9499.584175,0.000000
4170.666673,-3182.885551,-9806.022374,296.082377
4170.666997,-4663.297435,-8810.098227,1110.308913
4170.667321,-4663.297435,-9116.536426,148.041188
4170.667646,-2516.700203,-8810.098227,148.041188
4170.667970,370.102971,-8350.440928,-814.226536
4170.668294,2960.823768,-7967.393179,-666.185348
4170.668619,5773.606348,-7814.174080,-1110.308913
4170.668943,5625.565159,-8120.612279,-1554.432478
4170.669267,3997.112087,-8580.269578,-1480.411884
4170.669592,1406.391290,-9116.536426,-444.123565
4170.669916,-2294.638420,-9346.365076,-370.102971
4170.670240,-4367.215058,-9346.365076,0.000000
4170.670564,-5773.606348,-9422.974625,814.226536
4170.670889,-5181.441594,-8350.440928,0.000000
4170.671213,-1850.514855,-8656.879127,-296.082377
4170.671537,962.267725,-7967.393179,-518.144159
4170.671862,4737.318029,-8120.612279,-1258.350101
4170.672186,7105.977043,-8580.269578,-1628.453072
4170.672510,6439.791695,-8273.831378,-1850.514855
4170.672834,4737.318029,-8656.879127,-1406.391290
4170.673159,-296.082377,-8656.879127,-296.082377
4170.673483,-2072.576638,-10495.508323,74.020594
4170.673807,-4071.132681,-9806.022374,296.082377
4170.674132,-4737.318029,-9806.022374,814.226536
4170.674456,-4071.132681,-8733.488677,-518.144159
4170.674780,-1850.514855,-9039.926876,-592.164754
4170.675105,444.123565,-8120.612279,-666.185348
4170.675429,4145.153275,-7354.516781,-1184.329507
4170.675753,4885.359217,-8427.050478,-888.247130
4170.676077,4737.318029,-8120.612279,-1480.411884
4170.676402,2960.823768,-8810.098227,-666.185348
4170.676726,1184.329507,-8580.269578,-518.144159
4170.677050,-3108.864956,-9959.241474,592.164754
4170.677375,-4737.318029,-9039.926876,0.000000
4170.677699,-4367.215058,-9269.755526,1480.411884
4170.678023,-4293.194464,-8503.660028,962.267725
4170.678348,0.000000,-8197.221829,-148.041188
4170.678672,2960.823768,-6971.469032,-222.061783
4170.678996,5107.421000,-7737.564530,-962.267725
4170.679320,5329.482782,-7354.516781,-740.205942
4170.679645,4737.318029,-8273.831378,-1480.411884
4170.679969,3404.947333,-9039.926876,-518.144159
4170.680293,1036.288319,-8120.612279,592.164754
4170.680618,-1924.535449,-9806.022374,888.247130
4170.680942,-5033.400406,-9422.974625,740.205942
4170.681266,-3923.091493,-9346.365076,1184.329507
4170.681590,-3404.947333,-7967.393179,-518.144159
4170.681915,-370.102971,-8503.660028,-666.185348
4170.682239,3330.926739,-7507.735880,-740.205942
4170.682563,4441.235652,-7890.783629,0.000000
4170.682888,5773.606348,-7967.393179,-962.267725
4170.683212,5107.421000,-8656.879127,-1554.432478
4170.683536,2146.597232,-8733.488677,-296.082377
4170.683861,-444.123565,-8197.221829,-222.061783
4170.684185,-2368.659014,-9499.584175,444.123565
4170.684509,-4737.318029,-9116.536426,888.247130
4170.684833,-4515.256246,-8427.050478,296.082377
4170.685158,-3330.926739,-8427.050478,444.123565
4170.685482,1036.288319,-7890.783629,-518.144159
4170.685806,3849.070898,-8044.002729,-1110.308913
4170.686131,5403.503377,-8273.831378,-1110.308913
4170.686455,5403.503377,-8810.098227,-1184.329507
4170.686779,4071.132681,-8656.879127,-1332.370696
4170.687103,1924.535449,-9116.536426,0.000000
4170.687428,-1628.453072,-8810.098227,0.000000
4170.687752,-3849.070898,-9576.193725,592.164754
4170.688076,-4293.194464,-8503.660028,592.164754
4170.688401,-3330.926739,-9116.536426,74.020594
4170.688725,-1110.308913,-8886.707777,-666.185348
4170.689049,518.144159,-8273.831378,-740.205942
4170.689374,3701.029710,-9116.536426,-962.267725
4170.689698,4811.338623,-8044.002729,-1184.329507
4170.690022,5255.462188,-8733.488677,-1924.535449
4170.690346,3404.947333,-9116.536426,-962.267725
4170.690671,1110.308913,-7814.174080,-740.205942
4170.690995,-2072.576638,-9422.974625,296.082377
4170.691319,-4293.194464,-8963.317327,74.020594
4170.691644,-4367.215058,-9039.926876,1036.288319
4170.691968,-2960.823768,-7737.564530,-444.123565
4170.692292,296.082377,-9039.926876,0.000000
4170.692617,2220.617826,-7660.954980,-888.247130
4170.692941,4145.153275,-8810.098227,-1628.453072
4170.693265,4515.256246,-8350.440928,-1776.494261
4170.693589,3330.926739,-8963.317327,-962.267725
4170.693914,1258.350101,-8733.488677,-962.267725
4170.694238,-666.185348,-9269.755526,0.000000
4170.694562,-3182.885551,-9346.365076,74.020594
4170.694887,-4515.256246,-9193.145976,666.185348
4170.695211,-4885.359217,-9116.536426,-444.123565
4170.695535,-2960.823768,-9116.536426,0.000000
4170.695859,0.000000,-7354.516781,-814.226536
4170.696184,2960.823768,-8273.831378,0.000000
4170.696508,5181.441594,-7814.174080,-666.185348
4170.696832,4959.379811,-8503.660028,-1480.411884
4170.697157,3923.091493,-8733.488677,-1628.453072
4170.697481,1332.370696,-8810.098227,-444.123565
4170.697806,-1406.391290,-8580.269578,666.185348
4170.698130,-3478.967927,-8656.879127,296.082377
4170.698454,-4589.276840,-8963.317327,1406.391290
4170.698778,-3849.070898,-8120.612279,370.102971
4170.699103,-1480.411884,-8350.440928,74.020594
4170.699427,1110.308913,-7354.516781,-962.267725
4170.699751,4071.132681,-8273.831378,-592.164754
4170.700075,5255.462188,-7967.393179,-1406.391290
4170.700400,4885.359217,-8963.317327,-1628.453072
4170.700724,4589.276840,-8044.002729,-518.144159
4170.701048,0.000000,-8733.488677,0.000000
4170.701372,-1850.514855,-9499.584175,370.102971
4170.701697,-4219.173869,-9729.412825,444.123565
4170.702021,-4811.338623,-9422.974625,0.000000
4170.702345,-3923.091493,-9806.022374,740.205942
4170.702669,-1332.370696,-6971.469032,518.144159
4170.702994,2590.720797,-7814.174080,-888.247130
4170.703318,3701.029710,-8810.098227,-1036.288319
4170.703642,5625.565159,-7660.954980,-1628.453072
4170.703966,5995.668130,-8273.831378,-1258.350101
4170.704291,1998.556043,-9193.145976,-740.205942
4170.704615,-814.226536,-8580.269578,0.000000
4170.704939,-2886.803174,-8350.440928,740.205942
4170.705263,-4367.215058,-8733.488677,666.185348
4170.705588,-3627.009116,-9806.022374,740.205942
4170.705912,-2960.823768,-7584.345430,-518.144159
4170.706236,0.000000,-8120.612279,444.123565
4170.706560,2960.823768,-7584.345430,-1036.288319
4170.706885,5551.544565,-8427.050478,-1184.329507
4170.707209,5107.421000,-7967.393179,-1480.411884
4170.707533,4737.318029,-8810.098227,-888.247130
4170.707857,1554.432478,-8044.002729,-1184.329507
4170.708182,-444.123565,-9806.022374,518.144159
4170.708506,-2664.741391,-8733.488677,0.000000
4170.708830,-4589.276840,-9652.803275,888.247130
4170.709154,-3034.844362,-8580.269578,296.082377
4170.709479,-1628.453072,-8580.269578,0.000000
4170.709803,888.247130,-7814.174080,-1184.329507
4170.710127,3256.906145,-8273.831378,-222.061783
4170.710451,5625.565159,-7890.783629,-1332.370696
4170.710776,4811.338623,-8580.269578,-1702.473667
4170.711100,4293.194464,-8503.660028,-814.226536
4170.711424,962.267725,-9039.926876,-148.041188
4170.711748,-1998.556043,-9346.365076,0.000000
4170.712073,-4293.194464,-8503.660028,740.205942
4170.712397,-5033.400406,-9116.536426,740.205942
4170.712721,-3701.029710,-8733.488677,222.061783
4170.713045,-666.185348,-8273.831378,0.000000
4170.713370,1998.556043,-8044.002729,-592.164754
4170.713694,3404.947333,-8273.831378,-962.267725
4170.714018,4811.338623,-8350.440928,-1406.391290
4170.714342,4663.297435,-8963.317327,-1480.411884
4170.714667,3256.906145,-8580.269578,-1036.288319
4170.714991,-518.144159,-8963.317327,370.102971
4170.715315,-2368.659014,-9422.974625,0.000000
4170.715639,-4441.235652,-9269.755526,148.041188
4170.715964,-3849.070898,-9269.755526,296.082377
4170.716288,-4145.153275,-7660.954980,518.144159
4170.716612,-444.123565,-7660.954980,-296.082377
4170.716936,2590.720797,-8044.002729,0.000000
4170.717261,4145.153275,-7814.174080,-740.205942
4170.717585,6143.709319,-8733.488677,-1258.350101
4170.717909,4293.194464,-8273.831378,-1702.473667
4170.718233,2442.679609,-8963.317327,-666.185348
4170.718558,74.020594,-7890.783629,-444.123565
4170.718882,-3997.112087,-9039.926876,814.226536
4170.719206,-4737.318029,-8656.879127,740.205942
4170.719530,-4589.276840,-8427.050478,370.102971
4170.719855,-3330.926739,-8656.879127,148.041188
4170.720179,296.082377,-7507.735880,-592.164754
4170.720503,2220.617826,-8733.488677,-1554.432478
4170.720827,4589.276840,-8503.660028,-1184.329507
4170.721152,4959.379811,-8656.879127,-888.247130
4170.721476,4663.297435,-8733.488677,-592.164754
4170.721800,1850.514855,-8656.879127,-1036.288319
4170.722124,-740.205942,-9269.755526,0.000000
4170.722449,-2960.823768,-9422.974625,222.061783
4170.722773,-3701.029710,-9499.584175,370.102971
4170.723097,-2960.823768,-9269.755526,370.102971
4170.723421,-1554.432478,-8580.269578,444.123565
4170.723746,740.205942,-8120.612279,-370.102971
4170.724070,2960.823768,-7890.783629,-1036.288319
4170.724394,5181.441594,-8350.440928,-1036.288319
4170.724718,5107.421000,-8273.831378,-1332.370696
4170.725043,4293.194464,-9039.926876,-888.247130
4170.725367,962.267725,-8273.831378,-518.144159
4170.725691,-2146.597232,-9269.755526,74.020594
4170.726015,-3701.029710,-9576.193725,444.123565
4170.726340,-3775.050304,-9269.755526,962.267725
4170.726664,-3701.029710,-8273.831378,0.000000
4170.726988,-666.185348,-8273.831378,-666.185348
4170.727312,1776.494261,-7890.783629,-740.205942
4170.727637,3997.112087,-8273.831378,-1036.288319
4170.727961,4959.379811,-8120.612279,-1258.350101
4170.728285,4737.318029,-8503.660028,-1184.329507
4170.728609,2812.782580,-8580.269578,-370.102971
4170.728934,0.000000,-9652.803275,-518.144159
4170.729258,-1776.494261,-9499.584175,0.000000
4170.729582,-3404.947333,-9269.755526,814.226536
4170.729906,-3034.844362,-9193.145976,222.061783
4170.730231,-2294.638420,-8886.707777,0.000000
4170.730555,592.164754,-7737.564530,0.000000
4170.730879,3330.926739,-8044.002729,-148.041188
4170.731203,4959.379811,-8350.440928,-1184.329507
4170.731528,5107.421000,-8580.269578,-1258.350101
4170.731852,3997.112087,-8427.050478,-1480.411884
4170.732176,1184.329507,-9039.926876,-666.185348
4170.732500,-2220.617826,-8886.707777,0.000000
4170.732825,-3552.988522,-9193.145976,444.123565
4170.733149,-5773.606348,-8656.879127,222.061783
4170.733473,-4737.318029,-9499.584175,1036.288319
4170.733797,-1924.535449,-8427.050478,-518.144159
4170.734122,962.267725,-8503.660028,-296.082377
4170.734446,3182.885551,-8120.612279,-1110.308913
4170.734770,5477.523971,-8656.879127,-1110.308913
4170.735094,4367.215058,-8580.269578,-1036.288319
4170.735419,4071.132681,-8656.879127,-1406.391290
4170.735743,148.041188,-9269.755526,0.000000
4170.736067,-2220.617826,-9116.536426,148.041188
4170.736391,-4219.173869,-9039.926876,666.185348
4170.736716,-3997.112087,-9193.145976,518.144159
4170.737040,-3775.050304,-8733.488677,518.144159
4170.737364,-1110.308913,-8120.612279,0.000000
4170.737688,1776.494261,-7584.345430,-592.164754
4170.738013,4367.215058,-7814.174080,-666.185348
4170.738337,5921.647536,-7737.564530,-370.102971
4170.738661,5477.523971,-8580.269578,-1258.350101
4170.738985,3404.947333,-8733.488677,-1110.308913
4170.739310,-148.041188,-8810.098227,0.000000
4170.739634,-3330.926739,-8886.707777,0.000000
4170.739958,-4737.318029,-9193.145976,814.226536
4170.740283,-4811.338623,-9116.536426,740.205942
4170.740607,-3775.050304,-8350.440928,296.082377
4170.740931,-444.123565,-7967.393179,148.041188
4170.741255,1702.473667,-8197.221829,-740.205942
4170.741580,4663.297435,-8273.831378,-814.226536
4170.741904,5181.441594,-7431.126331,-1776.494261
4170.742228,4959.379811,-8963.317327,-1036.288319
4170.742552,2072.576638,-8656.879127,-888.247130
4170.742877,148.041188,-9193.145976,296.082377
4170.743201,-2516.700203,-8656.879127,814.226536
4170.743525,-4071.132681,-9193.145976,370.102971
4170.743849,-3330.926739,-9116.536426,592.164754
4170.744174,-2738.761985,-8273.831378,370.102971
4170.744498,370.102971,-8197.221829,296.082377
4170.744822,3182.885551,-7814.174080,-370.102971
4170.745146,5625.565159,-8427.050478,-1110.308913
4170.745471,5551.544565,-8197.221829,-1480.411884
4170.745795,4367.215058,-8963.317327,-1258.350101
4170.746119,1036.288319,-8197.221829,-1110.308913
4170.746443,-2146.597232,-8273.831378,-148.041188
4170.746768,-3627.009116,-9652.803275,370.102971
4170.747092,-4293.194464,-8963.317327,0.000000
4170.747416,-3478.967927,-9116.536426,148.041188
4170.747740,-2442.679609,-7967.393179,-148.041188
4170.748065,518.144159,-7967.393179,-518.144159
4170.748389,3701.029710,-8197.221829,-1702.473667
4170.748713,6439.791695,-9039.926876,-1776.494261
4170.749037,5329.482782,-8350.440928,-2072.576638
4170.749362,3552.988522,-8963.317327,-1036.288319
4170.749686,296.082377,-9116.536426,-592.164754
4170.750010,-2146.597232,-9346.365076,-74.020594
4170.750334,-2960.823768,-9652.803275,444.123565
4170.750659,-4071.132681,-9193.145976,222.061783
4170.750983,-2812.782580,-8733.488677,-222.061783
4170.751307,-296.082377,-7737.564530,0.000000
4170.751631,2442.679609,-7890.783629,-444.123565
4170.751956,5699.585753,-8197.221829,-444.123565
4170.752280,5773.606348,-7737.564530,-740.205942
4170.752604,5921.647536,-9116.536426,-1332.370696
4170.752928,3552.988522,-8733.488677,-1258.350101
4170.753253,-518.144159,-8886.707777,-888.247130
4170.753577,-3775.050304,-9422.974625,296.082377
4170.753901,-6661.853478,-8580.269578,666.185348
4170.754225,-6365.771101,-9269.755526,740.205942
4170.754550,-4219.173869,-8427.050478,74.020594
4170.754874,-888.247130,-8273.831378,0.000000
4170.755198,2146.597232,-7890.783629,-1184.329507
4170.755522,5033.400406,-7890.783629,-1406.391290
4170.755847,4885.359217,-7660.954980,-1480.411884
4170.756171,3923.091493,-8656.879127,-1258.350101
4170.756495,2664.741391,-8733.488677,-148.041188
4170.756819,-444.123565,-8886.707777,370.102971
4170.757144,-2516.700203,-9729.412825,740.205942
4170.757468,-4219.173869,-8733.488677,592.164754
4170.757792,-4293.194464,-9269.755526,1110.308913
4170.758116,-1406.391290,-8120.612279,0.000000
4170.758441,592.164754,-7507.735880,74.020594
4170.758765,3404.947333,-7277.907231,222.061783
4170.759089,4737.318029,-7660.954980,-740.205942
4170.759413,4959.379811,-8350.440928,-888.247130
4170.759738,3627.009116,-8197.221829,-592.164754
4170.760062,1110.308913,-8427.050478,-222.061783
4170.760386,-2220.617826,-9039.926876,-370.102971
4170.760710,-4663.297435,-9576.193725,888.247130
4170.761035,-5699.585753,-8503.660028,518.144159
4170.761359,-3108.864956,-9039.926876,1036.288319
4170.761683,-888.247130,-7354.516781,370.102971
4170.762007,1480.411884,-6971.469032,-666.185348
4170.762332,4737.318029,-7967.393179,-740.205942
4170.762656,5551.544565,-8197.221829,-962.267725
4170.762980,6217.729913,-7737.564530,-2220.617826
4170.763304,3997.112087,-9652.803275,-666.185348
4170.763629,518.144159,-8886.707777,-666.185348
4170.763953,-1776.494261,-9346.365076,1258.350101
4170.764277,-3701.029710,-10035.851024,740.205942
4170.764601,-4219.173869,-10035.851024,592.164754
4170.764926,-3478.967927,-8273.831378,296.082377
4170.765250,296.082377,-8427.050478,148.041188
4170.765574,2516.700203,-7277.907231,-666.185348
4170.765898,5477.523971,-7814.174080,-1036.288319
4170.766223,5033.400406,-7890.783629,-1110.308913
4170.766547,4737.318029,-8273.831378,-962.267725
4170.766871,2738.761985,-9039.926876,-1628.453072
4170.767195,-962.267725,-9882.631924,0.000000
4170.767520,-3627.009116,-10342.289223,74.020594
4170.767844,-5107.421000,-9499.584175,-592.164754
4170.768168,-5329.482782,-9806.022374,888.247130
4170.768492,-3701.029710,-8350.440928,-370.102971
4170.768817,444.123565,-7507.735880,-370.102971
4170.769141,3478.967927,-7354.516781,-962.267725
4170.769465,6291.750507,-7584.345430,-1258.350101
4170.769789,5921.647536,-7431.126331,-2072.576638
4170.770114,4737.318029,-8197.221829,-1406.391290
4170.770438,2960.823768,-8886.707777,-1258.350101
4170.770762,1406.391290,-9959.241474,666.185348
4170.771086,-3404.947333,-9652.803275,-888.247130
4170.771411,-4515.256246,-10342.289223,592.164754
4170.771735,-4293.194464,-8963.317327,-888.247130
4170.772059,-2442.679609,-9193.145976,296.082377
4170.772383,592.164754,-7277.907231,-1036.288319
4170.772708,3330.926739,-7354.516781,0.000000
4170.773032,4367.215058,-7354.516781,-1776.494261
4170.773356,5403.503377,-8580.269578,-1554.432478
4170.773680,3404.947333,-8963.317327,-1480.411884
4170.774005,962.267725,-9729.412825,-888.247130
4170.774329,-1924.535449,-9576.193725,-592.164754
4170.774653,-5181.441594,-10265.679673,592.164754
4170.774977,-4811.338623,-9806.022374,296.082377
4170.775302,-4515.256246,-8810.098227,222.061783
4170.775626,-962.267725,-8273.831378,0.000000
4170.775950,2220.617826,-7201.297681,0.000000
4170.776274,4515.256246,-6818.249932,-1036.288319
4170.776599,6217.729913,-7431.126331,-1184.329507
4170.776923,5181.441594,-7354.516781,-1554.432478
4170.777247,3849.070898,-8810.098227,-1036.288319
4170.777571,0.000000,-9269.755526,0.000000
4170.777896,-3034.844362,-10112.460574,0.000000
4170.778220,-4811.338623,-9576.193725,1184.329507
4170.778544,-3775.050304,-9806.022374,444.123565
4170.778868,-3923.091493,-9039.926876,222.061783
4170.779193,-1406.391290,-7354.516781,814.226536
4170.779517,1998.556043,-7048.078582,148.041188
4170.779841,5181.441594,-7354.516781,-666.185348
4170.780165,6957.935855,-7201.297681,-592.164754
4170.780490,5773.606348,-8197.221829,-1110.308913
4170.780814,2738.761985,-8810.098227,-740.205942
4170.781138,0.000000,-9116.536426,74.020594
4170.781462,-3627.009116,-9729.412825,592.164754
4170.781787,-5181.441594,-9729.412825,814.226536
4170.782111,-5403.503377,-9499.584175,444.123565
4170.782435,-4515.256246,-7967.393179,814.226536
4170.782759,0.000000,-7431.126331,296.082377
4170.783084,1480.411884,-6894.859482,0.000000
4170.783408,5181.441594,-7354.516781,-888.247130
4170.783732,6365.771101,-6971.469032,-1554.432478
4170.784056,5107.421000,-8580.269578,-1702.473667
4170.784381,3997.112087,-9499.584175,-814.226536
4170.784705,962.267725,-9116.536426,0.000000
4170.785029,-2960.823768,-10878.556072,1184.329507
4170.785353,-4293.194464,-10112.460574,74.020594
4170.785678,-4515.256246,-9806.022374,296.082377
4170.786002,-3034.844362,-8963.317327,296.082377
4170.786326,-592.164754,-7507.735880,0.000000
4170.786650,2664.741391,-7124.688131,74.020594
4170.786975,4885.359217,-7431.126331,-1184.329507
4170.787299,5773.606348,-8197.221829,-1036.288319
4170.787623,4737.318029,-8503.660028,-2146.597232
4170.787947,1702.473667,-9116.536426,-1332.370696
4170.788272,-1036.288319,-9422.974625,0.000000
4170.788596,-2960.823768,-10035.851024,148.041188
4170.788920,-4071.132681,-10342.289223,0.000000
4170.789244,-3330.926739,-9346.365076,592.164754
4170.789569,-2220.617826,-8656.879127,74.020594
4170.789893,888.247130,-7431.126331,-740.205942
4170.790217,3923.091493,-7354.516781,-518.144159
4170.790541,4811.338623,-7814.174080,-1998.556043
4170.790866,4959.379811,-7890.783629,-1924.535449
4170.791190,3552.988522,-8044.002729,-1554.432478
4170.791514,888.247130,-9576.193725,-370.102971
4170.791838,-1258.350101,-9499.584175,74.020594
4170.792163,-3997.112087,-9806.022374,-148.041188
4170.792487,-3478.967927,-10418.898773,222.061783
4170.792811,-2442.679609,-8427.050478,-370.102971
4170.793135,-518.144159,-8886.707777,148.041188
4170.793460,3182.885551,-7354.516781,-296.082377
4170.793784,4589.276840,-7277.907231,-148.041188
4170.794108,6365.771101,-7584.345430,-1924.535449
4170.794432,4219.173869,-7737.564530,-1406.391290
4170.794757,444.123565,-8503.660028,-1258.350101
4170.795081,-1110.308913,-8963.317327,-962.267725
4170.795405,-3849.070898,-10112.460574,444.123565
4170.795729,-4441.235652,-9422.974625,0.000000
4170.796054,-4071.132681,-9193.145976,370.102971
4170.796378,-1924.535449,-8733.488677,296.082377
4170.796702,592.164754,-7814.174080,518.144159
4170.797026,3108.864956,-7431.126331,-296.082377
4170.797351,4959.379811,-7890.783629,-518.144159
4170.797675,4367.215058,-7431.126331,-1406.391290
4170.797999,2886.803174,-8120.612279,-1184.329507
4170.798324,1480.411884,-8197.221829,-888.247130
4170.798648,-1628.453072,-9882.631924,0.000000
4170.798972,-3330.926739,-9499.584175,444.123565
4170.799297,-4663.297435,-9499.584175,888.247130
4170.799621,-3701.029710,-8810.098227,1406.391290
4170.799945,-1702.473667,-7814.174080,1036.288319
4170.800270,1850.514855,-7124.688131,370.102971
4170.800594,4071.132681,-7124.688131,444.123565
4170.800918,5255.462188,-7048.078582,-592.164754
4170.801243,5921.647536,-8733.488677,-1110.308913
4170.801567,3256.906145,-8427.050478,-1480.411884
4170.801891,518.144159,-9269.755526,-518.144159
4170.802215,-3256.906145,-9346.365076,296.082377
4170.802540,-4959.379811,-9652.803275,666.185348
4170.802864,-6365.771101,-9959.241474,296.082377
4170.803188,-4367.215058,-8810.098227,1258.350101
4170.803513,-2590.720797,-7967.393179,-296.082377
4170.803837,1850.514855,-7890.783629,-666.185348
4170.804161,5699.585753,-7354.516781,74.020594
4170.804486,6069.688724,-7201.297681,-2072.576638
4170.804810,5995.668130,-8273.831378,-1554.432478
4170.805134,3775.050304,-8273.831378,-1332.370696
4170.805459,888.247130,-9652.803275,-740.205942
4170.805783,-2072.576638,-9422.974625,-370.102971
4170.806107,-4367.215058,-10035.851024,370.102971
4170.806432,-4293.194464,-10265.679673,0.000000
4170.806756,-2960.823768,-8273.831378,222.061783
4170.807080,-962.267725,-8120.612279,74.020594
4170.807405,2516.700203,-7048.078582,-814.226536
4170.807729,5403.503377,-8120.612279,-370.102971
4170.808053,5329.482782,-7431.126331,-1924.535449
4170.808377,4811.338623,-8963.317327,-1554.432478
4170.808702,1554.432478,-8273.831378,-1332.370696
4170.809026,-1184.329507,-9806.022374,-666.185348
4170.809350,-3701.029710,-9806.022374,-148.041188
4170.809675,-4589.276840,-10342.289223,444.123565
4170.809999,-3997.112087,-9882.631924,222.061783
4170.810323,-2368.659014,-8733.488677,296.082377
4170.810648,444.123565,-7967.393179,0.000000
4170.810972,3775.050304,-6971.469032,-666.185348
4170.811296,7031.956449,-8197.221829,-888.247130
4170.811621,5551.544565,-7967.393179,-2072.576638
4170.811945,4219.173869,-7814.174080,-1184.329507
4170.812269,2220.617826,-8273.831378,-1258.350101
4170.812594,-370.102971,-10265.679673,74.020594
4170.812918,-2960.823768,-9269.755526,0.000000
4170.813242,-3552.988522,-10648.727422,814.226536
4170.813567,-3923.091493,-8886.707777,0.000000
4170.813891,-1480.411884,-8427.050478,1036.288319
4170.814215,1554.432478,-7277.907231,0.000000
4170.814540,4071.132681,-7431.126331,-148.041188
4170.814864,5773.606348,-7354.516781,-1184.329507
4170.815188,5329.482782,-8120.612279,-814.226536
4170.815512,2368.659014,-7890.783629,-1258.350101
4170.815837,518.144159,-9039.926876,-666.185348
4170.816161,-2812.782580,-8963.317327,370.102971
4170.816485,-4367.215058,-9039.926876,814.226536
4170.816810,-4441.235652,-9039.926876,740.205942
4170.817134,-2368.659014,-8656.879127,962.267725
4170.817458,-444.123565,-8044.002729,-148.041188
4170.817783,2664.741391,-8044.002729,-518.144159
4170.818107,5477.523971,-7354.516781,-814.226536
4170.818431,4811.338623,-7124.688131,-1110.308913
4170.818756,4441.235652,-8197.221829,-962.267725
4170.819080,2146.597232,-8273.831378,-444.123565
4170.819404,-222.061783,-9576.193725,-222.061783
4170.819729,-2812.782580,-9116.536426,-814.226536
4170.820053,-4367.215058,-10035.851024,444.123565
4170.820377,-3923.091493,-9576.193725,0.000000
4170.820702,-1850.514855,-8503.660028,518.144159
4170.821026,888.247130,-8503.660028,666.185348
4170.821350,2368.659014,-6894.859482,-814.226536
4170.821674,4885.359217,-8733.488677,0.000000
4170.821999,4811.338623,-7277.907231,-2146.597232
4170.822323,4367.215058,-9346.365076,-592.164754
4170.822647,444.123565,-8273.831378,-1628.453072
4170.822972,-1850.514855,-9959.241474,740.205942
4170.823296,-3849.070898,-8810.098227,-444.123565
4170.823620,-4589.276840,-9959.241474,1406.391290
4170.823945,-3775.050304,-8733.488677,518.144159
4170.824269,-1702.473667,-8503.660028,-370.102971
4170.824593,740.205942,-8733.488677,0.000000
4170.824918,3182.885551,-6971.469032,-592.164754
4170.825242,5033.400406,-8044.002729,-1184.329507
4170.825566,4441.235652,-7814.174080,-1776.494261
4170.825891,3775.050304,-9193.145976,-1850.514855
4170.826215,740.205942,-9346.365076,-592.164754
4170.826539,-1850.514855,-9882.631924,-222.061783
4170.826864,-4071.132681,-9806.022374,74.020594
4170.827188,-5033.400406,-9652.803275,74.020594
4170.827512,-3849.070898,-8886.707777,888.247130
4170.827836,-1036.288319,-7814.174080,-296.082377
4170.828161,2590.720797,-7967.393179,-518.144159
4170.828485,5551.544565,-6741.640382,-666.185348
4170.828809,6291.750507,-7507.735880,-1036.288319
4170.829134,5625.565159,-8580.269578,-1480.411884
4170.829458,2812.782580,-8886.707777,-1110.308913
4170.829782,740.205942,-9576.193725,-370.102971
4170.830107,-2368.659014,-9346.365076,-370.102971
4170.830431,-4737.318029,-10342.289223,148.041188
4170.830755,-5625.565159,-9806.022374,296.082377
4170.831080,-3997.112087,-9269.755526,1036.288319
4170.831404,-2146.597232,-8120.612279,-296.082377
4170.831728,2072.576638,-7814.174080,0.000000
4170.832053,4367.215058,-6588.421283,-740.205942
4170.832377,6143.709319,-7890.783629,-1554.432478
4170.832701,6217.729913,-7814.174080,-1702.473667
4170.833026,3849.070898,-8580.269578,-1332.370696
4170.833350,1184.329507,-9806.022374,-148.041188
4170.833674,-1924.535449,-10265.679673,148.041188
4170.833998,-3330.926739,-10418.898773,740.205942
4170.834323,-4219.173869,-9422.974625,740.205942
4170.834647,-3108.864956,-8810.098227,666.185348
4170.834971,-592.164754,-7890.783629,148.041188
4170.835296,2368.659014,-7277.907231,-74.020594
4170.835620,4885.359217,-7124.688131,-518.144159
4170.835944,5551.544565,-7814.174080,-814.226536
4170.836269,4737.318029,-7890.783629,-1184.329507
4170.836593,1998.556043,-8733.488677,-518.144159
4170.836917,-148.041188,-8963.317327,-296.082377
4170.837242,-2368.659014,-9576.193725,-148.041188
4170.837566,-3701.029710,-10189.070123,222.061783
4170.837890,-4367.215058,-9422.974625,370.102971
4170.838215,-2072.576638,-8810.098227,444.123565
4170.838539,0.000000,-7660.954980,-222.061783
4170.838863,2294.638420,-7354.516781,-370.102971
4170.839188,4959.379811,-7584.345430,-962.267725
4170.839512,4367.215058,-7814.174080,-1776.494261
4170.839836,3330.926739,-8273.831378,-1554.432478
4170.840161,1702.473667,-8427.050478,-666.185348
4170.840485,-1406.391290,-9576.193725,-222.061783
4170.840809,-3256.906145,-9652.803275,-148.041188
4170.841133,-3330.926739,-9806.022374,888.247130
4170.841458,-3627.009116,-8733.488677,592.164754
4170.841782,-1554.432478,-8503.660028,0.000000
4170.842106,1850.514855,-8427.050478,0.000000
4170.842431,4663.297435,-7354.516781,-740.205942
4170.842755,4959.379811,-8044.002729,-1036.288319
4170.843079,4071.132681,-8044.002729,-1628.453072
4170.843404,1480.411884,-8963.317327,-592.164754
4170.843728,-1110.308913,-9039.926876,-1036.288319
4170.844052,-3034.844362,-10189.070123,-592.164754
4170.844377,-4441.235652,-9193.145976,-222.061783
4170.844701,-5403.503377,-9729.412825,814.226536
4170.845025,-3478.967927,-8733.488677,518.144159
4170.845350,-740.205942,-8273.831378,0.000000
4170.845674,2368.659014,-7660.954980,-370.102971
4170.845998,4589.276840,-7890.783629,-1184.329507
4170.846323,5329.482782,-8120.612279,-1480.411884
4170.846647,4589.276840,-8656.879127,-1332.370696
4170.846971,1776.494261,-8197.221829,-1850.514855
4170.847295,148.041188,-9959.241474,148.041188
4170.847620,-3627.009116,-9116.536426,-592.164754
4170.847944,-4219.173869,-10725.336972,888.247130
4170.848268,-4737.318029,-8503.660028,296.082377
4170.848593,-1998.556043,-9346.365076,888.247130
4170.848917,740.205942,-7354.516781,-444.123565
4170.849241,3182.885551,-7354.516781,666.185348
4170.849566,5107.421000,-7201.297681,-1258.350101
4170.849890,5625.565159,-8044.002729,-1480.411884
4170.850214,3849.070898,-8963.317327,-1702.473667
4170.850539,592.164754,-9269.755526,-592.164754
4170.850863,-1850.514855,-9729.412825,-296.082377
4170.851187,-4367.215058,-9422.974625,74.020594
4170.851512,-4145.153275,-10035.851024,888.247130
4170.851836,-3849.070898,-8350.440928,148.041188
4170.852160,-1628.453072,-9039.926876,740.205942
4170.852485,1184.329507,-7048.078582,-370.102971
4170.852809,4589.276840,-7354.516781,0.000000
4170.853133,5107.421000,-7048.078582,-1554.432478
4170.853457,5995.668130,-8197.221829,-1776.494261
4170.853782,3552.988522,-7967.393179,-1998.556043
4170.854106,1776.494261,-9729.412825,-592.164754
4170.854430,-1036.288319,-9882.631924,-296.082377
4170.854755,-3034.844362,-10035.851024,74.020594
4170.855079,-3997.112087,-9346.365076,888.247130
4170.855403,-2886.803174,-8810.098227,888.247130
4170.855728,-222.061783,-8350.440928,444.123565
4170.856052,2812.782580,-7048.078582,0.000000
4170.856376,5625.565159,-6971.469032,0.000000
4170.856701,6069.688724,-7814.174080,-1776.494261
4170.857025,4959.379811,-8886.707777,-1184.329507
4170.857349,2812.782580,-9193.145976,-1998.556043
4170.857674,148.041188,-9806.022374,148.041188
4170.857998,-3701.029710,-9116.536426,296.082377
4170.858322,-4737.318029,-10342.289223,592.164754
4170.858647,-5477.523971,-9269.755526,222.061783
4170.858971,-3552.988522,-9116.536426,296.082377
4170.859295,-666.185348,-8273.831378,0.000000
4170.859619,2738.761985,-7431.126331,-370.102971
4170.859944,4737.318029,-7584.345430,-1332.370696
4170.860268,4811.338623,-7967.393179,-2072.576638
4170.860592,4441.235652,-8350.440928,-1776.494261
4170.860917,1776.494261,-8810.098227,-666.185348
4170.861241,-814.226536,-9422.974625,-666.185348
4170.861565,-2960.823768,-9806.022374,0.000000
4170.861890,-4737.318029,-10572.117872,888.247130
4170.862214,-3701.029710,-8656.879127,-148.041188
4170.862538,-2146.597232,-9116.536426,814.226536
4170.862863,666.185348,-7431.126331,0.000000
4170.863187,3775.050304,-7201.297681,296.082377
4170.863511,5181.441594,-7354.516781,-1110.308913
4170.863836,5033.400406,-7737.564530,-1480.411884
4170.864160,2516.700203,-8350.440928,-1258.350101
4170.864484,592.164754,-9269.755526,-592.164754
4170.864809,-962.267725,-9193.145976,0.000000
4170.865133,-4811.338623,-9269.755526,148.041188
4170.865457,-4441.235652,-10189.070123,0.000000
4170.865781,-4367.215058,-9576.193725,592.164754
4170.866106,-3627.009116,-8350.440928,740.205942
4170.866430,740.205942,-6894.859482,-1036.288319
4170.866754,3108.864956,-8197.221829,0.000000
4170.867079,4145.153275,-6741.640382,-1850.514855
4170.867403,4885.359217,-8044.002729,-1110.308913
4170.867727,3552.988522,-8120.612279,-1480.411884
4170.868052,666.185348,-9116.536426,-222.061783
4170.868376,-1184.329507,-9729.412825,296.082377
4170.868700,-3552.988522,-10495.508323,370.102971
4170.869025,-4293.194464,-9806.022374,592.164754
4170.869349,-3404.947333,-8197.221829,296.082377
4170.869673,-1850.514855,-8733.488677,1036.288319
4170.869998,1998.556043,-6281.983084,296.082377
4170.870322,5403.503377,-7660.954980,296.082377
4170.870646,5329.482782,-7890.783629,-1110.308913
4170.870971,4589.276840,-8350.440928,-1332.370696
4170.871295,2590.720797,-7737.564530,-1406.391290
4170.871619,148.041188,-9422.974625,0.000000
4170.871944,-2590.720797,-9116.536426,222.061783
4170.872268,-4293.194464,-9806.022374,518.144159
4170.872592,-4663.297435,-9806.022374,592.164754
4170.872916,-4367.215058,-8580.269578,-148.041188
4170.873241,-296.082377,-8503.660028,-296.082377
4170.873565,3552.988522,-6971.469032,-222.061783
4170.873889,4811.338623,-7737.564530,-1480.411884
4170.874214,5625.565159,-6971.469032,-1702.473667
4170.874538,4515.256246,-7890.783629,-592.164754
4170.874862,3256.906145,-8733.488677,-1480.411884
4170.875187,592.164754,-9039.926876,-740.205942
4170.875511,-2368.659014,-9729.412825,-370.102971
4170.875835,-2960.823768,-10112.460574,0.000000
4170.876160,-2368.659014,-9039.926876,0.000000
4170.876484,-1110.308913,-9422.974625,814.226536
4170.876808,1332.370696,-7431.126331,-222.061783
4170.877133,3478.967927,-7737.564530,0.000000
4170.877457,4589.276840,-7737.564530,-666.185348
4170.877781,4737.318029,-8273.831378,-1406.391290
4170.878106,3404.947333,-8810.098227,-1702.473667
4170.878430,148.041188,-9039.926876,-1110.308913
4170.878754,-1850.514855,-9499.584175,-888.247130
4170.879078,-3627.009116,-10035.851024,0.000000
4170.879403,-4515.256246,-9959.241474,74.020594
4170.879727,-3108.864956,-8886.707777,0.000000
4170.880051,0.000000,-8810.098227,0.000000
4170.880376,1702.473667,-6971.469032,0.000000
4170.880700,5107.421000,-7431.126331,0.000000
4170.881024,5255.462188,-7354.516781,-1628.453072
4170.881349,5033.400406,-9116.536426,-1998.556043
4170.881673,2812.782580,-8044.002729,-1850.514855
4170.881997,-222.061783,-9652.803275,0.000000
4170.882322,-2812.782580,-9269.755526,-370.102971
4170.882646,-3108.864956,-10342.289223,0.000000
4170.882970,-4219.173869,-9193.145976,444.123565
4170.883295,-2442.679609,-8810.098227,592.164754
4170.883619,0.000000,-8044.002729,0.000000
4170.883943,2812.782580,-7507.735880,222.061783
4170.884268,5773.606348,-7354.516781,-518.144159
4170.884592,5773.606348,-7507.735880,-1110.308913
4170.884916,3923.091493,-8580.269578,-962.267725
4170.885240,1258.350101,-8273.831378,-1036.288319
4170.885565,-1850.514855,-9499.584175,-370.102971
4170.885889,-1924.535449,-8886.707777,518.144159
4170.886213,-4959.379811,-9959.241474,592.164754
4170.886538,-5033.400406,-8350.440928,444.123565
4170.886862,-3256.906145,-9116.536426,2294.638420
4170.887186,-222.061783,-6358.592633,-1332.370696
4170.887511,3923.091493,-8120.612279,1406.391290
4170.887835,4293.194464,-6358.592633,-2072.576638
4170.888159,5773.606348,-8427.050478,-222.061783
4170.888484,3849.070898,-7354.516781,-2812.782580
4170.888808,1850.514855,-11414.822920,444.123565
4170.889132,-1850.514855,-9269.755526,-740.205942
4170.889457,-3627.009116,-9576.193725,74.020594
4170.889781,-4811.338623,-9806.022374,1258.350101
4170.890105,-4293.194464,-7431.126331,-444.123565
4170.890430,-1184.329507,-9652.803275,1776.494261
4170.890754,222.061783,-6358.592633,0.000000
4170.891078,4737.318029,-8044.002729,592.164754
4170.891402,5329.482782,-6818.249932,-1184.329507
4170.891727,5477.523971,-8350.440928,-1110.308913
4170.892051,5329.482782,-8427.050478,-1776.494261
4170.892375,0.000000,-9652.803275,370.102971
4170.892700,-1628.453072,-8427.050478,-592.164754
4170.893024,-2516.700203,-10189.070123,814.226536
4170.893348,-3923.091493,-9806.022374,888.247130
4170.893673,-3701.029710,-8886.707777,962.267725
4170.893997,-666.185348,-8350.440928,0.000000
4170.894321,1628.453072,-7354.516781,-370.102971
4170.894646,4589.276840,-7507.735880,-370.102971
4170.894970,5699.585753,-7584.345430,-1554.432478
4170.895294,4589.276840,-8427.050478,-1258.350101
4170.895619,2812.782580,-8580.269578,-1702.473667
4170.895943,666.185348,-10189.070123,-962.267725
4170.896267,-2146.597232,-10189.070123,-296.082377
4170.896592,-3997.112087,-10342.289223,0.000000
4170.896916,-4885.359217,-9806.022374,222.061783
4170.897240,-2886.803174,-9422.974625,222.061783
4170.897564,592.164754,-7737.564530,0.000000
4170.897889,3478.967927,-7354.516781,-370.102971
4170.898213,5847.626942,-7584.345430,-296.082377
4170.898538,5107.421000,-7431.126331,-1554.432478
4170.898862,4071.132681,-8886.707777,-888.247130
4170.899186,1702.473667,-8350.440928,-1702.473667
4170.899511,-814.226536,-9806.022374,-370.102971
4170.899835,-3552.988522,-9729.412825,-592.164754
4170.900159,-3923.091493,-10572.117872,-518.144159
4170.900484,-3701.029710,-8886.707777,148.041188
4170.900808,-2886.803174,-8503.660028,-222.061783
4170.901132,370.102971,-7967.393179,0.000000
4170.901457,2664.741391,-7737.564530,-518.144159
4170.901781,5477.523971,-7431.126331,-814.226536
4170.902106,5181.441594,-7660.954980,-1998.556043
4170.902430,4515.256246,-8656.879127,-1924.535449
4170.902754,2146.597232,-8656.879127,-666.185348
4170.903079,-814.226536,-9959.241474,-518.144159
4170.903403,-3034.844362,-10189.070123,0.000000
4170.903727,-3627.009116,-9729.412825,1110.308913
4170.904052,-3923.091493,-8810.098227,888.247130
4170.904376,-962.267725,-9576.193725,-148.041188
4170.904700,1702.473667,-7737.564530,-518.144159
4170.905025,3849.070898,-7737.564530,0.000000
4170.905349,4737.318029,-7660.954980,-1036.288319
4170.905674,4071.132681,-8656.879127,-962.267725
4170.905998,2886.803174,-8120.612279,-148.041188
4170.906322,74.020594,-8810.098227,-666.185348
4170.906647,-2738.761985,-9729.412825,74.020594
4170.906971,-4515.256246,-9422.974625,444.123565
4170.907295,-4441.235652,-9499.584175,592.164754
4170.907620,-3701.029710,-9039.926876,370.102971
4170.907944,-518.144159,-8273.831378,222.061783
4170.908268,2072.576638,-7431.126331,518.144159
4170.908593,4219.173869,-7814.174080,0.000000
4170.908917,4071.132681,-7354.516781,-1036.288319
4170.909242,3775.050304,-7890.783629,-1036.288319
4170.909566,1628.453072,-8120.612279,-1110.308913
4170.909890,148.041188,-9576.193725,-592.164754
4170.910215,-1924.535449,-8963.317327,-814.226536
4170.910539,-3627.009116,-10112.460574,814.226536
4170.910863,-4219.173869,-8810.098227,74.020594
4170.911188,-1702.473667,-9039.926876,518.144159
4170.911512,518.144159,-7814.174080,222.061783
4170.911836,2812.782580,-7431.126331,148.041188
4170.912161,4737.318029,-7354.516781,-666.185348
4170.912485,4071.132681,-8120.612279,-1184.329507
4170.912810,3256.906145,-8503.660028,-1406.391290
4170.913134,0.000000,-8656.879127,-888.247130
4170.913458,-2812.782580,-9422.974625,-296.082377
4170.913783,-5107.421000,-9422.974625,-296.082377
4170.914107,-4219.173869,-9499.584175,592.164754
4170.914431,-3034.844362,-8656.879127,-296.082377
4170.914756,-962.267725,-8886.707777,370.102971
4170.915080,1776.494261,-7431.126331,-666.185348
4170.915404,4367.215058,-7507.735880,-666.185348
4170.915729,6365.771101,-7890.783629,-1258.350101
4170.916053,5033.400406,-7967.393179,-740.205942
4170.916378,3701.029710,-8656.879127,-1776.494261
4170.916702,592.164754,-9806.022374,-666.185348
4170.917026,-1850.514855,-9576.193725,-740.205942
4170.917351,-3849.070898,-9959.241474,0.000000
4170.917675,-4367.215058,-9193.145976,592.164754
4170.917999,-4219.173869,-9576.193725,518.144159
4170.918324,0.000000,-8044.002729,296.082377
4170.918648,3182.885551,-7277.907231,-370.102971
4170.918972,5477.523971,-7201.297681,-740.205942
4170.919297,6365.771101,-7737.564530,-1036.288319
4170.919621,5477.523971,-8273.831378,-1406.391290
4170.919946,3182.885551,-9576.193725,-1258.350101
4170.920270,-222.061783,-9269.755526,-518.144159
4170.920594,-3997.112087,-9652.803275,0.000000
4170.920919,-4145.153275,-9882.631924,-74.020594
4170.921243,-5107.421000,-9729.412825,296.082377
4170.921567,-3330.926739,-9116.536426,518.144159
4170.921892,-296.082377,-7201.297681,740.205942
4170.922216,2368.659014,-6971.469032,148.041188
4170.922540,5255.462188,-7124.688131,-222.061783
4170.922865,7772.162391,-7967.393179,-2072.576638
4170.923189,4885.359217,-8963.317327,-1776.494261
4170.923513,2590.720797,-7967.393179,-1776.494261
4170.923838,518.144159,-9959.241474,74.020594
4170.924162,-3997.112087,-9576.193725,-592.164754
4170.924487,-4145.153275,-10955.165621,1406.391290
4170.924811,-4885.359217,-8503.660028,-222.061783
4170.925135,-2442.679609,-9806.022374,888.247130
4170.925460,1110.308913,-6741.640382,-740.205942
4170.925784,3923.091493,-7507.735880,148.041188
4170.926108,5921.647536,-7124.688131,-740.205942
4170.926433,4959.379811,-8044.002729,-518.144159
4170.926757,4145.153275,-7814.174080,-1480.411884
4170.927081,1332.370696,-9039.926876,-592.164754
4170.927406,-2146.597232,-9039.926876,-814.226536
4170.927730,-4145.153275,-10495.508323,222.061783
4170.928055,-5033.400406,-9116.536426,-370.102971
4170.928379,-4071.132681,-9729.412825,444.123565
4170.928703,-2146.597232,-8503.660028,0.000000
4170.929028,1258.350101,-8273.831378,0.000000
4170.929352,2590.720797,-6665.030833,-888.247130
4170.929676,4589.276840,-7890.783629,-814.226536
4170.930001,4589.276840,-7660.954980,-1406.391290
4170.930325,3330.926739,-8120.612279,-1036.288319
4170.930649,74.020594,-8810.098227,-518.144159
4170.930974,-2664.741391,-9959.241474,-444.123565
4170.931298,-3849.070898,-9882.631924,0.000000
4170.931623,-4515.256246,-9806.022374,370.102971
4170.931947,-3552.988522,-9269.755526,296.082377
4170.932271,-370.102971,-7967.393179,814.226536
4170.932596,1776.494261,-6894.859482,592.164754
4170.932920,5181.441594,-7814.174080,222.061783
4170.933244,4737.318029,-7507.735880,-1850.514855
4170.933569,5181.441594,-8733.488677,-518.144159
4170.933893,1332.370696,-8580.269578,-1406.391290
4170.934217,-592.164754,-9422.974625,-296.082377
4170.934542,-4441.235652,-9039.926876,-444.123565
4170.934866,-4811.338623,-10112.460574,518.144159
4170.935191,-5551.544565,-8810.098227,0.000000
4170.935515,-3552.988522,-8733.488677,370.102971
4170.935839,1258.350101,-7814.174080,222.061783
4170.936164,2886.803174,-7048.078582,0.000000
4170.936488,5699.585753,-7890.783629,-444.123565
4170.936812,5995.668130,-7737.564530,-518.144159
4170.937137,5699.585753,-8273.831378,-814.226536
4170.937461,2960.823768,-8197.221829,-1184.329507
4170.937785,518.144159,-10035.851024,-888.247130
4170.938110,-3330.926739,-9576.193725,-370.102971
4170.938434,-4663.297435,-9652.803275,814.226536
4170.938759,-4219.173869,-9039.926876,370.102971
4170.939083,-1998.556043,-8810.098227,1110.308913
4170.939407,-370.102971,-7507.735880,-222.061783
4170.939732,3997.112087,-7967.393179,0.000000
4170.940056,5329.482782,-6665.030833,-1036.288319
4170.940380,5625.565159,-7967.393179,-1110.308913
4170.940705,4071.132681,-8044.002729,-1702.473667
4170.941029,1480.411884,-9346.365076,-666.185348
4170.941353,-1184.329507,-9729.412825,-962.267725
4170.941678,-4663.297435,-10265.679673,-148.041188
4170.942002,-1998.556043,-9729.412825,666.185348
4170.942327,-4219.173869,-8580.269578,-1036.288319
4170.942651,0.000000,-9652.803275,370.102971
4170.942975,1554.432478,-6818.249932,-370.102971
4170.943300,4145.153275,-7507.735880,-370.102971
4170.943624,5625.565159,-7277.907231,-1628.453072
4170.943948,4811.338623,-8350.440928,-1258.350101
4170.944273,3182.885551,-8427.050478,-740.205942
4170.944597,1406.391290,-8273.831378,-1184.329507
4170.944921,-1554.432478,-10878.556072,-962.267725
4170.945246,-3404.947333,-9269.755526,-148.041188
4170.945570,-3256.906145,-9346.365076,-222.061783
4170.945895,-3552.988522,-9346.365076,74.020594
4170.946219,370.102971,-8503.660028,518.144159
4170.946543,3256.906145,-7507.735880,74.020594
4170.946868,4663.297435,-8580.269578,-592.164754
4170.947192,4737.318029,-7354.516781,-1480.411884
4170.947516,3849.070898,-8656.879127,-1110.308913
4170.947841,1480.411884,-8503.660028,-1480.411884
4170.948165,-1036.288319,-10035.851024,-148.041188
4170.948489,-3256.906145,-8963.317327,-814.226536
4170.948814,-4515.256246,-10112.460574,666.185348
4170.949138,-4811.338623,-8580.269578,-370.102971
4170.949463,-1924.535449,-9039.926876,592.164754
4170.949787,1406.391290,-7890.783629,148.041188
4170.950111,3108.864956,-8044.002729,0.000000
4170.950436,4293.194464,-7967.393179,-1480.411884
4170.950760,4515.256246,-7890.783629,-1036.288319
4170.951084,3849.070898,-9499.584175,-592.164754
4170.951409,518.144159,-8733.488677,-1776.494261
4170.951733,-1258.350101,-10418.898773,-296.082377
4170.952057,-4145.153275,-9193.145976,0.000000
4170.952382,-4589.276840,-9882.631924,814.226536
4170.952706,-3849.070898,-8656.879127,222.061783
4170.953031,-1924.535449,-8886.707777,1258.350101
4170.953355,1702.473667,-6894.859482,222.061783
4170.953679,3997.112087,-7660.954980,222.061783
4170.954004,5625.565159,-7354.516781,-1036.288319
4170.954328,4811.338623,-7967.393179,-444.123565
4170.954652,3034.844362,-8503.660028,-1184.329507
4170.954977,370.102971,-8886.707777,-592.164754
4170.955301,-1924.535449,-9346.365076,0.000000
4170.955625,-4293.194464,-9652.803275,148.041188
4170.955950,-5255.462188,-9269.755526,222.061783
4170.956274,-5033.400406,-9116.536426,222.061783
4170.956599,-1924.535449,-8963.317327,444.123565
4170.956923,740.205942,-7277.907231,-370.102971
4170.957247,3997.112087,-7660.954980,-148.041188
4170.957572,4441.235652,-6971.469032,-1036.288319
4170.957896,4885.359217,-8656.879127,-518.144159
4170.958220,2664.741391,-7967.393179,-1554.432478
4170.958545,1110.308913,-9652.803275,296.082377
4170.958869,-2516.700203,-9422.974625,-1258.350101
4170.959193,-2664.741391,-10265.679673,518.144159
4170.959518,-3182.885551,-9806.022374,-296.082377
4170.959842,-1998.556043,-9499.584175,666.185348
4170.960167,148.041188,-7967.393179,148.041188
4170.960491,3478.967927,-7584.345430,222.061783
4170.960815,5625.565159,-7431.126331,148.041188
4170.961140,5995.668130,-7737.564530,-666.185348
4170.961464,4885.359217,-8427.050478,-1258.350101
4170.961788,1998.556043,-8503.660028,-592.164754
4170.962113,-1036.288319,-9269.755526,-888.247130
4170.962437,-2960.823768,-10495.508323,-666.185348
4170.962761,-4145.153275,-9346.365076,222.061783
4170.963086,-4441.235652,-9039.926876,-666.185348
4170.963410,-1776.494261,-9269.755526,370.102971
4170.963735,592.164754,-8427.050478,148.041188
4170.964059,2368.659014,-7737.564530,370.102971
4170.964383,4811.338623,-7660.954980,-1628.453072
4170.964708,4885.359217,-8120.612279,-1406.391290
4170.965032,3627.009116,-8886.707777,-1776.494261
4170.965356,1702.473667,-8580.269578,-740.205942
4170.965681,-962.267725,-9806.022374,-666.185348
4170.966005,-3108.864956,-8963.317327,-444.123565
4170.966329,-3404.947333,-9806.022374,0.000000
4170.966654,-3701.029710,-8963.317327,0.000000
4170.966978,-814.226536,-8810.098227,-222.061783
4170.967303,2294.638420,-7354.516781,0.000000
4170.967627,4367.215058,-8503.660028,0.000000
4170.967951,5329.482782,-8044.002729,-1924.535449
4170.968276,4737.318029,-8503.660028,-888.247130
4170.968600,2516.700203,-8197.221829,-1406.391290
4170.968924,-666.185348,-9576.193725,-444.123565
4170.969249,-2590.720797,-9422.974625,-1332.370696
4170.969573,-4441.235652,-10112.460574,0.000000
4170.969897,-4515.256246,-8656.879127,-148.041188
4170.970222,-3256.906145,-9269.755526,296.082377
4170.970546,-592.164754,-7814.174080,74.020594
4170.970871,2220.617826,-8197.221829,0.000000
4170.971195,4663.297435,-8273.831378,-962.267725
4170.971519,5329.482782,-7890.783629,-740.205942
4170.971844,4811.338623,-8350.440928,-740.205942
4170.972168,2072.576638,-8580.269578,-1110.308913
4170.972492,-518.144159,-9576.193725,0.000000
4170.972817,-2812.782580,-9499.584175,0.000000
4170.973141,-4219.173869,-9652.803275,296.082377
4170.973465,-4737.318029,-9193.145976,0.000000
4170.973790,-2516.700203,-7890.783629,962.267725
4170.974114,-222.061783,-7507.735880,888.247130
4170.974439,2664.741391,-7354.516781,296.082377
4170.974763,4959.379811,-7584.345430,-148.041188
4170.975087,4515.256246,-8197.221829,-1036.288319
4170.975412,3552.988522,-8656.879127,-1480.411884
4170.975736,370.102971,-8656.879127,-370.102971
4170.976060,-2960.823768,-8580.269578,-222.061783
4170.976385,-1776.494261,-9882.631924,222.061783
4170.976709,-4145.153275,-9422.974625,444.123565
4170.977033,-4811.338623,-9269.755526,148.041188
4170.977358,-1924.535449,-7967.393179,370.102971
4170.977682,74.020594,-7507.735880,0.000000
4170.978007,3627.009116,-7967.393179,148.041188
4170.978331,3627.009116,-7277.907231,-1332.370696
4170.978655,5847.626942,-8656.879127,-518.144159
4170.978980,1776.494261,-7354.516781,-1258.350101
4170.979304,1036.288319,-8273.831378,74.020594
4170.979628,0.000000,-9806.022374,-962.267725
4170.979953,-3849.070898,-10495.508323,370.102971
4170.980277,-3701.029710,-8044.002729,-370.102971
4170.980601,-2294.638420,-8580.269578,592.164754
4170.980926,-74.020594,-7814.174080,148.041188
4170.981250,2368.659014,-7354.516781,0.000000
4170.981574,5403.503377,-7737.564530,-370.102971
4170.981899,4071.132681,-8044.002729,-1110.308913
4170.982223,4589.276840,-8963.317327,-1554.432478
4170.982548,2590.720797,-8197.221829,-1258.350101
4170.982872,370.102971,-9269.755526,-592.164754
4170.983196,-3182.885551,-9422.974625,-1480.411884
4170.983521,-3923.091493,-10495.508323,740.205942
4170.983845,-4885.359217,-8656.879127,-740.205942
4170.984169,-3034.844362,-9116.536426,444.123565
4170.984494,740.205942,-7584.345430,-962.267725
4170.984818,2442.679609,-8427.050478,-222.061783
4170.985142,4441.235652,-7354.516781,-1554.432478
4170.985467,4589.276840,-7737.564530,-1258.350101
4170.985791,4737.318029,-8963.317327,-1184.329507
4170.986116,1998.556043,-9116.536426,-1554.432478
4170.986440,222.061783,-10265.679673,-1184.329507
4170.986764,-3108.864956,-9499.584175,-666.185348
4170.987089,-3849.070898,-10189.070123,296.082377
4170.987413,-3552.988522,-9422.974625,-592.164754
4170.987737,-1480.411884,-9116.536426,962.267725
4170.988062,1036.288319,-6971.469032,-518.144159
4170.988386,4367.215058,-7890.783629,-296.082377
4170.988710,6069.688724,-7660.954980,-592.164754
4170.989035,5625.565159,-8273.831378,-814.226536
4170.989359,4589.276840,-8656.879127,-1406.391290
4170.989684,1184.329507,-9116.536426,-518.144159
4170.990008,-1036.288319,-9882.631924,-888.247130
4170.990332,-3627.009116,-9652.803275,-888.247130
4170.990657,-5329.482782,-9346.365076,814.226536
4170.990981,-4959.379811,-9193.145976,0.000000
4170.991305,-2072.576638,-8044.002729,888.247130
4170.991630,444.123565,-7124.688131,444.123565
4170.991954,3034.844362,-8120.612279,0.000000
4170.992278,4293.194464,-6894.859482,-1036.288319
4170.992603,4441.235652,-7890.783629,-592.164754
4170.992927,3330.926739,-8120.612279,-1332.370696
4170.993252,1332.370696,-9116.536426,-222.061783
4170.993576,-1480.411884,-8733.488677,0.000000
4170.993900,-3182.885551,-9729.412825,518.144159
4170.994225,-3775.050304,-9269.755526,222.061783
4170.994549,-3849.070898,-8886.707777,888.247130
4170.994873,-1036.288319,-7814.174080,1036.288319
4170.995198,1924.535449,-7354.516781,814.226536
4170.995522,3701.029710,-7201.297681,74.020594
4170.995846,5181.441594,-7431.126331,-222.061783
4170.996171,3775.050304,-8197.221829,-1184.329507
4170.996495,1554.432478,-8503.660028,-444.123565
4170.996820,-1036.288319,-8273.831378,-518.144159
4170.997144,-2960.823768,-10265.679673,518.144159
4170.997468,-4515.256246,-8580.269578,222.061783
4170.997793,-2960.823768,-10112.460574,222.061783
4170.998117,-2664.741391,-8427.050478,-296.082377
4170.998441,-444.123565,-8427.050478,518.144159
4170.998766,2516.700203,-7277.907231,-740.205942
4170.999090,4441.235652,-7967.393179,148.041188
4170.999414,4145.153275,-7507.735880,-592.164754
4170.999739,4367.215058,-8580.269578,-740.205942
4171.000063,1776.494261,-8350.440928,-888.247130
4171.000387,-1184.329507,-9652.803275,-666.185348
4171.000711,-1924.535449,-9499.584175,-518.144159
4171.001036,-3330.926739,-9652.803275,-444.123565
4171.001360,-2664.741391,-9269.755526,-222.061783
4171.001684,-1036.288319,-8580.269578,444.123565
4171.002009,740.205942,-7507.735880,74.020594
4171.002333,3849.070898,-7737.564530,0.000000
4171.002657,4959.379811,-7814.174080,-1110.308913
4171.002981,4811.338623,-9346.365076,-518.144159
4171.003306,3923.091493,-8120.612279,-2294.638420
4171.003630,592.164754,-9193.145976,-1036.288319
4171.003954,-2072.576638,-9269.755526,-740.205942
4171.004279,-3478.967927,-10265.679673,74.020594
4171.004603,-5107.421000,-9039.926876,-740.205942
4171.004927,-3997.112087,-9729.412825,444.123565
4171.005252,-592.164754,-7660.954980,-666.185348
4171.005576,2220.617826,-8197.221829,-296.082377
4171.005900,4663.297435,-7354.516781,-814.226536
4171.006224,5773.606348,-8273.831378,-962.267725
4171.006549,5107.421000,-8197.221829,-1554.432478
4171.006873,3108.864956,-8963.317327,-814.226536
4171.007197,1184.329507,-8580.269578,-740.205942
4171.007522,-2294.638420,-9806.022374,-962.267725
4171.007846,-3627.009116,-9882.631924,0.000000
4171.008170,-3478.967927,-9193.145976,0.000000
4171.008494,-2738.761985,-8810.098227,-370.102971
4171.008819,148.041188,-7814.174080,-222.061783
4171.009143,2738.761985,-7124.688131,-296.082377
4171.009467,4885.359217,-8273.831378,0.000000
4171.009792,8586.388927,-7507.735880,-148.041188
4171.010116,3552.988522,-8656.879127,-1184.329507
4171.010440,1702.473667,-7890.783629,-962.267725
4171.010765,-1850.514855,-9576.193725,-370.102971
4171.011089,-3404.947333,-9346.365076,-1702.473667
4171.011413,-3849.070898,-9959.241474,1258.350101
4171.011737,-5403.503377,-9039.926876,-1036.288319
4171.012062,-2516.700203,-9729.412825,1702.473667
4171.012386,0.000000,-6128.763984,-1036.288319
4171.012710,2590.720797,-9269.755526,1628.453072
4171.013035,4737.318029,-6435.202183,-1924.535449
4171.013359,5995.668130,-8350.440928,-666.185348
4171.013683,3182.885551,-7967.393179,-962.267725
4171.014007,1554.432478,-8273.831378,-444.123565
4171.014332,-592.164754,-10112.460574,0.000000
4171.014656,-3775.050304,-9039.926876,0.000000
4171.014980,-4367.215058,-9576.193725,222.061783
4171.015305,-4811.338623,-8656.879127,-148.041188
4171.015629,-1776.494261,-9116.536426,1036.288319
4171.015953,148.041188,-6358.592633,296.082377
4171.016278,3478.967927,-8503.660028,666.185348
4171.016602,4219.173869,-7124.688131,-962.267725
4171.016926,5995.668130,-8580.269578,0.000000
4171.017250,2220.617826,-8197.221829,-814.226536
4171.017575,148.041188,-9652.803275,-666.185348
4171.017899,-1480.411884,-9346.365076,-814.226536
4171.018223,-3552.988522,-9346.365076,222.061783
4171.018548,-4959.379811,-9116.536426,518.144159
4171.018872,-4071.132681,-8963.317327,296.082377
4171.019196,-2220.617826,-8273.831378,888.247130
4171.019520,1554.432478,-7660.954980,-222.061783
4171.019845,4367.215058,-7737.564530,-222.061783
4171.020169,4589.276840,-7354.516781,-592.164754
4171.020493,4959.379811,-7814.174080,-666.185348
4171.020818,2664.741391,-7890.783629,-1776.494261
4171.021142,666.185348,-9652.803275,-444.123565
4171.021466,-1110.308913,-9729.412825,-518.144159
4171.021791,-3627.009116,-9269.755526,-148.041188
4171.022115,-4145.153275,-9576.193725,222.061783
4171.022439,-2442.679609,-8810.098227,814.226536
4171.022763,518.144159,-8350.440928,-222.061783
4171.023088,3330.926739,-7507.735880,0.000000
4171.023412,5403.503377,-8044.002729,-592.164754
4171.023736,5107.421000,-8044.002729,-1258.350101
4171.024061,4589.276840,-8733.488677,-888.247130
4171.024385,1998.556043,-8580.269578,-444.123565
4171.024709,-1702.473667,-8886.707777,-370.102971
4171.025033,-2738.761985,-9422.974625,-222.061783
4171.025358,-4367.215058,-9116.536426,-370.102971
4171.025682,-3552.988522,-9882.631924,0.000000
4171.026006,-1998.556043,-8197.221829,-740.205942
4171.026331,1184.329507,-8580.269578,148.041188
4171.026655,2442.679609,-7507.735880,74.020594
4171.026979,5773.606348,-8044.002729,-148.041188
4171.027304,5625.565159,-7737.564530,-1332.370696
4171.027628,4145.153275,-9116.536426,-1628.453072
4171.027952,2738.761985,-9039.926876,-1776.494261
4171.028276,-740.205942,-9959.241474,-1258.350101
4171.028601,-2812.782580,-9269.755526,0.000000
4171.028925,-3849.070898,-9193.145976,148.041188
4171.029249,-3108.864956,-9576.193725,222.061783
4171.029574,-2072.576638,-8503.660028,222.061783
4171.029898,1480.411884,-7890.783629,0.000000
4171.030222,3478.967927,-7354.516781,0.000000
4171.030546,5699.585753,-8273.831378,-1036.288319
4171.030871,5033.400406,-8350.440928,-1332.370696
4171.031195,3256.906145,-8273.831378,-814.226536
4171.031519,148.041188,-8580.269578,-1184.329507
4171.031844,-2664.741391,-9729.412825,-222.061783
4171.032168,-4515.256246,-8810.098227,518.144159
4171.032492,-4737.318029,-9193.145976,0.000000
4171.032817,-4071.132681,-8886.707777,148.041188
4171.033141,-3034.844362,-8197.221829,-296.082377
4171.033465,2442.679609,-8963.317327,148.041188
4171.033789,3034.844362,-7201.297681,148.041188
4171.034114,3552.988522,-6741.640382,-962.267725
4171.034438,5995.668130,-9116.536426,-1036.288319
4171.034762,2442.679609,-9039.926876,-296.082377
4171.035087,1332.370696,-9116.536426,-444.123565
4171.035411,-962.267725,-8733.488677,-962.267725
4171.035735,-4515.256246,-9806.022374,740.205942
4171.036059,-4219.173869,-9193.145976,-148.041188
4171.036384,-1776.494261,-8886.707777,666.185348
4171.036708,-370.102971,-8044.002729,296.082377
4171.037032,1924.535449,-7354.516781,740.205942
4171.037357,4145.153275,-7814.174080,888.247130
4171.037681,5699.585753,-7890.783629,-370.102971
4171.038005,4737.318029,-7967.393179,-962.267725
4171.038330,1406.391290,-8810.098227,-814.226536
4171.038654,-1702.473667,-9959.241474,-592.164754
4171.038978,-3701.029710,-9193.145976,0.000000
4171.039302,-3849.070898,-9193.145976,518.144159
4171.039627,-4219.173869,-9346.365076,0.000000
4171.039951,-2368.659014,-9039.926876,518.144159
4171.040275,-592.164754,-7890.783629,444.123565
4171.040600,1110.308913,-8197.221829,-518.144159
4171.040924,3701.029710,-8120.612279,-1776.494261
4171.041248,3404.947333,-8963.317327,-888.247130
4171.041572,740.205942,-7431.126331,-592.164754
4171.041897,2516.700203,-8350.440928,-1258.350101
4171.042221,-962.267725,-11261.603821,0.000000
4171.042545,-2442.679609,-8273.831378,-222.061783
4171.042870,-2886.803174,-9652.803275,-296.082377
4171.043194,-2664.741391,-8810.098227,296.082377
4171.043518,296.082377,-8427.050478,962.267725
4171.043843,2146.597232,-6741.640382,-222.061783
4171.044167,4737.318029,-8810.098227,-444.123565
4171.044491,5329.482782,-7201.297681,-888.247130
4171.044815,4737.318029,-7967.393179,-1258.350101
4171.045140,2664.741391,-8427.050478,-370.102971
4171.045464,-296.082377,-9193.145976,-592.164754
4171.045788,-2516.700203,-9499.584175,-1184.329507
4171.046113,-4663.297435,-9652.803275,0.000000
4171.046437,-3997.112087,-9346.365076,296.082377
4171.046761,-2294.638420,-8656.879127,0.000000
4171.047085,-1258.350101,-7890.783629,-666.185348
4171.047410,2590.720797,-8197.221829,74.020594
4171.047734,3923.091493,-6971.469032,-962.267725
4171.048058,4811.338623,-8503.660028,-444.123565
4171.048383,4737.318029,-7354.516781,-1628.453072
4171.048707,2738.761985,-8733.488677,-1406.391290
4171.049031,0.000000,-9652.803275,-1554.432478
4171.049356,-1924.535449,-9499.584175,-296.082377
4171.049680,-3997.112087,-9116.536426,370.102971
4171.050004,-4293.194464,-9193.145976,148.041188
4171.050328,-814.226536,-8503.660028,370.102971
4171.050653,1184.329507,-7507.735880,0.000000
4171.050977,3256.906145,-7354.516781,-592.164754
4171.051301,5329.482782,-7814.174080,-370.102971
4171.051626,4737.318029,-8197.221829,-1110.308913
4171.051950,4071.132681,-8733.488677,-592.164754
4171.052274,814.226536,-8963.317327,-962.267725
4171.052598,-1554.432478,-9806.022374,-888.247130
4171.052923,-4219.173869,-10265.679673,148.041188
4171.053247,-4071.132681,-9576.193725,0.000000
4171.053571,-3034.844362,-8963.317327,222.061783
4171.053896,-1554.432478,-7890.783629,1036.288319
4171.054220,1110.308913,-7660.954980,0.000000
4171.054544,2738.761985,-7277.907231,-148.041188
4171.054869,4811.338623,-8120.612279,-1110.308913
4171.055193,4885.359217,-7967.393179,-1258.350101
4171.055517,3256.906145,-8810.098227,-740.205942
4171.055841,370.102971,-8733.488677,-1332.370696
4171.056166,-1332.370696,-10265.679673,-1110.308913
4171.056490,-4219.173869,-8963.317327,0.000000
4171.056814,-2960.823768,-9806.022374,740.205942
4171.057139,-2442.679609,-8427.050478,296.082377
4171.057463,-592.164754,-8273.831378,1110.308913
4171.057787,1554.432478,-7354.516781,74.020594
4171.058111,5033.400406,-7354.516781,-518.144159
4171.058436,5477.523971,-8810.098227,-962.267725
4171.058760,4737.318029,-8044.002729,-1036.288319
4171.059084,2368.659014,-7967.393179,-296.082377
4171.059409,-814.226536,-9039.926876,-666.185348
4171.059733,-2516.700203,-9806.022374,0.000000
4171.060057,-3627.009116,-9729.412825,296.082377
4171.060381,-4811.338623,-9499.584175,222.061783
4171.060706,-3330.926739,-7890.783629,296.082377
4171.061030,-370.102971,-7890.783629,740.205942
4171.061354,1998.556043,-8120.612279,-222.061783
4171.061679,3849.070898,-7814.174080,-1036.288319
4171.062003,4219.173869,-8503.660028,-1554.432478
4171.062327,3552.988522,-8350.440928,-1036.288319
4171.062652,1036.288319,-8886.707777,-1258.350101
4171.062976,-962.267725,-9959.241474,-370.102971
4171.063300,-2368.659014,-9806.022374,0.000000
4171.063624,-3701.029710,-9269.755526,-296.082377
4171.063949,-3256.906145,-10035.851024,296.082377
4171.064273,-1036.288319,-8197.221829,370.102971
4171.064597,370.102971,-8503.660028,222.061783
4171.064922,3108.864956,-6741.640382,-370.102971
4171.065246,5403.503377,-8656.879127,0.000000
4171.065570,5551.544565,-7967.393179,-814.226536
4171.065894,4071.132681,-9422.974625,-1036.288319
4171.066219,888.247130,-8044.002729,-1702.473667
4171.066543,-1406.391290,-10572.117872,-444.123565
4171.066867,-3182.885551,-8810.098227,-962.267725
4171.067192,-4071.132681,-10418.898773,666.185348
4171.067516,-3849.070898,-8044.002729,-518.144159
4171.067840,-2960.823768,-8656.879127,1036.288319
4171.068165,1110.308913,-7124.688131,-1480.411884
4171.068489,3182.885551,-7277.907231,-444.123565
4171.068813,4219.173869,-7354.516781,-1850.514855
4171.069137,4663.297435,-8427.050478,-1332.370696
4171.069462,2368.659014,-8273.831378,-1110.308913
4171.069786,592.164754,-9806.022374,0.000000
4171.070110,-1258.350101,-9806.022374,-1184.329507
4171.070435,-2960.823768,-9652.803275,-370.102971
4171.070759,-3404.947333,-9882.631924,0.000000
4171.071083,-2442.679609,-8656.879127,370.102971
4171.071407,-148.041188,-8044.002729,518.144159
4171.071732,2146.597232,-7048.078582,-296.082377
4171.072056,4589.276840,-8350.440928,0.000000
4171.072380,5107.421000,-8197.221829,-592.164754
4171.072705,4145.153275,-8580.269578,-518.144159
4171.073029,2516.700203,-8810.098227,-666.185348
4171.073353,-222.061783,-9576.193725,-592.164754
4171.073678,-1924.535449,-9806.022374,-370.102971
4171.074002,-3034.844362,-8886.707777,148.041188
4171.074326,-3478.967927,-9499.584175,444.123565
4171.074650,-1924.535449,-8044.002729,222.061783
4171.074975,814.226536,-8273.831378,370.102971
4171.075299,2072.576638,-6894.859482,-740.205942
4171.075623,4959.379811,-8580.269578,-296.082377
4171.075948,3775.050304,-7431.126331,-1776.494261
4171.076272,3701.029710,-9039.926876,0.000000
4171.076596,1036.288319,-7814.174080,-1776.494261
4171.076920,-1184.329507,-10878.556072,74.020594
4171.077245,0.000000,-8656.879127,296.082377
4171.077569,-5921.647536,-10189.070123,-666.185348
4171.077893,-3034.844362,-8580.269578,-222.061783
4171.078218,-2368.659014,-7890.783629,2072.576638
4171.078542,592.164754,-6588.421283,-592.164754
4171.078866,4663.297435,-7967.393179,1850.514855
4171.079191,4367.215058,-7277.907231,-1110.308913
4171.079515,3034.844362,-8197.221829,0.000000
4171.079839,4145.153275,-8120.612279,-1998.556043
4171.080163,296.082377,-10265.679673,-444.123565
4171.080488,-1924.535449,-9039.926876,-1332.370696
4171.080812,-3997.112087,-9806.022374,370.102971
4171.081136,-5403.503377,-8963.317327,962.267725
4171.081461,-3775.050304,-8427.050478,370.102971
4171.081785,-962.267725,-8120.612279,962.267725
4171.082109,1998.556043,-7507.735880,-296.082377
4171.082433,4071.132681,-6971.469032,-1258.350101
4171.082758,5181.441594,-7814.174080,-370.102971
4171.083082,4219.173869,-7737.564530,-1332.370696
4171.083406,2516.700203,-8656.879127,-1110.308913
4171.083731,-222.061783,-9193.145976,-740.205942
4171.084055,-3330.926739,-9652.803275,-222.061783
4171.084379,-3775.050304,-9806.022374,-370.102971
4171.084704,-3997.112087,-9499.584175,0.000000
4171.085028,-3108.864956,-9269.755526,0.000000
4171.085352,888.247130,-8197.221829,0.000000
4171.085676,2368.659014,-7201.297681,0.000000
4171.086001,4811.338623,-7814.174080,148.041188
4171.086325,5181.441594,-7814.174080,-1480.411884
4171.086649,2960.823768,-8963.317327,-666.185348
4171.086974,1924.535449,-8886.707777,-1628.453072
4171.087298,-888.247130,-9729.412825,-370.102971
4171.087622,-3330.926739,-9576.193725,0.000000
4171.087946,-4885.359217,-9269.755526,0.000000
4171.088271,-4811.338623,-9269.755526,518.144159
4171.088595,-3182.885551,-8273.831378,74.020594
4171.088919,222.061783,-7660.954980,222.061783
4171.089244,2738.761985,-7814.174080,0.000000
4171.089568,4367.215058,-7814.174080,74.020594
4171.089892,5551.544565,-7124.688131,-1480.411884
4171.090217,2960.823768,-9116.536426,-1258.350101
4171.090541,2146.597232,-9269.755526,-1036.288319
4171.090865,666.185348,-9729.412825,-740.205942
4171.091189,-2368.659014,-9193.145976,74.020594
4171.091514,-3478.967927,-9422.974625,-222.061783
4171.091838,-2590.720797,-8273.831378,-370.102971
4171.092162,74.020594,-8580.269578,370.102971
4171.092487,2220.617826,-6741.640382,814.226536
4171.092811,4663.297435,-7354.516781,0.000000
4171.093135,5255.462188,-7431.126331,-296.082377
4171.093459,4441.235652,-7890.783629,-814.226536
4171.093784,2516.700203,-8656.879127,-1258.350101
4171.094108,296.082377,-9652.803275,-444.123565
4171.094432,-2146.597232,-9193.145976,-444.123565
4171.094757,-2886.803174,-9346.365076,-666.185348
4171.095081,-4071.132681,-9269.755526,148.041188
4171.095405,-3330.926739,-9039.926876,518.144159
4171.095730,-1776.494261,-7431.126331,148.041188
4171.096054,1702.473667,-8120.612279,370.102971
4171.096378,3775.050304,-7048.078582,-888.247130
4171.096702,5033.400406,-8810.098227,-592.164754
4171.097027,4367.215058,-7507.735880,-1628.453072
4171.097351,2516.700203,-8810.098227,-1332.370696
4171.097675,-148.041188,-9652.803275,-592.164754
4171.098000,-1406.391290,-9882.631924,370.102971
4171.098324,-3478.967927,-8963.317327,0.000000
4171.098648,-2146.597232,-9652.803275,-222.061783
4171.098972,-1702.473667,-8197.221829,-814.226536
4171.099297,1776.494261,-8963.317327,740.205942
4171.099621,2368.659014,-6281.983084,0.000000
4171.099945,4811.338623,-8580.269578,962.267725
4171.100270,4589.276840,-7354.516781,-592.164754
4171.100594,2590.720797,-8273.831378,-370.102971
4171.100918,2516.700203,-9652.803275,-1924.535449
4171.101242,-1332.370696,-10342.289223,-296.082377
4171.101567,-3552.988522,-8810.098227,-666.185348
4171.101891,-3849.070898,-9499.584175,0.000000
4171.102215,-3923.091493,-8733.488677,222.061783
4171.102540,-2146.597232,-8580.269578,962.267725
4171.102864,888.247130,-7354.516781,0.000000
4171.103188,2738.761985,-7967.393179,370.102971
4171.103512,4367.215058,-7048.078582,-888.247130
4171.103837,5477.523971,-6971.469032,-814.226536
4171.104161,2886.803174,-8427.050478,-1480.411884
4171.104485,1036.288319,-9652.803275,-1184.329507
4171.104809,-1554.432478,-9652.803275,-444.123565
4171.105134,-3997.112087,-10112.460574,518.144159
4171.105458,-5699.585753,-8886.707777,0.000000
4171.105782,-3108.864956,-8886.707777,0.000000
4171.106107,-296.082377,-8197.221829,0.000000
4171.106431,2590.720797,-7660.954980,592.164754
4171.106755,2812.782580,-6741.640382,0.000000
4171.107079,4367.215058,-7584.345430,-518.144159
4171.107404,4219.173869,-7967.393179,-1110.308913
4171.107728,2590.720797,-9269.755526,-1184.329507
4171.108052,-740.205942,-9039.926876,0.000000
4171.108376,-2590.720797,-9959.241474,-814.226536
4171.108701,-4293.194464,-9346.365076,-444.123565
4171.109025,-4293.194464,-9806.022374,-518.144159
4171.109349,-3404.947333,-8886.707777,296.082377
4171.109674,-1332.370696,-8197.221829,444.123565
4171.109998,1628.453072,-7277.907231,296.082377
4171.110322,4811.338623,-8044.002729,0.000000
4171.110646,4663.297435,-7277.907231,-1406.391290
4171.110971,4737.318029,-8503.660028,-1406.391290
4171.111295,2294.638420,-8580.269578,-1628.453072
4171.111619,518.144159,-10342.289223,-740.205942
4171.111944,-2368.659014,-9499.584175,-740.205942
4171.112268,-2812.782580,-9729.412825,592.164754
4171.112592,-3108.864956,-8733.488677,0.000000
4171.112916,-1184.329507,-9499.584175,296.082377
4171.113241,1702.473667,-7737.564530,-518.144159
4171.113565,3108.864956,-7660.954980,370.102971
4171.113889,5181.441594,-7584.345430,74.020594
4171.114213,4515.256246,-7890.783629,-370.102971
4171.114538,3627.009116,-7967.393179,-814.226536
4171.114862,518.144159,-9422.974625,-962.267725
4171.115186,-1258.350101,-9116.536426,-666.185348
4171.115511,-2664.741391,-9806.022374,-296.082377
4171.115835,-4071.132681,-9116.536426,-296.082377
4171.116159,-2886.803174,-9346.365076,370.102971
4171.116483,-1554.432478,-7201.297681,518.144159
4171.116808,1036.288319,-8120.612279,888.247130
4171.117132,3627.009116,-6818.249932,-296.082377
4171.117456,5847.626942,-7890.783629,-444.123565
4171.117781,5551.544565,-7660.954980,-666.185348
4171.118105,2664.741391,-7814.174080,-1480.411884
4171.118429,1184.329507,-9959.241474,-1110.308913
4171.118753,-1850.514855,-9499.584175,-666.185348
4171.119078,-3701.029710,-10112.460574,-148.041188
4171.119402,-2886.803174,-8810.098227,-296.082377
4171.119726,-2886.803174,-9193.145976,148.041188
4171.120050,518.144159,-8503.660028,-148.041188
4171.120375,2072.576638,-7124.688131,0.000000
4171.120699,3997.112087,-7737.564530,444.123565
4171.121023,4959.379811,-7354.516781,-962.267725
4171.121348,4145.153275,-8733.488677,0.000000
4171.121672,2368.659014,-8427.050478,-1702.473667
4171.121996,-444.123565,-9882.631924,-1110.308913
4171.122320,-2590.720797,-9729.412825,-518.144159
4171.122645,-4515.256246,-9499.584175,0.000000
4171.122969,-4219.173869,-9576.193725,-296.082377
4171.123293,-3552.988522,-7814.174080,0.000000
4171.123618,-962.267725,-8197.221829,814.226536
4171.123942,2146.597232,-7201.297681,-296.082377
4171.124266,4515.256246,-8427.050478,148.041188
4171.124590,3923.091493,-7431.126331,-814.226536
4171.124915,3404.947333,-8580.269578,-1258.350101
4171.125239,1332.370696,-9269.755526,-1480.411884
4171.125563,-1110.308913,-9882.631924,-666.185348
4171.125887,-4071.132681,-9116.536426,-222.061783
4171.126212,-4293.194464,-9806.022374,0.000000
4171.126536,-2960.823768,-8810.098227,-888.247130
4171.126860,-518.144159,-8350.440928,222.061783
4171.127185,1850.514855,-7967.393179,444.123565
4171.127509,4145.153275,-7431.126331,296.082377
4171.127833,5403.503377,-7124.688131,0.000000
4171.128157,5107.421000,-7814.174080,0.000000
4171.128482,3552.988522,-8810.098227,-814.226536
4171.128806,74.020594,-8503.660028,-666.185348
4171.129130,-1776.494261,-9652.803275,-444.123565
4171.129455,-2960.823768,-8886.707777,-370.102971
4171.129779,-5255.462188,-9806.022374,0.000000
4171.130103,-4589.276840,-8810.098227,0.000000
4171.130427,-2220.617826,-8427.050478,1184.329507
4171.130752,592.164754,-6741.640382,-370.102971
4171.131076,3552.988522,-7584.345430,740.205942
4171.131400,4959.379811,-7048.078582,-1110.308913
4171.131724,4737.318029,-8427.050478,-518.144159
4171.132049,2590.720797,-8733.488677,-2442.679609
4171.132373,962.267725,-9806.022374,-518.144159
4171.132697,-1850.514855,-9346.365076,-666.185348
4171.133022,-3775.050304,-9346.365076,0.000000
4171.133346,-3330.926739,-9729.412825,222.061783
4171.133670,-2886.803174,-7660.954980,-296.082377
4171.133994,666.185348,-8503.660028,962.267725
4171.134319,2738.761985,-6665.030833,-370.102971
4171.134643,5255.462188,-9193.145976,1184.329507
4171.134967,5107.421000,-5975.544884,-1924.535449
4171.135291,4367.215058,-9346.365076,0.000000
4171.135616,1998.556043,-8120.612279,-1776.494261
4171.135940,-1480.411884,-9422.974625,-518.144159
4171.136264,-2368.659014,-8963.317327,-444.123565
4171.136589,-4737.318029,-8886.707777,-370.102971
4171.136913,-3923.091493,-9959.241474,-296.082377
4171.137237,-3256.906145,-8197.221829,0.000000
4171.137561,518.144159,-8273.831378,444.123565
4171.137886,2812.782580,-7277.907231,-888.247130
4171.138210,4737.318029,-8120.612279,-222.061783
4171.138534,5107.421000,-7507.735880,-1332.370696
4171.138859,3627.009116,-8810.098227,-1702.473667
4171.139183,2146.597232,-9346.365076,-2072.576638
4171.139507,-1702.473667,-9576.193725,-740.205942
4171.139831,-2664.741391,-9806.022374,-222.061783
4171.140156,-3997.112087,-9806.022374,-888.247130
4171.140480,-2516.700203,-9499.584175,-518.144159
4171.140804,-1258.350101,-8044.002729,148.041188
4171.141128,1924.535449,-7584.345430,296.082377
4171.141453,4219.173869,-7507.735880,222.061783
4171.141777,4885.359217,-7507.735880,-592.164754
4171.142101,4663.297435,-8427.050478,-1258.350101
4171.142426,3701.029710,-8656.879127,-1258.350101
4171.142750,814.226536,-9193.145976,-814.226536
4171.143074,-1554.432478,-9499.584175,-222.061783
4171.143398,-4293.194464,-10801.946522,0.000000
4171.143723,-5033.400406,-9499.584175,-444.123565
4171.144047,-4589.276840,-8580.269578,222.061783
4171.144371,-1776.494261,-7507.735880,1036.288319
4171.144696,1924.535449,-7890.783629,666.185348
4171.145020,4515.256246,-7048.078582,-1184.329507
4171.145344,5921.647536,-8273.831378,0.000000
4171.145668,5107.421000,-7584.345430,-1776.494261
4171.145993,5551.544565,-9193.145976,0.000000
4171.146317,1036.288319,-9806.022374,-666.185348
4171.146641,-3330.926739,-9193.145976,-518.144159
4171.146965,-4885.359217,-9729.412825,1184.329507
4171.147290,-3923.091493,-7967.393179,-444.123565
4171.147614,-1702.473667,-9806.022374,1776.494261
4171.147938,-1258.350101,-6894.859482,-592.164754
4171.148263,1480.411884,-8273.831378,518.144159
4171.148587,5033.400406,-7201.297681,-888.247130
4171.148911,6291.750507,-8886.707777,148.041188
4171.149235,5255.462188,-7277.907231,-444.123565
4171.149560,3775.050304,-9959.241474,-592.164754
4171.149884,-1702.473667,-9193.145976,-814.226536
4171.150208,-3404.947333,-9806.022374,666.185348
4171.150533,-4959.379811,-9422.974625,74.020594
4171.150857,-5551.544565,-9576.193725,0.000000
4171.151181,-3182.885551,-7967.393179,592.164754
4171.151505,-1036.288319,-7660.954980,296.082377
4171.151830,592.164754,-7584.345430,-592.164754
4171.152154,3997.112087,-7431.126331,-444.123565
4171.152478,5625.565159,-8120.612279,-1184.329507
4171.152802,3775.050304,-8580.269578,-666.185348
4171.153127,1924.535449,-8503.660028,-962.267725
4171.153451,-222.061783,-9269.755526,592.164754
4171.153775,-3404.947333,-9193.145976,-962.267725
4171.154100,-3701.029710,-10572.117872,0.000000
4171.154424,-2368.659014,-7507.735880,148.041188
4171.154748,-1036.288319,-7814.174080,518.144159
4171.155072,518.144159,-7660.954980,-666.185348
4171.155397,3552.988522,-7814.174080,740.205942
4171.155721,4737.318029,-7890.783629,-1036.288319
4171.156045,4441.235652,-8503.660028,-666.185348
4171.156369,3404.947333,-9039.926876,-962.267725
4171.156694,370.102971,-9193.145976,-518.144159
4171.157018,-1924.535449,-10035.851024,-814.226536
4171.157342,-3701.029710,-10112.460574,-666.185348
4171.157667,-4885.359217,-10035.851024,370.102971
4171.157991,-3923.091493,-7890.783629,222.061783
4171.158315,-1036.288319,-7814.174080,222.061783
4171.158639,1480.411884,-7354.516781,-814.226536
4171.158964,4367.215058,-7967.393179,-888.247130
4171.159288,5551.544565,-6894.859482,-1702.473667
4171.159612,4811.338623,-9116.536426,-296.082377
4171.159937,2516.700203,-8273.831378,-1406.391290
4171.160261,222.061783,-10265.679673,-666.185348
4171.160585,-2072.576638,-8963.317327,-370.102971
4171.160909,-4367.215058,-9652.803275,-296.082377
4171.161234,-3552.988522,-9116.536426,0.000000
4171.161558,-3108.864956,-7660.954980,222.061783
4171.161882,0.000000,-8580.269578,0.000000
4171.162206,2664.741391,-7354.516781,-444.123565
4171.162531,5329.482782,-7354.516781,-148.041188
4171.162855,5699.585753,-7890.783629,-1184.329507
4171.163179,5329.482782,-8810.098227,-592.164754
4171.163504,2664.741391,-8810.098227,-962.267725
4171.163828,-148.041188,-9959.241474,0.000000
4171.164152,-3256.906145,-9422.974625,-296.082377
4171.164476,-4441.235652,-9806.022374,370.102971
4171.164801,-3849.070898,-7814.174080,74.020594
4171.165125,-2072.576638,-7967.393179,888.247130
4171.165449,370.102971,-7584.345430,-518.144159
4171.165774,3997.112087,-7354.516781,-592.164754
4171.166098,4885.359217,-7737.564530,-666.185348
4171.166422,5033.400406,-7660.954980,-1258.350101
4171.166746,3404.947333,-8503.660028,-1036.288319
4171.167071,1850.514855,-9499.584175,-518.144159
4171.167395,-518.144159,-10418.898773,0.000000
4171.167719,-3478.967927,-9652.803275,-296.082377
4171.168043,-4145.153275,-9806.022374,518.144159
4171.168368,-3478.967927,-8273.831378,222.061783
4171.168692,-740.205942,-8350.440928,296.082377
4171.169016,814.226536,-7660.954980,0.000000
4171.169341,3775.050304,-7737.564530,-296.082377
4171.169665,5329.482782,-7584.345430,-592.164754
4171.169989,4959.379811,-8350.440928,-666.185348
4171.170313,3182.885551,-9499.584175,-296.082377
4171.170638,518.144159,-9116.536426,-814.226536
4171.170962,-2812.782580,-9882.631924,222.061783
4171.171286,-4589.276840,-9346.365076,-370.102971
4171.171611,-5033.400406,-9882.631924,222.061783
4171.171935,-4885.359217,-8503.660028,74.020594
4171.172259,-2368.659014,-7584.345430,-296.082377
4171.172583,1258.350101,-7660.954980,-222.061783
4171.172908,3478.967927,-7431.126331,-444.123565
4171.173232,5403.503377,-6894.859482,-1036.288319
4171.173556,4737.318029,-8963.317327,-666.185348
4171.173880,3478.967927,-8733.488677,-1924.535449
4171.174205,1258.350101,-10342.289223,-592.164754
4171.174529,-2886.803174,-9806.022374,-296.082377
4171.174853,-4219.173869,-10035.851024,296.082377
4171.175178,-4737.318029,-8810.098227,444.123565
4171.175502,-3256.906145,-8656.879127,444.123565
4171.175826,-444.123565,-7354.516781,-518.144159
4171.176150,3108.864956,-8350.440928,-296.082377
4171.176475,5329.482782,-7277.907231,-666.185348
4171.176799,5625.565159,-7354.516781,-592.164754
4171.177123,2368.659014,-8273.831378,-1110.308913
4171.177447,1850.514855,-10418.898773,148.041188
4171.177772,-2072.576638,-9959.241474,-740.205942
4171.178096,-4219.173869,-9193.145976,518.144159
4171.178420,-4959.379811,-8656.879127,-1184.329507
4171.178745,-5403.503377,-9652.803275,1036.288319
4171.179069,-2294.638420,-7277.907231,592.164754
4171.179393,666.185348,-7584.345430,-148.041188
4171.179717,3256.906145,-7584.345430,-518.144159
4171.180042,4293.194464,-7277.907231,-740.205942
4171.180366,5995.668130,-7660.954980,-962.267725
4171.180690,4515.256246,-8810.098227,-1110.308913
4171.181015,2072.576638,-9806.022374,-518.144159
4171.181339,-888.247130,-9422.974625,-296.082377
