#time,accel_x,accel_y,accel_z
5718.272936,814.226536,-8810.098227,74.020594
5718.273260,296.082377,-8733.488677,444.123565
5718.273585,148.041188,-8580.269578,148.041188
5718.273909,370.102971,-8427.050478,0.000000
5718.274233,370.102971,-8886.707777,148.041188
5718.274558,592.164754,-7890.783629,370.102971
5718.274882,296.082377,-8580.269578,222.061783
5718.275206,222.061783,-8656.879127,444.123565
5718.275531,518.144159,-8503.660028,148.041188
5718.275855,592.164754,-8427.050478,-370.102971
5718.276179,370.102971,-8580.269578,222.061783
5718.276504,518.144159,-8656.879127,222.061783
5718.276828,444.123565,-8503.660028,0.000000
5718.277153,444.123565,-7660.954980,74.020594
5718.277477,592.164754,-8427.050478,-148.041188
5718.277801,666.185348,-8580.269578,-148.041188
5718.278126,814.226536,-8197.221829,0.000000
5718.278450,740.205942,-8503.660028,-296.082377
5718.278774,592.164754,-8350.440928,-370.102971
5718.279099,888.247130,-8427.050478,-222.061783
5718.279423,592.164754,-8580.269578,-370.102971
5718.279747,592.164754,-8580.269578,-296.082377
5718.280072,740.205942,-9806.022374,-296.082377
5718.280396,370.102971,-8886.707777,0.000000
5718.280721,74.020594,-8580.269578,-222.061783
5718.281045,148.041188,-8810.098227,-370.102971
5718.281369,370.102971,-8733.488677,-518.144159
5718.281694,592.164754,-8963.317327,-444.123565
5718.282018,370.102971,-8810.098227,-592.164754
5718.282342,740.205942,-8656.879127,-592.164754
5718.282667,370.102971,-8810.098227,-222.061783
5718.282991,222.061783,-8733.488677,-370.102971
5718.283315,296.082377,-8886.707777,-74.020594
5718.283640,370.102971,-8810.098227,-370.102971
5718.283964,222.061783,-8810.098227,-518.144159
5718.284289,518.144159,-9806.022374,-370.102971
5718.284613,370.102971,-8963.317327,-666.185348
5718.284937,222.061783,-8503.660028,-296.082377
5718.285262,370.102971,-8503.660028,-370.102971
5718.285586,74.020594,-8810.098227,-296.082377
5718.285910,592.164754,-8733.488677,-296.082377
5718.286235,370.102971,-8886.707777,-592.164754
5718.286559,148.041188,-8580.269578,-592.164754
5718.286883,0.000000,-8656.879127,-74.020594
5718.287208,296.082377,-8963.317327,-370.102971
5718.287532,222.061783,-8580.269578,-518.144159
5718.287856,444.123565,-8656.879127,-666.185348
5718.288181,518.144159,-8580.269578,-814.226536
5718.288505,888.247130,-8733.488677,-592.164754
5718.288830,296.082377,-8503.660028,-592.164754
5718.289154,444.123565,-9039.926876,-740.205942
5718.289478,592.164754,-8427.050478,-666.185348
5718.289803,518.144159,-8733.488677,-592.164754
5718.290127,148.041188,-8350.440928,-444.123565
5718.290451,148.041188,-8656.879127,-666.185348
5718.290776,518.144159,-8810.098227,-518.144159
5718.291100,296.082377,-8580.269578,-962.267725
5718.291424,444.123565,-8733.488677,-1110.308913
5718.291749,814.226536,-8733.488677,-1036.288319
5718.292073,740.205942,-8350.440928,-888.247130
5718.292398,888.247130,-8580.269578,-1110.308913
5718.292722,740.205942,-9193.145976,-518.144159
5718.293046,962.267725,-8733.488677,-888.247130
5718.293371,666.185348,-8963.317327,-888.247130
5718.293695,518.144159,-8656.879127,-666.185348
5718.294019,518.144159,-9116.536426,-740.205942
5718.294344,814.226536,-9193.145976,-814.226536
5718.294668,518.144159,-8886.707777,-888.247130
5718.294992,370.102971,-8580.269578,-962.267725
5718.295317,444.123565,-8427.050478,-666.185348
5718.295641,740.205942,-8886.707777,-888.247130
5718.295966,518.144159,-8886.707777,-444.123565
5718.296290,740.205942,-8656.879127,-740.205942
5718.296614,518.144159,-8886.707777,-518.144159
5718.296939,740.205942,-8886.707777,-666.185348
5718.297263,444.123565,-8656.879127,-666.185348
5718.297587,592.164754,-8733.488677,-370.102971
5718.297912,148.041188,-8503.660028,-518.144159
5718.298236,370.102971,-8656.879127,-592.164754
5718.298560,444.123565,-8963.317327,-370.102971
5718.298885,444.123565,-7890.783629,-296.082377
5718.299209,148.041188,-8503.660028,-370.102971
5718.299533,518.144159,-8273.831378,-222.061783
5718.299858,666.185348,-9116.536426,-370.102971
5718.300182,518.144159,-8503.660028,-296.082377
5718.300507,444.123565,-8503.660028,-148.041188
5718.300831,296.082377,-8427.050478,0.000000
5718.301155,592.164754,-8580.269578,0.000000
5718.301480,296.082377,-8503.660028,0.000000
5718.301804,740.205942,-8656.879127,0.000000
5718.302128,518.144159,-8580.269578,0.000000
5718.302453,296.082377,-8580.269578,222.061783
5718.302777,-148.041188,-8427.050478,0.000000
5718.303101,222.061783,-8580.269578,370.102971
5718.303426,296.082377,-8350.440928,296.082377
5718.303750,296.082377,-8810.098227,444.123565
5718.304075,518.144159,-8733.488677,74.020594
5718.304399,518.144159,-8810.098227,518.144159
5718.304723,296.082377,-8427.050478,370.102971
5718.305048,444.123565,-8580.269578,740.205942
5718.305372,222.061783,-8733.488677,518.144159
5718.305696,296.082377,-8656.879127,962.267725
5718.306021,222.061783,-8656.879127,444.123565
5718.306345,0.000000,-8733.488677,740.205942
5718.306669,296.082377,-8427.050478,740.205942
5718.306994,370.102971,-8733.488677,296.082377
5718.307318,592.164754,-8963.317327,740.205942
5718.307642,444.123565,-8656.879127,592.164754
5718.307967,518.144159,-8656.879127,740.205942
5718.308291,222.061783,-8273.831378,962.267725
5718.308616,592.164754,-8503.660028,962.267725
5718.308940,518.144159,-8580.269578,814.226536
5718.309264,222.061783,-8427.050478,1036.288319
5718.309589,370.102971,-8197.221829,444.123565
5718.309913,0.000000,-8350.440928,962.267725
5718.310237,222.061783,-8197.221829,740.205942
5718.310562,296.082377,-8427.050478,222.061783
5718.310886,518.144159,-8350.440928,592.164754
5718.311210,592.164754,-8886.707777,814.226536
5718.311535,518.144159,-8427.050478,888.247130
5718.311859,666.185348,-8120.612279,296.082377
5718.312184,666.185348,-8656.879127,296.082377
5718.312508,1110.308913,-8810.098227,370.102971
5718.312832,592.164754,-8427.050478,518.144159
5718.313157,518.144159,-8273.831378,296.082377
5718.313481,222.061783,-8580.269578,444.123565
5718.313805,444.123565,-8503.660028,296.082377
5718.314130,592.164754,-8503.660028,370.102971
5718.314454,74.020594,-8503.660028,222.061783
5718.314778,74.020594,-8656.879127,296.082377
5718.315103,0.000000,-8503.660028,370.102971
5718.315427,370.102971,-8120.612279,740.205942
5718.315752,222.061783,-8427.050478,74.020594
5718.316076,666.185348,-8656.879127,0.000000
5718.316400,444.123565,-8580.269578,148.041188
5718.316725,518.144159,-8886.707777,296.082377
5718.317049,222.061783,-8273.831378,0.000000
5718.317373,148.041188,-8656.879127,222.061783
5718.317698,148.041188,-8503.660028,0.000000
5718.318022,74.020594,-8656.879127,0.000000
5718.318346,0.000000,-8044.002729,74.020594
5718.318671,148.041188,-8503.660028,74.020594
5718.318995,222.061783,-8656.879127,0.000000
5718.319319,296.082377,-8733.488677,-370.102971
5718.319644,370.102971,-8350.440928,74.020594
5718.319968,0.000000,-8656.879127,-222.061783
5718.320293,148.041188,-8580.269578,-296.082377
5718.320617,148.041188,-8273.831378,-444.123565
5718.320941,222.061783,-8656.879127,-148.041188
5718.321266,222.061783,-8427.050478,-370.102971
5718.321590,222.061783,-8656.879127,-296.082377
5718.321914,148.041188,-8120.612279,-592.164754
5718.322239,0.000000,-8656.879127,-296.082377
5718.322563,296.082377,-8580.269578,-592.164754
5718.322887,0.000000,-8503.660028,-370.102971
5718.323212,0.000000,-8044.002729,-222.061783
5718.323536,74.020594,-8580.269578,-370.102971
5718.323861,814.226536,-8273.831378,-444.123565
5718.324185,592.164754,-8197.221829,-370.102971
5718.324509,888.247130,-8656.879127,-444.123565
5718.324834,370.102971,-8427.050478,-370.102971
5718.325158,592.164754,-8427.050478,-444.123565
5718.325482,592.164754,-8120.612279,-296.082377
5718.325807,666.185348,-8503.660028,-592.164754
5718.326131,592.164754,-8503.660028,-740.205942
5718.326455,0.000000,-8197.221829,-518.144159
5718.326780,-222.061783,-7737.564530,-888.247130
5718.327104,-222.061783,-8503.660028,-592.164754
5718.327429,148.041188,-8350.440928,-592.164754
5718.327753,740.205942,-8503.660028,-814.226536
5718.328077,592.164754,-7737.564530,-888.247130
5718.328402,740.205942,-8656.879127,-666.185348
5718.328726,814.226536,-8963.317327,-148.041188
5718.329050,962.267725,-8810.098227,-666.185348
5718.329375,592.164754,-8733.488677,-740.205942
5718.329699,296.082377,-8427.050478,-888.247130
5718.330023,74.020594,-8427.050478,-592.164754
5718.330348,-296.082377,-8580.269578,-962.267725
5718.330672,0.000000,-8733.488677,-962.267725
5718.330996,370.102971,-9729.412825,-962.267725
5718.331321,518.144159,-8810.098227,-888.247130
5718.331645,296.082377,-8580.269578,-444.123565
5718.331970,518.144159,-8886.707777,0.000000
5718.332294,814.226536,-8656.879127,-148.041188
5718.332618,666.185348,-8733.488677,0.000000
5718.332943,666.185348,-9116.536426,-148.041188
5718.333267,592.164754,-8656.879127,-592.164754
5718.333591,148.041188,-8580.269578,-518.144159
5718.333916,-222.061783,-8733.488677,-370.102971
5718.334240,0.000000,-8886.707777,-666.185348
5718.334564,0.000000,-8580.269578,-666.185348
5718.334889,148.041188,-8733.488677,-222.061783
5718.335213,370.102971,-8580.269578,0.000000
5718.335538,296.082377,-8350.440928,0.000000
5718.335862,740.205942,-8503.660028,74.020594
5718.336186,814.226536,-8427.050478,0.000000
5718.336511,962.267725,-8656.879127,-296.082377
5718.336835,888.247130,-8427.050478,0.000000
5718.337159,296.082377,-8580.269578,-370.102971
5718.337484,296.082377,-8810.098227,-222.061783
5718.337808,222.061783,-8503.660028,-518.144159
5718.338132,0.000000,-8810.098227,0.000000
5718.338457,0.000000,-8503.660028,-222.061783
5718.338781,74.020594,-8580.269578,74.020594
5718.339105,148.041188,-8580.269578,148.041188
5718.339430,444.123565,-8503.660028,518.144159
5718.339754,518.144159,-8656.879127,370.102971
5718.340079,888.247130,-8733.488677,0.000000
5718.340403,814.226536,-8580.269578,222.061783
5718.340727,518.144159,-8733.488677,148.041188
5718.341052,740.205942,-8580.269578,148.041188
5718.341376,592.164754,-8656.879127,370.102971
5718.341700,370.102971,-8350.440928,148.041188
5718.342025,0.000000,-8503.660028,296.082377
5718.342349,74.020594,-8886.707777,296.082377
5718.342673,0.000000,-8810.098227,222.061783
5718.342998,74.020594,-8427.050478,222.061783
5718.343322,592.164754,-8810.098227,222.061783
5718.343647,814.226536,-8886.707777,296.082377
5718.343971,740.205942,-8733.488677,444.123565
5718.344295,592.164754,-8580.269578,222.061783
5718.344620,962.267725,-8733.488677,222.061783
5718.344944,518.144159,-8503.660028,0.000000
5718.345268,148.041188,-8810.098227,-296.082377
5718.345593,0.000000,-8350.440928,-296.082377
5718.345917,0.000000,-8580.269578,-222.061783
5718.346241,148.041188,-8503.660028,-592.164754
5718.346566,0.000000,-8580.269578,-370.102971
5718.346890,222.061783,-8886.707777,-296.082377
5718.347215,592.164754,-8810.098227,-296.082377
5718.347539,962.267725,-8427.050478,74.020594
5718.347863,1036.288319,-8656.879127,-148.041188
5718.348188,962.267725,-8503.660028,0.000000
5718.348512,962.267725,-8886.707777,-444.123565
5718.348836,444.123565,-8810.098227,-444.123565
5718.349161,444.123565,-8350.440928,-962.267725
5718.349485,518.144159,-8810.098227,-1184.329507
5718.349809,148.041188,-8810.098227,-888.247130
5718.350134,370.102971,-8580.269578,-1110.308913
5718.350458,370.102971,-8886.707777,-962.267725
5718.350782,592.164754,-8350.440928,-666.185348
5718.351107,666.185348,-8580.269578,-592.164754
5718.351431,444.123565,-9039.926876,-666.185348
5718.351756,740.205942,-8810.098227,-962.267725
5718.352080,888.247130,-8580.269578,-1258.350101
5718.352404,370.102971,-9116.536426,-1258.350101
5718.352729,444.123565,-8886.707777,-1258.350101
5718.353053,518.144159,-8886.707777,-1332.370696
5718.353377,592.164754,-8733.488677,-1628.453072
5718.353702,1110.308913,-8580.269578,-1480.411884
5718.354026,740.205942,-8810.098227,-1184.329507
5718.354350,444.123565,-8656.879127,-962.267725
5718.354675,518.144159,-8810.098227,-962.267725
5718.354999,814.226536,-9039.926876,-888.247130
5718.355324,888.247130,-8580.269578,-1110.308913
5718.355648,666.185348,-8886.707777,-1258.350101
5718.355972,814.226536,-8810.098227,-1332.370696
5718.356297,444.123565,-8963.317327,-1480.411884
5718.356621,518.144159,-9039.926876,-1036.288319
5718.356945,148.041188,-8810.098227,-1258.350101
5718.357270,222.061783,-9116.536426,-1332.370696
5718.357594,148.041188,-8656.879127,-1110.308913
5718.357918,0.000000,-8120.612279,-740.205942
5718.358243,296.082377,-8886.707777,-1184.329507
5718.358567,222.061783,-8656.879127,-1554.432478
5718.358892,666.185348,-8427.050478,-1184.329507
5718.359216,444.123565,-8810.098227,-1184.329507
5718.359540,666.185348,-8886.707777,-740.205942
5718.359865,888.247130,-8427.050478,-1258.350101
5718.360189,1036.288319,-8580.269578,-814.226536
5718.360513,592.164754,-8503.660028,-1110.308913
5718.360838,592.164754,-8733.488677,-1406.391290
5718.361162,370.102971,-8580.269578,-1554.432478
5718.361486,148.041188,-8427.050478,-962.267725
5718.361811,222.061783,-8656.879127,-1332.370696
5718.362135,518.144159,-8044.002729,-1110.308913
5718.362459,518.144159,-8197.221829,-1480.411884
5718.362784,592.164754,-8810.098227,-888.247130
5718.363108,814.226536,-8580.269578,-666.185348
5718.363433,518.144159,-8886.707777,0.000000
5718.363757,814.226536,-8350.440928,-740.205942
5718.364081,444.123565,-8733.488677,-740.205942
5718.364406,518.144159,-8810.098227,-666.185348
5718.364730,370.102971,-8273.831378,-740.205942
5718.365054,444.123565,-8733.488677,-666.185348
5718.365379,148.041188,-8580.269578,-962.267725
5718.365703,296.082377,-8580.269578,-740.205942
5718.366027,370.102971,-8580.269578,-888.247130
5718.366352,888.247130,-8886.707777,-370.102971
5718.366676,296.082377,-8580.269578,-296.082377
5718.367001,592.164754,-8580.269578,-444.123565
5718.367325,148.041188,-8427.050478,-296.082377
5718.367649,370.102971,-8733.488677,-518.144159
5718.367974,592.164754,-8656.879127,-740.205942
5718.368298,148.041188,-8197.221829,-740.205942
5718.368622,222.061783,-8350.440928,-740.205942
5718.368947,296.082377,-8733.488677,-740.205942
5718.369271,740.205942,-7967.393179,-814.226536
5718.369595,444.123565,-8733.488677,-592.164754
5718.369920,518.144159,-8503.660028,-370.102971
5718.370244,148.041188,-8120.612279,0.000000
5718.370568,666.185348,-9116.536426,-296.082377
5718.370893,444.123565,-8273.831378,-370.102971
5718.371217,370.102971,-8810.098227,-222.061783
5718.371542,0.000000,-8503.660028,-370.102971
5718.371866,222.061783,-8350.440928,-444.123565
5718.372190,296.082377,-9116.536426,0.000000
5718.372515,518.144159,-8503.660028,-296.082377
5718.372839,740.205942,-8656.879127,0.000000
5718.373163,296.082377,-8273.831378,-370.102971
5718.373488,592.164754,-8350.440928,518.144159
5718.373812,0.000000,-8350.440928,0.000000
5718.374136,222.061783,-8503.660028,0.000000
5718.374461,296.082377,-8427.050478,-296.082377
5718.374785,740.205942,-8963.317327,-222.061783
5718.375109,444.123565,-8503.660028,0.000000
5718.375434,222.061783,-8350.440928,-296.082377
5718.375758,444.123565,-8886.707777,0.000000
5718.376082,444.123565,-8197.221829,0.000000
5718.376407,370.102971,-8733.488677,0.000000
5718.376731,148.041188,-8197.221829,0.000000
5718.377056,74.020594,-8503.660028,222.061783
5718.377380,148.041188,-8733.488677,0.000000
5718.377704,592.164754,-8044.002729,0.000000
5718.378029,518.144159,-8656.879127,-222.061783
5718.378353,296.082377,-8886.707777,0.000000
5718.378677,518.144159,-8273.831378,0.000000
5718.379002,592.164754,-8656.879127,74.020594
5718.379326,814.226536,-8120.612279,0.000000
5718.379650,740.205942,-8350.440928,0.000000
5718.379975,666.185348,-8044.002729,-370.102971
5718.380299,370.102971,-7967.393179,-296.082377
5718.380623,148.041188,-8503.660028,-444.123565
5718.380948,370.102971,-8427.050478,-518.144159
5718.381272,518.144159,-8273.831378,-518.144159
5718.381597,444.123565,-8580.269578,-666.185348
5718.381921,592.164754,-8886.707777,0.000000
5718.382245,444.123565,-8273.831378,-222.061783
5718.382570,444.123565,-8810.098227,-370.102971
5718.382894,296.082377,-8733.488677,-370.102971
5718.383218,74.020594,-8580.269578,-296.082377
5718.383543,518.144159,-8427.050478,-518.144159
5718.383867,74.020594,-8733.488677,-666.185348
5718.384191,148.041188,-8503.660028,-740.205942
5718.384516,222.061783,-8580.269578,-666.185348
5718.384840,370.102971,-8733.488677,-518.144159
5718.385165,592.164754,-8503.660028,-370.102971
5718.385489,444.123565,-8580.269578,-296.082377
5718.385813,296.082377,-8427.050478,-296.082377
5718.386138,296.082377,-9269.755526,-296.082377
5718.386462,148.041188,-8733.488677,-592.164754
5718.386786,74.020594,-8427.050478,-740.205942
5718.387111,74.020594,-8120.612279,-1184.329507
5718.387435,296.082377,-8503.660028,-888.247130
5718.387759,740.205942,-8733.488677,-962.267725
5718.388084,296.082377,-8656.879127,-888.247130
5718.388408,592.164754,-8733.488677,-962.267725
5718.388732,518.144159,-8733.488677,-740.205942
5718.389057,370.102971,-8350.440928,-592.164754
5718.389381,296.082377,-8427.050478,-888.247130
5718.389706,222.061783,-8503.660028,-814.226536
5718.390030,222.061783,-8503.660028,-1036.288319
5718.390354,444.123565,-8427.050478,-1332.370696
5718.390679,592.164754,-8733.488677,-1036.288319
5718.391003,592.164754,-8503.660028,-666.185348
5718.391327,666.185348,-8427.050478,-814.226536
5718.391652,444.123565,-8503.660028,-592.164754
5718.391976,814.226536,-8350.440928,-666.185348
5718.392300,592.164754,-8656.879127,-592.164754
5718.392625,518.144159,-8503.660028,-888.247130
5718.392949,592.164754,-8503.660028,-740.205942
5718.393273,370.102971,-8350.440928,-296.082377
5718.393598,518.144159,-8427.050478,-1110.308913
5718.393922,814.226536,-8656.879127,-1110.308913
5718.394247,740.205942,-8580.269578,-592.164754
5718.394571,888.247130,-8197.221829,-370.102971
5718.394895,518.144159,-8810.098227,-666.185348
5718.395220,740.205942,-8273.831378,-592.164754
5718.395544,370.102971,-8427.050478,-666.185348
5718.395868,370.102971,-8580.269578,-444.123565
5718.396193,370.102971,-8197.221829,-740.205942
5718.396517,444.123565,-8733.488677,-666.185348
5718.396841,518.144159,-8580.269578,-592.164754
5718.397166,888.247130,-8886.707777,-666.185348
5718.397490,888.247130,-8810.098227,-518.144159
5718.397814,296.082377,-8580.269578,148.041188
5718.398139,740.205942,-8656.879127,-148.041188
5718.398463,222.061783,-8656.879127,-222.061783
5718.398788,518.144159,-8350.440928,-222.061783
5718.399112,222.061783,-8733.488677,-370.102971
5718.399436,370.102971,-8350.440928,-444.123565
5718.399761,296.082377,-8733.488677,-370.102971
5718.400085,296.082377,-8580.269578,-296.082377
5718.400409,592.164754,-8963.317327,74.020594
5718.400734,814.226536,-8733.488677,-444.123565
5718.401058,740.205942,-8886.707777,0.000000
5718.401382,444.123565,-8580.269578,0.000000
5718.401707,518.144159,-8580.269578,148.041188
5718.402031,74.020594,-8503.660028,-148.041188
5718.402355,518.144159,-8733.488677,-444.123565
5718.402680,370.102971,-8580.269578,-296.082377
5718.403004,518.144159,-8963.317327,-296.082377
5718.403329,592.164754,-8656.879127,-592.164754
5718.403653,888.247130,-8733.488677,0.000000
5718.403977,814.226536,-8427.050478,0.000000
5718.404302,666.185348,-8886.707777,74.020594
5718.404626,814.226536,-8733.488677,0.000000
5718.404950,444.123565,-8580.269578,222.061783
5718.405275,296.082377,-8580.269578,74.020594
5718.405599,370.102971,-8580.269578,-370.102971
5718.405923,814.226536,-8656.879127,-518.144159
5718.406248,444.123565,-8656.879127,-148.041188
5718.406572,296.082377,-8427.050478,-222.061783
5718.406896,518.144159,-8810.098227,0.000000
5718.407221,888.247130,-8503.660028,-148.041188
5718.407545,592.164754,-8733.488677,0.000000
5718.407870,592.164754,-8656.879127,0.000000
5718.408194,296.082377,-9116.536426,-222.061783
5718.408518,148.041188,-8810.098227,0.000000
5718.408843,370.102971,-9039.926876,0.000000
5718.409167,444.123565,-8580.269578,-222.061783
5718.409491,370.102971,-8733.488677,-444.123565
5718.409816,814.226536,-8273.831378,-296.082377
5718.410140,592.164754,-7431.126331,222.061783
5718.410464,740.205942,-8580.269578,74.020594
5718.410789,518.144159,-8197.221829,296.082377
5718.411113,296.082377,-8427.050478,0.000000
5718.411437,444.123565,-8963.317327,0.000000
5718.411762,296.082377,-8503.660028,296.082377
5718.412086,444.123565,-9193.145976,0.000000
5718.412411,0.000000,-8580.269578,0.000000
5718.412735,814.226536,-8810.098227,0.000000
5718.413059,814.226536,-8580.269578,0.000000
5718.413384,740.205942,-8580.269578,148.041188
5718.413708,444.123565,-8810.098227,148.041188
5718.414032,592.164754,-8580.269578,222.061783
5718.414357,962.267725,-8580.269578,370.102971
5718.414681,518.144159,-8580.269578,74.020594
5718.415005,296.082377,-8503.660028,74.020594
5718.415330,592.164754,-8350.440928,0.000000
5718.415654,222.061783,-8656.879127,0.000000
5718.415978,370.102971,-8350.440928,-370.102971
5718.416303,592.164754,-8810.098227,0.000000
5718.416627,444.123565,-8427.050478,222.061783
5718.416952,296.082377,-8427.050478,444.123565
5718.417276,518.144159,-9422.974625,296.082377
5718.417600,296.082377,-8427.050478,148.041188
5718.417925,148.041188,-8503.660028,0.000000
5718.418249,222.061783,-8733.488677,0.000000
5718.418573,0.000000,-8963.317327,0.000000
5718.418898,296.082377,-8656.879127,0.000000
5718.419222,370.102971,-8810.098227,0.000000
5718.419546,518.144159,-8656.879127,0.000000
5718.419871,148.041188,-8810.098227,148.041188
5718.420195,0.000000,-7967.393179,740.205942
5718.420520,74.020594,-8656.879127,370.102971
5718.420844,0.000000,-8656.879127,296.082377
5718.421168,222.061783,-8427.050478,74.020594
5718.421493,370.102971,-8810.098227,-222.061783
5718.421817,222.061783,-8656.879127,0.000000
5718.422141,444.123565,-8810.098227,0.000000
5718.422466,444.123565,-8733.488677,0.000000
5718.422790,444.123565,-8656.879127,0.000000
5718.423114,148.041188,-8656.879127,222.061783
5718.423439,444.123565,-8733.488677,0.000000
5718.423763,444.123565,-8350.440928,222.061783
5718.424087,296.082377,-8580.269578,0.000000
5718.424412,0.000000,-9193.145976,0.000000
5718.424736,370.102971,-8656.879127,-444.123565
5718.425061,222.061783,-8810.098227,-148.041188
5718.425385,222.061783,-8503.660028,-296.082377
5718.425709,222.061783,-9576.193725,0.000000
5718.426034,592.164754,-8656.879127,0.000000
5718.426358,370.102971,-9193.145976,-222.061783
5718.426682,222.061783,-8656.879127,-222.061783
5718.427007,74.020594,-8503.660028,-444.123565
5718.427331,0.000000,-8503.660028,74.020594
5718.427655,74.020594,-8580.269578,-148.041188
5718.427980,222.061783,-8810.098227,-666.185348
5718.428304,444.123565,-8656.879127,-296.082377
5718.428628,148.041188,-8427.050478,-370.102971
5718.428953,444.123565,-8350.440928,-370.102971
5718.429277,444.123565,-8656.879127,-148.041188
5718.429602,74.020594,-8427.050478,0.000000
5718.429926,0.000000,-8886.707777,-592.164754
5718.430250,74.020594,-8427.050478,-370.102971
5718.430575,74.020594,-8427.050478,-370.102971
5718.430899,148.041188,-8810.098227,-592.164754
5718.431223,0.000000,-8503.660028,-740.205942
5718.431548,370.102971,-8503.660028,-518.144159
5718.431872,222.061783,-8656.879127,-592.164754
5718.432196,592.164754,-8656.879127,-592.164754
5718.432521,666.185348,-8427.050478,-222.061783
5718.432845,370.102971,-8810.098227,-666.185348
5718.433169,222.061783,-8580.269578,-222.061783
5718.433494,222.061783,-8656.879127,-592.164754
5718.433818,74.020594,-8886.707777,-518.144159
5718.434143,74.020594,-8733.488677,-740.205942
5718.434467,0.000000,-8656.879127,-370.102971
5718.434791,148.041188,-8733.488677,-592.164754
5718.435116,370.102971,-8733.488677,-666.185348
5718.435440,444.123565,-8580.269578,-296.082377
5718.435764,0.000000,-8503.660028,-370.102971
5718.436089,74.020594,-8656.879127,0.000000
5718.436413,74.020594,-8503.660028,-296.082377
5718.436737,296.082377,-8503.660028,-370.102971
5718.437062,370.102971,-8427.050478,-592.164754
5718.437386,370.102971,-8197.221829,-444.123565
5718.437710,0.000000,-8427.050478,-444.123565
5718.438035,222.061783,-8503.660028,-222.061783
5718.438359,370.102971,-8733.488677,-222.061783
5718.438684,666.185348,-8656.879127,0.000000
5718.439008,666.185348,-8350.440928,0.000000
5718.439332,518.144159,-8580.269578,0.000000
5718.439657,370.102971,-8273.831378,0.000000
5718.439981,962.267725,-8427.050478,0.000000
5718.440305,370.102971,-8197.221829,-148.041188
5718.440630,296.082377,-8427.050478,-444.123565
5718.440954,666.185348,-8350.440928,0.000000
5718.441278,222.061783,-7814.174080,222.061783
5718.441603,518.144159,-8656.879127,0.000000
5718.441927,592.164754,-8044.002729,0.000000
5718.442251,740.205942,-8350.440928,148.041188
5718.442576,592.164754,-8427.050478,0.000000
5718.442900,518.144159,-8656.879127,222.061783
5718.443225,370.102971,-8733.488677,0.000000
5718.443549,370.102971,-8350.440928,0.000000
5718.443873,296.082377,-8427.050478,-148.041188
5718.444198,1110.308913,-9039.926876,-148.041188
5718.444522,666.185348,-8427.050478,0.000000
5718.444846,444.123565,-8503.660028,222.061783
5718.445171,296.082377,-8580.269578,222.061783
5718.445495,296.082377,-8810.098227,962.267725
5718.445819,370.102971,-8733.488677,222.061783
5718.446144,222.061783,-8656.879127,0.000000
5718.446468,518.144159,-8427.050478,0.000000
5718.446792,444.123565,-8427.050478,0.000000
5718.447117,962.267725,-8656.879127,-222.061783
5718.447441,814.226536,-8427.050478,-222.061783
5718.447766,740.205942,-8580.269578,0.000000
5718.448090,518.144159,-8350.440928,222.061783
5718.448414,1110.308913,-8963.317327,74.020594
5718.448739,148.041188,-8350.440928,0.000000
5718.449063,370.102971,-8656.879127,-148.041188
5718.449387,444.123565,-9193.145976,-444.123565
5718.449712,148.041188,-8503.660028,-444.123565
5718.450036,370.102971,-8963.317327,-666.185348
5718.450360,370.102971,-8427.050478,-296.082377
5718.450685,666.185348,-8580.269578,-370.102971
5718.451009,444.123565,-8886.707777,-444.123565
5718.451333,814.226536,-8197.221829,74.020594
5718.451658,148.041188,-8733.488677,0.000000
5718.451982,222.061783,-8810.098227,-444.123565
5718.452307,0.000000,-8197.221829,-370.102971
5718.452631,222.061783,-8350.440928,0.000000
5718.452955,296.082377,-8503.660028,-888.247130
5718.453280,444.123565,-8580.269578,-518.144159
5718.453604,518.144159,-8580.269578,-666.185348
5718.453928,666.185348,-8886.707777,-444.123565
5718.454253,666.185348,-8656.879127,-592.164754
5718.454577,740.205942,-8580.269578,-370.102971
5718.454901,592.164754,-8580.269578,-296.082377
5718.455226,296.082377,-8427.050478,-444.123565
5718.455550,296.082377,-8350.440928,-518.144159
5718.455875,814.226536,-8350.440928,-740.205942
5718.456199,518.144159,-8580.269578,-962.267725
5718.456523,444.123565,-8427.050478,-888.247130
5718.456848,814.226536,-8886.707777,-666.185348
5718.457172,814.226536,-8656.879127,-518.144159
5718.457496,888.247130,-8733.488677,-592.164754
5718.457821,740.205942,-8503.660028,-740.205942
5718.458145,962.267725,-8580.269578,-666.185348
5718.458469,814.226536,-8197.221829,-518.144159
5718.458794,666.185348,-8503.660028,-740.205942
5718.459118,370.102971,-8350.440928,-888.247130
5718.459442,666.185348,-8580.269578,-1110.308913
5718.459767,814.226536,-8273.831378,-814.226536
5718.460091,666.185348,-8810.098227,-740.205942
5718.460416,888.247130,-8427.050478,-888.247130
5718.460740,296.082377,-8503.660028,-296.082377
5718.461064,888.247130,-8273.831378,-740.205942
5718.461389,296.082377,-8656.879127,-740.205942
5718.461713,444.123565,-8733.488677,-740.205942
5718.462037,296.082377,-8273.831378,-888.247130
5718.462362,296.082377,-8580.269578,-740.205942
5718.462686,296.082377,-8427.050478,-1036.288319
5718.463010,592.164754,-8656.879127,-962.267725
5718.463335,592.164754,-8733.488677,-666.185348
5718.463659,444.123565,-8810.098227,-370.102971
5718.463983,666.185348,-8350.440928,-518.144159
5718.464308,370.102971,-8656.879127,-148.041188
5718.464632,148.041188,-8350.440928,-518.144159
5718.464957,444.123565,-8733.488677,-370.102971
5718.465281,222.061783,-8197.221829,-592.164754
5718.465605,148.041188,-8656.879127,-814.226536
5718.465930,0.000000,-8810.098227,-740.205942
5718.466254,148.041188,-8656.879127,-888.247130
5718.466578,296.082377,-8810.098227,-592.164754
5718.466903,148.041188,-8503.660028,-518.144159
5718.467227,296.082377,-8886.707777,-296.082377
5718.467551,222.061783,-8656.879127,-518.144159
5718.467876,222.061783,-8733.488677,-296.082377
5718.468200,296.082377,-8886.707777,-1110.308913
5718.468524,370.102971,-8580.269578,-814.226536
5718.468849,296.082377,-8197.221829,-888.247130
5718.469173,370.102971,-8580.269578,-888.247130
5718.469498,370.102971,-8810.098227,-592.164754
5718.469822,666.185348,-8503.660028,-592.164754
5718.470146,518.144159,-8656.879127,-370.102971
5718.470471,518.144159,-8273.831378,-370.102971
5718.470795,518.144159,-8503.660028,-148.041188
5718.471119,296.082377,-8733.488677,-74.020594
5718.471444,370.102971,-8427.050478,-518.144159
5718.471768,296.082377,-8427.050478,-222.061783
5718.472092,592.164754,-8656.879127,-444.123565
5718.472417,814.226536,-9116.536426,-444.123565
5718.472741,814.226536,-8963.317327,-370.102971
5718.473065,518.144159,-8580.269578,-296.082377
5718.473390,814.226536,-8810.098227,-222.061783
5718.473714,370.102971,-8580.269578,0.000000
5718.474039,296.082377,-8810.098227,0.000000
5718.474363,296.082377,-8580.269578,-518.144159
5718.474687,148.041188,-8580.269578,-222.061783
5718.475011,222.061783,-8427.050478,-148.041188
5718.475336,148.041188,-9269.755526,-740.205942
5718.475660,592.164754,-8273.831378,-444.123565
5718.475984,518.144159,-8503.660028,-370.102971
5718.476309,518.144159,-8886.707777,-370.102971
5718.476633,296.082377,-9039.926876,-370.102971
5718.476957,370.102971,-8580.269578,-222.061783
5718.477281,74.020594,-8656.879127,-518.144159
5718.477606,370.102971,-8733.488677,-370.102971
5718.477930,0.000000,-8580.269578,-814.226536
5718.478254,222.061783,-8963.317327,-740.205942
5718.478579,74.020594,-8886.707777,-666.185348
5718.478903,740.205942,-8810.098227,-370.102971
5718.479227,592.164754,-8656.879127,0.000000
5718.479551,444.123565,-9116.536426,296.082377
5718.479876,296.082377,-8733.488677,-592.164754
5718.480200,518.144159,-8810.098227,-370.102971
5718.480524,370.102971,-8656.879127,-444.123565
5718.480849,222.061783,-9116.536426,-370.102971
5718.481173,74.020594,-8733.488677,-740.205942
5718.481497,148.041188,-8503.660028,-814.226536
5718.481822,592.164754,-8733.488677,-814.226536
5718.482146,444.123565,-8580.269578,-814.226536
5718.482470,518.144159,-8810.098227,0.000000
5718.482794,370.102971,-8197.221829,-518.144159
5718.483119,370.102971,-8733.488677,-592.164754
5718.483443,444.123565,-8503.660028,-444.123565
5718.483767,222.061783,-8503.660028,74.020594
5718.484092,370.102971,-8810.098227,-1036.288319
5718.484416,0.000000,-8810.098227,-814.226536
5718.484740,444.123565,-8580.269578,-370.102971
5718.485064,444.123565,-8580.269578,-518.144159
5718.485389,740.205942,-8350.440928,-740.205942
5718.485713,814.226536,-8810.098227,-592.164754
5718.486037,740.205942,-8503.660028,-296.082377
5718.486362,444.123565,-8733.488677,-444.123565
5718.486686,296.082377,-8733.488677,-592.164754
5718.487010,518.144159,-8580.269578,-444.123565
5718.487334,962.267725,-8580.269578,-888.247130
5718.487659,444.123565,-8886.707777,-1036.288319
5718.487983,814.226536,-8810.098227,-814.226536
5718.488307,370.102971,-8580.269578,-370.102971
5718.488632,444.123565,-8810.098227,-518.144159
5718.488956,888.247130,-8427.050478,-740.205942
5718.489280,518.144159,-8810.098227,-592.164754
5718.489605,370.102971,-8273.831378,-370.102971
5718.489929,222.061783,-8273.831378,-518.144159
5718.490253,444.123565,-8733.488677,-592.164754
5718.490577,444.123565,-8273.831378,-888.247130
5718.490902,592.164754,-8886.707777,-888.247130
5718.491226,518.144159,-8733.488677,-888.247130
5718.491550,740.205942,-8810.098227,-592.164754
5718.491875,592.164754,-8656.879127,-518.144159
5718.492199,74.020594,-8810.098227,0.000000
5718.492523,296.082377,-8427.050478,-666.185348
5718.492847,518.144159,-8656.879127,-592.164754
5718.493172,296.082377,-8503.660028,-740.205942
5718.493496,296.082377,-8810.098227,-962.267725
5718.493820,444.123565,-8350.440928,-814.226536
5718.494145,666.185348,-8656.879127,-592.164754
5718.494469,962.267725,-8580.269578,-888.247130
5718.494793,592.164754,-8810.098227,-592.164754
5718.495117,888.247130,-8656.879127,-666.185348
5718.495442,518.144159,-9193.145976,-444.123565
5718.495766,444.123565,-8733.488677,-666.185348
5718.496090,296.082377,-8733.488677,-592.164754
5718.496415,592.164754,-8656.879127,-296.082377
5718.496739,222.061783,-8810.098227,-740.205942
5718.497063,518.144159,-8886.707777,-666.185348
5718.497387,370.102971,-8503.660028,-592.164754
5718.497712,666.185348,-8886.707777,-592.164754
5718.498036,666.185348,-8733.488677,-518.144159
5718.498360,666.185348,-8656.879127,0.000000
5718.498685,592.164754,-8810.098227,-296.082377
5718.499009,222.061783,-8580.269578,-296.082377
5718.499333,814.226536,-8810.098227,-370.102971
5718.499658,296.082377,-8656.879127,-296.082377
5718.499982,296.082377,-8503.660028,-666.185348
5718.500306,296.082377,-8427.050478,-666.185348
5718.500630,296.082377,-8810.098227,-296.082377
5718.500955,444.123565,-8273.831378,-444.123565
5718.501279,666.185348,-8427.050478,-518.144159
5718.501603,592.164754,-8656.879127,-370.102971
5718.501928,444.123565,-8580.269578,-148.041188
5718.502252,222.061783,-8503.660028,-296.082377
5718.502576,444.123565,-8503.660028,-296.082377
5718.502900,592.164754,-8503.660028,-444.123565
5718.503225,370.102971,-8350.440928,-592.164754
5718.503549,888.247130,-8886.707777,-666.185348
5718.503873,444.123565,-8503.660028,-592.164754
5718.504198,666.185348,-8733.488677,-296.082377
5718.504522,444.123565,-8273.831378,-518.144159
5718.504846,518.144159,-8503.660028,-370.102971
5718.505170,222.061783,-8427.050478,-222.061783
5718.505495,222.061783,-8427.050478,-222.061783
5718.505819,518.144159,-8350.440928,-444.123565
5718.506143,296.082377,-8810.098227,-296.082377
5718.506468,666.185348,-8733.488677,-370.102971
5718.506792,814.226536,-8656.879127,-444.123565
5718.507116,666.185348,-8273.831378,-296.082377
5718.507441,740.205942,-8580.269578,0.000000
5718.507765,1110.308913,-8503.660028,-296.082377
5718.508089,444.123565,-8580.269578,-148.041188
5718.508413,444.123565,-8427.050478,-370.102971
5718.508738,222.061783,-8427.050478,-148.041188
5718.509062,370.102971,-8273.831378,-74.020594
5718.509386,518.144159,-8044.002729,-296.082377
5718.509711,666.185348,-8580.269578,-666.185348
5718.510035,740.205942,-8733.488677,-740.205942
5718.510359,814.226536,-8273.831378,-296.082377
5718.510683,814.226536,-8197.221829,148.041188
5718.511008,444.123565,-8656.879127,0.000000
5718.511332,444.123565,-8120.612279,-296.082377
5718.511656,444.123565,-8350.440928,-370.102971
5718.511981,-148.041188,-8044.002729,0.000000
5718.512305,222.061783,-8350.440928,-370.102971
5718.512629,222.061783,-8427.050478,-296.082377
5718.512953,222.061783,-8886.707777,-222.061783
5718.513278,296.082377,-8503.660028,-370.102971
5718.513602,518.144159,-8886.707777,-370.102971
5718.513926,518.144159,-8733.488677,0.000000
5718.514251,296.082377,-8427.050478,0.000000
5718.514575,222.061783,-8656.879127,-222.061783
5718.514899,518.144159,-8810.098227,-222.061783
5718.515223,370.102971,-8656.879127,-444.123565
5718.515548,148.041188,-8503.660028,-444.123565
5718.515872,222.061783,-8273.831378,-296.082377
5718.516196,148.041188,-9193.145976,-296.082377
5718.516521,222.061783,-8656.879127,-148.041188
5718.516845,888.247130,-8733.488677,-148.041188
5718.517169,592.164754,-8503.660028,74.020594
5718.517494,666.185348,-8733.488677,148.041188
5718.517818,0.000000,-8580.269578,0.000000
5718.518142,74.020594,-8810.098227,222.061783
5718.518466,222.061783,-8656.879127,0.000000
5718.518791,296.082377,-8580.269578,0.000000
5718.519115,592.164754,-9269.755526,370.102971
5718.519439,518.144159,-8656.879127,0.000000
5718.519764,296.082377,-9039.926876,0.000000
5718.520088,444.123565,-8810.098227,0.000000
5718.520412,370.102971,-9039.926876,370.102971
5718.520736,740.205942,-8810.098227,148.041188
5718.521061,222.061783,-8427.050478,0.000000
5718.521385,74.020594,-8656.879127,0.000000
5718.521709,74.020594,-8503.660028,0.000000
5718.522034,296.082377,-8273.831378,74.020594
5718.522358,518.144159,-8656.879127,-592.164754
5718.522682,222.061783,-8427.050478,-222.061783
5718.523006,518.144159,-8733.488677,74.020594
5718.523331,518.144159,-8273.831378,-518.144159
5718.523655,740.205942,-8580.269578,0.000000
5718.523979,444.123565,-8580.269578,0.000000
5718.524304,444.123565,-8273.831378,148.041188
5718.524628,444.123565,-8120.612279,0.000000
5718.524952,444.123565,-8273.831378,-296.082377
5718.525277,296.082377,-8427.050478,-370.102971
5718.525601,296.082377,-8503.660028,-296.082377
5718.525925,444.123565,-8580.269578,0.000000
5718.526249,518.144159,-8503.660028,148.041188
5718.526574,296.082377,-8656.879127,296.082377
5718.526898,296.082377,-8350.440928,74.020594
5718.527222,518.144159,-8580.269578,0.000000
5718.527547,444.123565,-7967.393179,-222.061783
5718.527871,222.061783,-8120.612279,-222.061783
5718.528195,74.020594,-8503.660028,-148.041188
5718.528519,444.123565,-8580.269578,-296.082377
5718.528844,148.041188,-8273.831378,-592.164754
5718.529168,444.123565,-8580.269578,-444.123565
5718.529492,370.102971,-8273.831378,0.000000
5718.529817,518.144159,-8810.098227,-222.061783
5718.530141,222.061783,-8733.488677,-370.102971
5718.530465,0.000000,-8197.221829,0.000000
5718.530789,74.020594,-8886.707777,0.000000
5718.531114,74.020594,-8273.831378,-592.164754
5718.531438,0.000000,-8656.879127,-296.082377
5718.531762,-148.041188,-8350.440928,-740.205942
5718.532087,222.061783,-8963.317327,-444.123565
5718.532411,296.082377,-8427.050478,-444.123565
5718.532735,370.102971,-8810.098227,0.000000
5718.533059,74.020594,-8580.269578,222.061783
5718.533384,148.041188,-8503.660028,0.000000
5718.533708,74.020594,-8656.879127,148.041188
5718.534032,74.020594,-8503.660028,0.000000
5718.534357,74.020594,-8886.707777,-370.102971
5718.534681,74.020594,-8197.221829,296.082377
5718.535005,444.123565,-8503.660028,-222.061783
5718.535330,74.020594,-8733.488677,-148.041188
5718.535654,666.185348,-8580.269578,0.000000
5718.535978,666.185348,-8503.660028,0.000000
5718.536302,370.102971,-8503.660028,0.000000
5718.536627,0.000000,-8350.440928,-222.061783
5718.536951,444.123565,-8656.879127,-148.041188
5718.537275,222.061783,-8197.221829,-222.061783
5718.537600,666.185348,-8810.098227,-518.144159
5718.537924,296.082377,-8273.831378,-740.205942
5718.538248,370.102971,-8427.050478,-370.102971
5718.538572,148.041188,-8580.269578,-518.144159
5718.538897,888.247130,-8810.098227,-370.102971
5718.539221,888.247130,-8580.269578,0.000000
5718.539545,814.226536,-8580.269578,-222.061783
5718.539870,666.185348,-8580.269578,0.000000
5718.540194,222.061783,-9269.755526,0.000000
5718.540518,592.164754,-8733.488677,-296.082377
5718.540842,296.082377,-8427.050478,-296.082377
5718.541167,444.123565,-8733.488677,0.000000
5718.541491,666.185348,-8427.050478,-592.164754
5718.541815,666.185348,-8886.707777,-148.041188
5718.542140,592.164754,-8886.707777,0.000000
5718.542464,444.123565,-8580.269578,148.041188
5718.542788,518.144159,-8886.707777,0.000000
5718.543113,0.000000,-8963.317327,740.205942
5718.543437,148.041188,-8503.660028,222.061783
5718.543761,222.061783,-8810.098227,0.000000
5718.544085,518.144159,-8503.660028,0.000000
5718.544410,296.082377,-8656.879127,-296.082377
5718.544734,444.123565,-8886.707777,0.000000
5718.545058,518.144159,-8963.317327,148.041188
5718.545383,222.061783,-8656.879127,74.020594
5718.545707,0.000000,-8963.317327,0.000000
5718.546031,148.041188,-8427.050478,-296.082377
5718.546355,444.123565,-8656.879127,0.000000
5718.546680,74.020594,-8427.050478,-148.041188
5718.547004,74.020594,-8580.269578,-148.041188
5718.547328,518.144159,-8810.098227,148.041188
5718.547653,518.144159,-8656.879127,-296.082377
5718.547977,518.144159,-8580.269578,-518.144159
5718.548301,666.185348,-8886.707777,0.000000
5718.548625,592.164754,-8503.660028,148.041188
5718.548950,370.102971,-8503.660028,148.041188
5718.549274,296.082377,-8427.050478,-148.041188
5718.549598,518.144159,-8503.660028,-370.102971
5718.549923,370.102971,-8733.488677,-518.144159
5718.550247,518.144159,-7890.783629,0.000000
5718.550571,888.247130,-8580.269578,-370.102971
5718.550896,666.185348,-8733.488677,-296.082377
5718.551220,1036.288319,-8810.098227,-222.061783
5718.551544,592.164754,-8810.098227,148.041188
5718.551868,814.226536,-8427.050478,-148.041188
5718.552193,592.164754,-8427.050478,74.020594
5718.552517,296.082377,-8810.098227,0.000000
5718.552841,518.144159,-8733.488677,0.000000
5718.553166,740.205942,-8503.660028,-518.144159
5718.553490,740.205942,-8580.269578,-222.061783
5718.553814,518.144159,-8273.831378,-740.205942
5718.554138,666.185348,-8963.317327,0.000000
5718.554463,1480.411884,-8350.440928,-518.144159
5718.554787,814.226536,-8503.660028,0.000000
5718.555111,814.226536,-8427.050478,-222.061783
5718.555436,666.185348,-8580.269578,-74.020594
5718.555760,370.102971,-8580.269578,-518.144159
5718.556084,148.041188,-8733.488677,-444.123565
5718.556408,296.082377,-8427.050478,-592.164754
5718.556733,740.205942,-8503.660028,-740.205942
5718.557057,666.185348,-8427.050478,-962.267725
5718.557381,592.164754,-8197.221829,-518.144159
5718.557706,592.164754,-8656.879127,-444.123565
5718.558030,518.144159,-8580.269578,-444.123565
5718.558354,518.144159,-8810.098227,-370.102971
5718.558678,814.226536,-8733.488677,-444.123565
5718.559003,296.082377,-8503.660028,0.000000
5718.559327,296.082377,-8503.660028,-592.164754
5718.559651,296.082377,-8656.879127,-444.123565
5718.559976,740.205942,-8427.050478,-592.164754
5718.560300,888.247130,-8963.317327,-666.185348
5718.560624,444.123565,-8427.050478,-518.144159
5718.560949,444.123565,-8810.098227,0.000000
5718.561273,296.082377,-8733.488677,0.000000
5718.561597,592.164754,-8733.488677,-296.082377
5718.561921,148.041188,-8886.707777,-444.123565
5718.562246,370.102971,-8580.269578,-518.144159
5718.562570,148.041188,-8580.269578,-518.144159
5718.562894,740.205942,-8656.879127,-592.164754
5718.563219,592.164754,-8656.879127,-222.061783
5718.563543,888.247130,-8503.660028,-592.164754
5718.563867,962.267725,-8656.879127,-370.102971
5718.564191,666.185348,-8273.831378,-222.061783
5718.564516,666.185348,-8733.488677,74.020594
5718.564840,74.020594,-8350.440928,-444.123565
5718.565164,296.082377,-8810.098227,-592.164754
5718.565489,222.061783,-8503.660028,-444.123565
5718.565813,370.102971,-8810.098227,74.020594
5718.566137,518.144159,-8503.660028,-740.205942
5718.566461,370.102971,-8886.707777,-370.102971
5718.566786,666.185348,-8656.879127,-592.164754
5718.567110,592.164754,-8120.612279,-222.061783
5718.567434,888.247130,-8580.269578,-444.123565
5718.567759,296.082377,-8580.269578,0.000000
5718.568083,148.041188,-8350.440928,-296.082377
5718.568407,0.000000,-8810.098227,-370.102971
5718.568732,518.144159,-8580.269578,-518.144159
5718.569056,370.102971,-8886.707777,-592.164754
5718.569380,444.123565,-8656.879127,-370.102971
5718.569704,518.144159,-8656.879127,-592.164754
5718.570029,592.164754,-8580.269578,-888.247130
5718.570353,962.267725,-8503.660028,-222.061783
5718.570677,592.164754,-8580.269578,-148.041188
5718.571002,666.185348,-8580.269578,-444.123565
5718.571326,148.041188,-7890.783629,-296.082377
5718.571650,296.082377,-8427.050478,-666.185348
5718.571974,222.061783,-8197.221829,-592.164754
5718.572299,444.123565,-8886.707777,-518.144159
5718.572623,296.082377,-8503.660028,-888.247130
5718.572947,444.123565,-8273.831378,-962.267725
5718.573272,296.082377,-8580.269578,-370.102971
5718.573596,518.144159,-8503.660028,-370.102971
5718.573920,740.205942,-8273.831378,-740.205942
5718.574244,370.102971,-9116.536426,-444.123565
5718.574569,74.020594,-8810.098227,-444.123565
5718.574893,296.082377,-8273.831378,-740.205942
5718.575218,296.082377,-8656.879127,-592.164754
5718.575542,296.082377,-8427.050478,-370.102971
5718.575866,814.226536,-8810.098227,-888.247130
5718.576191,518.144159,-8810.098227,-814.226536
5718.576515,666.185348,-8580.269578,-592.164754
5718.576840,814.226536,-8580.269578,-444.123565
5718.577164,148.041188,-8656.879127,-74.020594
5718.577489,296.082377,-8350.440928,-666.185348
5718.577813,148.041188,-8580.269578,-518.144159
5718.578137,74.020594,-8580.269578,-518.144159
5718.578462,518.144159,-8656.879127,-444.123565
5718.578786,296.082377,-8656.879127,-518.144159
5718.579111,0.000000,-8810.098227,-592.164754
5718.579435,518.144159,-8963.317327,-222.061783
5718.579760,592.164754,-8120.612279,-148.041188
5718.580084,518.144159,-8350.440928,-222.061783
5718.580408,74.020594,-8427.050478,-518.144159
5718.580733,222.061783,-8580.269578,0.000000
5718.581057,148.041188,-8656.879127,-518.144159
5718.581382,592.164754,-8733.488677,-740.205942
5718.581706,222.061783,-8503.660028,-666.185348
5718.582031,592.164754,-8273.831378,-444.123565
5718.582355,518.144159,-8350.440928,-666.185348
5718.582679,1036.288319,-8733.488677,-444.123565
5718.583004,814.226536,-8656.879127,-370.102971
5718.583328,666.185348,-8197.221829,0.000000
5718.583653,370.102971,-8503.660028,-444.123565
5718.583977,222.061783,-8427.050478,-592.164754
5718.584302,296.082377,-8503.660028,-740.205942
5718.584626,370.102971,-8197.221829,-666.185348
5718.584950,592.164754,-8580.269578,-666.185348
5718.585275,444.123565,-8427.050478,-814.226536
5718.585599,222.061783,-8963.317327,296.082377
5718.585924,518.144159,-8427.050478,-296.082377
5718.586248,592.164754,-8733.488677,-296.082377
5718.586573,444.123565,-8810.098227,-222.061783
5718.586897,444.123565,-9116.536426,0.000000
5718.587221,148.041188,-8503.660028,-296.082377
5718.587546,370.102971,-8656.879127,-592.164754
5718.587870,444.123565,-8273.831378,-666.185348
5718.588195,814.226536,-8580.269578,-666.185348
5718.588519,518.144159,-8733.488677,-666.185348
5718.588844,444.123565,-8963.317327,-444.123565
5718.589168,592.164754,-8656.879127,-222.061783
5718.589492,814.226536,-8733.488677,-592.164754
5718.589817,962.267725,-9193.145976,-518.144159
5718.590141,666.185348,-8580.269578,-592.164754
5718.590466,148.041188,-8580.269578,-592.164754
5718.590790,74.020594,-8580.269578,-740.205942
5718.591115,222.061783,-9422.974625,-592.164754
5718.591439,444.123565,-8580.269578,-518.144159
5718.591763,296.082377,-8733.488677,-814.226536
5718.592088,148.041188,-8733.488677,-370.102971
5718.592412,444.123565,-8503.660028,-148.041188
5718.592737,370.102971,-8810.098227,0.000000
5718.593061,444.123565,-8273.831378,-444.123565
5718.593386,74.020594,-8886.707777,-296.082377
5718.593710,0.000000,-8580.269578,-296.082377
5718.594034,0.000000,-8963.317327,148.041188
5718.594359,444.123565,-8733.488677,-592.164754
5718.594683,740.205942,-8350.440928,-740.205942
5718.595008,666.185348,-8886.707777,-592.164754
5718.595332,666.185348,-8503.660028,-444.123565
5718.595657,592.164754,-8503.660028,-222.061783
5718.595981,296.082377,-8350.440928,-148.041188
5718.596306,296.082377,-8273.831378,-444.123565
5718.596630,444.123565,-8733.488677,-666.185348
5718.596954,444.123565,-8503.660028,-444.123565
5718.597279,296.082377,-8273.831378,-592.164754
5718.597603,592.164754,-8733.488677,-666.185348
5718.597928,518.144159,-8273.831378,-592.164754
5718.598252,592.164754,-8580.269578,-222.061783
5718.598577,740.205942,-8580.269578,-592.164754
5718.598901,814.226536,-8733.488677,0.000000
5718.599225,444.123565,-8427.050478,-592.164754
5718.599550,222.061783,-8656.879127,-148.041188
5718.599874,74.020594,-8120.612279,-518.144159
5718.600199,444.123565,-8810.098227,-444.123565
5718.600523,222.061783,-8503.660028,-888.247130
5718.600848,592.164754,-8427.050478,-592.164754
5718.601172,814.226536,-8963.317327,-592.164754
5718.601496,888.247130,-8503.660028,-296.082377
5718.601821,1036.288319,-8580.269578,-444.123565
5718.602145,592.164754,-8503.660028,-518.144159
5718.602470,444.123565,-8886.707777,-592.164754
5718.602794,74.020594,-8810.098227,-592.164754
5718.603119,296.082377,-8197.221829,-592.164754
5718.603443,148.041188,-8427.050478,-740.205942
5718.603767,444.123565,-8810.098227,-518.144159
5718.604092,444.123565,-8733.488677,-592.164754
5718.604416,592.164754,-8733.488677,-666.185348
5718.604741,370.102971,-8656.879127,-222.061783
5718.605065,666.185348,-8273.831378,-518.144159
5718.605390,740.205942,-8503.660028,-148.041188
5718.605714,592.164754,-8427.050478,-518.144159
5718.606038,296.082377,-8733.488677,-444.123565
5718.606363,444.123565,-8580.269578,-666.185348
5718.606687,592.164754,-8810.098227,-222.061783
5718.607012,296.082377,-8503.660028,-888.247130
5718.607336,592.164754,-8886.707777,-740.205942
5718.607661,444.123565,-8580.269578,-592.164754
5718.607985,518.144159,-8810.098227,-592.164754
5718.608309,222.061783,-8503.660028,-518.144159
5718.608634,444.123565,-8503.660028,-370.102971
5718.608958,370.102971,-8656.879127,-740.205942
5718.609283,444.123565,-8580.269578,-370.102971
5718.609607,444.123565,-8273.831378,-370.102971
5718.609932,444.123565,-8503.660028,-666.185348
5718.610256,518.144159,-8503.660028,-592.164754
5718.610580,740.205942,-8963.317327,-666.185348
5718.610905,740.205942,-8810.098227,-296.082377
5718.611229,592.164754,-8350.440928,-222.061783
5718.611554,518.144159,-8886.707777,-296.082377
5718.611878,296.082377,-8580.269578,0.000000
5718.612203,666.185348,-8580.269578,0.000000
5718.612527,0.000000,-8427.050478,-222.061783
5718.612851,592.164754,-8580.269578,0.000000
5718.613176,296.082377,-8350.440928,-296.082377
5718.613500,814.226536,-8656.879127,-222.061783
5718.613825,740.205942,-7967.393179,0.000000
5718.614149,592.164754,-8963.317327,0.000000
5718.614474,592.164754,-8273.831378,0.000000
5718.614798,518.144159,-8580.269578,0.000000
5718.615122,296.082377,-8503.660028,0.000000
5718.615447,370.102971,-8350.440928,-296.082377
5718.615771,296.082377,-8580.269578,-370.102971
5718.616096,148.041188,-8427.050478,-518.144159
5718.616420,74.020594,-8733.488677,-148.041188
5718.616745,444.123565,-8197.221829,-666.185348
5718.617069,666.185348,-8427.050478,74.020594
5718.617393,592.164754,-8580.269578,0.000000
5718.617718,888.247130,-8733.488677,74.020594
5718.618042,814.226536,-8656.879127,148.041188
5718.618367,296.082377,-8580.269578,0.000000
5718.618691,222.061783,-8427.050478,0.000000
5718.619016,370.102971,-8427.050478,-148.041188
5718.619340,0.000000,-8656.879127,-444.123565
5718.619664,370.102971,-8503.660028,-296.082377
5718.619989,74.020594,-8580.269578,-370.102971
5718.620313,370.102971,-8733.488677,0.000000
5718.620638,592.164754,-8503.660028,0.000000
5718.620962,888.247130,-8886.707777,-148.041188
5718.621287,592.164754,-8427.050478,-74.020594
5718.621611,74.020594,-8427.050478,0.000000
5718.621935,74.020594,-8656.879127,-296.082377
5718.622260,296.082377,-8427.050478,-518.144159
5718.622584,296.082377,-8656.879127,-518.144159
5718.622909,370.102971,-8427.050478,-814.226536
5718.623233,444.123565,-8733.488677,-518.144159
5718.623558,592.164754,-8503.660028,-592.164754
5718.623882,518.144159,-8733.488677,-592.164754
5718.624206,296.082377,-8273.831378,-518.144159
5718.624531,444.123565,-8733.488677,-444.123565
5718.624855,592.164754,-8427.050478,-370.102971
5718.625180,592.164754,-8503.660028,-888.247130
5718.625504,222.061783,-8503.660028,-592.164754
5718.625829,370.102971,-8427.050478,-518.144159
5718.626153,592.164754,-8656.879127,-740.205942
5718.626477,444.123565,-8656.879127,-888.247130
5718.626802,666.185348,-8810.098227,-592.164754
5718.627126,370.102971,-8733.488677,-518.144159
5718.627451,148.041188,-8733.488677,-296.082377
5718.627775,296.082377,-8733.488677,-296.082377
5718.628100,592.164754,-8810.098227,-370.102971
5718.628424,296.082377,-8427.050478,-296.082377
5718.628748,370.102971,-8733.488677,-444.123565
5718.629073,592.164754,-8656.879127,-444.123565
5718.629397,888.247130,-8503.660028,-666.185348
5718.629722,962.267725,-8503.660028,-444.123565
5718.630046,888.247130,-8427.050478,0.000000
5718.630371,592.164754,-8197.221829,-148.041188
5718.630695,444.123565,-8503.660028,-148.041188
5718.631019,296.082377,-7967.393179,-148.041188
5718.631344,444.123565,-8503.660028,-296.082377
5718.631668,444.123565,-8503.660028,-296.082377
5718.631993,592.164754,-8197.221829,0.000000
5718.632317,518.144159,-8886.707777,0.000000
5718.632642,370.102971,-8656.879127,0.000000
5718.632966,740.205942,-8197.221829,0.000000
5718.633290,518.144159,-8580.269578,0.000000
5718.633615,666.185348,-9193.145976,0.000000
5718.633939,296.082377,-8427.050478,222.061783
5718.634264,148.041188,-8733.488677,0.000000
5718.634588,222.061783,-8580.269578,0.000000
5718.634913,222.061783,-8427.050478,-222.061783
5718.635237,518.144159,-8656.879127,0.000000
5718.635561,296.082377,-8656.879127,0.000000
5718.635886,444.123565,-8656.879127,-370.102971
5718.636210,592.164754,-8427.050478,148.041188
5718.636535,296.082377,-8886.707777,518.144159
5718.636859,370.102971,-8886.707777,0.000000
5718.637184,296.082377,-8427.050478,296.082377
5718.637508,444.123565,-8886.707777,222.061783
5718.637832,370.102971,-9039.926876,74.020594
5718.638157,296.082377,-8656.879127,0.000000
5718.638481,370.102971,-9116.536426,-296.082377
5718.638806,444.123565,-8656.879127,0.000000
5718.639130,0.000000,-8886.707777,0.000000
5718.639455,148.041188,-8886.707777,222.061783
5718.639779,370.102971,-8810.098227,0.000000
5718.640103,148.041188,-8886.707777,0.000000
5718.640428,74.020594,-8580.269578,0.000000
5718.640752,0.000000,-8733.488677,0.000000
5718.641077,74.020594,-8427.050478,0.000000
5718.641401,296.082377,-8503.660028,-222.061783
5718.641726,740.205942,-8656.879127,-666.185348
5718.642050,740.205942,-9499.584175,-666.185348
5718.642374,666.185348,-8120.612279,-222.061783
5718.642699,148.041188,-8656.879127,0.000000
5718.643023,222.061783,-8427.050478,-296.082377
5718.643348,370.102971,-8427.050478,0.000000
5718.643672,592.164754,-8427.050478,-296.082377
5718.643997,296.082377,-8580.269578,-296.082377
5718.644321,222.061783,-8503.660028,-370.102971
5718.644645,518.144159,-8810.098227,-296.082377
5718.644970,814.226536,-7814.174080,-296.082377
5718.645294,740.205942,-8886.707777,-518.144159
5718.645619,666.185348,-8427.050478,-370.102971
5718.645943,740.205942,-8580.269578,0.000000
5718.646268,0.000000,-8810.098227,-518.144159
5718.646592,222.061783,-8350.440928,0.000000
5718.646916,444.123565,-8580.269578,-370.102971
5718.647241,222.061783,-8580.269578,-222.061783
5718.647565,222.061783,-8503.660028,0.000000
5718.647890,592.164754,-8197.221829,0.000000
5718.648214,666.185348,-8580.269578,-296.082377
5718.648539,666.185348,-8580.269578,-370.102971
5718.648863,518.144159,-8656.879127,0.000000
5718.649187,592.164754,-8350.440928,222.061783
5718.649512,370.102971,-8350.440928,0.000000
5718.649836,0.000000,-8580.269578,-296.082377
5718.650161,444.123565,-8273.831378,-222.061783
5718.650485,296.082377,-8733.488677,-370.102971
5718.650810,222.061783,-8503.660028,-370.102971
5718.651134,74.020594,-8580.269578,-222.061783
5718.651458,444.123565,-8733.488677,-296.082377
5718.651783,592.164754,-8656.879127,-222.061783
5718.652107,888.247130,-9116.536426,0.000000
5718.652432,444.123565,-8427.050478,-222.061783
5718.652756,0.000000,-8503.660028,148.041188
5718.653081,222.061783,-8350.440928,-296.082377
5718.653405,74.020594,-7737.564530,0.000000
5718.653729,370.102971,-8427.050478,-370.102971
5718.654054,518.144159,-8733.488677,-444.123565
5718.654378,592.164754,-8656.879127,-444.123565
5718.654703,518.144159,-8427.050478,-518.144159
5718.655027,370.102971,-8350.440928,222.061783
5718.655352,296.082377,-8656.879127,-370.102971
5718.655676,370.102971,-8656.879127,-370.102971
5718.656000,148.041188,-8273.831378,0.000000
5718.656325,370.102971,-8503.660028,148.041188
5718.656649,444.123565,-8810.098227,-592.164754
5718.656974,592.164754,-8350.440928,-370.102971
5718.657298,666.185348,-8427.050478,-222.061783
5718.657623,666.185348,-8733.488677,0.000000
5718.657947,666.185348,-8656.879127,-148.041188
5718.658271,666.185348,-8580.269578,0.000000
5718.658596,444.123565,-8350.440928,0.000000
5718.658920,444.123565,-8427.050478,0.000000
5718.659245,370.102971,-8197.221829,222.061783
5718.659569,370.102971,-8273.831378,0.000000
5718.659894,296.082377,-8427.050478,-148.041188
5718.660218,74.020594,-8810.098227,-148.041188
5718.660542,888.247130,-8273.831378,-296.082377
5718.660867,962.267725,-8733.488677,-518.144159
5718.661191,740.205942,-8580.269578,-222.061783
5718.661516,666.185348,-8503.660028,74.020594
5718.661840,444.123565,-8656.879127,74.020594
5718.662165,592.164754,-8580.269578,-222.061783
5718.662489,666.185348,-8580.269578,-518.144159
5718.662814,370.102971,-8656.879127,-296.082377
5718.663138,370.102971,-8273.831378,-370.102971
5718.663462,592.164754,-8963.317327,-592.164754
5718.663787,592.164754,-8656.879127,-592.164754
5718.664111,666.185348,-8810.098227,0.000000
5718.664436,814.226536,-8580.269578,-148.041188
5718.664760,592.164754,-9269.755526,0.000000
5718.665085,296.082377,-8656.879127,222.061783
5718.665409,370.102971,-8733.488677,148.041188
5718.665733,148.041188,-8733.488677,148.041188
5718.666058,0.000000,-8580.269578,-370.102971
5718.666382,0.000000,-8503.660028,0.000000
5718.666707,74.020594,-8580.269578,0.000000
5718.667031,222.061783,-8733.488677,-444.123565
5718.667356,296.082377,-8656.879127,0.000000
5718.667680,444.123565,-8580.269578,-296.082377
5718.668004,518.144159,-8733.488677,-444.123565
5718.668329,296.082377,-8733.488677,-444.123565
5718.668653,222.061783,-8580.269578,-296.082377
5718.668978,370.102971,-9499.584175,-592.164754
5718.669302,370.102971,-8580.269578,-888.247130
5718.669627,296.082377,-8580.269578,-888.247130
5718.669951,444.123565,-8197.221829,-888.247130
5718.670275,222.061783,-8580.269578,-888.247130
5718.670600,518.144159,-8580.269578,-740.205942
5718.670924,666.185348,-8044.002729,-592.164754
5718.671249,666.185348,-8580.269578,-814.226536
5718.671573,222.061783,-8503.660028,-444.123565
5718.671898,0.000000,-8886.707777,0.000000
5718.672222,592.164754,-8350.440928,-518.144159
5718.672546,444.123565,-8503.660028,-814.226536
5718.672871,444.123565,-8580.269578,-518.144159
5718.673195,518.144159,-8886.707777,-370.102971
5718.673520,592.164754,-8580.269578,-370.102971
5718.673844,370.102971,-8503.660028,-296.082377
5718.674169,666.185348,-8963.317327,0.000000
5718.674493,296.082377,-8503.660028,-370.102971
5718.674817,444.123565,-8810.098227,-296.082377
5718.675142,444.123565,-8580.269578,-296.082377
5718.675466,444.123565,-8503.660028,-296.082377
5718.675791,518.144159,-8810.098227,-518.144159
5718.676115,814.226536,-8656.879127,-296.082377
5718.676439,888.247130,-8503.660028,-814.226536
5718.676764,814.226536,-8580.269578,-370.102971
5718.677088,740.205942,-8427.050478,-296.082377
5718.677413,444.123565,-8810.098227,-296.082377
5718.677737,592.164754,-8197.221829,-814.226536
5718.678061,296.082377,-8427.050478,-444.123565
5718.678386,370.102971,-8197.221829,-444.123565
5718.678710,444.123565,-8503.660028,-592.164754
5718.679034,666.185348,-8810.098227,-666.185348
5718.679359,518.144159,-8350.440928,-444.123565
5718.679683,592.164754,-8503.660028,-814.226536
5718.680008,370.102971,-8656.879127,-370.102971
5718.680332,1110.308913,-9116.536426,-518.144159
5718.680656,444.123565,-8656.879127,-592.164754
5718.680981,222.061783,-8656.879127,-518.144159
5718.681305,222.061783,-8810.098227,-222.061783
5718.681630,444.123565,-8810.098227,-740.205942
5718.681954,222.061783,-8733.488677,-592.164754
5718.682278,592.164754,-9039.926876,-370.102971
5718.682603,518.144159,-8580.269578,-444.123565
5718.682927,740.205942,-8886.707777,-370.102971
5718.683251,1110.308913,-9039.926876,0.000000
5718.683576,592.164754,-8886.707777,-370.102971
5718.683900,518.144159,-8580.269578,0.000000
5718.684225,0.000000,-8656.879127,-222.061783
5718.684549,296.082377,-9269.755526,-518.144159
5718.684873,74.020594,-8580.269578,-518.144159
5718.685198,518.144159,-8963.317327,-518.144159
5718.685522,222.061783,-8656.879127,-148.041188
5718.685847,444.123565,-8963.317327,0.000000
5718.686171,666.185348,-8427.050478,148.041188
5718.686495,444.123565,-8656.879127,0.000000
5718.686820,370.102971,-8503.660028,-148.041188
5718.687144,222.061783,-8656.879127,0.000000
5718.687468,0.000000,-8427.050478,444.123565
5718.687793,0.000000,-8350.440928,-296.082377
5718.688117,148.041188,-8503.660028,-148.041188
5718.688442,592.164754,-8197.221829,-296.082377
5718.688766,962.267725,-8580.269578,-296.082377
5718.689090,518.144159,-8580.269578,-296.082377
5718.689415,814.226536,-8733.488677,0.000000
5718.689739,740.205942,-8197.221829,-222.061783
5718.690064,592.164754,-8656.879127,-222.061783
5718.690388,296.082377,-8350.440928,0.000000
5718.690712,222.061783,-8427.050478,74.020594
5718.691037,148.041188,-8350.440928,-370.102971
5718.691361,148.041188,-8580.269578,-518.144159
5718.691685,296.082377,-8044.002729,0.000000
5718.692010,592.164754,-8427.050478,-222.061783
5718.692334,666.185348,-8503.660028,-370.102971
5718.692659,666.185348,-8580.269578,74.020594
5718.692983,666.185348,-9039.926876,0.000000
5718.693307,444.123565,-8656.879127,-148.041188
5718.693632,148.041188,-8427.050478,-370.102971
5718.693956,0.000000,-8427.050478,-222.061783
5718.694281,296.082377,-8273.831378,-592.164754
5718.694605,74.020594,-8656.879127,-666.185348
5718.694929,444.123565,-8733.488677,-592.164754
5718.695254,370.102971,-8503.660028,-814.226536
5718.695578,518.144159,-8810.098227,-888.247130
5718.695903,444.123565,-8503.660028,0.000000
5718.696227,222.061783,-8656.879127,-518.144159
5718.696551,296.082377,-8886.707777,-518.144159
5718.696876,296.082377,-8503.660028,-962.267725
5718.697200,370.102971,-8886.707777,-962.267725
5718.697524,370.102971,-8503.660028,-962.267725
5718.697849,444.123565,-8580.269578,-740.205942
5718.698173,222.061783,-9039.926876,-888.247130
5718.698498,592.164754,-8656.879127,-1036.288319
5718.698822,814.226536,-8810.098227,-740.205942
5718.699146,666.185348,-8810.098227,-740.205942
5718.699471,222.061783,-8656.879127,-222.061783
5718.699795,444.123565,-8733.488677,-592.164754
5718.700120,592.164754,-8120.612279,-222.061783
5718.700444,222.061783,-8503.660028,-814.226536
5718.700768,296.082377,-8656.879127,-962.267725
5718.701093,370.102971,-8810.098227,-888.247130
5718.701417,592.164754,-8503.660028,-1036.288319
5718.701741,592.164754,-8503.660028,-1110.308913
5718.702066,666.185348,-8886.707777,-518.144159
5718.702390,518.144159,-8580.269578,-592.164754
5718.702715,518.144159,-8733.488677,-814.226536
5718.703039,518.144159,-8273.831378,-666.185348
5718.703363,222.061783,-8733.488677,-444.123565
5718.703688,148.041188,-8503.660028,-740.205942
5718.704012,666.185348,-8580.269578,-1036.288319
5718.704337,666.185348,-8197.221829,-592.164754
5718.704661,444.123565,-8197.221829,-518.144159
5718.704985,296.082377,-8580.269578,-296.082377
5718.705310,592.164754,-8580.269578,-296.082377
5718.705634,888.247130,-8427.050478,-222.061783
5718.705958,740.205942,-8580.269578,-666.185348
5718.706283,222.061783,-8656.879127,74.020594
5718.706607,74.020594,-8503.660028,0.000000
5718.706932,296.082377,-8580.269578,-222.061783
5718.707256,740.205942,-8427.050478,-370.102971
5718.707580,666.185348,-8350.440928,-444.123565
5718.707905,592.164754,-8503.660028,-222.061783
5718.708229,592.164754,-8197.221829,0.000000
5718.708554,1184.329507,-8503.660028,-296.082377
5718.708878,814.226536,-8350.440928,0.000000
5718.709202,592.164754,-8580.269578,0.000000
5718.709527,444.123565,-8120.612279,-370.102971
5718.709851,444.123565,-8503.660028,-148.041188
5718.710175,370.102971,-8503.660028,-370.102971
5718.710500,592.164754,-8427.050478,-296.082377
5718.710824,518.144159,-8273.831378,-444.123565
5718.711149,814.226536,-8503.660028,-666.185348
5718.711473,814.226536,-8120.612279,-222.061783
5718.711797,592.164754,-8580.269578,222.061783
5718.712122,0.000000,-8733.488677,0.000000
5718.712446,296.082377,-8580.269578,0.000000
5718.712771,148.041188,-8197.221829,-296.082377
5718.713095,0.000000,-8503.660028,-518.144159
5718.713419,296.082377,-8656.879127,-518.144159
5718.713744,370.102971,-8733.488677,-592.164754
5718.714068,444.123565,-8503.660028,-518.144159
5718.714392,148.041188,-8427.050478,-814.226536
5718.714717,518.144159,-8963.317327,-296.082377
5718.715041,296.082377,-8350.440928,-370.102971
5718.715366,444.123565,-8810.098227,-296.082377
5718.715690,74.020594,-8580.269578,-592.164754
5718.716014,148.041188,-8427.050478,-592.164754
5718.716339,370.102971,-8886.707777,-740.205942
5718.716663,518.144159,-8503.660028,-666.185348
5718.716988,296.082377,-8733.488677,-518.144159
5718.717312,518.144159,-8427.050478,-370.102971
5718.717636,740.205942,-8580.269578,-592.164754
5718.717961,666.185348,-8886.707777,-444.123565
5718.718285,666.185348,-8886.707777,-518.144159
5718.718610,666.185348,-8656.879127,-592.164754
5718.718934,222.061783,-8580.269578,-296.082377
5718.719258,74.020594,-8503.660028,-518.144159
5718.719583,444.123565,-8580.269578,-518.144159
5718.719907,296.082377,-8963.317327,-370.102971
5718.720231,444.123565,-8580.269578,-370.102971
5718.720556,222.061783,-8733.488677,-592.164754
5718.720880,888.247130,-8886.707777,-148.041188
5718.721205,666.185348,-8580.269578,-296.082377
5718.721529,740.205942,-9116.536426,-444.123565
5718.721853,518.144159,-8656.879127,0.000000
5718.722178,370.102971,-8273.831378,-222.061783
5718.722502,222.061783,-8810.098227,-370.102971
5718.722827,74.020594,-8044.002729,-296.082377
5718.723151,740.205942,-8810.098227,-444.123565
5718.723475,518.144159,-8580.269578,-814.226536
5718.723800,740.205942,-8273.831378,-444.123565
5718.724124,740.205942,-8503.660028,-740.205942
5718.724448,592.164754,-8350.440928,0.000000
5718.724773,444.123565,-8427.050478,-296.082377
5718.725097,518.144159,-8580.269578,-370.102971
5718.725422,518.144159,-8350.440928,74.020594
5718.725746,0.000000,-8273.831378,-370.102971
5718.726070,222.061783,-8427.050478,-222.061783
5718.726395,296.082377,-7967.393179,-444.123565
5718.726719,518.144159,-8350.440928,-222.061783
5718.727044,148.041188,-8580.269578,-444.123565
5718.727368,518.144159,-8733.488677,0.000000
5718.727692,148.041188,-8580.269578,74.020594
5718.728017,296.082377,-8503.660028,0.000000
5718.728341,222.061783,-9269.755526,-296.082377
5718.728665,518.144159,-8656.879127,-296.082377
5718.728990,370.102971,-8350.440928,-296.082377
5718.729314,148.041188,-8810.098227,-148.041188
5718.729639,148.041188,-8656.879127,-296.082377
5718.729963,740.205942,-8656.879127,-296.082377
5718.730287,740.205942,-8427.050478,-148.041188
5718.730612,370.102971,-8580.269578,0.000000
5718.730936,370.102971,-8580.269578,0.000000
5718.731261,518.144159,-8886.707777,0.000000
5718.731585,222.061783,-8886.707777,-296.082377
5718.731909,222.061783,-8810.098227,-222.061783
5718.732234,296.082377,-8810.098227,0.000000
5718.732558,222.061783,-9499.584175,-370.102971
5718.732882,148.041188,-8810.098227,-296.082377
5718.733207,518.144159,-8810.098227,0.000000
5718.733531,888.247130,-8580.269578,0.000000
5718.733856,444.123565,-8810.098227,0.000000
5718.734180,222.061783,-8656.879127,0.000000
5718.734504,518.144159,-8810.098227,0.000000
5718.734829,518.144159,-8656.879127,-148.041188
5718.735153,296.082377,-8273.831378,-370.102971
5718.735478,518.144159,-8427.050478,-296.082377
5718.735802,592.164754,-8197.221829,-222.061783
5718.736126,740.205942,-8273.831378,-518.144159
5718.736451,666.185348,-9039.926876,-222.061783
5718.736775,740.205942,-8427.050478,0.000000
5718.737099,962.267725,-8350.440928,-222.061783
5718.737424,814.226536,-8503.660028,-370.102971
5718.737748,592.164754,-8656.879127,0.000000
5718.738073,518.144159,-8963.317327,0.000000
5718.738397,888.247130,-8273.831378,-962.267725
5718.738721,666.185348,-8580.269578,-666.185348
5718.739046,592.164754,-8656.879127,-518.144159
5718.739370,814.226536,-8733.488677,-222.061783
5718.739695,740.205942,-8503.660028,148.041188
5718.740019,740.205942,-8733.488677,0.000000
5718.740343,740.205942,-8503.660028,-148.041188
5718.740668,370.102971,-8503.660028,-370.102971
5718.740992,222.061783,-8656.879127,-296.082377
5718.741317,74.020594,-8733.488677,-222.061783
5718.741641,444.123565,-8656.879127,-444.123565
5718.741965,296.082377,-8733.488677,-666.185348
5718.742290,814.226536,-8427.050478,-444.123565
5718.742614,814.226536,-8580.269578,-444.123565
5718.742938,740.205942,-8810.098227,-222.061783
5718.743263,888.247130,-8503.660028,-296.082377
5718.743587,370.102971,-9039.926876,0.000000
5718.743912,370.102971,-8886.707777,-370.102971
5718.744236,148.041188,-8656.879127,-148.041188
5718.744560,-148.041188,-8273.831378,-444.123565
5718.744885,-518.144159,-8350.440928,-222.061783
5718.745209,0.000000,-8733.488677,-444.123565
5718.745534,148.041188,-8810.098227,-444.123565
5718.745858,592.164754,-8810.098227,-444.123565
5718.746182,296.082377,-8733.488677,0.000000
5718.746507,148.041188,-8580.269578,-518.144159
5718.746831,814.226536,-8810.098227,-296.082377
5718.747155,0.000000,-8580.269578,-370.102971
5718.747480,0.000000,-8503.660028,-518.144159
5718.747804,222.061783,-8733.488677,-740.205942
5718.748129,74.020594,-8886.707777,-444.123565
5718.748453,444.123565,-8427.050478,-666.185348
5718.748777,444.123565,-8733.488677,-740.205942
5718.749102,740.205942,-8656.879127,-518.144159
5718.749426,444.123565,-8427.050478,-296.082377
5718.749751,592.164754,-8580.269578,-370.102971
5718.750075,0.000000,-8427.050478,-296.082377
5718.750399,74.020594,-8197.221829,-518.144159
5718.750724,370.102971,-8350.440928,-518.144159
5718.751048,592.164754,-7967.393179,-296.082377
5718.751372,296.082377,-8580.269578,-296.082377
5718.751697,222.061783,-8810.098227,-518.144159
5718.752021,222.061783,-8580.269578,-148.041188
5718.752346,444.123565,-8427.050478,-148.041188
5718.752670,444.123565,-8810.098227,74.020594
5718.752994,518.144159,-8656.879127,-296.082377
5718.753319,666.185348,-8273.831378,0.000000
5718.753643,518.144159,-8350.440928,-222.061783
5718.753968,296.082377,-8197.221829,0.000000
5718.754292,592.164754,-8427.050478,0.000000
5718.754616,666.185348,-8580.269578,-296.082377
5718.754941,1036.288319,-8580.269578,-444.123565
5718.755265,1110.308913,-7814.174080,0.000000
5718.755589,888.247130,-8886.707777,0.000000
5718.755914,666.185348,-8273.831378,-74.020594
5718.756238,444.123565,-8810.098227,-370.102971
5718.756563,296.082377,-8350.440928,-222.061783
5718.756887,296.082377,-8427.050478,-148.041188
5718.757211,296.082377,-8656.879127,-518.144159
5718.757536,222.061783,-8273.831378,-444.123565
5718.757860,666.185348,-8427.050478,-370.102971
5718.758185,1036.288319,-8350.440928,0.000000
5718.758509,888.247130,-8656.879127,0.000000
5718.758833,666.185348,-8656.879127,74.020594
5718.759158,370.102971,-8733.488677,0.000000
5718.759482,962.267725,-8503.660028,-518.144159
5718.759806,148.041188,-8810.098227,-148.041188
5718.760131,0.000000,-8427.050478,0.000000
5718.760455,0.000000,-8273.831378,-296.082377
5718.760780,74.020594,-8886.707777,-518.144159
5718.761104,444.123565,-8733.488677,-74.020594
5718.761428,814.226536,-8886.707777,-518.144159
5718.761753,592.164754,-8580.269578,0.000000
5718.762077,444.123565,-8656.879127,0.000000
5718.762402,814.226536,-8963.317327,-222.061783
5718.762726,222.061783,-8733.488677,0.000000
5718.763050,296.082377,-8656.879127,-222.061783
5718.763375,370.102971,-8580.269578,-296.082377
5718.763699,370.102971,-8044.002729,-296.082377
5718.764024,518.144159,-8503.660028,-370.102971
5718.764348,592.164754,-8350.440928,-370.102971
5718.764672,444.123565,-8656.879127,0.000000
5718.764997,814.226536,-8503.660028,-148.041188
5718.765321,370.102971,-8580.269578,0.000000
5718.765645,222.061783,-8427.050478,0.000000
5718.765970,74.020594,-8656.879127,296.082377
5718.766294,0.000000,-8427.050478,0.000000
5718.766619,0.000000,-8350.440928,0.000000
5718.766943,296.082377,-8350.440928,-592.164754
5718.767267,222.061783,-8503.660028,-148.041188
5718.767592,222.061783,-8810.098227,-518.144159
5718.767916,666.185348,-8427.050478,-296.082377
5718.768241,444.123565,-8350.440928,0.000000
5718.768565,370.102971,-8350.440928,-296.082377
5718.768889,296.082377,-8580.269578,0.000000
5718.769214,222.061783,-8427.050478,-444.123565
5718.769538,296.082377,-8350.440928,-148.041188
5718.769862,814.226536,-8580.269578,-814.226536
5718.770187,518.144159,-9039.926876,-592.164754
5718.770511,888.247130,-8197.221829,-370.102971
5718.770836,888.247130,-8810.098227,-222.061783
5718.771160,518.144159,-8580.269578,-148.041188
5718.771484,296.082377,-8580.269578,-148.041188
5718.771809,370.102971,-8656.879127,-296.082377
5718.772133,222.061783,-8810.098227,-296.082377
5718.772458,0.000000,-8580.269578,-296.082377
5718.772782,0.000000,-8656.879127,-444.123565
5718.773106,222.061783,-8427.050478,-370.102971
5718.773431,444.123565,-8656.879127,-666.185348
5718.773755,1036.288319,-8580.269578,-592.164754
5718.774079,592.164754,-8350.440928,-148.041188
5718.774404,518.144159,-8580.269578,-222.061783
5718.774728,370.102971,-8810.098227,-444.123565
5718.775053,444.123565,-8044.002729,-518.144159
5718.775377,370.102971,-8580.269578,-666.185348
5718.775701,296.082377,-8656.879127,-370.102971
5718.776026,0.000000,-8580.269578,-740.205942
5718.776350,148.041188,-8503.660028,-814.226536
5718.776675,518.144159,-8503.660028,-296.082377
5718.776999,296.082377,-8810.098227,-666.185348
5718.777324,740.205942,-8810.098227,-148.041188
5718.777648,666.185348,-8273.831378,-444.123565
5718.777972,814.226536,-8580.269578,0.000000
5718.778297,0.000000,-8656.879127,-296.082377
5718.778621,296.082377,-8656.879127,-296.082377
5718.778946,74.020594,-8810.098227,-444.123565
5718.779270,0.000000,-8656.879127,0.000000
5718.779595,222.061783,-9116.536426,-592.164754
5718.779919,370.102971,-8580.269578,-222.061783
5718.780243,814.226536,-8810.098227,-518.144159
5718.780568,444.123565,-9346.365076,-222.061783
5718.780892,666.185348,-8427.050478,-148.041188
5718.781217,74.020594,-8350.440928,0.000000
5718.781541,296.082377,-8503.660028,-222.061783
5718.781866,222.061783,-8427.050478,-148.041188
5718.782190,666.185348,-8197.221829,-518.144159
5718.782514,444.123565,-8197.221829,-740.205942
5718.782839,518.144159,-8580.269578,-444.123565
5718.783163,518.144159,-8427.050478,-518.144159
5718.783488,888.247130,-8427.050478,-296.082377
5718.783812,814.226536,-8733.488677,-592.164754
5718.784137,666.185348,-8580.269578,-296.082377
5718.784461,592.164754,-8120.612279,-222.061783
5718.784785,370.102971,-8273.831378,-444.123565
5718.785110,740.205942,-8963.317327,-296.082377
5718.785434,222.061783,-8503.660028,-592.164754
5718.785759,370.102971,-9039.926876,-370.102971
5718.786083,296.082377,-8580.269578,-370.102971
5718.786408,518.144159,-9346.365076,-370.102971
5718.786732,518.144159,-8810.098227,-148.041188
5718.787057,592.164754,-8733.488677,74.020594
5718.787381,444.123565,-8810.098227,-444.123565
5718.787705,444.123565,-8656.879127,0.000000
5718.788030,222.061783,-8350.440928,0.000000
5718.788354,296.082377,-8733.488677,-592.164754
5718.788679,296.082377,-8580.269578,-592.164754
5718.789003,444.123565,-8503.660028,-296.082377
5718.789328,222.061783,-8733.488677,-296.082377
5718.789652,518.144159,-8580.269578,-296.082377
5718.789976,518.144159,-8733.488677,-444.123565
5718.790301,592.164754,-8580.269578,-296.082377
5718.790625,444.123565,-9193.145976,-370.102971
5718.790950,222.061783,-8427.050478,-518.144159
5718.791274,222.061783,-8580.269578,-296.082377
5718.791599,0.000000,-8350.440928,-666.185348
5718.791923,222.061783,-8580.269578,-740.205942
5718.792247,296.082377,-8503.660028,-740.205942
5718.792572,666.185348,-8656.879127,-666.185348
5718.792896,444.123565,-8273.831378,-666.185348
5718.793221,518.144159,-8656.879127,-222.061783
5718.793545,444.123565,-8886.707777,0.000000
5718.793870,370.102971,-8810.098227,-296.082377
5718.794194,370.102971,-8580.269578,-666.185348
5718.794518,296.082377,-8733.488677,-518.144159
5718.794843,370.102971,-9039.926876,-444.123565
5718.795167,148.041188,-8350.440928,-666.185348
5718.795492,592.164754,-8656.879127,-592.164754
5718.795816,666.185348,-8273.831378,-592.164754
5718.796141,740.205942,-8733.488677,-518.144159
5718.796465,740.205942,-8733.488677,-666.185348
5718.796789,518.144159,-8656.879127,-444.123565
5718.797114,74.020594,-8886.707777,0.000000
5718.797438,74.020594,-8350.440928,-222.061783
5718.797763,0.000000,-8810.098227,-148.041188
5718.798087,296.082377,-8503.660028,-518.144159
5718.798412,222.061783,-8656.879127,-518.144159
5718.798736,222.061783,-8580.269578,-370.102971
5718.799060,666.185348,-8656.879127,-296.082377
5718.799385,888.247130,-8120.612279,-296.082377
5718.799709,814.226536,-8273.831378,-518.144159
5718.800034,370.102971,-8733.488677,0.000000
5718.800358,370.102971,-8503.660028,-296.082377
5718.800683,296.082377,-8733.488677,0.000000
5718.801007,148.041188,-8427.050478,-518.144159
5718.801331,592.164754,-8427.050478,-666.185348
5718.801656,592.164754,-8273.831378,-888.247130
5718.801980,370.102971,-8733.488677,0.000000
5718.802305,666.185348,-8427.050478,-518.144159
5718.802629,1110.308913,-8427.050478,-814.226536
5718.802954,740.205942,-8503.660028,-740.205942
5718.803278,666.185348,-8810.098227,-518.144159
5718.803603,74.020594,-8656.879127,-370.102971
5718.803927,222.061783,-8963.317327,-370.102971
5718.804251,74.020594,-8580.269578,-740.205942
5718.804576,74.020594,-8427.050478,-518.144159
5718.804900,296.082377,-9116.536426,0.000000
5718.805225,518.144159,-8273.831378,-148.041188
5718.805549,222.061783,-8580.269578,0.000000
5718.805874,222.061783,-8580.269578,0.000000
5718.806198,0.000000,-9193.145976,0.000000
5718.806522,296.082377,-8350.440928,-296.082377
5718.806847,370.102971,-8580.269578,-296.082377
5718.807171,222.061783,-8427.050478,-444.123565
5718.807496,222.061783,-8656.879127,-518.144159
5718.807820,296.082377,-8197.221829,-444.123565
5718.808145,740.205942,-8886.707777,-666.185348
5718.808469,666.185348,-8503.660028,-592.164754
5718.808793,740.205942,-8427.050478,-222.061783
5718.809118,888.247130,-8350.440928,-814.226536
5718.809442,518.144159,-8656.879127,-296.082377
5718.809767,296.082377,-8503.660028,-444.123565
5718.810091,666.185348,-8886.707777,-592.164754
5718.810416,370.102971,-8656.879127,-444.123565
5718.810740,222.061783,-8810.098227,0.000000
5718.811064,592.164754,-8580.269578,0.000000
5718.811389,814.226536,-8503.660028,-370.102971
5718.811713,888.247130,-8733.488677,-296.082377
5718.812038,592.164754,-8656.879127,0.000000
5718.812362,666.185348,-8580.269578,0.000000
5718.812687,222.061783,-8656.879127,-296.082377
5718.813011,370.102971,-8656.879127,-296.082377
5718.813335,0.000000,-7967.393179,0.000000
5718.813660,296.082377,-8580.269578,-666.185348
5718.813984,518.144159,-8580.269578,-740.205942
5718.814309,592.164754,-8503.660028,-518.144159
5718.814633,666.185348,-8656.879127,0.000000
5718.814958,518.144159,-8503.660028,-444.123565
5718.815282,740.205942,-8886.707777,-592.164754
5718.815606,518.144159,-8350.440928,-518.144159
5718.815931,370.102971,-8273.831378,-444.123565
5718.816255,74.020594,-8350.440928,-444.123565
5718.816580,296.082377,-8427.050478,-740.205942
5718.816904,444.123565,-8273.831378,-814.226536
5718.817229,518.144159,-8656.879127,-444.123565
5718.817553,592.164754,-8044.002729,-296.082377
5718.817878,592.164754,-8580.269578,-370.102971
5718.818202,518.144159,-8503.660028,-296.082377
5718.818526,370.102971,-8810.098227,-296.082377
5718.818851,148.041188,-8656.879127,-296.082377
5718.819175,370.102971,-8656.879127,0.000000
5718.819500,0.000000,-8733.488677,-370.102971
5718.819824,74.020594,-8580.269578,-370.102971
5718.820149,148.041188,-8273.831378,-444.123565
5718.820473,962.267725,-8580.269578,-592.164754
5718.820797,222.061783,-8733.488677,-592.164754
5718.821122,222.061783,-8656.879127,-666.185348
5718.821446,518.144159,-8733.488677,-222.061783
5718.821771,814.226536,-8503.660028,-222.061783
5718.822095,148.041188,-8810.098227,-370.102971
5718.822420,370.102971,-8503.660028,-148.041188
5718.822744,148.041188,-8656.879127,-444.123565
5718.823068,0.000000,-8810.098227,-592.164754
5718.823393,296.082377,-8350.440928,-444.123565
5718.823717,444.123565,-8810.098227,-518.144159
5718.824042,518.144159,-8503.660028,-814.226536
5718.824366,740.205942,-8810.098227,-222.061783
5718.824691,814.226536,-8886.707777,0.000000
5718.825015,370.102971,-8427.050478,-370.102971
5718.825339,370.102971,-8580.269578,-592.164754
5718.825664,148.041188,-8810.098227,-222.061783
5718.825988,592.164754,-8273.831378,-148.041188
5718.826313,370.102971,-8580.269578,-370.102971
5718.826637,74.020594,-8733.488677,-592.164754
5718.826962,518.144159,-8580.269578,-518.144159
5718.827286,518.144159,-8810.098227,-592.164754
5718.827610,444.123565,-8886.707777,0.000000
5718.827935,592.164754,-8350.440928,0.000000
5718.828259,666.185348,-8810.098227,-296.082377
5718.828584,444.123565,-8503.660028,-222.061783
5718.828908,370.102971,-8656.879127,-74.020594
5718.829233,740.205942,-8580.269578,-444.123565
5718.829557,296.082377,-7967.393179,-370.102971
5718.829881,666.185348,-8963.317327,-444.123565
5718.830206,444.123565,-8427.050478,-370.102971
5718.830530,592.164754,-8273.831378,-370.102971
5718.830855,518.144159,-8886.707777,0.000000
5718.831179,740.205942,-8273.831378,0.000000
5718.831504,74.020594,-8810.098227,-370.102971
5718.831828,148.041188,-8350.440928,0.000000
5718.832152,222.061783,-8350.440928,-444.123565
5718.832477,296.082377,-8580.269578,-370.102971
5718.832801,666.185348,-8427.050478,-370.102971
5718.833126,444.123565,-9039.926876,0.000000
5718.833450,592.164754,-8580.269578,-740.205942
5718.833775,814.226536,-8503.660028,-296.082377
5718.834099,888.247130,-8503.660028,0.000000
5718.834424,444.123565,-8810.098227,-592.164754
5718.834748,444.123565,-8733.488677,-222.061783
5718.835072,0.000000,-8503.660028,-222.061783
5718.835397,518.144159,-8733.488677,-592.164754
5718.835721,370.102971,-8273.831378,-666.185348
5718.836046,518.144159,-8656.879127,-518.144159
5718.836370,814.226536,-8503.660028,-666.185348
5718.836695,592.164754,-8733.488677,-370.102971
5718.837019,666.185348,-8733.488677,-518.144159
5718.837343,888.247130,-8503.660028,-296.082377
5718.837668,370.102971,-8733.488677,-370.102971
5718.837992,74.020594,-8810.098227,-444.123565
5718.838317,148.041188,-8656.879127,0.000000
5718.838641,0.000000,-8656.879127,-444.123565
5718.838966,0.000000,-8580.269578,-444.123565
5718.839290,0.000000,-8503.660028,-296.082377
5718.839614,444.123565,-9039.926876,-296.082377
5718.839939,370.102971,-8273.831378,-296.082377
5718.840263,74.020594,-8503.660028,0.000000
5718.840588,222.061783,-8733.488677,0.000000
5718.840912,222.061783,-8503.660028,0.000000
5718.841237,148.041188,-8503.660028,-296.082377
5718.841561,222.061783,-8503.660028,-370.102971
5718.841885,74.020594,-8197.221829,-148.041188
5718.842210,370.102971,-8580.269578,-222.061783
5718.842534,666.185348,-8273.831378,-592.164754
5718.842859,592.164754,-8733.488677,-518.144159
5718.843183,592.164754,-8503.660028,-370.102971
5718.843508,518.144159,-8197.221829,0.000000
5718.843832,518.144159,-8427.050478,0.000000
5718.844156,518.144159,-8427.050478,-296.082377
5718.844481,592.164754,-8810.098227,-370.102971
5718.844805,518.144159,-8886.707777,-296.082377
5718.845130,444.123565,-8503.660028,-370.102971
5718.845454,592.164754,-8733.488677,-148.041188
5718.845779,518.144159,-8427.050478,-666.185348
5718.846103,814.226536,-8350.440928,-370.102971
5718.846427,592.164754,-8733.488677,0.000000
5718.846752,962.267725,-8580.269578,0.000000
5718.847076,518.144159,-8427.050478,-296.082377
5718.847401,370.102971,-9039.926876,0.000000
5718.847725,0.000000,-8350.440928,-370.102971
5718.848050,222.061783,-8503.660028,-222.061783
5718.848374,370.102971,-8656.879127,-518.144159
5718.848698,296.082377,-8656.879127,0.000000
5718.849023,666.185348,-8503.660028,-444.123565
5718.849347,518.144159,-8503.660028,-296.082377
5718.849672,888.247130,-8656.879127,-296.082377
5718.849996,666.185348,-9116.536426,-296.082377
5718.850321,444.123565,-8273.831378,-222.061783
5718.850645,0.000000,-8427.050478,0.000000
5718.850970,148.041188,-8580.269578,0.000000
5718.851294,0.000000,-8273.831378,-296.082377
5718.851618,222.061783,-8733.488677,0.000000
5718.851943,74.020594,-8656.879127,0.000000
5718.852267,74.020594,-8810.098227,-370.102971
5718.852592,296.082377,-8733.488677,0.000000
5718.852916,296.082377,-8886.707777,592.164754
5718.853241,222.061783,-8733.488677,-296.082377
5718.853565,148.041188,-8427.050478,0.000000
5718.853889,296.082377,-8580.269578,74.020594
5718.854214,0.000000,-8427.050478,-370.102971
5718.854538,0.000000,-8580.269578,-444.123565
5718.854863,370.102971,-8580.269578,-518.144159
5718.855187,592.164754,-8733.488677,-666.185348
5718.855512,370.102971,-8886.707777,-370.102971
5718.855836,1036.288319,-8733.488677,0.000000
5718.856160,444.123565,-8427.050478,-222.061783
5718.856485,740.205942,-8733.488677,0.000000
5718.856809,370.102971,-8427.050478,-296.082377
5718.857134,592.164754,-8810.098227,0.000000
5718.857458,444.123565,-8197.221829,-370.102971
5718.857783,222.061783,-8427.050478,-148.041188
5718.858107,518.144159,-8656.879127,-518.144159
5718.858431,370.102971,-8427.050478,-444.123565
5718.858756,592.164754,-8656.879127,-370.102971
5718.859080,444.123565,-8503.660028,0.000000
5718.859405,444.123565,-8656.879127,0.000000
5718.859729,222.061783,-8427.050478,0.000000
5718.860054,592.164754,-8120.612279,370.102971
5718.860378,296.082377,-8963.317327,-148.041188
5718.860702,296.082377,-8197.221829,-518.144159
5718.861027,444.123565,-8810.098227,-222.061783
5718.861351,592.164754,-8886.707777,0.000000
5718.861676,592.164754,-8197.221829,-518.144159
5718.862000,888.247130,-8656.879127,-444.123565
5718.862325,444.123565,-8503.660028,-296.082377
5718.862649,592.164754,-8580.269578,-370.102971
5718.862973,222.061783,-8886.707777,-148.041188
5718.863298,370.102971,-8503.660028,0.000000
5718.863622,444.123565,-8656.879127,-740.205942
5718.863947,148.041188,-8427.050478,-370.102971
5718.864271,148.041188,-8197.221829,148.041188
5718.864596,296.082377,-8580.269578,-296.082377
5718.864920,370.102971,-8733.488677,-592.164754
5718.865245,740.205942,-8503.660028,0.000000
5718.865569,518.144159,-8656.879127,74.020594
5718.865893,370.102971,-8656.879127,-370.102971
5718.866218,0.000000,-8427.050478,0.000000
5718.866542,222.061783,-8886.707777,-296.082377
5718.866867,222.061783,-8580.269578,-592.164754
5718.867191,296.082377,-8580.269578,-370.102971
5718.867516,592.164754,-8963.317327,-370.102971
5718.867840,370.102971,-8656.879127,-370.102971
5718.868164,518.144159,-8963.317327,-370.102971
5718.868489,962.267725,-8886.707777,-444.123565
5718.868813,740.205942,-8503.660028,-518.144159
5718.869138,444.123565,-8733.488677,-444.123565
5718.869462,74.020594,-8733.488677,0.000000
5718.869787,444.123565,-8580.269578,-296.082377
5718.870111,222.061783,-8580.269578,-592.164754
5718.870435,296.082377,-8427.050478,-518.144159
5718.870760,518.144159,-8886.707777,-370.102971
5718.871084,518.144159,-8580.269578,-370.102971
5718.871409,592.164754,-8886.707777,0.000000
5718.871733,888.247130,-8427.050478,-148.041188
5718.872058,370.102971,-8503.660028,-444.123565
5718.872382,74.020594,-8810.098227,0.000000
5718.872706,148.041188,-8427.050478,148.041188
5718.873031,148.041188,-8733.488677,0.000000
5718.873355,74.020594,-8273.831378,-296.082377
5718.873680,74.020594,-8656.879127,0.000000
5718.874004,444.123565,-8427.050478,-296.082377
5718.874329,592.164754,-8503.660028,-296.082377
5718.874653,740.205942,-8427.050478,296.082377
5718.874977,666.185348,-8580.269578,0.000000
5718.875302,518.144159,-8733.488677,0.000000
5718.875626,74.020594,-7967.393179,-222.061783
5718.875951,370.102971,-8810.098227,0.000000
5718.876275,74.020594,-8656.879127,-148.041188
5718.876600,296.082377,-8197.221829,-370.102971
5718.876924,296.082377,-8120.612279,148.041188
5718.877248,740.205942,-8503.660028,-370.102971
5718.877573,592.164754,-8503.660028,-518.144159
5718.877897,814.226536,-8580.269578,-222.061783
5718.878221,444.123565,-8427.050478,0.000000
5718.878546,0.000000,-8503.660028,-296.082377
5718.878870,0.000000,-8580.269578,-370.102971
5718.879195,222.061783,-8580.269578,-370.102971
5718.879519,148.041188,-8810.098227,-592.164754
5718.879843,0.000000,-8503.660028,-148.041188
5718.880168,666.185348,-8886.707777,-296.082377
5718.880492,666.185348,-8810.098227,-296.082377
5718.880816,666.185348,-8503.660028,-296.082377
5718.881141,814.226536,-8886.707777,-370.102971
5718.881465,666.185348,-8580.269578,-518.144159
5718.881790,296.082377,-8580.269578,-370.102971
5718.882114,296.082377,-8656.879127,-296.082377
5718.882438,518.144159,-8810.098227,-592.164754
5718.882763,740.205942,-8580.269578,-592.164754
5718.883087,222.061783,-8503.660028,-518.144159
5718.883411,222.061783,-8733.488677,-518.144159
5718.883736,814.226536,-8733.488677,-370.102971
5718.884060,1036.288319,-8350.440928,-296.082377
5718.884385,814.226536,-8886.707777,-148.041188
5718.884709,518.144159,-8503.660028,-296.082377
5718.885033,222.061783,-8503.660028,-148.041188
5718.885358,74.020594,-8733.488677,-148.041188
5718.885682,148.041188,-8656.879127,-518.144159
5718.886006,148.041188,-8427.050478,-444.123565
5718.886331,148.041188,-8656.879127,-444.123565
5718.886655,518.144159,-8656.879127,-444.123565
5718.886980,740.205942,-8503.660028,0.000000
5718.887304,962.267725,-8503.660028,-296.082377
5718.887628,518.144159,-8350.440928,-296.082377
5718.887953,592.164754,-8580.269578,-444.123565
5718.888277,296.082377,-7814.174080,0.000000
5718.888601,814.226536,-8120.612279,-296.082377
5718.888926,296.082377,-8656.879127,-962.267725
5718.889250,518.144159,-8580.269578,-518.144159
5718.889575,740.205942,-8350.440928,-592.164754
5718.889899,888.247130,-8810.098227,-740.205942
5718.890223,740.205942,-8503.660028,-296.082377
5718.890548,666.185348,-8580.269578,-148.041188
5718.890872,592.164754,-8580.269578,-370.102971
5718.891196,296.082377,-8197.221829,-592.164754
5718.891521,222.061783,-8733.488677,-444.123565
5718.891845,222.061783,-8197.221829,-592.164754
5718.892170,222.061783,-8503.660028,-592.164754
5718.892494,222.061783,-8427.050478,-444.123565
5718.892818,666.185348,-8503.660028,-370.102971
5718.893143,666.185348,-8810.098227,-666.185348
5718.893467,592.164754,-8427.050478,-222.061783
5718.893791,592.164754,-8886.707777,-296.082377
5718.894116,592.164754,-8733.488677,0.000000
5718.894440,222.061783,-8656.879127,-222.061783
5718.894765,74.020594,-8733.488677,-222.061783
5718.895089,222.061783,-8656.879127,-666.185348
5718.895413,518.144159,-9039.926876,0.000000
5718.895738,222.061783,-8427.050478,-370.102971
5718.896062,518.144159,-8273.831378,-740.205942
5718.896386,814.226536,-8580.269578,-592.164754
5718.896711,518.144159,-8733.488677,-518.144159
5718.897035,296.082377,-8810.098227,0.000000
5718.897360,148.041188,-8427.050478,-370.102971
5718.897684,296.082377,-8963.317327,148.041188
5718.898008,0.000000,-8350.440928,0.000000
5718.898333,74.020594,-8580.269578,-370.102971
5718.898657,444.123565,-8810.098227,-370.102971
5718.898981,296.082377,-7890.783629,-444.123565
5718.899306,592.164754,-8733.488677,-444.123565
5718.899630,222.061783,-8120.612279,-296.082377
5718.899954,814.226536,-8886.707777,-296.082377
5718.900279,592.164754,-8656.879127,-370.102971
5718.900603,370.102971,-8580.269578,0.000000
5718.900928,296.082377,-8810.098227,-222.061783
5718.901252,148.041188,-8427.050478,-518.144159
5718.901576,444.123565,-8273.831378,-518.144159
5718.901901,666.185348,-8810.098227,-444.123565
5718.902225,888.247130,-8427.050478,-444.123565
5718.902549,1110.308913,-8044.002729,-592.164754
5718.902874,518.144159,-8810.098227,-518.144159
5718.903198,518.144159,-8427.050478,-444.123565
5718.903523,592.164754,-8656.879127,-370.102971
5718.903847,222.061783,-8350.440928,-888.247130
5718.904171,370.102971,-8656.879127,-296.082377
5718.904496,444.123565,-8427.050478,-740.205942
5718.904820,444.123565,-8733.488677,-370.102971
5718.905144,592.164754,-8580.269578,-592.164754
5718.905469,740.205942,-8503.660028,-666.185348
5718.905793,888.247130,-8197.221829,-222.061783
5718.906118,666.185348,-8350.440928,0.000000
5718.906442,518.144159,-8810.098227,-444.123565
5718.906766,444.123565,-8427.050478,-444.123565
5718.907091,222.061783,-8733.488677,-296.082377
5718.907415,296.082377,-8656.879127,-444.123565
5718.907739,296.082377,-8656.879127,-592.164754
5718.908064,444.123565,-8656.879127,-962.267725
5718.908388,518.144159,-8503.660028,-814.226536
5718.908713,888.247130,-8810.098227,-666.185348
5718.909037,888.247130,-8503.660028,-666.185348
5718.909361,444.123565,-8503.660028,-296.082377
5718.909686,148.041188,-8810.098227,-444.123565
5718.910010,148.041188,-8580.269578,-444.123565
5718.910334,444.123565,-8733.488677,-518.144159
5718.910659,296.082377,-8503.660028,-740.205942
5718.910983,148.041188,-8810.098227,0.000000
5718.911308,296.082377,-8427.050478,-518.144159
5718.911632,666.185348,-8656.879127,-74.020594
5718.911956,592.164754,-8503.660028,-666.185348
5718.912281,592.164754,-8350.440928,-370.102971
5718.912605,518.144159,-8580.269578,-518.144159
5718.912929,222.061783,-8427.050478,-370.102971
5718.913254,0.000000,-8580.269578,-740.205942
5718.913578,74.020594,-8427.050478,-370.102971
5718.913903,222.061783,-8580.269578,-740.205942
5718.914227,296.082377,-8503.660028,-814.226536
5718.914551,518.144159,-8273.831378,-666.185348
5718.914876,740.205942,-8427.050478,-296.082377
5718.915200,518.144159,-8350.440928,-666.185348
5718.915524,814.226536,-8197.221829,-518.144159
5718.915849,888.247130,-8503.660028,-666.185348
5718.916173,370.102971,-8197.221829,-444.123565
5718.916498,222.061783,-8580.269578,-592.164754
5718.916822,74.020594,-8810.098227,-444.123565
5718.917146,74.020594,-8503.660028,-296.082377
5718.917471,444.123565,-8427.050478,-222.061783
5718.917795,666.185348,-8503.660028,-592.164754
5718.918119,666.185348,-7967.393179,-444.123565
5718.918444,888.247130,-8427.050478,0.000000
5718.918768,592.164754,-8427.050478,0.000000
5718.919093,518.144159,-8810.098227,0.000000
5718.919417,370.102971,-8886.707777,0.000000
5718.919741,148.041188,-8427.050478,74.020594
5718.920066,0.000000,-8503.660028,0.000000
5718.920390,74.020594,-8886.707777,74.020594
5718.920714,444.123565,-8503.660028,-222.061783
5718.921039,592.164754,-8733.488677,-222.061783
5718.921363,444.123565,-8733.488677,-148.041188
5718.921688,814.226536,-8656.879127,0.000000
5718.922012,666.185348,-8580.269578,0.000000
5718.922336,666.185348,-8656.879127,-518.144159
5718.922661,296.082377,-8580.269578,-592.164754
5718.922985,296.082377,-8580.269578,-444.123565
5718.923309,222.061783,-8273.831378,-814.226536
5718.923634,518.144159,-8580.269578,-888.247130
5718.923958,444.123565,-8580.269578,-592.164754
5718.924283,592.164754,-8733.488677,-444.123565
5718.924607,592.164754,-8810.098227,-888.247130
5718.924931,518.144159,-8733.488677,-370.102971
5718.925256,740.205942,-8427.050478,-518.144159
5718.925580,296.082377,-8733.488677,-370.102971
5718.925904,74.020594,-8503.660028,-592.164754
5718.926229,444.123565,-8427.050478,-296.082377
5718.926553,592.164754,-8503.660028,-518.144159
5718.926878,74.020594,-8656.879127,-592.164754
5718.927202,222.061783,-8886.707777,-444.123565
5718.927526,592.164754,-8656.879127,-222.061783
5718.927851,444.123565,-9039.926876,-222.061783
5718.928175,740.205942,-8580.269578,-444.123565
5718.928499,296.082377,-8656.879127,-296.082377
5718.928824,296.082377,-8733.488677,0.000000
5718.929148,148.041188,-8503.660028,-296.082377
5718.929473,370.102971,-8580.269578,-740.205942
5718.929797,222.061783,-8580.269578,-666.185348
5718.930121,740.205942,-8427.050478,-518.144159
5718.930446,370.102971,-8810.098227,-740.205942
5718.930770,740.205942,-8580.269578,-592.164754
5718.931094,814.226536,-8427.050478,-222.061783
5718.931419,740.205942,-8733.488677,-666.185348
5718.931743,444.123565,-8733.488677,-370.102971
5718.932068,0.000000,-8733.488677,-222.061783
5718.932392,296.082377,-8580.269578,-222.061783
5718.932716,222.061783,-8427.050478,-444.123565
5718.933041,518.144159,-8733.488677,-592.164754
5718.933365,444.123565,-8503.660028,-592.164754
5718.933689,296.082377,-8656.879127,0.000000
5718.934014,444.123565,-8656.879127,-296.082377
5718.934338,518.144159,-8350.440928,0.000000
5718.934663,740.205942,-8580.269578,-148.041188
5718.934987,0.000000,-8886.707777,0.000000
5718.935311,222.061783,-8580.269578,-222.061783
5718.935636,222.061783,-8733.488677,-518.144159
5718.935960,148.041188,-8580.269578,-148.041188
5718.936284,222.061783,-8273.831378,-666.185348
5718.936609,444.123565,-8733.488677,-222.061783
5718.936933,518.144159,-7967.393179,-518.144159
5718.937258,518.144159,-8580.269578,-296.082377
5718.937582,518.144159,-8580.269578,-296.082377
5718.937906,444.123565,-8503.660028,74.020594
5718.938231,222.061783,-8733.488677,0.000000
5718.938555,74.020594,-8273.831378,0.000000
5718.938879,222.061783,-8350.440928,0.000000
5718.939204,148.041188,-8350.440928,-222.061783
5718.939528,148.041188,-8580.269578,-296.082377
5718.939853,222.061783,-8427.050478,0.000000
5718.940177,666.185348,-8656.879127,-518.144159
5718.940501,444.123565,-8273.831378,0.000000
5718.940826,518.144159,-8273.831378,148.041188
5718.941150,444.123565,-8656.879127,-74.020594
5718.941474,444.123565,-8427.050478,-296.082377
5718.941799,296.082377,-8580.269578,-148.041188
5718.942123,222.061783,-8273.831378,-518.144159
5718.942448,296.082377,-8656.879127,-296.082377
5718.942772,592.164754,-8503.660028,-444.123565
5718.943096,444.123565,-8503.660028,-148.041188
5718.943421,888.247130,-8656.879127,-518.144159
5718.943745,740.205942,-8656.879127,-370.102971
5718.944069,444.123565,-8197.221829,-148.041188
5718.944394,518.144159,-8350.440928,-148.041188
5718.944718,148.041188,-8503.660028,0.000000
5718.945043,296.082377,-8733.488677,0.000000
5718.945367,0.000000,-8427.050478,-296.082377
5718.945691,518.144159,-8810.098227,-592.164754
5718.946016,0.000000,-8580.269578,-296.082377
5718.946340,518.144159,-8503.660028,0.000000
5718.946664,666.185348,-8580.269578,-370.102971
5718.946989,666.185348,-8733.488677,-148.041188
5718.947313,666.185348,-8427.050478,-296.082377
5718.947638,444.123565,-8350.440928,74.020594
5718.947962,296.082377,-8733.488677,-74.020594
5718.948286,222.061783,-8427.050478,-444.123565
5718.948611,148.041188,-8503.660028,-296.082377
5718.948935,222.061783,-8427.050478,-518.144159
5718.949259,444.123565,-8273.831378,-222.061783
5718.949584,370.102971,-8580.269578,-666.185348
5718.949908,666.185348,-8580.269578,-444.123565
5718.950233,296.082377,-8810.098227,-222.061783
5718.950557,666.185348,-9346.365076,-296.082377
5718.950881,74.020594,-8350.440928,0.000000
5718.951206,222.061783,-8733.488677,-148.041188
5718.951530,0.000000,-8580.269578,-444.123565
5718.951854,296.082377,-8350.440928,-518.144159
5718.952179,148.041188,-8580.269578,-222.061783
5718.952503,518.144159,-8810.098227,-444.123565
5718.952828,444.123565,-8810.098227,-222.061783
5718.953152,370.102971,-8963.317327,0.000000
5718.953476,296.082377,-8197.221829,444.123565
5718.953801,296.082377,-8733.488677,0.000000
5718.954125,148.041188,-8656.879127,0.000000
5718.954449,296.082377,-8503.660028,0.000000
5718.954774,222.061783,-8656.879127,222.061783
5718.955098,222.061783,-8273.831378,-222.061783
5718.955422,962.267725,-8580.269578,-296.082377
5718.955747,592.164754,-8350.440928,-666.185348
5718.956071,592.164754,-8503.660028,0.000000
5718.956396,814.226536,-8350.440928,0.000000
5718.956720,592.164754,-8580.269578,0.000000
5718.957044,74.020594,-8350.440928,-296.082377
5718.957369,296.082377,-8810.098227,-370.102971
5718.957693,592.164754,-8810.098227,-296.082377
5718.958017,296.082377,-8503.660028,-666.185348
5718.958342,296.082377,-8886.707777,-518.144159
5718.958666,518.144159,-8427.050478,-592.164754
5718.958991,740.205942,-7660.954980,-148.041188
5718.959315,592.164754,-8503.660028,-444.123565
5718.959639,592.164754,-8427.050478,-370.102971
5718.959964,222.061783,-8886.707777,-444.123565
5718.960288,370.102971,-8427.050478,-444.123565
5718.960612,222.061783,-8503.660028,-592.164754
5718.960937,0.000000,-8503.660028,-592.164754
5718.961261,296.082377,-8350.440928,-370.102971
5718.961586,518.144159,-8503.660028,-740.205942
5718.961910,222.061783,-8733.488677,-222.061783
5718.962234,592.164754,-8503.660028,-592.164754
5718.962559,888.247130,-8810.098227,-592.164754
5718.962883,592.164754,-8427.050478,-592.164754
5718.963207,444.123565,-8427.050478,-370.102971
5718.963532,296.082377,-8810.098227,-370.102971
5718.963856,518.144159,-8350.440928,-444.123565
5718.964181,222.061783,-8503.660028,-666.185348
5718.964505,444.123565,-8580.269578,-444.123565
5718.964829,666.185348,-7967.393179,-296.082377
5718.965154,666.185348,-8733.488677,-296.082377
5718.965478,592.164754,-8580.269578,-222.061783
5718.965802,666.185348,-8503.660028,-148.041188
5718.966127,888.247130,-9806.022374,-370.102971
5718.966451,74.020594,-8427.050478,-148.041188
5718.966776,0.000000,-9039.926876,0.000000
5718.967100,0.000000,-8503.660028,0.000000
5718.967424,296.082377,-9039.926876,-148.041188
5718.967749,518.144159,-8580.269578,-222.061783
5718.968073,444.123565,-8656.879127,-222.061783
5718.968397,518.144159,-8656.879127,-296.082377
5718.968722,666.185348,-8656.879127,0.000000
5718.969046,888.247130,-8886.707777,-148.041188
5718.969371,592.164754,-8273.831378,-222.061783
5718.969695,222.061783,-8503.660028,-444.123565
5718.970019,296.082377,-8503.660028,0.000000
5718.970344,666.185348,-8886.707777,-592.164754
5718.970668,444.123565,-8580.269578,-222.061783
5718.970992,444.123565,-8427.050478,-518.144159
5718.971317,592.164754,-8733.488677,-148.041188
5718.971641,740.205942,-8273.831378,-444.123565
5718.971966,740.205942,-8427.050478,0.000000
5718.972290,444.123565,-8656.879127,148.041188
5718.972614,296.082377,-8656.879127,0.000000
5718.972939,148.041188,-8656.879127,0.000000
5718.973263,222.061783,-8733.488677,148.041188
5718.973587,74.020594,-8656.879127,148.041188
5718.973912,74.020594,-8580.269578,0.000000
5718.974236,296.082377,-8580.269578,0.000000
5718.974561,814.226536,-8733.488677,0.000000
5718.974885,592.164754,-8810.098227,74.020594
5718.975209,444.123565,-8197.221829,296.082377
5718.975534,444.123565,-8503.660028,148.041188
5718.975858,370.102971,-8580.269578,0.000000
5718.976182,370.102971,-8120.612279,0.000000
5718.976507,296.082377,-8273.831378,-518.144159
5718.976831,148.041188,-8427.050478,-148.041188
5718.977156,370.102971,-8350.440928,-518.144159
5718.977480,444.123565,-8044.002729,-518.144159
5718.977804,666.185348,-8503.660028,-592.164754
5718.978129,592.164754,-8503.660028,-370.102971
5718.978453,888.247130,-8733.488677,0.000000
5718.978777,74.020594,-7967.393179,-296.082377
5718.979102,222.061783,-8580.269578,0.000000
5718.979426,-148.041188,-8810.098227,-222.061783
5718.979750,296.082377,-8886.707777,-370.102971
5718.980075,518.144159,-8503.660028,-592.164754
5718.980399,518.144159,-8580.269578,-518.144159
5718.980724,296.082377,-8656.879127,-296.082377
5718.981048,740.205942,-8580.269578,0.000000
5718.981372,666.185348,-8503.660028,-296.082377
5718.981697,296.082377,-8886.707777,74.020594
5718.982021,518.144159,-8580.269578,-148.041188
5718.982345,0.000000,-8427.050478,-444.123565
5718.982670,222.061783,-8886.707777,-296.082377
5718.982994,0.000000,-8656.879127,-666.185348
5718.983318,370.102971,-8810.098227,-518.144159
5718.983643,370.102971,-8503.660028,-740.205942
5718.983967,814.226536,-8503.660028,-592.164754
5718.984291,444.123565,-8427.050478,-814.226536
5718.984616,296.082377,-8580.269578,-444.123565
5718.984940,370.102971,-8120.612279,-814.226536
5718.985265,444.123565,-8963.317327,-814.226536
5718.985589,370.102971,-8273.831378,-666.185348
5718.985913,296.082377,-8503.660028,-666.185348
5718.986238,74.020594,-8656.879127,-592.164754
5718.986562,444.123565,-8427.050478,-592.164754
5718.986886,740.205942,-8656.879127,-888.247130
5718.987211,444.123565,-8656.879127,-444.123565
5718.987535,444.123565,-7967.393179,-222.061783
5718.987859,444.123565,-8656.879127,0.000000
5718.988184,444.123565,-8733.488677,0.000000
5718.988508,222.061783,-8503.660028,-592.164754
5718.988832,444.123565,-9193.145976,-444.123565
5718.989157,222.061783,-8273.831378,-444.123565
5718.989481,370.102971,-8733.488677,-444.123565
5718.989806,222.061783,-8427.050478,-296.082377
5718.990130,592.164754,-9652.803275,-74.020594
5718.990454,888.247130,-8810.098227,-518.144159
5718.990779,740.205942,-8350.440928,0.000000
5718.991103,592.164754,-8580.269578,-148.041188
5718.991427,222.061783,-8503.660028,0.000000
5718.991752,370.102971,-8580.269578,-444.123565
5718.992076,222.061783,-8810.098227,-222.061783
5718.992400,666.185348,-8427.050478,-296.082377
5718.992725,518.144159,-8120.612279,-148.041188
5718.993049,148.041188,-8733.488677,0.000000
5718.993373,592.164754,-8503.660028,-148.041188
5718.993698,740.205942,-8580.269578,0.000000
5718.994022,592.164754,-8503.660028,0.000000
5718.994347,444.123565,-8886.707777,74.020594
5718.994671,148.041188,-8503.660028,0.000000
5718.994995,0.000000,-8503.660028,-222.061783
5718.995320,222.061783,-8733.488677,-148.041188
5718.995644,222.061783,-8503.660028,-518.144159
5718.995968,222.061783,-8733.488677,0.000000
5718.996293,444.123565,-7890.783629,-296.082377
5718.996617,666.185348,-8656.879127,-370.102971
5718.996941,888.247130,-8427.050478,-592.164754
5718.997266,814.226536,-9499.584175,0.000000
5718.997590,222.061783,-8503.660028,0.000000
5718.997915,148.041188,-8656.879127,0.000000
5718.998239,0.000000,-8580.269578,0.000000
5718.998563,148.041188,-8580.269578,-148.041188
5718.998888,222.061783,-8580.269578,-370.102971
5718.999212,740.205942,-8503.660028,0.000000
5718.999536,592.164754,-8350.440928,-222.061783
5718.999861,666.185348,-8656.879127,-296.082377
5719.000185,1036.288319,-8733.488677,0.000000
5719.000509,592.164754,-8503.660028,0.000000
5719.000834,444.123565,-8733.488677,-518.144159
5719.001158,222.061783,-8963.317327,-296.082377
5719.001482,222.061783,-8503.660028,-296.082377
5719.001807,148.041188,-8733.488677,-592.164754
5719.002131,444.123565,-8427.050478,-888.247130
5719.002456,666.185348,-8886.707777,-740.205942
5719.002780,592.164754,-8580.269578,-592.164754
5719.003104,740.205942,-8273.831378,-592.164754
5719.003429,740.205942,-8580.269578,-444.123565
5719.003753,592.164754,-8580.269578,-518.144159
5719.004077,666.185348,-8427.050478,-740.205942
5719.004402,0.000000,-8427.050478,-296.082377
5719.004726,222.061783,-8810.098227,-296.082377
5719.005050,74.020594,-8886.707777,-740.205942
5719.005375,444.123565,-8580.269578,-666.185348
5719.005699,444.123565,-8503.660028,-296.082377
5719.006023,740.205942,-8656.879127,-740.205942
5719.006348,740.205942,-8503.660028,-444.123565
5719.006672,518.144159,-8427.050478,-148.041188
5719.006997,296.082377,-8810.098227,-370.102971
5719.007321,74.020594,-8733.488677,-296.082377
5719.007645,74.020594,-8656.879127,-296.082377
5719.007970,444.123565,-8503.660028,-740.205942
5719.008294,222.061783,-8580.269578,-370.102971
5719.008618,666.185348,-8273.831378,-740.205942
5719.008943,592.164754,-8427.050478,-444.123565
5719.009267,740.205942,-8427.050478,-444.123565
5719.009591,666.185348,-8503.660028,-296.082377
5719.009916,814.226536,-8273.831378,-592.164754
5719.010240,370.102971,-8580.269578,-444.123565
5719.010564,370.102971,-8197.221829,-592.164754
5719.010889,296.082377,-8350.440928,-296.082377
5719.011213,518.144159,-8580.269578,-592.164754
5719.011538,74.020594,-8733.488677,-296.082377
5719.011862,148.041188,-8733.488677,-518.144159
5719.012186,740.205942,-8580.269578,-296.082377
5719.012511,518.144159,-8273.831378,-370.102971
5719.012835,666.185348,-8580.269578,0.000000
5719.013159,666.185348,-8350.440928,-148.041188
5719.013484,148.041188,-8656.879127,-296.082377
5719.013808,0.000000,-8656.879127,-296.082377
5719.014132,148.041188,-8427.050478,0.000000
5719.014457,296.082377,-8656.879127,-296.082377
5719.014781,518.144159,-8656.879127,-444.123565
5719.015106,592.164754,-8656.879127,-296.082377
5719.015430,666.185348,-8503.660028,-370.102971
5719.015754,592.164754,-8350.440928,0.000000
5719.016079,814.226536,-8503.660028,-148.041188
5719.016403,518.144159,-8656.879127,-444.123565
5719.016727,370.102971,-8427.050478,0.000000
5719.017052,-296.082377,-8273.831378,-444.123565
5719.017376,370.102971,-8886.707777,-518.144159
5719.017700,444.123565,-8427.050478,-666.185348
5719.018025,518.144159,-8580.269578,-592.164754
5719.018349,518.144159,-8963.317327,-518.144159
5719.018673,444.123565,-8503.660028,-444.123565
5719.018998,740.205942,-8886.707777,-296.082377
5719.019322,592.164754,-8427.050478,-296.082377
5719.019647,296.082377,-9039.926876,-370.102971
5719.019971,444.123565,-8656.879127,-592.164754
5719.020295,148.041188,-8580.269578,-296.082377
5719.020620,0.000000,-8580.269578,-518.144159
5719.020944,222.061783,-8580.269578,-740.205942
5719.021268,666.185348,-9039.926876,-592.164754
5719.021593,666.185348,-8810.098227,-518.144159
5719.021917,444.123565,-8656.879127,-666.185348
5719.022241,444.123565,-8810.098227,-148.041188
5719.022566,592.164754,-8427.050478,-370.102971
5719.022890,296.082377,-8810.098227,-666.185348
5719.023214,296.082377,-8580.269578,-296.082377
5719.023539,0.000000,-8580.269578,-370.102971
5719.023863,0.000000,-8503.660028,-444.123565
5719.024188,370.102971,-8886.707777,0.000000
5719.024512,444.123565,-8810.098227,-592.164754
5719.024836,888.247130,-8427.050478,-370.102971
5719.025161,962.267725,-8427.050478,-370.102971
5719.025485,888.247130,-8963.317327,296.082377
5719.025809,518.144159,-8350.440928,0.000000
5719.026134,296.082377,-8733.488677,0.000000
5719.026458,148.041188,-8427.050478,-296.082377
5719.026782,74.020594,-9039.926876,-370.102971
5719.027107,444.123565,-8120.612279,0.000000
5719.027431,222.061783,-8427.050478,-592.164754
5719.027756,296.082377,-8656.879127,-222.061783
5719.028080,370.102971,-8197.221829,-444.123565
5719.028404,1036.288319,-7814.174080,74.020594
5719.028729,666.185348,-8580.269578,-518.144159
5719.029053,666.185348,-8656.879127,-296.082377
5719.029377,592.164754,-8273.831378,-370.102971
5719.029702,296.082377,-8656.879127,-370.102971
5719.030026,370.102971,-8733.488677,-592.164754
5719.030350,518.144159,-8503.660028,-740.205942
5719.030675,518.144159,-8580.269578,-370.102971
5719.030999,370.102971,-8427.050478,-592.164754
5719.031323,444.123565,-8503.660028,-148.041188
5719.031648,518.144159,-8273.831378,0.000000
5719.031972,518.144159,-8350.440928,-222.061783
5719.032297,222.061783,-8580.269578,0.000000
5719.032621,148.041188,-8963.317327,222.061783
5719.032945,148.041188,-8427.050478,-370.102971
5719.033270,370.102971,-8350.440928,-518.144159
5719.033594,148.041188,-8427.050478,-592.164754
5719.033918,666.185348,-8503.660028,-592.164754
5719.034243,592.164754,-8197.221829,-370.102971
5719.034567,592.164754,-8656.879127,-222.061783
5719.034891,592.164754,-8427.050478,-296.082377
5719.035216,444.123565,-8656.879127,-518.144159
5719.035540,74.020594,-9116.536426,-518.144159
5719.035864,0.000000,-8350.440928,-296.082377
5719.036189,444.123565,-9039.926876,-814.226536
5719.036513,222.061783,-8656.879127,-666.185348
5719.036838,222.061783,-8580.269578,-444.123565
5719.037162,592.164754,-8886.707777,-740.205942
5719.037486,962.267725,-8733.488677,-518.144159
5719.037811,666.185348,-8503.660028,-296.082377
5719.038135,592.164754,-8886.707777,-518.144159
5719.038459,444.123565,-8503.660028,-518.144159
5719.038784,222.061783,-8350.440928,-518.144159
5719.039108,74.020594,-8580.269578,-370.102971
5719.039432,74.020594,-8580.269578,-518.144159
5719.039757,148.041188,-8197.221829,-444.123565
5719.040081,518.144159,-8580.269578,-592.164754
5719.040405,666.185348,-8580.269578,-518.144159
5719.040730,518.144159,-8427.050478,-370.102971
5719.041054,888.247130,-8963.317327,370.102971
5719.041379,222.061783,-8580.269578,-296.082377
5719.041703,444.123565,-8886.707777,0.000000
5719.042027,0.000000,-8656.879127,-222.061783
5719.042352,370.102971,-8886.707777,-296.082377
5719.042676,518.144159,-8350.440928,-444.123565
5719.043000,518.144159,-8580.269578,-444.123565
5719.043325,518.144159,-8580.269578,-370.102971
5719.043649,592.164754,-8503.660028,-370.102971
5719.043973,1480.411884,-8810.098227,-148.041188
5719.044298,740.205942,-8427.050478,-296.082377
5719.044622,814.226536,-8350.440928,0.000000
5719.044947,74.020594,-8503.660028,-148.041188
5719.045271,740.205942,-9116.536426,592.164754
5719.045595,148.041188,-8273.831378,-222.061783
5719.045920,518.144159,-8656.879127,-222.061783
5719.046244,370.102971,-8350.440928,-592.164754
5719.046568,518.144159,-8273.831378,-296.082377
5719.046893,740.205942,-8273.831378,-148.041188
5719.047217,740.205942,-8273.831378,-222.061783
5719.047541,666.185348,-8503.660028,-222.061783
5719.047866,518.144159,-8503.660028,0.000000
5719.048190,0.000000,-7890.783629,296.082377
5719.048514,0.000000,-8656.879127,0.000000
5719.048839,370.102971,-8580.269578,0.000000
5719.049163,222.061783,-8350.440928,-296.082377
5719.049488,518.144159,-8656.879127,0.000000
5719.049812,518.144159,-8503.660028,-296.082377
5719.050136,740.205942,-8733.488677,0.000000
5719.050461,444.123565,-8503.660028,0.000000
5719.050785,518.144159,-8350.440928,0.000000
5719.051109,0.000000,-8503.660028,0.000000
5719.051434,74.020594,-8503.660028,0.000000
5719.051758,74.020594,-8886.707777,-222.061783
5719.052082,222.061783,-8733.488677,-518.144159
5719.052407,592.164754,-8044.002729,0.000000
5719.052731,296.082377,-8580.269578,-222.061783
5719.053055,592.164754,-8886.707777,-444.123565
5719.053380,444.123565,-8656.879127,-222.061783
5719.053704,148.041188,-9269.755526,-222.061783
5719.054029,518.144159,-8733.488677,-370.102971
5719.054353,222.061783,-8810.098227,-370.102971
5719.054677,74.020594,-8810.098227,-370.102971
5719.055002,148.041188,-8350.440928,-370.102971
5719.055326,370.102971,-8886.707777,-370.102971
5719.055650,444.123565,-8350.440928,-518.144159
5719.055975,666.185348,-8503.660028,-740.205942
5719.056299,888.247130,-8656.879127,-592.164754
5719.056623,740.205942,-7967.393179,-370.102971
5719.056948,592.164754,-8656.879127,-592.164754
5719.057272,518.144159,-8886.707777,-296.082377
5719.057596,0.000000,-8656.879127,-370.102971
5719.057921,296.082377,-8656.879127,-592.164754
5719.058245,666.185348,-8733.488677,-814.226536
5719.058570,444.123565,-8273.831378,-444.123565
5719.058894,296.082377,-8427.050478,-666.185348
5719.059218,962.267725,-8580.269578,-518.144159
5719.059543,888.247130,-8886.707777,-444.123565
5719.059867,518.144159,-8580.269578,-518.144159
5719.060191,370.102971,-8733.488677,-148.041188
5719.060516,296.082377,-8810.098227,-370.102971
5719.060840,444.123565,-8963.317327,-370.102971
5719.061164,148.041188,-8350.440928,-666.185348
5719.061489,444.123565,-8733.488677,-518.144159
5719.061813,518.144159,-8197.221829,-370.102971
5719.062138,666.185348,-8580.269578,-370.102971
5719.062462,814.226536,-8886.707777,-518.144159
5719.062786,814.226536,-8503.660028,-444.123565
5719.063111,888.247130,-8733.488677,-518.144159
5719.063435,518.144159,-8503.660028,-740.205942
5719.063759,518.144159,-8963.317327,-296.082377
5719.064084,370.102971,-8810.098227,-222.061783
5719.064408,0.000000,-8350.440928,-296.082377
5719.064732,296.082377,-8503.660028,-222.061783
5719.065057,518.144159,-8656.879127,-296.082377
5719.065381,222.061783,-8273.831378,0.000000
5719.065705,518.144159,-8503.660028,-296.082377
5719.066030,666.185348,-8350.440928,-296.082377
5719.066354,814.226536,-8580.269578,0.000000
5719.066679,518.144159,-8197.221829,-370.102971
5719.067003,370.102971,-8810.098227,0.000000
5719.067327,-222.061783,-8503.660028,-222.061783
5719.067652,370.102971,-8656.879127,0.000000
5719.067976,592.164754,-9193.145976,0.000000
5719.068300,740.205942,-8733.488677,-222.061783
5719.068625,814.226536,-8273.831378,-444.123565
5719.068949,444.123565,-8580.269578,0.000000
5719.069273,592.164754,-8580.269578,-148.041188
5719.069598,518.144159,-8427.050478,-148.041188
5719.069922,222.061783,-8350.440928,-444.123565
5719.070246,0.000000,-8580.269578,0.000000
5719.070571,370.102971,-8656.879127,-296.082377
5719.070895,0.000000,-8656.879127,0.000000
5719.071220,518.144159,-8427.050478,-296.082377
5719.071544,296.082377,-8656.879127,-370.102971
5719.071868,666.185348,-8656.879127,-518.144159
5719.072193,814.226536,-8963.317327,-296.082377
5719.072517,518.144159,-8503.660028,-222.061783
5719.072841,444.123565,-8963.317327,-74.020594
5719.073166,296.082377,-8580.269578,-222.061783
5719.073490,0.000000,-8656.879127,-222.061783
5719.073814,222.061783,-8656.879127,-370.102971
5719.074139,148.041188,-8580.269578,0.000000
5719.074463,444.123565,-8810.098227,-222.061783
5719.074788,888.247130,-8656.879127,0.000000
5719.075112,814.226536,-9039.926876,0.000000
5719.075436,666.185348,-9039.926876,0.000000
5719.075761,222.061783,-8273.831378,-222.061783
5719.076085,222.061783,-8656.879127,0.000000
5719.076409,0.000000,-8656.879127,-148.041188
5719.076734,74.020594,-8503.660028,0.000000
5719.077058,222.061783,-8886.707777,-444.123565
5719.077382,296.082377,-8503.660028,-296.082377
5719.077707,444.123565,-8427.050478,-296.082377
5719.078031,518.144159,-8273.831378,-370.102971
5719.078355,962.267725,-8427.050478,-518.144159
5719.078680,666.185348,-8810.098227,-148.041188
5719.079004,888.247130,-8503.660028,0.000000
5719.079328,444.123565,-7890.783629,-666.185348
5719.079653,0.000000,-8810.098227,-222.061783
5719.079977,222.061783,-8273.831378,-222.061783
5719.080301,370.102971,-8427.050478,-444.123565
5719.080626,518.144159,-8197.221829,-296.082377
5719.080950,444.123565,-8427.050478,-296.082377
5719.081274,592.164754,-8580.269578,-518.144159
5719.081599,1036.288319,-8427.050478,-222.061783
5719.081923,592.164754,-8273.831378,-222.061783
5719.082247,592.164754,-8886.707777,-592.164754
5719.082572,296.082377,-8580.269578,-370.102971
5719.082896,222.061783,-8503.660028,-296.082377
5719.083220,0.000000,-8810.098227,0.000000
5719.083545,0.000000,-8197.221829,-444.123565
5719.083869,370.102971,-8580.269578,-370.102971
5719.084193,444.123565,-8197.221829,-296.082377
5719.084518,814.226536,-8580.269578,0.000000
5719.084842,518.144159,-8810.098227,0.000000
5719.085166,814.226536,-8503.660028,0.000000
5719.085491,444.123565,-8350.440928,-222.061783
5719.085815,222.061783,-8580.269578,-74.020594
5719.086139,222.061783,-7967.393179,-148.041188
5719.086464,74.020594,-8886.707777,-592.164754
5719.086788,148.041188,-8580.269578,-296.082377
5719.087112,148.041188,-8580.269578,-518.144159
5719.087437,518.144159,-8733.488677,-592.164754
5719.087761,518.144159,-9346.365076,-666.185348
5719.088085,592.164754,-8273.831378,-222.061783
5719.088410,370.102971,-8733.488677,-296.082377
5719.088734,148.041188,-8580.269578,-518.144159
5719.089058,0.000000,-8810.098227,-444.123565
5719.089383,74.020594,-8427.050478,-592.164754
5719.089707,148.041188,-8427.050478,-592.164754
5719.090031,74.020594,-8503.660028,-592.164754
5719.090356,592.164754,-8427.050478,-666.185348
5719.090680,814.226536,-8350.440928,-1036.288319
5719.091004,814.226536,-8733.488677,-592.164754
5719.091329,814.226536,-8503.660028,-518.144159
5719.091653,518.144159,-8503.660028,-370.102971
5719.091977,370.102971,-8963.317327,-740.205942
5719.092302,0.000000,-8427.050478,-370.102971
5719.092626,222.061783,-8733.488677,-666.185348
5719.092950,370.102971,-8656.879127,-518.144159
5719.093275,222.061783,-8427.050478,-666.185348
5719.093599,666.185348,-8656.879127,-666.185348
5719.093923,1036.288319,-8350.440928,-666.185348
5719.094248,888.247130,-8810.098227,-296.082377
5719.094572,888.247130,-8503.660028,-370.102971
5719.094896,962.267725,-8886.707777,74.020594
5719.095221,296.082377,-8427.050478,-148.041188
5719.095545,370.102971,-8656.879127,-296.082377
5719.095869,296.082377,-8427.050478,-518.144159
5719.096194,518.144159,-8810.098227,-666.185348
