#time,accel_x,accel_y,accel_z
5465.027250,-222.061783,-8580.269578,-1036.288319
5465.027574,814.226536,-8733.488677,0.000000
5465.027899,-1702.473667,-9039.926876,-296.082377
5465.028223,-1184.329507,-9652.803275,-1480.411884
5465.028548,-1554.432478,-9729.412825,0.000000
5465.028873,-1110.308913,-9116.536426,-148.041188
5465.029197,-518.144159,-8810.098227,-296.082377
5465.029522,74.020594,-8120.612279,-518.144159
5465.029846,1184.329507,-8120.612279,-888.247130
5465.030171,1554.432478,-7277.907231,-888.247130
5465.030495,962.267725,-8503.660028,-1406.391290
5465.030820,1480.411884,-8350.440928,-1406.391290
5465.031144,-1036.288319,-8503.660028,-666.185348
5465.031469,-888.247130,-9193.145976,-1406.391290
5465.031793,-2516.700203,-9499.584175,-740.205942
5465.032118,-3256.906145,-9346.365076,-518.144159
5465.032442,-3034.844362,-9193.145976,-888.247130
5465.032767,-1924.535449,-9193.145976,-740.205942
5465.033091,-1998.556043,-8733.488677,-666.185348
5465.033416,370.102971,-8656.879127,-1184.329507
5465.033740,518.144159,-7507.735880,-370.102971
5465.034065,814.226536,-8044.002729,-1480.411884
5465.034390,666.185348,-7890.783629,-1554.432478
5465.034714,-888.247130,-8580.269578,-888.247130
5465.035039,-1776.494261,-8810.098227,-1258.350101
5465.035363,-2590.720797,-8963.317327,-592.164754
5465.035688,-4441.235652,-8886.707777,-1258.350101
5465.036012,-4663.297435,-9806.022374,-518.144159
5465.036337,-4145.153275,-9422.974625,-296.082377
5465.036661,-3849.070898,-9346.365076,-666.185348
5465.036986,-3108.864956,-8963.317327,-444.123565
5465.037310,-2072.576638,-8427.050478,-666.185348
5465.037635,-1036.288319,-8733.488677,0.000000
5465.037959,-370.102971,-7814.174080,-222.061783
5465.038284,222.061783,-8886.707777,-148.041188
5465.038608,-592.164754,-8656.879127,-296.082377
5465.038933,-1184.329507,-8886.707777,0.000000
5465.039257,-1480.411884,-9269.755526,-148.041188
5465.039582,-2664.741391,-9882.631924,444.123565
5465.039907,-3478.967927,-9116.536426,296.082377
5465.040231,-2960.823768,-8886.707777,0.000000
5465.040556,-2368.659014,-9116.536426,222.061783
5465.040880,-1850.514855,-8733.488677,0.000000
5465.041205,0.000000,-8503.660028,148.041188
5465.041529,962.267725,-7814.174080,148.041188
5465.041854,1258.350101,-8044.002729,518.144159
5465.042178,1406.391290,-7354.516781,296.082377
5465.042503,1850.514855,-8656.879127,814.226536
5465.042827,1554.432478,-8044.002729,0.000000
5465.043152,740.205942,-8580.269578,740.205942
5465.043476,148.041188,-8580.269578,296.082377
5465.043801,0.000000,-8656.879127,592.164754
5465.044125,0.000000,-8580.269578,666.185348
5465.044450,370.102971,-8656.879127,370.102971
5465.044774,1110.308913,-7967.393179,518.144159
5465.045099,1776.494261,-7507.735880,0.000000
5465.045423,2886.803174,-8197.221829,148.041188
5465.045748,3256.906145,-7048.078582,-222.061783
5465.046073,3701.029710,-7354.516781,74.020594
5465.046397,3775.050304,-7507.735880,74.020594
5465.046722,3552.988522,-8810.098227,0.000000
5465.047046,3330.926739,-8120.612279,-518.144159
5465.047371,2738.761985,-8656.879127,-518.144159
5465.047695,2590.720797,-9116.536426,-666.185348
5465.048020,1850.514855,-9116.536426,-814.226536
5465.048344,2220.617826,-8810.098227,-370.102971
5465.048669,1850.514855,-8733.488677,-666.185348
5465.048993,2294.638420,-8656.879127,-740.205942
5465.049318,2738.761985,-8273.831378,-962.267725
5465.049642,3627.009116,-8197.221829,-1036.288319
5465.049967,3182.885551,-8044.002729,-962.267725
5465.050291,3404.947333,-8273.831378,-814.226536
5465.050616,2886.803174,-8580.269578,-1036.288319
5465.050940,2442.679609,-8963.317327,-1480.411884
5465.051265,2072.576638,-9269.755526,-1702.473667
5465.051590,1850.514855,-9499.584175,-1258.350101
5465.051914,888.247130,-9729.412825,-1406.391290
5465.052239,-148.041188,-9806.022374,-1332.370696
5465.052563,-148.041188,-9652.803275,-1406.391290
5465.052888,-814.226536,-9346.365076,-1332.370696
5465.053212,-666.185348,-9346.365076,-1332.370696
5465.053537,-814.226536,-8886.707777,-1332.370696
5465.053861,-592.164754,-9193.145976,-1702.473667
5465.054186,-740.205942,-8503.660028,-1406.391290
5465.054510,-666.185348,-8733.488677,-1184.329507
5465.054835,-888.247130,-9116.536426,-1480.411884
5465.055159,-592.164754,-9882.631924,-1036.288319
5465.055484,-1406.391290,-9422.974625,-888.247130
5465.055808,-2294.638420,-9269.755526,-962.267725
5465.056133,-2220.617826,-9422.974625,-888.247130
5465.056457,-2590.720797,-9422.974625,-666.185348
5465.056782,-2590.720797,-9269.755526,-518.144159
5465.057107,-2294.638420,-8656.879127,-444.123565
5465.057431,-2072.576638,-8733.488677,-296.082377
5465.057756,-1480.411884,-8427.050478,0.000000
5465.058080,-1258.350101,-8427.050478,-666.185348
5465.058405,-888.247130,-8656.879127,222.061783
5465.058729,-666.185348,-8197.221829,0.000000
5465.059054,-1036.288319,-8810.098227,148.041188
5465.059378,-1406.391290,-9116.536426,148.041188
5465.059703,-1702.473667,-8656.879127,1036.288319
5465.060027,-2072.576638,-8656.879127,518.144159
5465.060352,-1850.514855,-8810.098227,740.205942
5465.060676,-1332.370696,-8350.440928,814.226536
5465.061001,-1628.453072,-8197.221829,1036.288319
5465.061325,-962.267725,-7507.735880,888.247130
5465.061650,-296.082377,-7814.174080,1258.350101
5465.061974,-148.041188,-7431.126331,740.205942
5465.062299,666.185348,-8120.612279,962.267725
5465.062623,370.102971,-7431.126331,962.267725
5465.062948,444.123565,-7890.783629,888.247130
5465.063273,666.185348,-7354.516781,592.164754
5465.063597,962.267725,-8350.440928,888.247130
5465.063922,370.102971,-7737.564530,370.102971
5465.064246,962.267725,-8120.612279,888.247130
5465.064571,1258.350101,-7737.564530,740.205942
5465.064895,1702.473667,-8044.002729,666.185348
5465.065220,1850.514855,-7660.954980,370.102971
5465.065544,2516.700203,-7967.393179,740.205942
5465.065869,2886.803174,-7507.735880,0.000000
5465.066193,3108.864956,-8044.002729,74.020594
5465.066518,3701.029710,-8197.221829,222.061783
5465.066842,3627.009116,-8044.002729,-296.082377
5465.067167,3256.906145,-8120.612279,-296.082377
5465.067491,3478.967927,-8656.879127,-444.123565
5465.067816,3108.864956,-9039.926876,-518.144159
5465.068140,2812.782580,-8580.269578,-1036.288319
5465.068465,2738.761985,-9039.926876,-888.247130
5465.068790,2516.700203,-9039.926876,-888.247130
5465.069114,2442.679609,-8810.098227,-962.267725
5465.069439,2220.617826,-8810.098227,-1258.350101
5465.069763,2442.679609,-8963.317327,-1480.411884
5465.070088,2368.659014,-8810.098227,-1628.453072
5465.070412,2220.617826,-9269.755526,-1628.453072
5465.070737,1998.556043,-9039.926876,-1554.432478
5465.071061,2072.576638,-9346.365076,-1702.473667
5465.071386,1258.350101,-9652.803275,-1480.411884
5465.071710,1036.288319,-9729.412825,-1702.473667
5465.072035,740.205942,-9346.365076,-1924.535449
5465.072359,518.144159,-10189.070123,-1702.473667
5465.072684,148.041188,-9269.755526,-1480.411884
5465.073008,74.020594,-9422.974625,-1702.473667
5465.073333,0.000000,-9652.803275,-1776.494261
5465.073657,-222.061783,-9422.974625,-1184.329507
5465.073982,-370.102971,-8963.317327,-1554.432478
5465.074307,-666.185348,-9269.755526,-1258.350101
5465.074631,-962.267725,-9499.584175,-1258.350101
5465.074956,-518.144159,-9652.803275,-1036.288319
5465.075280,-740.205942,-9193.145976,-1110.308913
5465.075605,-666.185348,-9806.022374,-888.247130
5465.075929,-666.185348,-9039.926876,-962.267725
5465.076254,-518.144159,-9499.584175,-444.123565
5465.076578,-1332.370696,-9422.974625,-444.123565
5465.076903,-1258.350101,-9269.755526,0.000000
5465.077227,-1776.494261,-8503.660028,-148.041188
5465.077552,-1850.514855,-8886.707777,0.000000
5465.077876,-1998.556043,-8656.879127,666.185348
5465.078201,-2220.617826,-8503.660028,518.144159
5465.078525,-1554.432478,-8427.050478,444.123565
5465.078850,-1776.494261,-7814.174080,740.205942
5465.079174,-1406.391290,-8427.050478,814.226536
5465.079499,-962.267725,-8197.221829,1036.288319
5465.079824,-740.205942,-8350.440928,1110.308913
5465.080148,-1258.350101,-8273.831378,888.247130
5465.080473,-592.164754,-8350.440928,1110.308913
5465.080797,-888.247130,-7814.174080,1184.329507
5465.081122,-444.123565,-8120.612279,1332.370696
5465.081446,-814.226536,-7584.345430,888.247130
5465.081771,-518.144159,-7890.783629,1480.411884
5465.082095,-444.123565,-7354.516781,1628.453072
5465.082420,-296.082377,-7584.345430,1110.308913
5465.082744,148.041188,-7584.345430,1036.288319
5465.083069,518.144159,-7277.907231,1110.308913
5465.083393,1258.350101,-7890.783629,814.226536
5465.083718,1110.308913,-7431.126331,740.205942
5465.084042,2146.597232,-8197.221829,666.185348
5465.084367,1702.473667,-7584.345430,148.041188
5465.084691,1998.556043,-7967.393179,888.247130
5465.085016,2368.659014,-6818.249932,148.041188
5465.085340,2294.638420,-8273.831378,296.082377
5465.085665,1850.514855,-7737.564530,-222.061783
5465.085990,2072.576638,-8427.050478,74.020594
5465.086314,2294.638420,-7967.393179,-370.102971
5465.086639,2664.741391,-8273.831378,-444.123565
5465.086963,2812.782580,-8273.831378,-962.267725
5465.087288,2368.659014,-8580.269578,-592.164754
5465.087612,2590.720797,-8733.488677,-962.267725
5465.087937,2516.700203,-8810.098227,-1628.453072
5465.088261,2516.700203,-9346.365076,-962.267725
5465.088586,1924.535449,-8886.707777,-1554.432478
5465.088910,2368.659014,-9729.412825,-1332.370696
5465.089235,2368.659014,-8580.269578,-1998.556043
5465.089559,2146.597232,-9806.022374,-1702.473667
5465.089884,1776.494261,-8886.707777,-2368.659014
5465.090208,1776.494261,-9729.412825,-1702.473667
5465.090533,1258.350101,-9269.755526,-2516.700203
5465.090857,1110.308913,-9576.193725,-2368.659014
5465.091182,1036.288319,-9346.365076,-2590.720797
5465.091507,296.082377,-10035.851024,-1850.514855
5465.091831,296.082377,-9576.193725,-2368.659014
5465.092156,444.123565,-9806.022374,-2146.597232
5465.092480,296.082377,-9806.022374,-2294.638420
5465.092805,296.082377,-9652.803275,-2072.576638
5465.093129,148.041188,-9806.022374,-1850.514855
5465.093454,148.041188,-9576.193725,-1480.411884
5465.093778,0.000000,-9729.412825,-1480.411884
5465.094103,-222.061783,-9499.584175,-1776.494261
5465.094427,-222.061783,-9499.584175,-1480.411884
5465.094752,-296.082377,-9116.536426,-1554.432478
5465.095076,-592.164754,-9422.974625,-1184.329507
5465.095401,-740.205942,-8810.098227,-666.185348
5465.095725,-1110.308913,-9422.974625,-296.082377
5465.096050,-962.267725,-8810.098227,-666.185348
5465.096374,-592.164754,-8886.707777,-444.123565
5465.096699,-1258.350101,-8733.488677,-148.041188
5465.097024,-1110.308913,-8427.050478,0.000000
5465.097348,-1480.411884,-8503.660028,222.061783
5465.097673,-1184.329507,-8886.707777,444.123565
5465.097997,-962.267725,-8273.831378,666.185348
5465.098322,-1406.391290,-8120.612279,592.164754
5465.098646,-1036.288319,-8197.221829,962.267725
5465.098971,-1184.329507,-7814.174080,962.267725
5465.099295,-1406.391290,-7967.393179,1628.453072
5465.099620,-1554.432478,-7660.954980,1258.350101
5465.099944,-1258.350101,-8044.002729,1554.432478
5465.100269,-1184.329507,-7814.174080,1776.494261
5465.100593,-962.267725,-8044.002729,2072.576638
5465.100918,-444.123565,-7354.516781,1554.432478
5465.101242,-222.061783,-7660.954980,2220.617826
5465.101567,444.123565,-6894.859482,1628.453072
5465.101891,592.164754,-7431.126331,1702.473667
5465.102216,1332.370696,-7584.345430,1702.473667
5465.102540,888.247130,-7354.516781,1184.329507
5465.102865,1036.288319,-7814.174080,1628.453072
5465.103190,1258.350101,-7354.516781,1110.308913
5465.103514,1184.329507,-8044.002729,1258.350101
5465.103839,1184.329507,-7431.126331,1110.308913
5465.104163,1184.329507,-7967.393179,1110.308913
5465.104488,1184.329507,-7890.783629,592.164754
5465.104812,1480.411884,-7660.954980,740.205942
5465.105137,2294.638420,-7890.783629,0.000000
5465.105461,1998.556043,-7890.783629,74.020594
5465.105786,2368.659014,-8197.221829,0.000000
5465.106110,2590.720797,-8503.660028,0.000000
5465.106435,2442.679609,-8350.440928,-592.164754
5465.106759,2368.659014,-8656.879127,-1110.308913
5465.107084,2368.659014,-9039.926876,-1036.288319
5465.107408,1998.556043,-8963.317327,-1184.329507
5465.107733,1998.556043,-8963.317327,-1554.432478
5465.108057,1554.432478,-9116.536426,-1776.494261
5465.108382,1406.391290,-9193.145976,-1850.514855
5465.108707,1406.391290,-9346.365076,-2368.659014
5465.109031,1406.391290,-8427.050478,-1924.535449
5465.109356,1258.350101,-9422.974625,-2220.617826
5465.109680,1332.370696,-9422.974625,-2368.659014
5465.110004,1184.329507,-9576.193725,-2368.659014
5465.110329,814.226536,-9959.241474,-2442.679609
5465.110653,1258.350101,-9729.412825,-2664.741391
5465.110978,592.164754,-9576.193725,-2590.720797
5465.111302,444.123565,-10112.460574,-2664.741391
5465.111627,148.041188,-9499.584175,-2590.720797
5465.111951,74.020594,-10112.460574,-2664.741391
5465.112276,-444.123565,-9882.631924,-2368.659014
5465.112600,0.000000,-9576.193725,-2368.659014
5465.112925,-222.061783,-9576.193725,-2146.597232
5465.113249,296.082377,-9346.365076,-2146.597232
5465.113574,0.000000,-9193.145976,-1702.473667
5465.113898,222.061783,-9806.022374,-2072.576638
5465.114222,296.082377,-9039.926876,-1628.453072
5465.114547,0.000000,-9576.193725,-1258.350101
5465.114871,-370.102971,-8810.098227,-1406.391290
5465.115196,-518.144159,-8963.317327,-1184.329507
5465.115520,-1258.350101,-9193.145976,-740.205942
5465.115845,-740.205942,-9193.145976,-740.205942
5465.116169,-1776.494261,-8963.317327,-740.205942
5465.116494,-1332.370696,-9039.926876,-222.061783
5465.116818,-1554.432478,-8273.831378,0.000000
5465.117143,-1480.411884,-8503.660028,148.041188
5465.117467,-962.267725,-8350.440928,444.123565
5465.117792,-1036.288319,-8120.612279,1036.288319
5465.118116,-814.226536,-7890.783629,1036.288319
5465.118441,-814.226536,-7967.393179,888.247130
5465.118765,-592.164754,-7737.564530,1480.411884
5465.119089,-962.267725,-7354.516781,1628.453072
5465.119414,-740.205942,-7660.954980,1702.473667
5465.119738,-962.267725,-7814.174080,1776.494261
5465.120063,-962.267725,-7507.735880,1776.494261
5465.120387,-592.164754,-7354.516781,1924.535449
5465.120712,-222.061783,-7431.126331,1924.535449
5465.121036,518.144159,-7277.907231,1998.556043
5465.121361,814.226536,-6971.469032,1776.494261
5465.121685,962.267725,-7431.126331,1702.473667
5465.122010,1184.329507,-7277.907231,1998.556043
5465.122334,1554.432478,-7048.078582,1332.370696
5465.122659,1406.391290,-7737.564530,1480.411884
5465.122983,1332.370696,-7431.126331,1406.391290
5465.123307,1036.288319,-7660.954980,1406.391290
5465.123632,962.267725,-7660.954980,814.226536
5465.123956,1184.329507,-7814.174080,592.164754
5465.124281,1480.411884,-7967.393179,370.102971
5465.124605,1184.329507,-7507.735880,962.267725
5465.124930,1332.370696,-7890.783629,518.144159
5465.125254,1702.473667,-8197.221829,0.000000
5465.125579,1924.535449,-8197.221829,-444.123565
5465.125903,2072.576638,-8503.660028,-518.144159
5465.126228,1850.514855,-8503.660028,-592.164754
5465.126552,2072.576638,-8886.707777,-666.185348
5465.126877,1554.432478,-8810.098227,-962.267725
5465.127201,1850.514855,-9346.365076,-1258.350101
5465.127526,962.267725,-9193.145976,-1332.370696
5465.127850,1480.411884,-9652.803275,-1628.453072
5465.128174,1184.329507,-9039.926876,-1776.494261
5465.128499,814.226536,-9652.803275,-2220.617826
5465.128823,740.205942,-9806.022374,-1924.535449
5465.129148,888.247130,-9422.974625,-1924.535449
5465.129472,814.226536,-9729.412825,-2368.659014
5465.129797,814.226536,-9652.803275,-2294.638420
5465.130121,666.185348,-9422.974625,-2294.638420
5465.130446,888.247130,-9959.241474,-2516.700203
5465.130770,592.164754,-9652.803275,-2368.659014
5465.131095,222.061783,-9576.193725,-2590.720797
5465.131419,370.102971,-9882.631924,-2368.659014
5465.131744,148.041188,-9652.803275,-2072.576638
5465.132068,-222.061783,-9959.241474,-2220.617826
5465.132392,-370.102971,-9269.755526,-2368.659014
5465.132717,-222.061783,-9806.022374,-2220.617826
5465.133041,0.000000,-9039.926876,-1702.473667
5465.133366,-148.041188,-9039.926876,-1850.514855
5465.133690,-148.041188,-9346.365076,-1406.391290
5465.134015,-222.061783,-9116.536426,-1554.432478
5465.134339,-370.102971,-8963.317327,-1406.391290
5465.134664,-222.061783,-9116.536426,-1184.329507
5465.134988,-148.041188,-8886.707777,-888.247130
5465.135313,-444.123565,-8733.488677,-518.144159
5465.135637,-666.185348,-8886.707777,-592.164754
5465.135962,-1184.329507,-8350.440928,-518.144159
5465.136286,-1036.288319,-8733.488677,0.000000
5465.136611,-1332.370696,-8503.660028,222.061783
5465.136935,-1702.473667,-8044.002729,222.061783
5465.137259,-1406.391290,-8197.221829,740.205942
5465.137584,-1628.453072,-7584.345430,1110.308913
5465.137908,-1258.350101,-7814.174080,888.247130
5465.138233,-962.267725,-7354.516781,1036.288319
5465.138557,-296.082377,-7660.954980,1628.453072
5465.138882,-296.082377,-7201.297681,1406.391290
5465.139206,148.041188,-7660.954980,1554.432478
5465.139531,592.164754,-7124.688131,1406.391290
5465.139855,888.247130,-7584.345430,1702.473667
5465.140180,814.226536,-7814.174080,1406.391290
5465.140504,740.205942,-7660.954980,1924.535449
5465.140829,814.226536,-7431.126331,1776.494261
5465.141153,740.205942,-7354.516781,1554.432478
5465.141477,814.226536,-7584.345430,1554.432478
5465.141802,1258.350101,-7431.126331,1776.494261
5465.142126,1258.350101,-7277.907231,1554.432478
5465.142451,1406.391290,-7354.516781,1332.370696
5465.142775,1554.432478,-7354.516781,1036.288319
5465.143100,2294.638420,-7737.564530,814.226536
5465.143424,1850.514855,-7890.783629,592.164754
5465.143749,1924.535449,-7967.393179,518.144159
5465.144073,1702.473667,-8120.612279,444.123565
5465.144398,1628.453072,-9116.536426,0.000000
5465.144722,1406.391290,-8273.831378,-296.082377
5465.145047,1480.411884,-8733.488677,-148.041188
5465.145371,1702.473667,-8350.440928,-666.185348
5465.145696,1480.411884,-8656.879127,-592.164754
5465.146020,1110.308913,-8350.440928,-592.164754
5465.146344,1628.453072,-8963.317327,-962.267725
5465.146669,1258.350101,-8810.098227,-1480.411884
5465.146993,1480.411884,-9269.755526,-1258.350101
5465.147318,1258.350101,-9576.193725,-1480.411884
5465.147642,1184.329507,-9959.241474,-1554.432478
5465.147967,888.247130,-9576.193725,-1776.494261
5465.148291,1036.288319,-9806.022374,-1850.514855
5465.148616,444.123565,-10418.898773,-2146.597232
5465.148940,518.144159,-10035.851024,-1628.453072
5465.149265,444.123565,-9499.584175,-2220.617826
5465.149589,518.144159,-9882.631924,-2072.576638
5465.149914,444.123565,-9499.584175,-2220.617826
5465.150238,814.226536,-9729.412825,-2220.617826
5465.150562,592.164754,-9576.193725,-1998.556043
5465.150887,370.102971,-9806.022374,-1998.556043
5465.151211,222.061783,-9422.974625,-2072.576638
5465.151536,518.144159,-10112.460574,-1776.494261
5465.151860,296.082377,-9576.193725,-2294.638420
5465.152185,74.020594,-9806.022374,-1480.411884
5465.152509,0.000000,-9576.193725,-1480.411884
5465.152834,0.000000,-10265.679673,-1702.473667
5465.153158,-296.082377,-9346.365076,-1554.432478
5465.153483,-222.061783,-9116.536426,-962.267725
5465.153807,0.000000,-8886.707777,-1110.308913
5465.154132,0.000000,-9193.145976,-666.185348
5465.154456,-370.102971,-8810.098227,-444.123565
5465.154781,-444.123565,-8580.269578,0.000000
5465.155105,-814.226536,-8427.050478,-296.082377
5465.155429,-814.226536,-8886.707777,148.041188
5465.155754,-666.185348,-8963.317327,0.000000
5465.156078,-1258.350101,-8273.831378,444.123565
5465.156403,-814.226536,-8044.002729,666.185348
5465.156727,-518.144159,-7660.954980,888.247130
5465.157052,-444.123565,-8120.612279,888.247130
5465.157376,-666.185348,-7584.345430,1110.308913
5465.157701,-370.102971,-7507.735880,1406.391290
5465.158025,-592.164754,-7584.345430,1406.391290
5465.158350,0.000000,-7431.126331,1702.473667
5465.158674,74.020594,-7584.345430,1776.494261
5465.158999,666.185348,-7584.345430,1554.432478
5465.159323,666.185348,-7201.297681,1702.473667
5465.159647,1036.288319,-7584.345430,1702.473667
5465.159972,1110.308913,-7354.516781,2072.576638
5465.160296,1554.432478,-7124.688131,1702.473667
5465.160621,1628.453072,-7507.735880,1258.350101
5465.160945,1702.473667,-7737.564530,1406.391290
5465.161270,1036.288319,-7431.126331,1258.350101
5465.161594,1480.411884,-7354.516781,1110.308913
5465.161919,814.226536,-7201.297681,962.267725
5465.162243,888.247130,-7890.783629,666.185348
5465.162568,1110.308913,-7737.564530,370.102971
5465.162892,1406.391290,-7737.564530,740.205942
5465.163217,1184.329507,-7814.174080,0.000000
5465.163541,1480.411884,-8120.612279,222.061783
5465.163866,1554.432478,-8044.002729,-296.082377
5465.164190,1480.411884,-8733.488677,0.000000
5465.164514,1480.411884,-8427.050478,-740.205942
5465.164839,1702.473667,-9346.365076,-518.144159
5465.165163,1110.308913,-8810.098227,-1184.329507
5465.165488,962.267725,-9039.926876,-1110.308913
5465.165812,888.247130,-9269.755526,-1184.329507
5465.166137,370.102971,-9193.145976,-888.247130
5465.166461,148.041188,-9269.755526,-1332.370696
5465.166786,74.020594,-9422.974625,-1628.453072
5465.167110,666.185348,-9499.584175,-2294.638420
5465.167435,592.164754,-9499.584175,-1998.556043
5465.167759,592.164754,-9729.412825,-1924.535449
5465.168084,592.164754,-9806.022374,-2072.576638
5465.168408,814.226536,-9729.412825,-2072.576638
5465.168732,518.144159,-9652.803275,-2072.576638
5465.169057,444.123565,-9959.241474,-2294.638420
5465.169381,148.041188,-9882.631924,-2294.638420
5465.169706,148.041188,-9806.022374,-1850.514855
5465.170030,74.020594,-9652.803275,-2220.617826
5465.170355,0.000000,-9806.022374,-2146.597232
5465.170679,0.000000,-9499.584175,-1924.535449
5465.171004,148.041188,-9652.803275,-1776.494261
5465.171328,74.020594,-9806.022374,-2146.597232
5465.171653,148.041188,-9422.974625,-1702.473667
5465.171977,0.000000,-8963.317327,-1332.370696
5465.172302,222.061783,-9269.755526,-1406.391290
5465.172626,222.061783,-9576.193725,-1480.411884
5465.172951,370.102971,-9346.365076,-814.226536
5465.173275,74.020594,-8810.098227,-888.247130
5465.173599,222.061783,-9346.365076,-666.185348
5465.173924,-222.061783,-8733.488677,-296.082377
5465.174248,-148.041188,-9039.926876,-222.061783
5465.174573,-740.205942,-8656.879127,0.000000
5465.174897,-814.226536,-8427.050478,148.041188
5465.175222,-740.205942,-8427.050478,814.226536
5465.175546,-814.226536,-8503.660028,518.144159
5465.175871,-518.144159,-8120.612279,518.144159
5465.176195,-370.102971,-7737.564530,1036.288319
5465.176520,148.041188,-7507.735880,1184.329507
5465.176844,148.041188,-7660.954980,1332.370696
5465.177169,518.144159,-7967.393179,1628.453072
5465.177493,666.185348,-7737.564530,1628.453072
5465.177817,666.185348,-7507.735880,1480.411884
5465.178142,814.226536,-7660.954980,1480.411884
5465.178466,1036.288319,-7814.174080,1924.535449
5465.178791,740.205942,-7354.516781,1184.329507
5465.179115,1036.288319,-7814.174080,1406.391290
5465.179440,1036.288319,-7277.907231,1480.411884
5465.179764,1554.432478,-7967.393179,1776.494261
5465.180089,1628.453072,-7201.297681,1480.411884
5465.180413,1554.432478,-7431.126331,1406.391290
5465.180738,1776.494261,-7660.954980,666.185348
5465.181062,1776.494261,-7814.174080,518.144159
5465.181387,1480.411884,-7507.735880,370.102971
5465.181711,1628.453072,-7814.174080,518.144159
5465.182036,962.267725,-7967.393179,74.020594
5465.182360,1036.288319,-8197.221829,222.061783
5465.182684,1110.308913,-8273.831378,0.000000
5465.183009,962.267725,-8503.660028,0.000000
5465.183333,1110.308913,-8273.831378,-518.144159
5465.183658,1258.350101,-8580.269578,-444.123565
5465.183982,1110.308913,-8580.269578,-740.205942
5465.184307,814.226536,-8733.488677,-814.226536
5465.184631,518.144159,-8810.098227,-1184.329507
5465.184956,666.185348,-9346.365076,-1036.288319
5465.185280,592.164754,-8963.317327,-1628.453072
5465.185605,592.164754,-9729.412825,-1406.391290
5465.185929,148.041188,-9422.974625,-1480.411884
5465.186254,0.000000,-9576.193725,-1776.494261
5465.186578,0.000000,-9652.803275,-2220.617826
5465.186902,592.164754,-9959.241474,-1702.473667
5465.187227,-222.061783,-9269.755526,-2146.597232
5465.187551,0.000000,-9882.631924,-1850.514855
5465.187876,0.000000,-9346.365076,-2146.597232
5465.188200,148.041188,-9806.022374,-1924.535449
5465.188525,296.082377,-9652.803275,-2294.638420
5465.188849,518.144159,-9806.022374,-1924.535449
5465.189174,296.082377,-9422.974625,-2072.576638
5465.189498,0.000000,-9499.584175,-2146.597232
5465.189823,74.020594,-9729.412825,-1998.556043
5465.190147,-296.082377,-9576.193725,-2072.576638
5465.190472,-222.061783,-9576.193725,-1776.494261
5465.190796,-444.123565,-9269.755526,-1776.494261
5465.191121,0.000000,-9116.536426,-962.267725
5465.191445,0.000000,-9039.926876,-1480.411884
5465.191769,0.000000,-8886.707777,-1258.350101
5465.192094,0.000000,-8810.098227,-888.247130
5465.192418,0.000000,-9039.926876,-666.185348
5465.192743,148.041188,-8503.660028,-592.164754
5465.193067,0.000000,-8733.488677,-148.041188
5465.193392,0.000000,-8733.488677,-222.061783
5465.193716,0.000000,-8273.831378,222.061783
5465.194041,0.000000,-8427.050478,148.041188
5465.194365,-666.185348,-8044.002729,222.061783
5465.194690,-592.164754,-7967.393179,148.041188
5465.195014,-370.102971,-7967.393179,370.102971
5465.195339,-370.102971,-7277.907231,592.164754
5465.195663,-222.061783,-7354.516781,1036.288319
5465.195987,148.041188,-7354.516781,1258.350101
5465.196312,444.123565,-7431.126331,1110.308913
5465.196636,888.247130,-7277.907231,1110.308913
5465.196961,1480.411884,-7737.564530,1258.350101
5465.197285,1258.350101,-7584.345430,888.247130
5465.197610,1406.391290,-7660.954980,1184.329507
5465.197934,1184.329507,-7890.783629,1258.350101
5465.198259,1036.288319,-7431.126331,962.267725
5465.198583,1110.308913,-7354.516781,1258.350101
5465.198908,888.247130,-7507.735880,1036.288319
5465.199232,1258.350101,-7660.954980,888.247130
5465.199557,1110.308913,-7124.688131,1184.329507
5465.199881,1480.411884,-7890.783629,888.247130
5465.200206,1480.411884,-7584.345430,370.102971
5465.200530,1702.473667,-8350.440928,370.102971
5465.200854,1628.453072,-7814.174080,148.041188
5465.201179,1258.350101,-8580.269578,666.185348
5465.201503,962.267725,-8427.050478,0.000000
5465.201828,1332.370696,-8810.098227,0.000000
5465.202152,1036.288319,-8197.221829,-370.102971
5465.202477,1184.329507,-9116.536426,148.041188
5465.202801,518.144159,-8733.488677,-962.267725
5465.203126,296.082377,-8810.098227,-370.102971
5465.203450,296.082377,-8963.317327,-1110.308913
5465.203775,592.164754,-9116.536426,-1036.288319
5465.204099,74.020594,-9193.145976,-1110.308913
5465.204424,-296.082377,-8886.707777,-962.267725
5465.204748,74.020594,-9116.536426,-1554.432478
5465.205072,-296.082377,-9422.974625,-1406.391290
5465.205397,222.061783,-9193.145976,-1998.556043
5465.205721,0.000000,-9576.193725,-1998.556043
5465.206046,0.000000,-9652.803275,-1702.473667
5465.206370,-148.041188,-9576.193725,-1702.473667
5465.206695,148.041188,-10265.679673,-2368.659014
5465.207019,-148.041188,-9652.803275,-1998.556043
5465.207344,0.000000,-9806.022374,-1924.535449
5465.207668,0.000000,-9422.974625,-1850.514855
5465.207993,0.000000,-9576.193725,-1850.514855
5465.208317,-518.144159,-9729.412825,-1776.494261
5465.208642,-370.102971,-9269.755526,-1628.453072
5465.208966,0.000000,-9346.365076,-1998.556043
5465.209291,0.000000,-9116.536426,-1924.535449
5465.209615,74.020594,-9652.803275,-1554.432478
5465.209939,0.000000,-9116.536426,-1332.370696
5465.210264,0.000000,-9039.926876,-1184.329507
5465.210588,-148.041188,-9116.536426,-814.226536
5465.210913,444.123565,-9422.974625,-888.247130
5465.211237,0.000000,-8886.707777,-592.164754
5465.211562,-148.041188,-8656.879127,-666.185348
5465.211886,0.000000,-8886.707777,-444.123565
5465.212211,-740.205942,-8427.050478,-518.144159
5465.212535,-296.082377,-8733.488677,0.000000
5465.212860,-740.205942,-8197.221829,222.061783
5465.213184,0.000000,-8656.879127,148.041188
5465.213508,-296.082377,-8427.050478,370.102971
5465.213833,0.000000,-8197.221829,962.267725
5465.214157,74.020594,-7660.954980,296.082377
5465.214482,444.123565,-8273.831378,740.205942
5465.214806,740.205942,-7584.345430,888.247130
5465.215130,1110.308913,-7890.783629,1332.370696
5465.215455,962.267725,-7507.735880,888.247130
5465.215779,1406.391290,-7507.735880,962.267725
5465.216104,1406.391290,-7354.516781,740.205942
5465.216428,1332.370696,-7660.954980,962.267725
5465.216752,1258.350101,-7660.954980,814.226536
5465.217077,1184.329507,-7431.126331,1480.411884
5465.217401,1406.391290,-7660.954980,1036.288319
5465.217726,1554.432478,-7660.954980,740.205942
5465.218050,1924.535449,-7354.516781,740.205942
5465.218374,1924.535449,-7431.126331,518.144159
5465.218699,1924.535449,-7814.174080,592.164754
5465.219023,1850.514855,-7890.783629,518.144159
5465.219348,1998.556043,-8120.612279,-222.061783
5465.219672,1628.453072,-8044.002729,148.041188
5465.219996,1184.329507,-8120.612279,296.082377
5465.220321,1332.370696,-8427.050478,0.000000
5465.220645,814.226536,-8273.831378,-296.082377
5465.220970,1110.308913,-8733.488677,-370.102971
5465.221294,518.144159,-8350.440928,-666.185348
5465.221618,814.226536,-8580.269578,-518.144159
5465.221943,518.144159,-8580.269578,-666.185348
5465.222267,666.185348,-9269.755526,-1332.370696
5465.222592,666.185348,-8733.488677,-1332.370696
5465.222916,370.102971,-9193.145976,-1110.308913
5465.223240,222.061783,-9346.365076,-962.267725
5465.223565,148.041188,-9959.241474,-1258.350101
5465.223889,148.041188,-9422.974625,-1554.432478
5465.224213,-222.061783,-9499.584175,-1628.453072
5465.224538,-296.082377,-9806.022374,-1480.411884
5465.224862,-518.144159,-9499.584175,-1776.494261
5465.225187,0.000000,-9652.803275,-1702.473667
5465.225511,-592.164754,-9576.193725,-1406.391290
5465.225835,-518.144159,-9499.584175,-1554.432478
5465.226160,148.041188,-9346.365076,-1480.411884
5465.226484,-222.061783,-9806.022374,-1332.370696
5465.226809,222.061783,-9576.193725,-1406.391290
5465.227133,222.061783,-9193.145976,-1480.411884
5465.227457,74.020594,-9882.631924,-1406.391290
5465.227782,0.000000,-9193.145976,-1480.411884
5465.228106,-148.041188,-9729.412825,-1110.308913
5465.228431,-444.123565,-9346.365076,-1332.370696
5465.228755,-222.061783,-9116.536426,-740.205942
5465.229079,-518.144159,-9422.974625,-814.226536
5465.229404,-370.102971,-9193.145976,-592.164754
5465.229728,-296.082377,-8963.317327,-518.144159
5465.230053,-148.041188,-8886.707777,-518.144159
5465.230377,0.000000,-8810.098227,0.000000
5465.230701,222.061783,-8733.488677,296.082377
5465.231026,74.020594,-8810.098227,0.000000
5465.231350,0.000000,-8273.831378,148.041188
5465.231675,0.000000,-8427.050478,370.102971
5465.231999,-296.082377,-7814.174080,296.082377
5465.232323,0.000000,-7967.393179,444.123565
5465.232648,-814.226536,-7890.783629,370.102971
5465.232972,0.000000,-8044.002729,814.226536
5465.233297,0.000000,-7277.907231,222.061783
5465.233621,296.082377,-7737.564530,1406.391290
5465.233945,814.226536,-7048.078582,444.123565
5465.234270,1702.473667,-7814.174080,1184.329507
5465.234594,1554.432478,-7277.907231,740.205942
5465.234919,2072.576638,-8273.831378,814.226536
5465.235243,1776.494261,-7660.954980,740.205942
5465.235567,1776.494261,-7660.954980,1406.391290
5465.235892,1332.370696,-7507.735880,814.226536
5465.236216,1406.391290,-8197.221829,888.247130
5465.236541,1258.350101,-7660.954980,666.185348
5465.236865,1332.370696,-7967.393179,814.226536
5465.237189,1776.494261,-7507.735880,518.144159
5465.237514,2072.576638,-7967.393179,814.226536
5465.237838,1998.556043,-7507.735880,444.123565
5465.238163,1850.514855,-8350.440928,444.123565
5465.238487,1776.494261,-8273.831378,0.000000
5465.238811,2072.576638,-8580.269578,74.020594
5465.239136,1480.411884,-8044.002729,0.000000
5465.239460,1184.329507,-8810.098227,-296.082377
5465.239785,740.205942,-8427.050478,-222.061783
5465.240109,1110.308913,-8886.707777,-592.164754
5465.240433,740.205942,-8963.317327,-888.247130
5465.240758,740.205942,-8733.488677,-814.226536
5465.241082,518.144159,-8733.488677,-1110.308913
5465.241407,370.102971,-8886.707777,-1110.308913
5465.241731,74.020594,-9116.536426,-1184.329507
5465.242055,-296.082377,-9269.755526,-1554.432478
5465.242380,222.061783,-9193.145976,-1702.473667
5465.242704,0.000000,-9346.365076,-1406.391290
5465.243028,-148.041188,-9346.365076,-1850.514855
5465.243353,0.000000,-9422.974625,-1702.473667
5465.243677,-222.061783,-9499.584175,-1702.473667
5465.244002,-370.102971,-9806.022374,-1628.453072
5465.244326,-370.102971,-9499.584175,-1628.453072
5465.244650,-592.164754,-9499.584175,-1702.473667
5465.244975,-740.205942,-9193.145976,-1702.473667
5465.245299,-296.082377,-9652.803275,-1924.535449
5465.245624,-296.082377,-9422.974625,-1628.453072
5465.245948,0.000000,-8886.707777,-1110.308913
5465.246272,-148.041188,-9116.536426,-1628.453072
5465.246597,0.000000,-9346.365076,-1406.391290
5465.246921,0.000000,-9269.755526,-1258.350101
5465.247246,-370.102971,-9269.755526,-1258.350101
5465.247570,-592.164754,-9346.365076,-1036.288319
5465.247894,-518.144159,-9193.145976,-592.164754
5465.248219,-592.164754,-9193.145976,-740.205942
5465.248543,-740.205942,-8810.098227,-370.102971
5465.248868,-370.102971,-8810.098227,-592.164754
5465.249192,0.000000,-8733.488677,-518.144159
5465.249516,-296.082377,-8350.440928,74.020594
5465.249841,-592.164754,-8580.269578,148.041188
5465.250165,-444.123565,-8197.221829,222.061783
5465.250490,-444.123565,-8044.002729,222.061783
5465.250814,-222.061783,-8120.612279,592.164754
5465.251138,0.000000,-8197.221829,592.164754
5465.251463,74.020594,-7967.393179,814.226536
5465.251787,370.102971,-7967.393179,1036.288319
5465.252112,592.164754,-7890.783629,740.205942
5465.252436,814.226536,-8197.221829,1036.288319
5465.252760,1110.308913,-7967.393179,1258.350101
5465.253085,962.267725,-7584.345430,962.267725
5465.253409,1406.391290,-7660.954980,1184.329507
5465.253734,1480.411884,-7584.345430,1258.350101
5465.254058,1702.473667,-7354.516781,814.226536
5465.254382,1924.535449,-7890.783629,1110.308913
5465.254707,2072.576638,-7354.516781,1036.288319
5465.255031,2146.597232,-7660.954980,666.185348
5465.255356,2072.576638,-7814.174080,888.247130
5465.255680,2368.659014,-7814.174080,740.205942
5465.256004,2220.617826,-7814.174080,518.144159
5465.256329,1924.535449,-7660.954980,370.102971
5465.256653,1850.514855,-7967.393179,222.061783
5465.256978,1850.514855,-7967.393179,370.102971
5465.257302,1406.391290,-7967.393179,0.000000
5465.257626,1628.453072,-8427.050478,0.000000
5465.257951,1628.453072,-8656.879127,0.000000
5465.258275,1406.391290,-8656.879127,0.000000
5465.258600,1554.432478,-8580.269578,-444.123565
5465.258924,1258.350101,-8733.488677,-814.226536
5465.259248,814.226536,-9039.926876,-666.185348
5465.259573,1036.288319,-9039.926876,-1110.308913
5465.259897,666.185348,-8810.098227,-888.247130
5465.260222,518.144159,-9269.755526,-1110.308913
5465.260546,370.102971,-9269.755526,-1110.308913
5465.260870,148.041188,-9116.536426,-1554.432478
5465.261195,370.102971,-8963.317327,-1554.432478
5465.261519,0.000000,-9269.755526,-1554.432478
5465.261844,0.000000,-9499.584175,-814.226536
5465.262168,-222.061783,-9346.365076,-1554.432478
5465.262492,-148.041188,-9269.755526,-1702.473667
5465.262817,-370.102971,-9729.412825,-1776.494261
5465.263141,0.000000,-9499.584175,-1406.391290
5465.263465,-148.041188,-9729.412825,-1628.453072
5465.263790,-444.123565,-9729.412825,-1480.411884
5465.264114,-74.020594,-9652.803275,-1554.432478
5465.264439,-370.102971,-9652.803275,-1702.473667
5465.264763,-518.144159,-10112.460574,-962.267725
5465.265087,-592.164754,-9193.145976,-1406.391290
5465.265412,-518.144159,-9806.022374,-1332.370696
5465.265736,-962.267725,-9039.926876,-1554.432478
5465.266061,-1258.350101,-9959.241474,-962.267725
5465.266385,-1110.308913,-9116.536426,-1110.308913
5465.266709,-592.164754,-9116.536426,-592.164754
5465.267034,-592.164754,-8886.707777,-740.205942
5465.267358,-666.185348,-8886.707777,-666.185348
5465.267683,-814.226536,-8810.098227,-296.082377
5465.268007,-518.144159,-8733.488677,-296.082377
5465.268331,-592.164754,-8350.440928,-370.102971
5465.268656,-592.164754,-8656.879127,0.000000
5465.268980,-518.144159,-8580.269578,592.164754
5465.269305,-370.102971,-8273.831378,296.082377
5465.269629,-518.144159,-8044.002729,222.061783
5465.269953,-370.102971,-8044.002729,296.082377
5465.270278,-592.164754,-7814.174080,888.247130
5465.270602,0.000000,-7584.345430,666.185348
5465.270927,0.000000,-7354.516781,814.226536
5465.271251,740.205942,-7431.126331,1036.288319
5465.271575,1036.288319,-7584.345430,1036.288319
5465.271900,1480.411884,-7890.783629,962.267725
5465.272224,1776.494261,-7737.564530,1258.350101
5465.272549,1702.473667,-7737.564530,1110.308913
5465.272873,1258.350101,-7507.735880,888.247130
5465.273197,1628.453072,-7814.174080,1184.329507
5465.273522,1406.391290,-7507.735880,1332.370696
5465.273846,1406.391290,-7660.954980,962.267725
5465.274171,1110.308913,-7660.954980,666.185348
5465.274495,1480.411884,-7890.783629,814.226536
5465.274819,1776.494261,-7584.345430,518.144159
5465.275144,1998.556043,-7737.564530,444.123565
5465.275468,2220.617826,-7737.564530,444.123565
5465.275793,2368.659014,-8197.221829,74.020594
5465.276117,2220.617826,-7967.393179,-370.102971
5465.276441,1924.535449,-8580.269578,-296.082377
5465.276766,1332.370696,-8427.050478,-370.102971
5465.277090,1184.329507,-8580.269578,-222.061783
5465.277415,888.247130,-8580.269578,0.000000
5465.277739,962.267725,-8810.098227,-592.164754
5465.278063,888.247130,-8580.269578,-1258.350101
5465.278388,962.267725,-8810.098227,-1036.288319
5465.278712,814.226536,-8886.707777,-1110.308913
5465.279037,592.164754,-9039.926876,-1406.391290
5465.279361,592.164754,-9346.365076,-962.267725
5465.279685,74.020594,-9193.145976,-1554.432478
5465.280010,74.020594,-9499.584175,-1554.432478
5465.280334,518.144159,-9576.193725,-1776.494261
5465.280659,222.061783,-9193.145976,-1406.391290
5465.280983,0.000000,-9806.022374,-1776.494261
5465.281307,-296.082377,-9576.193725,-1702.473667
5465.281632,222.061783,-9729.412825,-1332.370696
5465.281956,-296.082377,-9729.412825,-1776.494261
5465.282280,-296.082377,-9576.193725,-1850.514855
5465.282605,0.000000,-9652.803275,-1850.514855
5465.282929,-296.082377,-9499.584175,-1850.514855
5465.283254,-740.205942,-9499.584175,-1258.350101
5465.283578,-666.185348,-9422.974625,-1332.370696
5465.283902,-518.144159,-9499.584175,-1406.391290
5465.284227,-740.205942,-9039.926876,-1184.329507
5465.284551,-1036.288319,-9193.145976,-962.267725
5465.284876,-666.185348,-9269.755526,-1110.308913
5465.285200,-888.247130,-9116.536426,-1036.288319
5465.285524,-962.267725,-9039.926876,-666.185348
5465.285849,-592.164754,-9269.755526,74.020594
5465.286173,-814.226536,-8810.098227,-370.102971
5465.286498,-370.102971,-8963.317327,0.000000
5465.286822,-592.164754,-8503.660028,-370.102971
5465.287146,-666.185348,-8733.488677,74.020594
5465.287471,-666.185348,-8273.831378,444.123565
5465.287795,-962.267725,-8197.221829,518.144159
5465.288120,-1036.288319,-8350.440928,518.144159
5465.288444,-666.185348,-8273.831378,740.205942
5465.288768,-666.185348,-8503.660028,814.226536
5465.289093,-370.102971,-7967.393179,1110.308913
5465.289417,74.020594,-7660.954980,814.226536
5465.289742,444.123565,-7814.174080,1110.308913
5465.290066,814.226536,-7584.345430,1628.453072
5465.290390,1036.288319,-7814.174080,1406.391290
5465.290715,1036.288319,-7660.954980,1110.308913
5465.291039,1184.329507,-7431.126331,1258.350101
5465.291364,1406.391290,-7507.735880,1110.308913
5465.291688,1036.288319,-7431.126331,962.267725
5465.292012,1480.411884,-7660.954980,1036.288319
5465.292337,1406.391290,-7354.516781,1036.288319
5465.292661,1776.494261,-7737.564530,962.267725
5465.292986,1924.535449,-7660.954980,518.144159
5465.293310,2294.638420,-7507.735880,444.123565
5465.293634,2072.576638,-7431.126331,74.020594
5465.293959,2368.659014,-7890.783629,222.061783
5465.294283,2368.659014,-8044.002729,148.041188
5465.294608,2072.576638,-7967.393179,222.061783
5465.294932,1702.473667,-8427.050478,-148.041188
5465.295256,1702.473667,-8044.002729,-518.144159
5465.295581,1850.514855,-8350.440928,-666.185348
5465.295905,1332.370696,-8733.488677,-814.226536
5465.296230,1184.329507,-8656.879127,-518.144159
5465.296554,1036.288319,-8427.050478,-888.247130
5465.296878,1036.288319,-9039.926876,-1036.288319
5465.297203,1406.391290,-8733.488677,-1332.370696
5465.297527,1036.288319,-9499.584175,-1406.391290
5465.297852,1184.329507,-8963.317327,-1406.391290
5465.298176,1184.329507,-9422.974625,-1406.391290
5465.298500,962.267725,-9346.365076,-1628.453072
5465.298825,1036.288319,-9499.584175,-1850.514855
5465.299149,740.205942,-9806.022374,-2294.638420
5465.299474,370.102971,-9806.022374,-1850.514855
5465.299798,74.020594,-9806.022374,-1702.473667
5465.300122,-370.102971,-10189.070123,-1924.535449
5465.300447,-592.164754,-9576.193725,-1924.535449
5465.300771,-592.164754,-9652.803275,-1628.453072
5465.301095,-666.185348,-9959.241474,-1850.514855
5465.301420,-222.061783,-9039.926876,-1702.473667
5465.301744,-370.102971,-9499.584175,-1332.370696
5465.302069,0.000000,-9499.584175,-1776.494261
5465.302393,148.041188,-8886.707777,-1332.370696
5465.302717,0.000000,-9652.803275,-1258.350101
5465.303042,0.000000,-9269.755526,-1184.329507
5465.303366,-666.185348,-9269.755526,-1184.329507
5465.303691,-814.226536,-9422.974625,-888.247130
5465.304015,-962.267725,-9039.926876,-740.205942
5465.304339,-888.247130,-8886.707777,-370.102971
5465.304664,-740.205942,-9346.365076,-296.082377
5465.304988,-814.226536,-8503.660028,-296.082377
5465.305313,-814.226536,-8810.098227,0.000000
5465.305637,-666.185348,-8350.440928,74.020594
5465.305961,-222.061783,-8580.269578,222.061783
5465.306286,-592.164754,-8197.221829,0.000000
5465.306610,-296.082377,-8197.221829,592.164754
5465.306935,-370.102971,-7890.783629,666.185348
5465.307259,-666.185348,-8120.612279,962.267725
5465.307583,-814.226536,-7890.783629,666.185348
5465.307908,-592.164754,-8197.221829,1110.308913
5465.308232,-444.123565,-7584.345430,1110.308913
5465.308557,-296.082377,-7814.174080,1628.453072
5465.308881,-370.102971,-7967.393179,1480.411884
5465.309205,74.020594,-7584.345430,1406.391290
5465.309530,740.205942,-7277.907231,1258.350101
5465.309854,1332.370696,-7431.126331,1184.329507
5465.310179,1702.473667,-7584.345430,1406.391290
5465.310503,1702.473667,-7507.735880,1258.350101
5465.310827,1480.411884,-7584.345430,1332.370696
5465.311152,1628.453072,-7660.954980,1184.329507
5465.311476,1332.370696,-8197.221829,1406.391290
5465.311800,1258.350101,-7660.954980,888.247130
5465.312125,1258.350101,-8044.002729,814.226536
5465.312449,1332.370696,-8044.002729,592.164754
5465.312773,1924.535449,-7890.783629,444.123565
5465.313098,1850.514855,-8120.612279,370.102971
5465.313422,2146.597232,-7967.393179,0.000000
5465.313746,2072.576638,-8197.221829,0.000000
5465.314071,2146.597232,-8273.831378,-296.082377
5465.314395,1850.514855,-8197.221829,0.000000
5465.314719,1702.473667,-8503.660028,-814.226536
5465.315044,1998.556043,-9039.926876,-518.144159
5465.315368,1332.370696,-8733.488677,-1184.329507
5465.315692,1332.370696,-9116.536426,-962.267725
5465.316017,740.205942,-8810.098227,-1480.411884
5465.316341,1036.288319,-9116.536426,-1258.350101
5465.316665,740.205942,-9346.365076,-1776.494261
5465.316990,1184.329507,-9806.022374,-1480.411884
5465.317314,518.144159,-9422.974625,-1850.514855
5465.317638,814.226536,-9116.536426,-1554.432478
5465.317962,666.185348,-9116.536426,-1998.556043
5465.318287,518.144159,-9729.412825,-2220.617826
5465.318611,518.144159,-9499.584175,-2146.597232
5465.318935,0.000000,-9499.584175,-2072.576638
5465.319260,0.000000,-9806.022374,-2146.597232
5465.319584,-222.061783,-9652.803275,-2220.617826
5465.319908,0.000000,-9806.022374,-2146.597232
5465.320233,-666.185348,-9652.803275,-1924.535449
5465.320557,-518.144159,-9576.193725,-1924.535449
5465.320881,-444.123565,-9576.193725,-1850.514855
5465.321206,148.041188,-9422.974625,-1554.432478
5465.321530,0.000000,-9193.145976,-1850.514855
5465.321854,74.020594,-9422.974625,-1480.411884
5465.322179,0.000000,-8886.707777,-1628.453072
5465.322503,-222.061783,-9422.974625,-1184.329507
5465.322827,-222.061783,-9269.755526,-1184.329507
5465.323152,-592.164754,-9193.145976,-814.226536
5465.323476,-740.205942,-9039.926876,-888.247130
5465.323800,-666.185348,-9193.145976,-518.144159
5465.324125,-370.102971,-9039.926876,-222.061783
5465.324449,-962.267725,-8810.098227,222.061783
5465.324773,-1036.288319,-8427.050478,-148.041188
5465.325098,-1258.350101,-8350.440928,0.000000
5465.325422,-814.226536,-8580.269578,592.164754
5465.325746,-1332.370696,-7507.735880,518.144159
5465.326071,-1036.288319,-8503.660028,1406.391290
5465.326395,-666.185348,-7507.735880,814.226536
5465.326719,-370.102971,-8197.221829,1184.329507
5465.327044,0.000000,-7584.345430,814.226536
5465.327368,518.144159,-8273.831378,1554.432478
5465.327692,518.144159,-7277.907231,1406.391290
5465.328017,444.123565,-7737.564530,1776.494261
5465.328341,666.185348,-7431.126331,1628.453072
5465.328665,888.247130,-7814.174080,1480.411884
5465.328990,1110.308913,-7507.735880,1480.411884
5465.329314,962.267725,-7277.907231,1480.411884
5465.329638,1184.329507,-7507.735880,1332.370696
5465.329963,1184.329507,-7354.516781,1332.370696
5465.330287,1924.535449,-7814.174080,1258.350101
5465.330611,1776.494261,-7507.735880,888.247130
5465.330936,2146.597232,-7584.345430,814.226536
5465.331260,2294.638420,-7967.393179,740.205942
5465.331584,2146.597232,-8044.002729,592.164754
5465.331909,1628.453072,-7890.783629,148.041188
5465.332233,1628.453072,-8120.612279,148.041188
5465.332557,1924.535449,-7431.126331,222.061783
5465.332882,1480.411884,-8427.050478,74.020594
5465.333206,1332.370696,-7967.393179,-370.102971
5465.333530,1702.473667,-8503.660028,0.000000
5465.333855,1702.473667,-8427.050478,-888.247130
5465.334179,1924.535449,-8886.707777,-740.205942
5465.334503,1628.453072,-8886.707777,-888.247130
5465.334828,1554.432478,-9269.755526,-814.226536
5465.335152,1184.329507,-9039.926876,-1628.453072
5465.335476,1332.370696,-8963.317327,-1554.432478
5465.335801,1036.288319,-9269.755526,-1776.494261
5465.336125,740.205942,-9422.974625,-1406.391290
5465.336449,740.205942,-9729.412825,-1776.494261
5465.336774,222.061783,-9269.755526,-1776.494261
5465.337098,518.144159,-9269.755526,-1998.556043
5465.337422,222.061783,-9729.412825,-2294.638420
5465.337747,222.061783,-9729.412825,-2072.576638
5465.338071,74.020594,-9116.536426,-1998.556043
5465.338395,370.102971,-9729.412825,-1702.473667
5465.338720,296.082377,-9422.974625,-2072.576638
5465.339044,444.123565,-10112.460574,-2146.597232
5465.339368,222.061783,-9652.803275,-1998.556043
5465.339693,592.164754,-10572.117872,-1702.473667
5465.340017,-296.082377,-9806.022374,-1850.514855
5465.340341,-222.061783,-9806.022374,-1628.453072
5465.340665,-444.123565,-9499.584175,-1998.556043
5465.340990,-592.164754,-9806.022374,-1258.350101
5465.341314,-888.247130,-9116.536426,-1258.350101
5465.341638,-518.144159,-9422.974625,-1036.288319
5465.341963,-666.185348,-8963.317327,-1110.308913
5465.342287,-814.226536,-8810.098227,-814.226536
5465.342611,-592.164754,-8810.098227,-814.226536
5465.342936,-444.123565,-8580.269578,-222.061783
5465.343260,-814.226536,-8350.440928,-296.082377
5465.343584,-1036.288319,-8733.488677,-222.061783
5465.343909,-1110.308913,-8120.612279,370.102971
5465.344233,-1332.370696,-8427.050478,296.082377
5465.344557,-1258.350101,-8273.831378,518.144159
5465.344882,-1036.288319,-7967.393179,814.226536
5465.345206,-666.185348,-7814.174080,814.226536
5465.345530,0.000000,-7431.126331,1036.288319
5465.345855,0.000000,-7584.345430,814.226536
5465.346179,74.020594,-7507.735880,1184.329507
5465.346503,370.102971,-7354.516781,1258.350101
5465.346828,-296.082377,-7277.907231,1110.308913
5465.347152,0.000000,-7660.954980,1702.473667
5465.347476,74.020594,-7354.516781,1406.391290
5465.347801,962.267725,-7967.393179,1554.432478
5465.348125,666.185348,-7048.078582,1036.288319
5465.348449,1554.432478,-7967.393179,1554.432478
5465.348774,1184.329507,-7354.516781,1258.350101
5465.349098,1480.411884,-7507.735880,1332.370696
5465.349422,1628.453072,-7660.954980,888.247130
5465.349747,1924.535449,-8044.002729,1184.329507
5465.350071,1628.453072,-7507.735880,814.226536
5465.350395,1480.411884,-8044.002729,592.164754
5465.350720,1184.329507,-7431.126331,740.205942
5465.351044,1776.494261,-8273.831378,444.123565
5465.351368,1332.370696,-8427.050478,0.000000
5465.351693,1776.494261,-8350.440928,222.061783
5465.352017,1480.411884,-8350.440928,-518.144159
5465.352341,1406.391290,-9116.536426,-296.082377
5465.352666,1776.494261,-8656.879127,-888.247130
5465.352990,1554.432478,-8810.098227,-592.164754
5465.353314,1406.391290,-8733.488677,-1110.308913
5465.353639,1110.308913,-9193.145976,-962.267725
5465.353963,1110.308913,-9422.974625,-1184.329507
5465.354287,592.164754,-9116.536426,-1480.411884
5465.354612,740.205942,-9499.584175,-1332.370696
5465.354936,296.082377,-9652.803275,-1554.432478
5465.355260,444.123565,-9806.022374,-1850.514855
5465.355585,296.082377,-9576.193725,-1702.473667
5465.355909,592.164754,-9806.022374,-1480.411884
5465.356233,296.082377,-9499.584175,-2146.597232
5465.356558,740.205942,-10342.289223,-1850.514855
5465.356882,814.226536,-9499.584175,-2294.638420
5465.357206,296.082377,-9806.022374,-1776.494261
5465.357531,0.000000,-9576.193725,-2146.597232
5465.357855,74.020594,-9576.193725,-2072.576638
5465.358179,0.000000,-9806.022374,-2146.597232
5465.358504,-148.041188,-9729.412825,-1776.494261
5465.358828,-222.061783,-9729.412825,-1850.514855
5465.359152,-370.102971,-9652.803275,-1776.494261
5465.359477,-666.185348,-9806.022374,-1332.370696
5465.359801,-592.164754,-9576.193725,-1554.432478
5465.360125,-148.041188,-9116.536426,-1406.391290
5465.360450,-444.123565,-9039.926876,-1110.308913
5465.360774,-518.144159,-9116.536426,-1258.350101
5465.361098,0.000000,-9269.755526,-962.267725
5465.361423,0.000000,-8580.269578,-666.185348
5465.361747,0.000000,-9039.926876,-592.164754
5465.362071,-296.082377,-8810.098227,-148.041188
5465.362396,0.000000,-9193.145976,0.000000
5465.362720,-666.185348,-8503.660028,0.000000
5465.363044,-1036.288319,-8656.879127,0.000000
5465.363369,-1332.370696,-8503.660028,444.123565
5465.363693,-1036.288319,-8120.612279,814.226536
5465.364017,-1184.329507,-8120.612279,518.144159
5465.364341,-666.185348,-8044.002729,888.247130
5465.364666,-370.102971,-7431.126331,962.267725
5465.364990,0.000000,-8120.612279,888.247130
5465.365314,370.102971,-7354.516781,1110.308913
5465.365639,814.226536,-7890.783629,1702.473667
5465.365963,814.226536,-7354.516781,1036.288319
5465.366287,666.185348,-7890.783629,1628.453072
5465.366612,888.247130,-7737.564530,1554.432478
5465.366936,1036.288319,-7737.564530,1110.308913
5465.367260,888.247130,-7354.516781,1110.308913
5465.367585,814.226536,-7660.954980,1480.411884
5465.367909,1110.308913,-8197.221829,1110.308913
5465.368233,1332.370696,-7507.735880,1036.288319
5465.368558,1850.514855,-7431.126331,888.247130
5465.368882,1924.535449,-7584.345430,1110.308913
5465.369206,1776.494261,-7584.345430,814.226536
5465.369531,2072.576638,-7967.393179,592.164754
5465.369855,1702.473667,-7660.954980,518.144159
5465.370179,1406.391290,-8044.002729,0.000000
5465.370504,1554.432478,-7967.393179,0.000000
5465.370828,1110.308913,-8120.612279,0.000000
5465.371152,1110.308913,-8733.488677,-296.082377
5465.371477,888.247130,-8427.050478,-444.123565
5465.371801,1184.329507,-8503.660028,-666.185348
5465.372125,962.267725,-8580.269578,-666.185348
5465.372450,962.267725,-8810.098227,-814.226536
5465.372774,1184.329507,-8886.707777,-888.247130
5465.373098,1110.308913,-8810.098227,-1184.329507
5465.373423,1184.329507,-9039.926876,-1258.350101
5465.373747,1850.514855,-9576.193725,-1702.473667
5465.374071,1406.391290,-9269.755526,-1628.453072
5465.374396,592.164754,-9422.974625,-1776.494261
5465.374720,222.061783,-9729.412825,-1776.494261
5465.375044,296.082377,-9806.022374,-2072.576638
5465.375369,0.000000,-9729.412825,-1998.556043
5465.375693,-222.061783,-9806.022374,-1998.556043
5465.376017,0.000000,-10035.851024,-1776.494261
5465.376342,74.020594,-10035.851024,-2368.659014
5465.376666,370.102971,-9576.193725,-1924.535449
5465.376990,296.082377,-9422.974625,-2368.659014
5465.377315,592.164754,-9652.803275,-2072.576638
5465.377639,592.164754,-9729.412825,-1850.514855
5465.377963,74.020594,-9729.412825,-1924.535449
5465.378288,0.000000,-10265.679673,-1924.535449
5465.378612,-296.082377,-9422.974625,-1702.473667
5465.378936,-444.123565,-9729.412825,-1628.453072
5465.379261,-888.247130,-9499.584175,-1480.411884
5465.379585,-666.185348,-9499.584175,-888.247130
5465.379909,-888.247130,-8963.317327,-814.226536
5465.380234,-518.144159,-9193.145976,-740.205942
5465.380558,-370.102971,-8427.050478,-962.267725
5465.380882,74.020594,-9116.536426,-592.164754
5465.381207,-296.082377,-8350.440928,-666.185348
5465.381531,-592.164754,-8963.317327,0.000000
5465.381855,-888.247130,-8044.002729,-148.041188
5465.382180,-740.205942,-8963.317327,888.247130
5465.382504,-888.247130,-8044.002729,74.020594
5465.382828,-666.185348,-8503.660028,740.205942
5465.383153,-962.267725,-8044.002729,592.164754
5465.383477,-1036.288319,-8427.050478,1110.308913
5465.383801,0.000000,-7584.345430,740.205942
5465.384126,296.082377,-7737.564530,962.267725
5465.384450,444.123565,-7201.297681,1184.329507
5465.384774,962.267725,-7660.954980,1554.432478
5465.385099,518.144159,-7890.783629,1332.370696
5465.385423,1110.308913,-7277.907231,1332.370696
5465.385747,1110.308913,-7584.345430,1332.370696
5465.386072,1036.288319,-7431.126331,1258.350101
5465.386396,1036.288319,-7737.564530,1702.473667
5465.386720,1110.308913,-7660.954980,1480.411884
5465.387044,1110.308913,-7584.345430,1258.350101
5465.387369,1406.391290,-7814.174080,740.205942
5465.387693,1628.453072,-8197.221829,888.247130
5465.388017,1406.391290,-7124.688131,1036.288319
5465.388342,1480.411884,-7584.345430,740.205942
5465.388666,1702.473667,-7814.174080,518.144159
5465.388990,1628.453072,-8044.002729,444.123565
5465.389315,1332.370696,-8044.002729,370.102971
5465.389639,1332.370696,-8427.050478,148.041188
5465.389963,888.247130,-8273.831378,0.000000
5465.390288,1480.411884,-8656.879127,-222.061783
5465.390612,1406.391290,-8886.707777,0.000000
5465.390936,1184.329507,-9116.536426,-518.144159
5465.391261,1332.370696,-8733.488677,-814.226536
5465.391585,1406.391290,-8886.707777,-666.185348
5465.391909,888.247130,-9729.412825,-888.247130
5465.392234,814.226536,-9193.145976,-1258.350101
5465.392558,666.185348,-8886.707777,-1628.453072
5465.392882,592.164754,-9576.193725,-1258.350101
5465.393207,296.082377,-8810.098227,-1776.494261
5465.393531,888.247130,-9652.803275,-1776.494261
5465.393855,296.082377,-9499.584175,-1924.535449
5465.394180,148.041188,-9422.974625,-1850.514855
5465.394504,296.082377,-9806.022374,-2072.576638
5465.394828,814.226536,-9576.193725,-1924.535449
5465.395153,0.000000,-9269.755526,-2146.597232
5465.395477,222.061783,-9729.412825,-2146.597232
5465.395801,0.000000,-9039.926876,-2368.659014
5465.396126,0.000000,-9882.631924,-1998.556043
5465.396450,0.000000,-9193.145976,-2072.576638
5465.396774,-296.082377,-9346.365076,-1628.453072
5465.397099,-296.082377,-9422.974625,-1924.535449
5465.397423,-222.061783,-9729.412825,-1554.432478
5465.397747,148.041188,-9193.145976,-1924.535449
5465.398072,-370.102971,-9422.974625,-1406.391290
5465.398396,-666.185348,-8963.317327,-1258.350101
5465.398720,-518.144159,-9193.145976,-1110.308913
5465.399045,-518.144159,-9422.974625,-1036.288319
5465.399369,-74.020594,-9193.145976,-1110.308913
5465.399693,0.000000,-8733.488677,-814.226536
5465.400018,-592.164754,-8886.707777,-592.164754
5465.400342,-444.123565,-8886.707777,-370.102971
5465.400666,-370.102971,-9039.926876,0.000000
5465.400991,-740.205942,-8580.269578,-296.082377
5465.401315,-666.185348,-8580.269578,222.061783
5465.401639,-962.267725,-8044.002729,370.102971
5465.401964,-222.061783,-8044.002729,296.082377
5465.402288,-666.185348,-8273.831378,1110.308913
5465.402612,-370.102971,-7814.174080,666.185348
5465.402937,74.020594,-7890.783629,962.267725
5465.403261,370.102971,-7584.345430,1110.308913
5465.403585,740.205942,-8044.002729,1480.411884
5465.403910,888.247130,-7584.345430,1110.308913
5465.404234,1036.288319,-7967.393179,1702.473667
5465.404558,1184.329507,-7354.516781,1406.391290
5465.404883,1258.350101,-8044.002729,1480.411884
5465.405207,1110.308913,-7431.126331,1406.391290
5465.405531,1480.411884,-7660.954980,1406.391290
5465.405856,1036.288319,-7584.345430,962.267725
5465.406180,1406.391290,-7967.393179,1406.391290
5465.406504,1702.473667,-7431.126331,1036.288319
5465.406829,1776.494261,-7737.564530,888.247130
5465.407153,2072.576638,-7660.954980,1036.288319
5465.407477,1776.494261,-8044.002729,1332.370696
5465.407802,1776.494261,-8120.612279,444.123565
5465.408126,1702.473667,-7737.564530,0.000000
5465.408450,1924.535449,-8273.831378,222.061783
5465.408775,1480.411884,-7660.954980,148.041188
5465.409099,1258.350101,-8197.221829,370.102971
5465.409423,740.205942,-8044.002729,-592.164754
5465.409747,962.267725,-8810.098227,-296.082377
5465.410072,814.226536,-8273.831378,-1036.288319
5465.410396,1110.308913,-8427.050478,-296.082377
5465.410720,666.185348,-8810.098227,-1184.329507
5465.411045,962.267725,-8810.098227,-666.185348
5465.411369,666.185348,-8580.269578,-962.267725
5465.411693,814.226536,-9422.974625,-1184.329507
5465.412018,888.247130,-9039.926876,-1628.453072
5465.412342,1036.288319,-9346.365076,-1332.370696
5465.412666,740.205942,-9422.974625,-1628.453072
5465.412991,444.123565,-9806.022374,-1628.453072
5465.413315,370.102971,-9193.145976,-1924.535449
5465.413639,370.102971,-9882.631924,-1480.411884
5465.413963,-148.041188,-9499.584175,-2146.597232
5465.414288,0.000000,-9882.631924,-1406.391290
5465.414612,222.061783,-9269.755526,-1850.514855
5465.414936,0.000000,-9959.241474,-1924.535449
5465.415261,296.082377,-9729.412825,-2220.617826
5465.415585,370.102971,-9576.193725,-1628.453072
5465.415909,148.041188,-9193.145976,-1924.535449
5465.416233,148.041188,-9422.974625,-1850.514855
5465.416558,74.020594,-9729.412825,-1850.514855
5465.416882,-296.082377,-9269.755526,-1554.432478
5465.417206,-370.102971,-9729.412825,-1406.391290
5465.417531,-592.164754,-8886.707777,-1110.308913
5465.417855,-592.164754,-9422.974625,-1036.288319
5465.418179,-962.267725,-8580.269578,-1110.308913
5465.418504,-740.205942,-9039.926876,-814.226536
5465.418828,-592.164754,-8120.612279,-296.082377
5465.419152,-592.164754,-8580.269578,-148.041188
5465.419476,-444.123565,-8350.440928,-592.164754
5465.419801,-370.102971,-8656.879127,0.000000
5465.420125,-370.102971,-8044.002729,74.020594
5465.420449,-296.082377,-8273.831378,296.082377
5465.420774,-518.144159,-8350.440928,296.082377
5465.421098,-370.102971,-8503.660028,666.185348
5465.421422,-296.082377,-7967.393179,740.205942
5465.421746,0.000000,-7737.564530,1184.329507
5465.422071,222.061783,-7890.783629,740.205942
5465.422395,592.164754,-7890.783629,740.205942
5465.422719,1036.288319,-7660.954980,888.247130
5465.423044,740.205942,-7660.954980,1332.370696
5465.423368,1110.308913,-7431.126331,1406.391290
5465.423692,1258.350101,-7354.516781,1332.370696
5465.424017,1184.329507,-7660.954980,1406.391290
5465.424341,1332.370696,-7584.345430,1406.391290
5465.424665,1258.350101,-7660.954980,1258.350101
5465.424989,1406.391290,-7967.393179,1184.329507
5465.425314,1554.432478,-7354.516781,962.267725
5465.425638,1406.391290,-7814.174080,1036.288319
5465.425962,1702.473667,-8197.221829,740.205942
5465.426287,1480.411884,-7737.564530,1036.288319
5465.426611,1258.350101,-7737.564530,148.041188
5465.426935,1258.350101,-8044.002729,666.185348
5465.427259,1258.350101,-7814.174080,148.041188
5465.427584,1406.391290,-8580.269578,592.164754
5465.427908,888.247130,-7890.783629,0.000000
5465.428232,1184.329507,-8886.707777,74.020594
5465.428557,1184.329507,-8197.221829,-370.102971
5465.428881,1332.370696,-8886.707777,-740.205942
5465.429205,888.247130,-8810.098227,-888.247130
5465.429529,740.205942,-8963.317327,-592.164754
5465.429854,370.102971,-8656.879127,-1036.288319
5465.430178,888.247130,-9806.022374,-1110.308913
5465.430502,0.000000,-8886.707777,-1110.308913
5465.430827,74.020594,-9269.755526,-1332.370696
5465.431151,148.041188,-9193.145976,-1332.370696
5465.431475,74.020594,-9116.536426,-1480.411884
5465.431800,592.164754,-9652.803275,-1480.411884
5465.432124,370.102971,-9193.145976,-1776.494261
5465.432448,296.082377,-9576.193725,-1776.494261
5465.432772,444.123565,-9499.584175,-1998.556043
5465.433097,370.102971,-9576.193725,-1406.391290
5465.433421,-296.082377,-9193.145976,-1702.473667
5465.433745,-296.082377,-9806.022374,-1776.494261
5465.434070,-74.020594,-9422.974625,-2072.576638
5465.434394,74.020594,-9806.022374,-1850.514855
5465.434718,-222.061783,-9422.974625,-2072.576638
5465.435042,-222.061783,-9499.584175,-1850.514855
5465.435367,-296.082377,-9193.145976,-1998.556043
5465.435691,-296.082377,-9193.145976,-1554.432478
5465.436015,-148.041188,-9269.755526,-1776.494261
5465.436340,-74.020594,-9269.755526,-1184.329507
5465.436664,0.000000,-9269.755526,-1110.308913
5465.436988,-222.061783,-9422.974625,-1184.329507
5465.437313,-222.061783,-8733.488677,-962.267725
5465.437637,-444.123565,-8963.317327,-666.185348
5465.437961,-666.185348,-8963.317327,-888.247130
5465.438285,-888.247130,-8733.488677,-370.102971
5465.438610,-444.123565,-8273.831378,0.000000
5465.438934,-666.185348,-8350.440928,74.020594
5465.439258,-740.205942,-8350.440928,0.000000
5465.439583,-370.102971,-8503.660028,296.082377
5465.439907,296.082377,-8273.831378,814.226536
5465.440231,444.123565,-7967.393179,444.123565
5465.440555,370.102971,-8120.612279,666.185348
5465.440880,370.102971,-7814.174080,1110.308913
5465.441204,740.205942,-7814.174080,814.226536
5465.441528,666.185348,-8350.440928,1258.350101
5465.441853,666.185348,-7890.783629,1258.350101
5465.442177,666.185348,-7507.735880,1258.350101
5465.442501,814.226536,-7660.954980,1406.391290
5465.442826,1332.370696,-8044.002729,1258.350101
5465.443150,1406.391290,-7431.126331,1110.308913
5465.443474,1702.473667,-7584.345430,1406.391290
5465.443798,1924.535449,-7507.735880,1110.308913
5465.444123,2072.576638,-7814.174080,1184.329507
5465.444447,2072.576638,-7354.516781,1110.308913
5465.444771,1258.350101,-7737.564530,740.205942
5465.445096,1776.494261,-7584.345430,1036.288319
5465.445420,1036.288319,-7737.564530,814.226536
5465.445744,1406.391290,-8580.269578,592.164754
5465.446068,1184.329507,-7737.564530,370.102971
5465.446393,1110.308913,-7967.393179,370.102971
5465.446717,1332.370696,-8197.221829,0.000000
5465.447041,1480.411884,-7890.783629,74.020594
5465.447366,1406.391290,-8350.440928,0.000000
5465.447690,1258.350101,-8427.050478,-740.205942
5465.448014,1258.350101,-8503.660028,-518.144159
5465.448338,740.205942,-8810.098227,-740.205942
5465.448663,592.164754,-8656.879127,-888.247130
5465.448987,518.144159,-8886.707777,-888.247130
5465.449311,148.041188,-9193.145976,-962.267725
5465.449636,74.020594,-9193.145976,-1332.370696
5465.449960,0.000000,-9116.536426,-1702.473667
5465.450284,148.041188,-9039.926876,-1480.411884
5465.450609,74.020594,-9269.755526,-1480.411884
5465.450933,0.000000,-9039.926876,-1850.514855
5465.451257,444.123565,-9499.584175,-1776.494261
5465.451581,74.020594,-9193.145976,-1924.535449
5465.451906,222.061783,-9652.803275,-1850.514855
5465.452230,148.041188,-9269.755526,-1850.514855
5465.452554,444.123565,-10035.851024,-1554.432478
5465.452879,-222.061783,-9039.926876,-2368.659014
5465.453203,0.000000,-9882.631924,-1850.514855
5465.453527,-444.123565,-9652.803275,-2146.597232
5465.453851,-592.164754,-9652.803275,-1628.453072
5465.454176,-1036.288319,-8886.707777,-1850.514855
5465.454500,-666.185348,-9729.412825,-1332.370696
5465.454824,-518.144159,-8886.707777,-1850.514855
5465.455149,-444.123565,-9346.365076,-1406.391290
5465.455473,-222.061783,-8886.707777,-1406.391290
5465.455797,-148.041188,-8886.707777,-962.267725
5465.456122,-296.082377,-9039.926876,-1110.308913
5465.456446,-370.102971,-8580.269578,-814.226536
5465.456770,-296.082377,-9039.926876,-962.267725
5465.457094,-592.164754,-8733.488677,-814.226536
5465.457419,-666.185348,-8580.269578,-222.061783
5465.457743,-592.164754,-8503.660028,-148.041188
5465.458067,-518.144159,-8656.879127,0.000000
5465.458392,-148.041188,-8197.221829,222.061783
5465.458716,0.000000,-8503.660028,296.082377
5465.459040,0.000000,-7890.783629,592.164754
5465.459364,0.000000,-8044.002729,666.185348
5465.459689,222.061783,-7890.783629,518.144159
5465.460013,222.061783,-8044.002729,1406.391290
5465.460337,592.164754,-7737.564530,666.185348
5465.460662,962.267725,-8120.612279,1184.329507
5465.460986,740.205942,-7277.907231,1110.308913
5465.461310,1702.473667,-8503.660028,888.247130
5465.461635,1406.391290,-7507.735880,962.267725
5465.461959,1554.432478,-7507.735880,1406.391290
5465.462283,1628.453072,-7737.564530,1110.308913
5465.462607,1702.473667,-7814.174080,1406.391290
5465.462932,2072.576638,-7507.735880,1110.308913
5465.463256,1776.494261,-7431.126331,1332.370696
5465.463580,1850.514855,-7584.345430,814.226536
5465.463905,1850.514855,-7814.174080,962.267725
5465.464229,1776.494261,-7737.564530,518.144159
5465.464553,1406.391290,-8197.221829,592.164754
5465.464877,1332.370696,-7890.783629,74.020594
5465.465202,1554.432478,-8044.002729,444.123565
5465.465526,1406.391290,-8580.269578,148.041188
5465.465850,1332.370696,-8503.660028,74.020594
5465.466175,1406.391290,-8273.831378,-148.041188
5465.466499,1110.308913,-8580.269578,-370.102971
5465.466823,740.205942,-8350.440928,-296.082377
5465.467148,370.102971,-8733.488677,-296.082377
5465.467472,296.082377,-8963.317327,-740.205942
5465.467796,296.082377,-8886.707777,-444.123565
5465.468120,148.041188,-8886.707777,-740.205942
5465.468445,-296.082377,-9422.974625,-888.247130
5465.468769,444.123565,-9193.145976,-1184.329507
5465.469093,148.041188,-9422.974625,-1554.432478
5465.469418,444.123565,-9422.974625,-1702.473667
5465.469742,370.102971,-9806.022374,-1332.370696
5465.470066,0.000000,-9422.974625,-1184.329507
5465.470390,0.000000,-9346.365076,-1776.494261
5465.470715,-296.082377,-9806.022374,-2072.576638
5465.471039,0.000000,-9652.803275,-1776.494261
5465.471363,-740.205942,-9116.536426,-1850.514855
5465.471688,-592.164754,-9729.412825,-2072.576638
5465.472012,-518.144159,-9269.755526,-1776.494261
5465.472336,-666.185348,-9346.365076,-1850.514855
5465.472660,-148.041188,-9422.974625,-2146.597232
5465.472985,-222.061783,-9729.412825,-1776.494261
5465.473309,-370.102971,-9269.755526,-1332.370696
5465.473633,-444.123565,-9269.755526,-1702.473667
5465.473958,-222.061783,-9499.584175,-1258.350101
5465.474282,-296.082377,-9039.926876,-1406.391290
5465.474606,74.020594,-9193.145976,-1110.308913
5465.474931,-296.082377,-8886.707777,-1110.308913
5465.475255,-592.164754,-9193.145976,-888.247130
5465.475579,-370.102971,-8503.660028,-888.247130
5465.475903,-740.205942,-8963.317327,-740.205942
5465.476228,-814.226536,-8580.269578,-444.123565
5465.476552,-666.185348,-8580.269578,148.041188
5465.476876,-814.226536,-8120.612279,-444.123565
5465.477201,-592.164754,-8503.660028,74.020594
5465.477525,0.000000,-8120.612279,444.123565
5465.477849,444.123565,-8580.269578,518.144159
5465.478173,518.144159,-7890.783629,592.164754
5465.478498,740.205942,-7967.393179,888.247130
5465.478822,962.267725,-7814.174080,518.144159
5465.479146,814.226536,-7737.564530,740.205942
5465.479471,814.226536,-7660.954980,1110.308913
5465.479795,1110.308913,-7584.345430,1258.350101
5465.480119,1036.288319,-7431.126331,962.267725
5465.480444,1184.329507,-7890.783629,1480.411884
5465.480768,1480.411884,-7354.516781,1036.288319
5465.481092,1850.514855,-8120.612279,814.226536
5465.481416,2368.659014,-7660.954980,1258.350101
5465.481741,2590.720797,-7431.126331,1258.350101
5465.482065,2294.638420,-7814.174080,666.185348
5465.482389,2294.638420,-8044.002729,592.164754
5465.482714,2146.597232,-7814.174080,666.185348
5465.483038,1850.514855,-7890.783629,592.164754
5465.483362,1554.432478,-7890.783629,592.164754
5465.483686,1332.370696,-8044.002729,518.144159
5465.484011,1480.411884,-8120.612279,296.082377
5465.484335,1332.370696,-8197.221829,0.000000
5465.484659,1406.391290,-8427.050478,148.041188
5465.484984,1480.411884,-8044.002729,0.000000
5465.485308,1258.350101,-8810.098227,-370.102971
5465.485632,1184.329507,-8810.098227,-518.144159
5465.485957,1110.308913,-8427.050478,-444.123565
5465.486281,1110.308913,-8810.098227,-740.205942
5465.486605,518.144159,-8810.098227,-444.123565
5465.486929,370.102971,-9116.536426,-1110.308913
5465.487254,74.020594,-9116.536426,-1110.308913
5465.487578,-296.082377,-9499.584175,-1258.350101
5465.487902,-370.102971,-9116.536426,-1554.432478
5465.488227,-296.082377,-10035.851024,-1110.308913
5465.488551,-592.164754,-9116.536426,-1406.391290
5465.488875,-222.061783,-9652.803275,-1480.411884
5465.489199,-222.061783,-9116.536426,-1480.411884
5465.489524,0.000000,-10112.460574,-1406.391290
5465.489848,444.123565,-9422.974625,-1554.432478
5465.490172,222.061783,-9806.022374,-1554.432478
5465.490497,222.061783,-9422.974625,-1776.494261
5465.490821,74.020594,-9652.803275,-1702.473667
5465.491145,0.000000,-9806.022374,-1702.473667
5465.491469,-592.164754,-9806.022374,-1924.535449
5465.491794,-962.267725,-9806.022374,-1628.453072
5465.492118,-888.247130,-9193.145976,-1702.473667
5465.492442,-1406.391290,-10035.851024,-1184.329507
5465.492767,-888.247130,-9346.365076,-1332.370696
5465.493091,-296.082377,-9193.145976,-1406.391290
5465.493415,-148.041188,-8963.317327,-1258.350101
5465.493740,0.000000,-9346.365076,-740.205942
5465.494064,0.000000,-8963.317327,-814.226536
5465.494388,0.000000,-9193.145976,-592.164754
5465.494712,-222.061783,-8503.660028,-592.164754
5465.495037,-296.082377,-9039.926876,-222.061783
5465.495361,-296.082377,-8733.488677,-296.082377
5465.495685,-1110.308913,-8503.660028,-222.061783
5465.496010,-1036.288319,-8580.269578,0.000000
5465.496334,-962.267725,-8197.221829,148.041188
5465.496658,-888.247130,-8120.612279,-148.041188
5465.496982,0.000000,-7584.345430,592.164754
5465.497307,296.082377,-7431.126331,814.226536
5465.497631,814.226536,-7890.783629,666.185348
5465.497955,1184.329507,-7584.345430,962.267725
5465.498280,1554.432478,-7737.564530,740.205942
5465.498604,1628.453072,-7507.735880,962.267725
5465.498928,1554.432478,-7737.564530,1258.350101
5465.499253,1406.391290,-7660.954980,1406.391290
5465.499577,1110.308913,-7660.954980,1036.288319
5465.499901,1036.288319,-7584.345430,1036.288319
5465.500225,1110.308913,-7431.126331,1184.329507
5465.500550,1554.432478,-7507.735880,962.267725
5465.500874,1554.432478,-7584.345430,222.061783
5465.501198,2294.638420,-7431.126331,814.226536
5465.501523,2294.638420,-7201.297681,740.205942
5465.501847,2294.638420,-8044.002729,592.164754
5465.502171,2442.679609,-7890.783629,592.164754
5465.502495,2220.617826,-8580.269578,222.061783
5465.502820,1702.473667,-7967.393179,0.000000
5465.503144,1702.473667,-8427.050478,222.061783
5465.503468,1110.308913,-8273.831378,0.000000
5465.503793,740.205942,-9116.536426,74.020594
5465.504117,296.082377,-8350.440928,-666.185348
5465.504441,518.144159,-8656.879127,0.000000
5465.504766,0.000000,-8427.050478,-962.267725
5465.505090,296.082377,-9499.584175,-666.185348
5465.505414,222.061783,-8733.488677,-962.267725
5465.505738,444.123565,-8656.879127,-666.185348
5465.506063,370.102971,-8503.660028,-1184.329507
5465.506387,666.185348,-9652.803275,-1036.288319
5465.506711,296.082377,-9499.584175,-1184.329507
5465.507036,296.082377,-9346.365076,-1702.473667
5465.507360,0.000000,-9576.193725,-1332.370696
5465.507684,-296.082377,-9652.803275,-1332.370696
5465.508008,-740.205942,-10342.289223,-1258.350101
5465.508333,-592.164754,-9576.193725,-1776.494261
5465.508657,-592.164754,-9269.755526,-1850.514855
5465.508981,-518.144159,-9576.193725,-1924.535449
5465.509306,0.000000,-9116.536426,-1702.473667
5465.509630,74.020594,-9269.755526,-1702.473667
5465.509954,-296.082377,-9269.755526,-1702.473667
5465.510279,0.000000,-9346.365076,-1850.514855
5465.510603,0.000000,-9269.755526,-1850.514855
5465.510927,-370.102971,-9882.631924,-1184.329507
5465.511251,-592.164754,-9269.755526,-1628.453072
5465.511576,-592.164754,-9806.022374,-1110.308913
5465.511900,-888.247130,-9269.755526,-1110.308913
5465.512224,-518.144159,-10035.851024,-962.267725
5465.512548,-444.123565,-8963.317327,-962.267725
5465.512872,-666.185348,-8810.098227,-370.102971
5465.513197,-666.185348,-8810.098227,-814.226536
5465.513521,-592.164754,-8656.879127,-444.123565
5465.513845,-518.144159,-8427.050478,-148.041188
5465.514169,-592.164754,-8580.269578,0.000000
5465.514493,-814.226536,-8503.660028,296.082377
5465.514817,-370.102971,-8733.488677,0.000000
5465.515142,-444.123565,-8810.098227,740.205942
5465.515466,0.000000,-8044.002729,592.164754
5465.515790,296.082377,-8350.440928,444.123565
5465.516114,222.061783,-7584.345430,740.205942
5465.516438,1110.308913,-8810.098227,1258.350101
5465.516763,962.267725,-7814.174080,592.164754
5465.517087,1036.288319,-7584.345430,962.267725
5465.517411,1258.350101,-7507.735880,962.267725
5465.517735,1332.370696,-7507.735880,1036.288319
5465.518059,1332.370696,-7660.954980,1184.329507
5465.518384,1776.494261,-7584.345430,1184.329507
5465.518708,1776.494261,-7814.174080,1258.350101
5465.519032,1776.494261,-7814.174080,814.226536
5465.519356,2590.720797,-7890.783629,962.267725
5465.519680,2294.638420,-7507.735880,962.267725
5465.520005,2294.638420,-7737.564530,740.205942
5465.520329,1850.514855,-7890.783629,814.226536
5465.520653,2072.576638,-7814.174080,592.164754
5465.520977,2146.597232,-7890.783629,0.000000
5465.521301,1628.453072,-7890.783629,222.061783
5465.521625,1406.391290,-7967.393179,222.061783
5465.521950,1480.411884,-8273.831378,0.000000
5465.522274,1776.494261,-8427.050478,0.000000
5465.522598,1184.329507,-8350.440928,-370.102971
5465.522922,1258.350101,-8886.707777,-444.123565
5465.523246,740.205942,-8350.440928,-592.164754
5465.523571,814.226536,-9269.755526,-592.164754
5465.523895,444.123565,-8733.488677,-888.247130
5465.524219,814.226536,-8810.098227,-962.267725
5465.524543,740.205942,-9039.926876,-1184.329507
5465.524867,592.164754,-9116.536426,-962.267725
5465.525192,444.123565,-9193.145976,-1480.411884
5465.525516,370.102971,-9269.755526,-1406.391290
5465.525840,0.000000,-9422.974625,-1332.370696
5465.526164,-296.082377,-9729.412825,-1702.473667
5465.526488,-296.082377,-9269.755526,-1480.411884
5465.526812,-370.102971,-9116.536426,-1406.391290
5465.527137,-296.082377,-9576.193725,-1628.453072
5465.527461,-148.041188,-9269.755526,-1998.556043
5465.527785,148.041188,-9882.631924,-1776.494261
5465.528109,0.000000,-9652.803275,-2146.597232
5465.528433,222.061783,-9576.193725,-1702.473667
5465.528758,0.000000,-9269.755526,-1702.473667
5465.529082,-148.041188,-9576.193725,-1406.391290
5465.529406,-592.164754,-9269.755526,-1998.556043
5465.529730,-592.164754,-9806.022374,-1406.391290
5465.530054,-740.205942,-9116.536426,-1480.411884
5465.530379,-1258.350101,-8886.707777,-1406.391290
5465.530703,-1258.350101,-9039.926876,-1332.370696
5465.531027,-1036.288319,-8733.488677,-888.247130
5465.531351,-518.144159,-9039.926876,-1110.308913
5465.531675,-592.164754,-8886.707777,-814.226536
5465.532000,-370.102971,-8503.660028,-814.226536
5465.532324,-518.144159,-8810.098227,-592.164754
5465.532648,-148.041188,-8427.050478,-370.102971
5465.532972,-296.082377,-8656.879127,0.000000
5465.533296,-518.144159,-8273.831378,148.041188
5465.533620,-148.041188,-8120.612279,222.061783
5465.533945,-814.226536,-8044.002729,444.123565
5465.534269,-666.185348,-8197.221829,370.102971
5465.534593,-296.082377,-7967.393179,814.226536
5465.534917,148.041188,-7890.783629,962.267725
5465.535241,518.144159,-7814.174080,1110.308913
5465.535566,814.226536,-7814.174080,814.226536
5465.535890,1184.329507,-7660.954980,1258.350101
5465.536214,1480.411884,-7890.783629,1332.370696
5465.536538,1776.494261,-7814.174080,1036.288319
5465.536862,1998.556043,-7354.516781,1184.329507
5465.537187,1554.432478,-7354.516781,1554.432478
5465.537511,1406.391290,-7507.735880,1036.288319
5465.537835,1332.370696,-7890.783629,1406.391290
5465.538159,1702.473667,-7354.516781,814.226536
5465.538483,1628.453072,-7737.564530,888.247130
5465.538808,1702.473667,-7660.954980,888.247130
5465.539132,2072.576638,-8044.002729,1258.350101
5465.539456,1776.494261,-7507.735880,592.164754
5465.539780,1924.535449,-8044.002729,222.061783
5465.540104,1702.473667,-8120.612279,222.061783
5465.540428,1850.514855,-8656.879127,148.041188
5465.540753,1850.514855,-8197.221829,0.000000
5465.541077,1480.411884,-8656.879127,0.000000
5465.541401,1554.432478,-8656.879127,-666.185348
5465.541725,888.247130,-8810.098227,-592.164754
5465.542049,962.267725,-8963.317327,-370.102971
5465.542374,444.123565,-8963.317327,-666.185348
5465.542698,148.041188,-9116.536426,-888.247130
5465.543022,0.000000,-8733.488677,-1036.288319
5465.543346,0.000000,-9422.974625,-444.123565
5465.543670,222.061783,-9039.926876,-1258.350101
5465.543995,518.144159,-8733.488677,-1332.370696
5465.544319,666.185348,-9422.974625,-1702.473667
5465.544643,370.102971,-9269.755526,-1480.411884
5465.544967,370.102971,-9422.974625,-1776.494261
5465.545291,370.102971,-9499.584175,-1998.556043
5465.545615,0.000000,-9499.584175,-1702.473667
5465.545940,-296.082377,-9499.584175,-1850.514855
5465.546264,-296.082377,-9652.803275,-1628.453072
5465.546588,-666.185348,-9576.193725,-1702.473667
5465.546912,-444.123565,-9576.193725,-2294.638420
5465.547236,-518.144159,-9422.974625,-1702.473667
5465.547561,-814.226536,-9499.584175,-1480.411884
5465.547885,-666.185348,-9499.584175,-1702.473667
5465.548209,-222.061783,-9346.365076,-2072.576638
5465.548533,-296.082377,-9499.584175,-1554.432478
5465.548857,-222.061783,-9576.193725,-1480.411884
5465.549182,-296.082377,-9193.145976,-1184.329507
5465.549506,-666.185348,-9116.536426,-1036.288319
5465.549830,-518.144159,-9346.365076,-740.205942
5465.550154,-518.144159,-8886.707777,-1332.370696
5465.550478,-296.082377,-9039.926876,-222.061783
5465.550803,-518.144159,-8810.098227,-518.144159
5465.551127,-962.267725,-8810.098227,-222.061783
5465.551451,-888.247130,-8503.660028,-296.082377
5465.551775,-740.205942,-9039.926876,592.164754
5465.552099,-666.185348,-8427.050478,0.000000
5465.552423,-592.164754,-8273.831378,148.041188
5465.552748,-148.041188,-8197.221829,592.164754
5465.553072,-222.061783,-7967.393179,740.205942
5465.553396,222.061783,-8197.221829,814.226536
5465.553720,444.123565,-7737.564530,592.164754
5465.554044,888.247130,-8120.612279,1110.308913
5465.554369,518.144159,-7507.735880,1036.288319
5465.554693,1184.329507,-8273.831378,1332.370696
5465.555017,1110.308913,-7584.345430,1110.308913
5465.555341,1110.308913,-7660.954980,1184.329507
5465.555665,1480.411884,-7431.126331,1332.370696
5465.555990,1850.514855,-7277.907231,1480.411884
5465.556314,1998.556043,-7431.126331,1110.308913
5465.556638,2442.679609,-7814.174080,1184.329507
5465.556962,2072.576638,-7507.735880,740.205942
5465.557286,2146.597232,-7890.783629,962.267725
5465.557611,2368.659014,-7890.783629,592.164754
5465.557935,1850.514855,-7354.516781,962.267725
5465.558259,1554.432478,-8120.612279,370.102971
5465.558583,1554.432478,-8120.612279,518.144159
5465.558907,1628.453072,-7277.907231,518.144159
5465.559231,1480.411884,-8273.831378,148.041188
5465.559556,1554.432478,-8120.612279,-148.041188
5465.559880,1480.411884,-8273.831378,0.000000
5465.560204,1332.370696,-8733.488677,0.000000
5465.560528,1110.308913,-8120.612279,-666.185348
5465.560852,1110.308913,-8810.098227,-666.185348
5465.561177,888.247130,-8503.660028,-666.185348
5465.561501,518.144159,-8886.707777,-592.164754
5465.561825,666.185348,-8656.879127,-1184.329507
5465.562149,444.123565,-9039.926876,-888.247130
5465.562473,814.226536,-9116.536426,-1258.350101
5465.562798,666.185348,-9269.755526,-1480.411884
5465.563122,518.144159,-9806.022374,-1110.308913
5465.563446,518.144159,-9422.974625,-1480.411884
5465.563770,74.020594,-9499.584175,-1850.514855
5465.564094,0.000000,-9729.412825,-1628.453072
5465.564418,0.000000,-9499.584175,-1628.453072
5465.564743,148.041188,-9346.365076,-1702.473667
5465.565067,0.000000,-9499.584175,-1776.494261
5465.565391,0.000000,-9576.193725,-1702.473667
5465.565715,0.000000,-9576.193725,-2072.576638
5465.566039,0.000000,-9269.755526,-1702.473667
5465.566364,0.000000,-9729.412825,-1480.411884
5465.566688,-370.102971,-9652.803275,-1554.432478
5465.567012,-518.144159,-9806.022374,-1776.494261
5465.567336,-888.247130,-9499.584175,-1036.288319
5465.567660,-666.185348,-9346.365076,-1480.411884
5465.567985,-740.205942,-9193.145976,-1406.391290
5465.568309,-740.205942,-9193.145976,-962.267725
5465.568633,-592.164754,-9039.926876,-1110.308913
5465.568957,-518.144159,-9039.926876,-1184.329507
5465.569281,-296.082377,-8810.098227,-740.205942
5465.569606,-148.041188,-8580.269578,-592.164754
5465.569930,-444.123565,-8733.488677,-222.061783
5465.570254,74.020594,-8656.879127,0.000000
5465.570578,-370.102971,-8580.269578,0.000000
5465.570902,-962.267725,-8350.440928,0.000000
5465.571226,-444.123565,-8580.269578,592.164754
5465.571551,-962.267725,-7890.783629,740.205942
5465.571875,-444.123565,-8044.002729,814.226536
5465.572199,-592.164754,-7660.954980,666.185348
5465.572523,0.000000,-8044.002729,1332.370696
5465.572847,518.144159,-7277.907231,666.185348
5465.573172,1406.391290,-8044.002729,1258.350101
5465.573496,1332.370696,-7124.688131,888.247130
5465.573820,1628.453072,-7737.564530,1406.391290
5465.574144,1702.473667,-7277.907231,1110.308913
5465.574468,1702.473667,-7354.516781,1850.514855
5465.574793,1628.453072,-7737.564530,888.247130
5465.575117,1332.370696,-7584.345430,1628.453072
5465.575441,1258.350101,-7507.735880,1184.329507
5465.575765,1406.391290,-7890.783629,962.267725
5465.576089,1702.473667,-7584.345430,1110.308913
5465.576414,2072.576638,-7507.735880,888.247130
5465.576738,1998.556043,-7431.126331,814.226536
5465.577062,1998.556043,-7584.345430,444.123565
5465.577386,2368.659014,-8580.269578,518.144159
5465.577710,1776.494261,-7967.393179,74.020594
5465.578034,1702.473667,-8273.831378,74.020594
5465.578359,1554.432478,-8503.660028,0.000000
5465.578683,1628.453072,-8273.831378,0.000000
5465.579007,962.267725,-8503.660028,-296.082377
5465.579331,888.247130,-8810.098227,-518.144159
5465.579655,888.247130,-8656.879127,-740.205942
5465.579980,592.164754,-8886.707777,-814.226536
5465.580304,444.123565,-8886.707777,-962.267725
5465.580628,592.164754,-9193.145976,-962.267725
5465.580952,296.082377,-8733.488677,-1036.288319
5465.581276,296.082377,-8963.317327,-1480.411884
5465.581601,592.164754,-8963.317327,-1776.494261
5465.581925,444.123565,-9269.755526,-1184.329507
5465.582249,296.082377,-9269.755526,-1628.453072
5465.582573,148.041188,-9806.022374,-1628.453072
5465.582897,444.123565,-9039.926876,-1554.432478
5465.583221,0.000000,-9652.803275,-1850.514855
5465.583546,-444.123565,-9422.974625,-2146.597232
5465.583870,-592.164754,-9806.022374,-1702.473667
5465.584194,-592.164754,-9269.755526,-2072.576638
5465.584518,-444.123565,-9193.145976,-1924.535449
5465.584842,-444.123565,-9269.755526,-1924.535449
5465.585167,-296.082377,-9729.412825,-1702.473667
5465.585491,0.000000,-9193.145976,-1998.556043
5465.585815,0.000000,-9652.803275,-1628.453072
5465.586139,-296.082377,-9576.193725,-1480.411884
5465.586463,-148.041188,-9576.193725,-1776.494261
5465.586788,-444.123565,-9499.584175,-1406.391290
5465.587112,0.000000,-9422.974625,-1184.329507
5465.587436,-444.123565,-9116.536426,-1036.288319
5465.587760,-370.102971,-9039.926876,-888.247130
5465.588084,-814.226536,-8810.098227,-592.164754
5465.588409,-740.205942,-8886.707777,-444.123565
5465.588733,-888.247130,-8733.488677,-518.144159
5465.589057,-888.247130,-8350.440928,-222.061783
5465.589381,-962.267725,-8427.050478,222.061783
5465.589705,-962.267725,-7967.393179,296.082377
5465.590029,0.000000,-8350.440928,0.000000
5465.590354,0.000000,-8044.002729,592.164754
5465.590678,296.082377,-8197.221829,888.247130
5465.591002,74.020594,-7967.393179,666.185348
5465.591326,666.185348,-8044.002729,1554.432478
5465.591650,740.205942,-7507.735880,1184.329507
5465.591975,962.267725,-7967.393179,962.267725
5465.592299,888.247130,-7737.564530,1406.391290
5465.592623,1406.391290,-7584.345430,1554.432478
5465.592947,962.267725,-7584.345430,1110.308913
5465.593271,1184.329507,-7507.735880,1332.370696
5465.593596,1480.411884,-7277.907231,1480.411884
5465.593920,1924.535449,-7507.735880,1258.350101
5465.594244,1924.535449,-7584.345430,1406.391290
5465.594568,2072.576638,-7507.735880,1332.370696
5465.594892,2294.638420,-7431.126331,1184.329507
5465.595217,2072.576638,-7507.735880,666.185348
5465.595541,2368.659014,-8273.831378,666.185348
5465.595865,1998.556043,-7354.516781,592.164754
5465.596189,1776.494261,-7890.783629,222.061783
5465.596513,1332.370696,-7584.345430,74.020594
5465.596837,1332.370696,-8427.050478,296.082377
5465.597162,1258.350101,-8197.221829,0.000000
5465.597486,1332.370696,-8350.440928,0.000000
5465.597810,1036.288319,-8197.221829,-370.102971
5465.598134,814.226536,-8503.660028,-518.144159
5465.598458,1406.391290,-8197.221829,-962.267725
5465.598783,1036.288319,-8886.707777,-962.267725
5465.599107,1406.391290,-8963.317327,-1184.329507
5465.599431,1258.350101,-8733.488677,-888.247130
5465.599755,1110.308913,-9346.365076,-1184.329507
5465.600079,518.144159,-9346.365076,-1702.473667
5465.600404,666.185348,-9269.755526,-1480.411884
5465.600728,222.061783,-9499.584175,-1776.494261
5465.601052,74.020594,-9652.803275,-1554.432478
5465.601376,-296.082377,-9193.145976,-1924.535449
5465.601700,-148.041188,-9806.022374,-1480.411884
5465.602024,-222.061783,-9499.584175,-1776.494261
5465.602349,0.000000,-9499.584175,-2072.576638
5465.602673,222.061783,-9193.145976,-1998.556043
5465.602997,592.164754,-9346.365076,-1702.473667
5465.603321,296.082377,-9806.022374,-2146.597232
5465.603645,444.123565,-9652.803275,-1776.494261
5465.603970,0.000000,-9269.755526,-1998.556043
5465.604294,-518.144159,-9806.022374,-1480.411884
5465.604618,-740.205942,-9576.193725,-1924.535449
5465.604942,-888.247130,-9806.022374,-1480.411884
5465.605266,-1332.370696,-9193.145976,-1702.473667
5465.605591,-962.267725,-9729.412825,-1036.288319
5465.605915,-1036.288319,-9193.145976,-1184.329507
5465.606239,-666.185348,-8580.269578,-888.247130
5465.606563,-518.144159,-8733.488677,-666.185348
5465.606887,-370.102971,-9269.755526,-888.247130
5465.607212,0.000000,-8427.050478,-370.102971
5465.607536,-518.144159,-8580.269578,-370.102971
5465.607860,-666.185348,-8580.269578,-148.041188
5465.608184,-814.226536,-8580.269578,148.041188
5465.608508,-740.205942,-8427.050478,666.185348
5465.608832,-888.247130,-8273.831378,296.082377
5465.609157,-888.247130,-8044.002729,518.144159
5465.609481,-444.123565,-8350.440928,888.247130
5465.609805,-296.082377,-7124.688131,814.226536
5465.610129,74.020594,-7814.174080,1332.370696
5465.610453,148.041188,-7431.126331,1258.350101
5465.610778,666.185348,-7967.393179,1110.308913
5465.611102,814.226536,-7354.516781,740.205942
5465.611426,1480.411884,-8120.612279,1702.473667
5465.611750,1332.370696,-7354.516781,962.267725
5465.612074,1554.432478,-7660.954980,1480.411884
5465.612399,1480.411884,-7507.735880,1406.391290
5465.612723,1332.370696,-7814.174080,1406.391290
5465.613047,1110.308913,-7431.126331,888.247130
5465.613371,1184.329507,-7584.345430,1554.432478
5465.613695,1332.370696,-7507.735880,888.247130
5465.614019,1554.432478,-7584.345430,666.185348
5465.614344,1850.514855,-7354.516781,814.226536
5465.614668,1998.556043,-7890.783629,370.102971
5465.614992,1776.494261,-7890.783629,148.041188
5465.615316,1776.494261,-7890.783629,148.041188
5465.615640,1924.535449,-8120.612279,296.082377
5465.615965,1628.453072,-8273.831378,-222.061783
5465.616289,1554.432478,-8427.050478,-148.041188
5465.616613,1406.391290,-8580.269578,-222.061783
5465.616937,1480.411884,-8963.317327,-518.144159
5465.617261,814.226536,-8963.317327,-1036.288319
5465.617586,888.247130,-8810.098227,-592.164754
5465.617910,370.102971,-8886.707777,-1184.329507
5465.618234,518.144159,-9806.022374,-1258.350101
5465.618558,0.000000,-8886.707777,-1036.288319
5465.618882,222.061783,-9422.974625,-1258.350101
5465.619207,296.082377,-8963.317327,-1628.453072
5465.619531,370.102971,-9346.365076,-1480.411884
5465.619855,814.226536,-9959.241474,-2072.576638
5465.620179,740.205942,-9422.974625,-1554.432478
5465.620503,666.185348,-9499.584175,-1850.514855
5465.620827,0.000000,-9806.022374,-1850.514855
5465.621152,148.041188,-9959.241474,-1998.556043
5465.621476,-370.102971,-9576.193725,-1998.556043
5465.621800,-222.061783,-9806.022374,-1998.556043
5465.622124,-740.205942,-9576.193725,-1850.514855
5465.622448,-370.102971,-10418.898773,-1480.411884
5465.622773,-592.164754,-9193.145976,-2072.576638
5465.623097,0.000000,-9652.803275,-1628.453072
5465.623421,0.000000,-9193.145976,-1850.514855
5465.623745,0.000000,-9039.926876,-1258.350101
5465.624069,74.020594,-9346.365076,-1554.432478
5465.624394,-296.082377,-9193.145976,-1332.370696
5465.624718,0.000000,-9039.926876,-1406.391290
5465.625042,-296.082377,-9116.536426,-962.267725
5465.625366,-740.205942,-9576.193725,-296.082377
5465.625690,-888.247130,-8886.707777,-666.185348
5465.626014,-814.226536,-9116.536426,-370.102971
5465.626339,-1258.350101,-8427.050478,-518.144159
5465.626663,-1332.370696,-8656.879127,0.000000
5465.626987,-1184.329507,-8427.050478,222.061783
5465.627311,-666.185348,-8273.831378,444.123565
5465.627635,-592.164754,-8197.221829,74.020594
5465.627960,-296.082377,-8044.002729,740.205942
5465.628284,74.020594,-8120.612279,814.226536
5465.628608,444.123565,-7967.393179,814.226536
5465.628932,592.164754,-8197.221829,1184.329507
5465.629256,888.247130,-8427.050478,1628.453072
5465.629581,814.226536,-7814.174080,1406.391290
5465.629905,666.185348,-7814.174080,1406.391290
5465.630229,888.247130,-7737.564530,1184.329507
5465.630553,962.267725,-7584.345430,1554.432478
5465.630877,1036.288319,-7660.954980,1480.411884
5465.631202,1406.391290,-7277.907231,1554.432478
5465.631526,1776.494261,-7201.297681,1258.350101
5465.631850,2072.576638,-7431.126331,1110.308913
5465.632174,2146.597232,-7201.297681,1332.370696
5465.632498,1998.556043,-7354.516781,1628.453072
5465.632822,2220.617826,-7507.735880,592.164754
5465.633147,2220.617826,-7660.954980,740.205942
5465.633471,1776.494261,-7660.954980,370.102971
5465.633795,1406.391290,-8580.269578,666.185348
5465.634119,1406.391290,-7660.954980,74.020594
5465.634443,1258.350101,-8273.831378,0.000000
5465.634768,1184.329507,-8044.002729,-222.061783
5465.635092,962.267725,-8273.831378,0.000000
5465.635416,1110.308913,-8350.440928,-370.102971
5465.635740,1036.288319,-8580.269578,-592.164754
5465.636064,740.205942,-8656.879127,-962.267725
5465.636389,888.247130,-8733.488677,-888.247130
5465.636713,1184.329507,-9039.926876,-1036.288319
5465.637037,1184.329507,-9116.536426,-1258.350101
5465.637361,814.226536,-9269.755526,-814.226536
5465.637685,740.205942,-9193.145976,-1258.350101
5465.638009,444.123565,-9959.241474,-1702.473667
5465.638334,296.082377,-9499.584175,-1628.453072
5465.638658,0.000000,-9652.803275,-1628.453072
5465.638982,-296.082377,-9422.974625,-1998.556043
5465.639306,0.000000,-9729.412825,-1628.453072
5465.639630,0.000000,-9652.803275,-1850.514855
5465.639955,148.041188,-9806.022374,-1776.494261
5465.640279,0.000000,-9116.536426,-1998.556043
5465.640603,444.123565,-9806.022374,-1924.535449
5465.640927,592.164754,-9959.241474,-1850.514855
5465.641251,74.020594,-9806.022374,-1776.494261
5465.641576,-148.041188,-9806.022374,-1850.514855
5465.641900,-444.123565,-9729.412825,-1702.473667
5465.642224,-444.123565,-10265.679673,-1924.535449
5465.642548,-666.185348,-9806.022374,-1776.494261
5465.642872,-740.205942,-9729.412825,-1258.350101
5465.643196,-888.247130,-9116.536426,-1184.329507
5465.643521,-740.205942,-9269.755526,-962.267725
5465.643845,0.000000,-9039.926876,-1110.308913
5465.644169,74.020594,-9422.974625,-962.267725
5465.644493,0.000000,-8427.050478,-518.144159
5465.644817,74.020594,-8963.317327,-296.082377
5465.645142,0.000000,-8810.098227,-148.041188
5465.645466,-444.123565,-8733.488677,0.000000
5465.645790,-370.102971,-8810.098227,0.000000
5465.646114,-740.205942,-8350.440928,222.061783
5465.646438,-814.226536,-8197.221829,592.164754
5465.646763,-814.226536,-8197.221829,888.247130
5465.647087,-444.123565,-7814.174080,518.144159
5465.647411,-222.061783,-7584.345430,666.185348
5465.647735,666.185348,-7737.564530,1036.288319
5465.648059,1036.288319,-7814.174080,1406.391290
5465.648384,1110.308913,-7584.345430,1110.308913
5465.648708,888.247130,-7507.735880,1258.350101
5465.649032,1554.432478,-7814.174080,1184.329507
5465.649356,962.267725,-7584.345430,1776.494261
5465.649680,962.267725,-7890.783629,1924.535449
5465.650004,1110.308913,-7507.735880,1480.411884
5465.650329,1184.329507,-7967.393179,1332.370696
5465.650653,1184.329507,-7507.735880,1406.391290
5465.650977,1184.329507,-7660.954980,1036.288319
5465.651301,1628.453072,-7354.516781,740.205942
5465.651625,1998.556043,-7354.516781,1110.308913
5465.651950,1924.535449,-7584.345430,666.185348
5465.652274,1702.473667,-6971.469032,740.205942
5465.652598,1776.494261,-7814.174080,74.020594
5465.652922,1776.494261,-8120.612279,148.041188
5465.653246,1554.432478,-8350.440928,148.041188
5465.653571,1110.308913,-9116.536426,0.000000
5465.653895,1036.288319,-8350.440928,0.000000
5465.654219,1036.288319,-8503.660028,-296.082377
5465.654543,962.267725,-8580.269578,-518.144159
5465.654867,888.247130,-8810.098227,-740.205942
5465.655191,814.226536,-8886.707777,-592.164754
5465.655516,222.061783,-8810.098227,-1184.329507
5465.655840,444.123565,-9193.145976,-1110.308913
5465.656164,74.020594,-9193.145976,-1036.288319
5465.656488,0.000000,-9576.193725,-962.267725
5465.656812,148.041188,-8886.707777,-1554.432478
5465.657137,148.041188,-9346.365076,-1480.411884
5465.657461,74.020594,-9499.584175,-1628.453072
5465.657785,0.000000,-9269.755526,-1776.494261
5465.658109,370.102971,-9806.022374,-1480.411884
5465.658433,222.061783,-9116.536426,-1998.556043
5465.658758,74.020594,-9806.022374,-1850.514855
5465.659082,0.000000,-9652.803275,-2368.659014
5465.659406,0.000000,-9499.584175,-1628.453072
5465.659730,-148.041188,-9422.974625,-2220.617826
5465.660054,-296.082377,-9499.584175,-1554.432478
5465.660378,-222.061783,-9346.365076,-1702.473667
5465.660703,-222.061783,-9116.536426,-1332.370696
5465.661027,-592.164754,-9422.974625,-2072.576638
5465.661351,-222.061783,-9652.803275,-1554.432478
5465.661675,-148.041188,-9193.145976,-1480.411884
5465.661999,-296.082377,-9193.145976,-1258.350101
5465.662324,-222.061783,-9346.365076,-1036.288319
5465.662648,-296.082377,-9039.926876,-962.267725
5465.662972,-222.061783,-8733.488677,-1184.329507
5465.663296,-666.185348,-8656.879127,-740.205942
5465.663620,-666.185348,-8656.879127,-222.061783
5465.663945,-814.226536,-8503.660028,-592.164754
5465.664269,-814.226536,-8427.050478,-222.061783
5465.664593,-814.226536,-8580.269578,0.000000
5465.664917,-592.164754,-8963.317327,296.082377
5465.665241,-740.205942,-8350.440928,518.144159
5465.665566,-148.041188,-8350.440928,814.226536
5465.665890,148.041188,-7890.783629,888.247130
5465.666214,222.061783,-8044.002729,962.267725
5465.666538,666.185348,-8120.612279,888.247130
5465.666862,1036.288319,-7967.393179,1406.391290
5465.667186,814.226536,-7507.735880,740.205942
5465.667511,1258.350101,-7814.174080,1258.350101
5465.667835,1036.288319,-7354.516781,1258.350101
5465.668159,1258.350101,-7584.345430,1110.308913
5465.668483,1406.391290,-7660.954980,1184.329507
5465.668807,1406.391290,-7431.126331,1406.391290
5465.669132,2072.576638,-7431.126331,962.267725
5465.669456,1554.432478,-7660.954980,1110.308913
5465.669780,1924.535449,-7507.735880,888.247130
5465.670104,2220.617826,-7660.954980,962.267725
5465.670428,1850.514855,-7584.345430,740.205942
5465.670753,2220.617826,-7660.954980,888.247130
5465.671077,1924.535449,-7584.345430,740.205942
5465.671401,1480.411884,-7814.174080,222.061783
5465.671725,1332.370696,-8197.221829,0.000000
5465.672049,1850.514855,-8656.879127,370.102971
5465.672373,1258.350101,-7967.393179,0.000000
5465.672698,1110.308913,-8197.221829,0.000000
5465.673022,888.247130,-8273.831378,-222.061783
5465.673346,888.247130,-8503.660028,-444.123565
5465.673670,814.226536,-8810.098227,-740.205942
5465.673994,518.144159,-8886.707777,-592.164754
5465.674319,518.144159,-8810.098227,-814.226536
5465.674643,444.123565,-8886.707777,-962.267725
5465.674967,740.205942,-9576.193725,-1184.329507
5465.675291,222.061783,-9652.803275,-962.267725
5465.675615,222.061783,-9269.755526,-1332.370696
5465.675940,-148.041188,-9039.926876,-1406.391290
5465.676264,0.000000,-9729.412825,-1258.350101
5465.676588,-370.102971,-9269.755526,-1628.453072
5465.676912,-296.082377,-9422.974625,-1480.411884
5465.677236,-370.102971,-9346.365076,-1850.514855
5465.677561,0.000000,-9729.412825,-1702.473667
5465.677885,0.000000,-9652.803275,-1480.411884
5465.678209,74.020594,-9422.974625,-1924.535449
5465.678533,592.164754,-9346.365076,-1924.535449
5465.678857,518.144159,-9652.803275,-1702.473667
5465.679181,74.020594,-9729.412825,-1702.473667
5465.679506,74.020594,-9576.193725,-1998.556043
5465.679830,-444.123565,-9193.145976,-1850.514855
5465.680154,-740.205942,-9729.412825,-1776.494261
5465.680478,-148.041188,-9422.974625,-1554.432478
5465.680802,-962.267725,-9346.365076,-1332.370696
5465.681127,-888.247130,-9193.145976,-888.247130
5465.681451,-814.226536,-8810.098227,-1258.350101
5465.681775,-592.164754,-9039.926876,-888.247130
5465.682099,-444.123565,-8656.879127,-740.205942
5465.682423,0.000000,-8580.269578,-444.123565
5465.682748,0.000000,-8350.440928,-592.164754
5465.683072,-296.082377,-8886.707777,0.000000
5465.683396,0.000000,-7890.783629,-296.082377
5465.683720,-370.102971,-8350.440928,222.061783
5465.684044,74.020594,-8197.221829,444.123565
5465.684368,-222.061783,-8503.660028,518.144159
5465.684693,222.061783,-7737.564530,1110.308913
5465.685017,0.000000,-7890.783629,888.247130
5465.685341,148.041188,-7660.954980,740.205942
5465.685665,444.123565,-7890.783629,1184.329507
5465.685989,888.247130,-7660.954980,962.267725
5465.686314,1110.308913,-7584.345430,1258.350101
5465.686638,1406.391290,-7584.345430,1110.308913
5465.686962,1628.453072,-7431.126331,1184.329507
5465.687286,2220.617826,-7660.954980,962.267725
5465.687610,1998.556043,-7354.516781,1406.391290
5465.687935,1702.473667,-7737.564530,1258.350101
5465.688259,1850.514855,-7737.564530,1036.288319
5465.688583,1702.473667,-7737.564530,1258.350101
5465.688907,1776.494261,-7277.907231,888.247130
5465.689231,1850.514855,-7584.345430,592.164754
5465.689555,1702.473667,-7354.516781,740.205942
5465.689880,1480.411884,-7814.174080,740.205942
5465.690204,1332.370696,-7814.174080,148.041188
5465.690528,1998.556043,-8197.221829,74.020594
5465.690852,1406.391290,-8044.002729,0.000000
5465.691176,1554.432478,-8044.002729,0.000000
5465.691501,1628.453072,-8503.660028,-296.082377
5465.691825,1628.453072,-9422.974625,0.000000
5465.692149,1110.308913,-8733.488677,-518.144159
5465.692473,740.205942,-8733.488677,-740.205942
5465.692797,888.247130,-9269.755526,-740.205942
5465.693122,0.000000,-8656.879127,-1184.329507
5465.693446,-296.082377,-9422.974625,-888.247130
5465.693770,-518.144159,-8580.269578,-1184.329507
5465.694094,-518.144159,-9652.803275,-962.267725
5465.694418,-518.144159,-8963.317327,-1554.432478
5465.694743,-444.123565,-9422.974625,-1332.370696
5465.695067,-222.061783,-9039.926876,-1702.473667
5465.695391,74.020594,-9422.974625,-1628.453072
5465.695715,0.000000,-9499.584175,-1776.494261
5465.696039,296.082377,-9346.365076,-1628.453072
5465.696363,0.000000,-9346.365076,-1850.514855
5465.696688,0.000000,-9806.022374,-1628.453072
5465.697012,-740.205942,-9652.803275,-1998.556043
5465.697336,-592.164754,-9729.412825,-1776.494261
5465.697660,-888.247130,-9346.365076,-1850.514855
5465.697984,-962.267725,-9652.803275,-1776.494261
5465.698309,-814.226536,-9193.145976,-1776.494261
5465.698633,-666.185348,-9806.022374,-1480.411884
5465.698957,-370.102971,-8810.098227,-1184.329507
5465.699281,-370.102971,-9039.926876,-1480.411884
5465.699605,-222.061783,-8886.707777,-1332.370696
5465.699930,0.000000,-9039.926876,-592.164754
5465.700254,222.061783,-8580.269578,-814.226536
5465.700578,-222.061783,-8963.317327,-518.144159
5465.700902,-592.164754,-8733.488677,-592.164754
5465.701226,-592.164754,-8886.707777,-666.185348
5465.701550,-1036.288319,-8810.098227,-148.041188
5465.701875,-1332.370696,-8350.440928,-370.102971
5465.702199,-1110.308913,-8733.488677,296.082377
5465.702523,-1036.288319,-8197.221829,222.061783
5465.702847,-666.185348,-8427.050478,0.000000
5465.703171,-370.102971,-7354.516781,444.123565
5465.703496,222.061783,-7814.174080,666.185348
5465.703820,518.144159,-8044.002729,592.164754
5465.704144,888.247130,-7814.174080,1036.288319
5465.704468,1702.473667,-7354.516781,1258.350101
5465.704792,1184.329507,-7507.735880,814.226536
5465.705117,1628.453072,-8044.002729,1110.308913
5465.705441,1554.432478,-7967.393179,1480.411884
5465.705765,1184.329507,-7660.954980,1258.350101
5465.706089,1258.350101,-7354.516781,1036.288319
5465.706413,1776.494261,-7814.174080,1110.308913
5465.706738,1998.556043,-7201.297681,1110.308913
5465.707062,1998.556043,-7354.516781,888.247130
5465.707386,2368.659014,-7277.907231,1258.350101
5465.707710,2146.597232,-7354.516781,592.164754
5465.708034,2442.679609,-7814.174080,592.164754
5465.708358,2072.576638,-7354.516781,222.061783
5465.708683,2146.597232,-7890.783629,592.164754
5465.709007,1480.411884,-7660.954980,148.041188
5465.709331,1406.391290,-8427.050478,370.102971
5465.709655,1110.308913,-7967.393179,0.000000
5465.709979,1036.288319,-8580.269578,148.041188
5465.710304,666.185348,-7737.564530,-370.102971
5465.710628,888.247130,-8810.098227,-148.041188
5465.710952,962.267725,-8733.488677,-888.247130
5465.711276,814.226536,-8810.098227,-666.185348
5465.711600,740.205942,-8580.269578,-1480.411884
5465.711925,888.247130,-8810.098227,-740.205942
5465.712249,888.247130,-9039.926876,-1258.350101
5465.712573,370.102971,-9269.755526,-1110.308913
5465.712897,518.144159,-9116.536426,-1258.350101
5465.713221,444.123565,-9576.193725,-1554.432478
5465.713546,592.164754,-9729.412825,-1554.432478
5465.713870,370.102971,-9193.145976,-1480.411884
5465.714194,148.041188,-9806.022374,-1554.432478
5465.714518,-444.123565,-9806.022374,-1776.494261
5465.714843,0.000000,-9806.022374,-1702.473667
5465.715167,-518.144159,-9269.755526,-1924.535449
5465.715491,-592.164754,-9422.974625,-1480.411884
5465.715815,-518.144159,-10035.851024,-1554.432478
5465.716139,-518.144159,-9729.412825,-1702.473667
5465.716464,-518.144159,-9269.755526,-1998.556043
5465.716788,-296.082377,-9806.022374,-1480.411884
5465.717112,-222.061783,-9193.145976,-1850.514855
5465.717436,0.000000,-9729.412825,-1628.453072
5465.717761,-444.123565,-9269.755526,-1406.391290
5465.718085,-296.082377,-9116.536426,-1406.391290
5465.718409,-444.123565,-9116.536426,-1406.391290
5465.718733,-1110.308913,-10035.851024,-740.205942
5465.719058,-1110.308913,-8963.317327,-888.247130
5465.719382,-962.267725,-8886.707777,-666.185348
5465.719706,-962.267725,-8810.098227,-740.205942
5465.720030,-740.205942,-8810.098227,-296.082377
5465.720354,-518.144159,-8656.879127,-370.102971
5465.720679,-222.061783,-8273.831378,-222.061783
5465.721003,-518.144159,-8350.440928,0.000000
5465.721327,-518.144159,-8503.660028,0.000000
5465.721651,-370.102971,-8350.440928,370.102971
5465.721976,-296.082377,-8120.612279,518.144159
5465.722300,-222.061783,-8197.221829,740.205942
5465.722624,0.000000,-7890.783629,666.185348
5465.722948,518.144159,-8886.707777,1332.370696
5465.723273,444.123565,-7584.345430,1110.308913
5465.723597,740.205942,-7890.783629,1036.288319
5465.723921,1258.350101,-7814.174080,1110.308913
5465.724245,1480.411884,-7354.516781,1332.370696
5465.724569,1406.391290,-7507.735880,1110.308913
5465.724894,1628.453072,-7660.954980,1332.370696
5465.725218,1776.494261,-7584.345430,1332.370696
5465.725542,1480.411884,-8044.002729,1184.329507
5465.725866,1480.411884,-7507.735880,1184.329507
5465.726191,1554.432478,-7584.345430,1110.308913
5465.726515,1554.432478,-7507.735880,962.267725
5465.726839,1776.494261,-7737.564530,592.164754
5465.727163,2146.597232,-7584.345430,592.164754
5465.727488,2072.576638,-7814.174080,370.102971
5465.727812,1850.514855,-7584.345430,370.102971
5465.728136,1554.432478,-7890.783629,148.041188
5465.728460,1406.391290,-8273.831378,74.020594
5465.728784,1554.432478,-8120.612279,-222.061783
5465.729109,1184.329507,-8350.440928,-74.020594
5465.729433,1332.370696,-8580.269578,-222.061783
5465.729757,1110.308913,-8273.831378,-296.082377
5465.730081,740.205942,-8733.488677,-444.123565
5465.730406,666.185348,-8427.050478,-740.205942
5465.730730,666.185348,-9116.536426,-814.226536
5465.731054,518.144159,-8733.488677,-1036.288319
5465.731378,370.102971,-9269.755526,-1258.350101
5465.731702,296.082377,-9269.755526,-1480.411884
5465.732027,370.102971,-9116.536426,-1406.391290
5465.732351,222.061783,-9193.145976,-1628.453072
5465.732675,0.000000,-9422.974625,-1332.370696
5465.732999,370.102971,-9499.584175,-1850.514855
5465.733324,-222.061783,-9499.584175,-1776.494261
5465.733648,-296.082377,-9729.412825,-1628.453072
5465.733972,-740.205942,-9499.584175,-2072.576638
5465.734296,-222.061783,-9499.584175,-1776.494261
5465.734621,-592.164754,-9039.926876,-1924.535449
5465.734945,-518.144159,-9882.631924,-1628.453072
5465.735269,-814.226536,-9269.755526,-2368.659014
5465.735593,0.000000,-10112.460574,-2072.576638
5465.735917,-370.102971,-9116.536426,-2294.638420
5465.736242,-296.082377,-9806.022374,-1776.494261
5465.736566,-222.061783,-9346.365076,-1776.494261
5465.736890,-222.061783,-9576.193725,-1332.370696
5465.737214,-518.144159,-8886.707777,-1554.432478
5465.737539,-444.123565,-9346.365076,-1036.288319
5465.737863,-518.144159,-8733.488677,-1110.308913
5465.738187,-148.041188,-9193.145976,-740.205942
5465.738511,-592.164754,-8580.269578,-518.144159
5465.738836,-444.123565,-8886.707777,-222.061783
5465.739160,-666.185348,-8273.831378,-666.185348
5465.739484,-444.123565,-8656.879127,-222.061783
5465.739808,-518.144159,-8273.831378,74.020594
5465.740132,-666.185348,-8503.660028,148.041188
5465.740457,-444.123565,-8044.002729,74.020594
5465.740781,0.000000,-8273.831378,592.164754
5465.741105,0.000000,-7967.393179,740.205942
5465.741429,296.082377,-7890.783629,740.205942
5465.741754,592.164754,-7814.174080,962.267725
5465.742078,518.144159,-8044.002729,1258.350101
5465.742402,962.267725,-7660.954980,814.226536
5465.742726,888.247130,-7660.954980,1110.308913
5465.743051,1332.370696,-7890.783629,1258.350101
5465.743375,1258.350101,-7584.345430,1184.329507
5465.743699,1628.453072,-7431.126331,1036.288319
5465.744023,1554.432478,-7507.735880,1332.370696
5465.744347,1776.494261,-7354.516781,1036.288319
5465.744672,1850.514855,-7584.345430,888.247130
5465.744996,2072.576638,-7660.954980,1110.308913
5465.745320,1998.556043,-7354.516781,1036.288319
5465.745644,1850.514855,-7354.516781,740.205942
5465.745969,2072.576638,-7660.954980,814.226536
5465.746293,1998.556043,-7890.783629,518.144159
5465.746617,1702.473667,-7890.783629,444.123565
5465.746941,1924.535449,-7890.783629,518.144159
5465.747266,1480.411884,-8044.002729,296.082377
5465.747590,1406.391290,-8120.612279,148.041188
5465.747914,1406.391290,-8197.221829,-444.123565
5465.748238,1480.411884,-8197.221829,-296.082377
5465.748562,814.226536,-8273.831378,-444.123565
5465.748887,740.205942,-8733.488677,-740.205942
5465.749211,666.185348,-8810.098227,-740.205942
5465.749535,592.164754,-8733.488677,-740.205942
5465.749859,814.226536,-9346.365076,-962.267725
5465.750184,222.061783,-9193.145976,-962.267725
5465.750508,222.061783,-9193.145976,-1258.350101
5465.750832,222.061783,-9269.755526,-1036.288319
5465.751156,74.020594,-9729.412825,-1406.391290
5465.751480,0.000000,-9576.193725,-1332.370696
5465.751805,-148.041188,-9422.974625,-1554.432478
5465.752129,-592.164754,-9422.974625,-1628.453072
5465.752453,-296.082377,-9729.412825,-1776.494261
5465.752777,-370.102971,-9269.755526,-1480.411884
5465.753102,0.000000,-9652.803275,-1924.535449
5465.753426,-148.041188,-9269.755526,-1628.453072
5465.753750,-74.020594,-9806.022374,-2072.576638
5465.754074,296.082377,-8963.317327,-1776.494261
5465.754399,0.000000,-9729.412825,-1554.432478
5465.754723,-444.123565,-9269.755526,-1776.494261
5465.755047,-518.144159,-9729.412825,-1924.535449
5465.755371,-962.267725,-9729.412825,-1406.391290
5465.755695,-814.226536,-9346.365076,-1406.391290
5465.756020,-962.267725,-9116.536426,-1628.453072
5465.756344,-666.185348,-9116.536426,-1036.288319
5465.756668,-666.185348,-8963.317327,-1332.370696
5465.756992,-666.185348,-9116.536426,-444.123565
5465.757317,-518.144159,-8810.098227,-1036.288319
5465.757641,0.000000,-8656.879127,-370.102971
5465.757965,-222.061783,-8656.879127,-592.164754
5465.758289,-592.164754,-9039.926876,74.020594
5465.758614,0.000000,-8733.488677,0.000000
5465.758938,-222.061783,-8273.831378,148.041188
5465.759262,-370.102971,-8427.050478,0.000000
5465.759586,-518.144159,-8427.050478,518.144159
5465.759910,0.000000,-8120.612279,296.082377
5465.760235,-222.061783,-7814.174080,370.102971
5465.760559,148.041188,-8273.831378,814.226536
5465.760883,74.020594,-7584.345430,1184.329507
5465.761207,666.185348,-7967.393179,1184.329507
5465.761532,1110.308913,-7660.954980,1110.308913
5465.761856,1702.473667,-8197.221829,1110.308913
5465.762180,1702.473667,-7584.345430,1036.288319
5465.762504,1702.473667,-8120.612279,1702.473667
5465.762829,1702.473667,-7890.783629,1628.453072
5465.763153,1998.556043,-7737.564530,1110.308913
5465.763477,1628.453072,-7584.345430,1036.288319
5465.763801,1702.473667,-7584.345430,1184.329507
5465.764125,1554.432478,-7584.345430,962.267725
5465.764450,1776.494261,-7890.783629,962.267725
5465.764774,1628.453072,-7431.126331,592.164754
5465.765098,1702.473667,-7584.345430,740.205942
5465.765422,1332.370696,-7354.516781,740.205942
5465.765747,1924.535449,-7967.393179,296.082377
5465.766071,1702.473667,-7737.564530,222.061783
5465.766395,1406.391290,-8273.831378,148.041188
5465.766719,1554.432478,-8580.269578,296.082377
5465.767044,1480.411884,-8427.050478,-370.102971
5465.767368,1406.391290,-8810.098227,-370.102971
5465.767692,740.205942,-8580.269578,-740.205942
5465.768016,666.185348,-8733.488677,-370.102971
5465.768340,222.061783,-8580.269578,-962.267725
5465.768665,148.041188,-9269.755526,-1184.329507
5465.768989,0.000000,-9039.926876,-1332.370696
5465.769313,0.000000,-8733.488677,-740.205942
5465.769637,296.082377,-9269.755526,-1406.391290
5465.769962,-296.082377,-9116.536426,-1258.350101
5465.770286,74.020594,-9116.536426,-1628.453072
5465.770610,148.041188,-9269.755526,-1480.411884
5465.770934,148.041188,-9346.365076,-1332.370696
5465.771259,0.000000,-9652.803275,-1628.453072
5465.771583,-518.144159,-9576.193725,-1776.494261
5465.771907,-148.041188,-9422.974625,-2146.597232
5465.772231,-666.185348,-9576.193725,-1850.514855
5465.772555,-740.205942,-9806.022374,-1554.432478
5465.772880,-888.247130,-9269.755526,-1628.453072
5465.773204,-666.185348,-9499.584175,-1702.473667
5465.773528,-962.267725,-9039.926876,-1702.473667
5465.773852,148.041188,-9422.974625,-1998.556043
5465.774177,-222.061783,-9346.365076,-1406.391290
5465.774501,-222.061783,-9269.755526,-1554.432478
5465.774825,-296.082377,-9116.536426,-1554.432478
5465.775149,-370.102971,-9193.145976,-666.185348
5465.775473,-518.144159,-9116.536426,-814.226536
5465.775798,-370.102971,-9116.536426,-1184.329507
5465.776122,-444.123565,-8963.317327,-814.226536
5465.776446,-666.185348,-9039.926876,-370.102971
5465.776770,-666.185348,-8733.488677,-666.185348
5465.777095,-888.247130,-8963.317327,-296.082377
5465.777419,-814.226536,-8350.440928,-370.102971
5465.777743,-740.205942,-8350.440928,0.000000
5465.778067,-74.020594,-8733.488677,222.061783
5465.778392,0.000000,-8273.831378,444.123565
5465.778716,370.102971,-8197.221829,444.123565
5465.779040,370.102971,-8273.831378,518.144159
5465.779364,666.185348,-8120.612279,666.185348
5465.779688,1036.288319,-7660.954980,1258.350101
5465.780013,888.247130,-8044.002729,888.247130
5465.780337,1036.288319,-7967.393179,962.267725
5465.780661,1332.370696,-7737.564530,1480.411884
5465.780985,1258.350101,-7584.345430,1184.329507
5465.781310,1406.391290,-7737.564530,1184.329507
5465.781634,1480.411884,-7201.297681,1184.329507
5465.781958,1998.556043,-7507.735880,1110.308913
5465.782282,2072.576638,-6741.640382,1258.350101
5465.782607,2516.700203,-7431.126331,814.226536
5465.782931,2516.700203,-7584.345430,1184.329507
5465.783255,2368.659014,-7660.954980,1036.288319
5465.783579,2294.638420,-7967.393179,592.164754
5465.783903,2368.659014,-7814.174080,518.144159
5465.784228,1850.514855,-7890.783629,370.102971
5465.784552,1776.494261,-7890.783629,222.061783
5465.784876,1702.473667,-8197.221829,518.144159
5465.785200,1406.391290,-7890.783629,74.020594
5465.785525,1628.453072,-8273.831378,0.000000
5465.785849,1258.350101,-8273.831378,0.000000
5465.786173,1184.329507,-8503.660028,-518.144159
5465.786497,1406.391290,-8656.879127,-296.082377
5465.786822,1036.288319,-8503.660028,-814.226536
5465.787146,814.226536,-8810.098227,-740.205942
5465.787470,666.185348,-8733.488677,-888.247130
5465.787794,444.123565,-9193.145976,-888.247130
5465.788118,592.164754,-9116.536426,-1110.308913
5465.788443,-148.041188,-9346.365076,-1406.391290
5465.788767,0.000000,-9729.412825,-1036.288319
5465.789091,-518.144159,-9269.755526,-1480.411884
5465.789415,-296.082377,-9039.926876,-1480.411884
5465.789740,-222.061783,-9576.193725,-1776.494261
5465.790064,-222.061783,-9346.365076,-1258.350101
5465.790388,-370.102971,-9193.145976,-1850.514855
5465.790712,0.000000,-9729.412825,-1480.411884
5465.791037,-222.061783,-9116.536426,-1850.514855
5465.791361,-296.082377,-9806.022374,-1850.514855
5465.791685,-296.082377,-9729.412825,-1850.514855
5465.792009,-666.185348,-9652.803275,-1554.432478
5465.792333,-518.144159,-9959.241474,-1702.473667
5465.792658,-962.267725,-9039.926876,-1924.535449
5465.792982,-740.205942,-9729.412825,-1628.453072
5465.793306,-888.247130,-9269.755526,-1776.494261
5465.793630,-592.164754,-9269.755526,-1184.329507
5465.793955,-666.185348,-9193.145976,-1406.391290
5465.794279,-666.185348,-9422.974625,-1036.288319
5465.794603,-518.144159,-8580.269578,-1036.288319
5465.794927,0.000000,-9193.145976,-962.267725
5465.795251,-148.041188,-8733.488677,-444.123565
5465.795576,-148.041188,-8733.488677,-518.144159
5465.795900,-296.082377,-8580.269578,-518.144159
5465.796224,-370.102971,-8427.050478,74.020594
5465.796548,-148.041188,-8656.879127,-148.041188
5465.796873,-814.226536,-8197.221829,74.020594
5465.797197,-592.164754,-8350.440928,222.061783
5465.797521,-740.205942,-7890.783629,444.123565
5465.797845,0.000000,-7890.783629,518.144159
5465.798170,222.061783,-7660.954980,962.267725
5465.798494,888.247130,-8044.002729,740.205942
5465.798818,888.247130,-7584.345430,1036.288319
5465.799142,1924.535449,-7890.783629,1258.350101
5465.799466,1924.535449,-7507.735880,1036.288319
5465.799791,2072.576638,-7814.174080,1036.288319
5465.800115,1702.473667,-7660.954980,1110.308913
5465.800439,2072.576638,-7890.783629,1480.411884
5465.800763,1850.514855,-8197.221829,1184.329507
5465.801088,1184.329507,-7660.954980,1332.370696
5465.801412,1628.453072,-7737.564530,1110.308913
5465.801736,1628.453072,-7660.954980,1036.288319
5465.802060,2516.700203,-7814.174080,814.226536
5465.802385,1998.556043,-7277.907231,962.267725
5465.802709,2368.659014,-7967.393179,814.226536
5465.803033,2146.597232,-7354.516781,222.061783
5465.803357,2368.659014,-8197.221829,222.061783
5465.803681,1998.556043,-8120.612279,296.082377
5465.804006,1702.473667,-8044.002729,74.020594
5465.804330,1036.288319,-8580.269578,0.000000
5465.804654,888.247130,-8427.050478,-222.061783
5465.804978,666.185348,-8350.440928,0.000000
5465.805303,666.185348,-8350.440928,-740.205942
5465.805627,592.164754,-8503.660028,-518.144159
5465.805951,592.164754,-8580.269578,-592.164754
5465.806275,518.144159,-7890.783629,-1184.329507
5465.806600,444.123565,-8503.660028,-1110.308913
5465.806924,518.144159,-9346.365076,-1480.411884
5465.807248,370.102971,-9346.365076,-1480.411884
5465.807572,518.144159,-9039.926876,-1480.411884
5465.807896,-222.061783,-9269.755526,-1332.370696
5465.808221,-444.123565,-9269.755526,-1628.453072
5465.808545,-148.041188,-9729.412825,-1776.494261
5465.808869,-518.144159,-9576.193725,-1702.473667
5465.809193,-296.082377,-9499.584175,-1406.391290
5465.809518,-666.185348,-9499.584175,-1850.514855
5465.809842,-888.247130,-9729.412825,-1628.453072
5465.810166,-592.164754,-9422.974625,-1924.535449
5465.810490,-222.061783,-9652.803275,-2146.597232
5465.810815,-370.102971,-9269.755526,-1776.494261
5465.811139,-666.185348,-9269.755526,-1776.494261
5465.811463,-518.144159,-9576.193725,-1924.535449
5465.811787,-444.123565,-9269.755526,-1850.514855
5465.812111,-592.164754,-9193.145976,-1702.473667
5465.812436,-962.267725,-9422.974625,-1480.411884
5465.812760,-1110.308913,-9269.755526,-1110.308913
5465.813084,-666.185348,-9116.536426,-1036.288319
5465.813408,-962.267725,-8580.269578,-592.164754
5465.813733,-888.247130,-8886.707777,-962.267725
5465.814057,-814.226536,-8886.707777,-740.205942
5465.814381,-740.205942,-8350.440928,-296.082377
5465.814705,-1258.350101,-8197.221829,-444.123565
5465.815029,-592.164754,-8656.879127,148.041188
5465.815354,-592.164754,-8197.221829,296.082377
5465.815678,-666.185348,-8810.098227,0.000000
5465.816002,-222.061783,-8427.050478,296.082377
5465.816326,74.020594,-8580.269578,1406.391290
5465.816650,148.041188,-7967.393179,444.123565
5465.816975,222.061783,-8044.002729,1258.350101
5465.817299,592.164754,-7890.783629,1036.288319
5465.817623,1258.350101,-8197.221829,1110.308913
5465.817947,1258.350101,-7584.345430,1184.329507
5465.818271,1110.308913,-7890.783629,1406.391290
5465.818596,1184.329507,-7277.907231,1258.350101
5465.818920,1850.514855,-7660.954980,1184.329507
5465.819244,1924.535449,-7660.954980,1258.350101
5465.819568,1850.514855,-7431.126331,1184.329507
5465.819892,2146.597232,-7507.735880,1184.329507
5465.820217,2294.638420,-7660.954980,1184.329507
5465.820541,2738.761985,-8503.660028,1332.370696
5465.820865,2072.576638,-7584.345430,740.205942
5465.821189,2368.659014,-7584.345430,592.164754
5465.821514,2294.638420,-7431.126331,444.123565
5465.821838,1850.514855,-7201.297681,370.102971
5465.822162,1998.556043,-8044.002729,296.082377
5465.822486,1924.535449,-7814.174080,74.020594
5465.822810,1924.535449,-8350.440928,0.000000
5465.823135,1702.473667,-8044.002729,-222.061783
5465.823459,1702.473667,-8350.440928,0.000000
5465.823783,1184.329507,-8273.831378,-370.102971
5465.824107,814.226536,-8580.269578,-814.226536
5465.824431,592.164754,-8963.317327,-1036.288319
5465.824756,740.205942,-8656.879127,-1110.308913
5465.825080,370.102971,-8580.269578,-962.267725
5465.825404,518.144159,-9193.145976,-1184.329507
5465.825728,518.144159,-9269.755526,-1110.308913
5465.826052,740.205942,-9346.365076,-1554.432478
5465.826377,222.061783,-9346.365076,-1702.473667
5465.826701,0.000000,-9652.803275,-1258.350101
5465.827025,-370.102971,-9729.412825,-1628.453072
5465.827349,0.000000,-9652.803275,-1628.453072
5465.827673,-518.144159,-9652.803275,-1924.535449
5465.827998,-444.123565,-9959.241474,-1702.473667
5465.828322,0.000000,-9652.803275,-1776.494261
5465.828646,-296.082377,-9652.803275,-1850.514855
5465.828970,-222.061783,-9652.803275,-2368.659014
