#time,accel_x,accel_y,accel_z
4617.300639,814.226536,-8580.269578,-740.205942
4617.300964,740.205942,-9039.926876,-296.082377
4617.301288,0.000000,-8656.879127,-518.144159
4617.301612,-222.061783,-8810.098227,-296.082377
4617.301937,0.000000,-8427.050478,-592.164754
4617.302261,814.226536,-9039.926876,-370.102971
4617.302585,814.226536,-8350.440928,-518.144159
4617.302910,74.020594,-8810.098227,-740.205942
4617.303234,-296.082377,-9116.536426,-518.144159
4617.303559,222.061783,-8197.221829,-296.082377
4617.303883,222.061783,-8273.831378,-518.144159
4617.304207,592.164754,-8656.879127,-666.185348
4617.304532,0.000000,-8733.488677,-370.102971
4617.304856,296.082377,-8656.879127,-444.123565
4617.305180,222.061783,-8503.660028,-370.102971
4617.305505,592.164754,-9039.926876,-296.082377
4617.305829,1184.329507,-8427.050478,-370.102971
4617.306153,296.082377,-8427.050478,-296.082377
4617.306478,1184.329507,-8580.269578,-666.185348
4617.306802,370.102971,-8197.221829,0.000000
4617.307127,740.205942,-8044.002729,0.000000
4617.307451,740.205942,-8350.440928,74.020594
4617.307775,740.205942,-8350.440928,-592.164754
4617.308100,1036.288319,-8350.440928,-148.041188
4617.308424,148.041188,-7967.393179,-74.020594
4617.308748,666.185348,-8503.660028,-444.123565
4617.309073,296.082377,-8656.879127,-444.123565
4617.309397,296.082377,-8886.707777,-148.041188
4617.309721,666.185348,-8580.269578,-370.102971
4617.310046,666.185348,-8503.660028,-518.144159
4617.310370,592.164754,-8580.269578,-222.061783
4617.310695,1036.288319,-8886.707777,-296.082377
4617.311019,222.061783,-8427.050478,-222.061783
4617.311343,1184.329507,-8503.660028,-296.082377
4617.311668,888.247130,-8044.002729,0.000000
4617.311992,148.041188,-8120.612279,-148.041188
4617.312316,444.123565,-8427.050478,-222.061783
4617.312641,370.102971,-8580.269578,0.000000
4617.312965,74.020594,-8733.488677,-592.164754
4617.313289,518.144159,-8656.879127,0.000000
4617.313614,592.164754,-8120.612279,0.000000
4617.313938,444.123565,-8580.269578,0.000000
4617.314263,814.226536,-8503.660028,-666.185348
4617.314587,222.061783,-8273.831378,0.000000
4617.314911,814.226536,-8810.098227,-444.123565
4617.315236,888.247130,-8580.269578,0.000000
4617.315560,518.144159,-8273.831378,0.000000
4617.315884,518.144159,-8580.269578,-518.144159
4617.316209,740.205942,-8886.707777,-296.082377
4617.316533,518.144159,-8580.269578,-370.102971
4617.316857,518.144159,-8656.879127,-222.061783
4617.317182,444.123565,-8350.440928,0.000000
4617.317506,666.185348,-8350.440928,-222.061783
4617.317831,666.185348,-8580.269578,74.020594
4617.318155,370.102971,-8427.050478,-148.041188
4617.318479,814.226536,-8580.269578,-518.144159
4617.318804,518.144159,-8350.440928,-148.041188
4617.319128,592.164754,-8733.488677,370.102971
4617.319452,444.123565,-8810.098227,-370.102971
4617.319777,370.102971,-8197.221829,-222.061783
4617.320101,518.144159,-8656.879127,-444.123565
4617.320425,666.185348,-8656.879127,-444.123565
4617.320750,148.041188,-8810.098227,-296.082377
4617.321074,0.000000,-8580.269578,-666.185348
4617.321398,148.041188,-8810.098227,-518.144159
4617.321723,370.102971,-8810.098227,-666.185348
4617.322047,888.247130,-8580.269578,-148.041188
4617.322372,592.164754,-8273.831378,-222.061783
4617.322696,518.144159,-8580.269578,-296.082377
4617.323020,0.000000,-8503.660028,-296.082377
4617.323345,740.205942,-8580.269578,148.041188
4617.323669,518.144159,-8656.879127,-518.144159
4617.323993,444.123565,-8580.269578,-222.061783
4617.324318,592.164754,-8503.660028,-370.102971
4617.324642,148.041188,-8656.879127,-444.123565
4617.324966,518.144159,-8886.707777,0.000000
4617.325291,444.123565,-8733.488677,-518.144159
4617.325615,222.061783,-8273.831378,-370.102971
4617.325940,370.102971,-8503.660028,-222.061783
4617.326264,74.020594,-8273.831378,148.041188
4617.326588,592.164754,-8427.050478,-592.164754
4617.326913,370.102971,-8120.612279,-592.164754
4617.327237,444.123565,-8733.488677,-592.164754
4617.327561,518.144159,-7660.954980,0.000000
4617.327886,444.123565,-8350.440928,-222.061783
4617.328210,0.000000,-8656.879127,-518.144159
4617.328534,592.164754,-8810.098227,-518.144159
4617.328859,444.123565,-8810.098227,-1036.288319
4617.329183,370.102971,-8427.050478,-666.185348
4617.329508,444.123565,-8580.269578,-518.144159
4617.329832,592.164754,-8503.660028,-592.164754
4617.330156,592.164754,-8273.831378,-592.164754
4617.330481,444.123565,-8044.002729,-444.123565
4617.330805,222.061783,-8733.488677,-740.205942
4617.331129,666.185348,-8886.707777,-740.205942
4617.331454,222.061783,-8580.269578,-888.247130
4617.331778,222.061783,-8503.660028,-814.226536
4617.332102,518.144159,-8733.488677,-1332.370696
4617.332427,814.226536,-8733.488677,-814.226536
4617.332751,444.123565,-8503.660028,-962.267725
4617.333076,222.061783,-8656.879127,-1036.288319
4617.333400,222.061783,-8427.050478,-962.267725
4617.333724,740.205942,-8503.660028,-592.164754
4617.334049,592.164754,-8733.488677,-1036.288319
4617.334373,814.226536,-8580.269578,-740.205942
4617.334697,0.000000,-8503.660028,-1110.308913
4617.335022,370.102971,-8503.660028,-1258.350101
4617.335346,518.144159,-8503.660028,-814.226536
4617.335670,148.041188,-8503.660028,-814.226536
4617.335995,740.205942,-7967.393179,-814.226536
4617.336319,814.226536,-8427.050478,-740.205942
4617.336644,74.020594,-8886.707777,-888.247130
4617.336968,592.164754,-8580.269578,-740.205942
4617.337292,592.164754,-8197.221829,-666.185348
4617.337617,740.205942,-8733.488677,-962.267725
4617.337941,814.226536,-8427.050478,-740.205942
4617.338265,592.164754,-8733.488677,-592.164754
4617.338590,296.082377,-8580.269578,-518.144159
4617.338914,370.102971,-7967.393179,-444.123565
4617.339238,296.082377,-8963.317327,-666.185348
4617.339563,444.123565,-8273.831378,-296.082377
4617.339887,592.164754,-8427.050478,-666.185348
4617.340212,0.000000,-9116.536426,-370.102971
4617.340536,296.082377,-8427.050478,-222.061783
4617.340860,296.082377,-8656.879127,-296.082377
4617.341185,666.185348,-8580.269578,0.000000
4617.341509,592.164754,-8503.660028,-222.061783
4617.341833,962.267725,-8656.879127,-814.226536
4617.342158,592.164754,-8810.098227,0.000000
4617.342482,518.144159,-8503.660028,-370.102971
4617.342806,74.020594,-8886.707777,-296.082377
4617.343131,370.102971,-9116.536426,-148.041188
4617.343455,0.000000,-8733.488677,74.020594
4617.343780,74.020594,-8886.707777,-296.082377
4617.344104,296.082377,-8503.660028,0.000000
4617.344428,518.144159,-8810.098227,0.000000
4617.344753,518.144159,-8580.269578,-296.082377
4617.345077,370.102971,-8810.098227,74.020594
4617.345401,222.061783,-8503.660028,0.000000
4617.345726,666.185348,-9039.926876,0.000000
4617.346050,0.000000,-8886.707777,-222.061783
4617.346374,148.041188,-8886.707777,0.000000
4617.346699,0.000000,-8580.269578,0.000000
4617.347023,296.082377,-8580.269578,74.020594
4617.347347,370.102971,-8580.269578,-592.164754
4617.347672,370.102971,-8503.660028,0.000000
4617.347996,444.123565,-8503.660028,222.061783
4617.348321,592.164754,-8886.707777,296.082377
4617.348645,592.164754,-8810.098227,296.082377
4617.348969,814.226536,-8963.317327,148.041188
4617.349294,666.185348,-8350.440928,222.061783
4617.349618,296.082377,-8350.440928,296.082377
4617.349942,444.123565,-8580.269578,222.061783
4617.350267,370.102971,-8273.831378,0.000000
4617.350591,222.061783,-8580.269578,74.020594
4617.350915,0.000000,-8350.440928,222.061783
4617.351240,370.102971,-8350.440928,74.020594
4617.351564,740.205942,-9576.193725,222.061783
4617.351889,740.205942,-8580.269578,148.041188
4617.352213,888.247130,-8350.440928,148.041188
4617.352537,888.247130,-8580.269578,0.000000
4617.352862,666.185348,-8733.488677,0.000000
4617.353186,444.123565,-9193.145976,74.020594
4617.353510,444.123565,-8580.269578,74.020594
4617.353835,740.205942,-8580.269578,0.000000
4617.354159,370.102971,-8656.879127,0.000000
4617.354483,370.102971,-9269.755526,74.020594
4617.354808,444.123565,-8580.269578,0.000000
4617.355132,222.061783,-8656.879127,0.000000
4617.355457,74.020594,-8656.879127,0.000000
4617.355781,222.061783,-8733.488677,0.000000
4617.356105,0.000000,-8273.831378,0.000000
4617.356430,148.041188,-8810.098227,0.000000
4617.356754,592.164754,-8733.488677,-148.041188
4617.357078,518.144159,-8427.050478,0.000000
4617.357403,666.185348,-8580.269578,0.000000
4617.357727,518.144159,-8656.879127,-222.061783
4617.358051,444.123565,-8580.269578,-370.102971
4617.358376,222.061783,-8656.879127,-296.082377
4617.358700,370.102971,-8886.707777,-296.082377
4617.359025,148.041188,-8427.050478,0.000000
4617.359349,296.082377,-8580.269578,-370.102971
4617.359673,148.041188,-8427.050478,-296.082377
4617.359998,148.041188,-8963.317327,-592.164754
4617.360322,296.082377,-8580.269578,-518.144159
4617.360646,222.061783,-8120.612279,-296.082377
4617.360970,0.000000,-8810.098227,-444.123565
4617.361295,370.102971,-8427.050478,-740.205942
4617.361619,1036.288319,-8427.050478,-222.061783
4617.361943,296.082377,-8656.879127,-888.247130
4617.362267,444.123565,-8963.317327,-740.205942
4617.362592,444.123565,-8810.098227,-814.226536
4617.362916,370.102971,-8810.098227,-666.185348
4617.363240,148.041188,-8427.050478,-1036.288319
4617.363564,222.061783,-8733.488677,-518.144159
4617.363889,296.082377,-8427.050478,-444.123565
4617.364213,370.102971,-8656.879127,-444.123565
4617.364537,444.123565,-8963.317327,-518.144159
4617.364861,518.144159,-8503.660028,-592.164754
4617.365186,444.123565,-8886.707777,-666.185348
4617.365510,740.205942,-8810.098227,-666.185348
4617.365834,444.123565,-7967.393179,-222.061783
4617.366158,296.082377,-8656.879127,-666.185348
4617.366483,296.082377,-8503.660028,-740.205942
4617.366807,222.061783,-8656.879127,-740.205942
4617.367131,518.144159,-8810.098227,-962.267725
4617.367455,370.102971,-8427.050478,-740.205942
4617.367780,296.082377,-8656.879127,-740.205942
4617.368104,296.082377,-8733.488677,-740.205942
4617.368428,296.082377,-8427.050478,-814.226536
4617.368752,740.205942,-8886.707777,-592.164754
4617.369077,592.164754,-8886.707777,-592.164754
4617.369401,666.185348,-8810.098227,-518.144159
4617.369725,814.226536,-8810.098227,-592.164754
4617.370049,1184.329507,-8350.440928,-666.185348
4617.370374,740.205942,-8733.488677,-814.226536
4617.370698,444.123565,-8350.440928,-740.205942
4617.371022,222.061783,-8580.269578,-888.247130
4617.371346,370.102971,-8120.612279,-1184.329507
4617.371671,0.000000,-8427.050478,-814.226536
4617.371995,0.000000,-8197.221829,-740.205942
4617.372319,0.000000,-8580.269578,-370.102971
4617.372643,296.082377,-8656.879127,-296.082377
4617.372968,888.247130,-8886.707777,-296.082377
4617.373292,888.247130,-8503.660028,-296.082377
4617.373616,740.205942,-8733.488677,-296.082377
4617.373940,444.123565,-8503.660028,-666.185348
4617.374265,1110.308913,-8120.612279,222.061783
4617.374589,0.000000,-8350.440928,-444.123565
4617.374913,74.020594,-8886.707777,-296.082377
4617.375237,0.000000,-8656.879127,-148.041188
4617.375562,148.041188,-8886.707777,0.000000
4617.375886,148.041188,-8580.269578,74.020594
4617.376210,148.041188,-8810.098227,592.164754
4617.376534,370.102971,-9039.926876,518.144159
4617.376858,814.226536,-8656.879127,370.102971
4617.377183,1406.391290,-8580.269578,74.020594
4617.377507,888.247130,-8580.269578,222.061783
4617.377831,888.247130,-8580.269578,0.000000
4617.378155,370.102971,-8580.269578,0.000000
4617.378480,222.061783,-8044.002729,0.000000
4617.378804,0.000000,-8656.879127,74.020594
4617.379128,-222.061783,-8656.879127,0.000000
4617.379452,-148.041188,-8810.098227,370.102971
4617.379777,0.000000,-8273.831378,296.082377
4617.380101,888.247130,-8503.660028,296.082377
4617.380425,666.185348,-8733.488677,222.061783
4617.380749,740.205942,-8886.707777,518.144159
4617.381074,814.226536,-8656.879127,74.020594
4617.381398,666.185348,-8886.707777,814.226536
4617.381722,148.041188,-8427.050478,222.061783
4617.382046,74.020594,-8656.879127,296.082377
4617.382371,74.020594,-8273.831378,0.000000
4617.382695,370.102971,-8503.660028,370.102971
4617.383019,222.061783,-8427.050478,444.123565
4617.383343,222.061783,-8580.269578,444.123565
4617.383668,592.164754,-8427.050478,518.144159
4617.383992,592.164754,-8503.660028,444.123565
4617.384316,814.226536,-8810.098227,814.226536
4617.384640,740.205942,-8350.440928,444.123565
4617.384965,888.247130,-8503.660028,666.185348
4617.385289,518.144159,-8810.098227,370.102971
4617.385613,962.267725,-8580.269578,370.102971
4617.385937,592.164754,-8580.269578,0.000000
4617.386262,370.102971,-8580.269578,0.000000
4617.386586,370.102971,-8656.879127,0.000000
4617.386910,370.102971,-7507.735880,0.000000
4617.387234,444.123565,-8427.050478,222.061783
4617.387559,0.000000,-8350.440928,222.061783
4617.387883,296.082377,-8656.879127,74.020594
4617.388207,222.061783,-8273.831378,370.102971
4617.388531,444.123565,-8656.879127,0.000000
4617.388856,296.082377,-8963.317327,74.020594
4617.389180,444.123565,-8427.050478,370.102971
4617.389504,518.144159,-8427.050478,222.061783
4617.389828,296.082377,-9422.974625,74.020594
4617.390153,0.000000,-8503.660028,0.000000
4617.390477,0.000000,-8580.269578,74.020594
4617.390801,222.061783,-8350.440928,-296.082377
4617.391125,0.000000,-8580.269578,-296.082377
4617.391450,518.144159,-8580.269578,148.041188
4617.391774,666.185348,-8656.879127,148.041188
4617.392098,370.102971,-9039.926876,0.000000
4617.392422,444.123565,-8963.317327,222.061783
4617.392746,370.102971,-8503.660028,74.020594
4617.393071,0.000000,-9346.365076,-222.061783
4617.393395,222.061783,-8273.831378,0.000000
4617.393719,148.041188,-8580.269578,0.000000
4617.394043,518.144159,-8427.050478,-444.123565
4617.394368,74.020594,-8503.660028,-444.123565
4617.394692,296.082377,-8350.440928,-518.144159
4617.395016,222.061783,-8427.050478,-370.102971
4617.395340,370.102971,-8273.831378,-370.102971
4617.395665,-148.041188,-8503.660028,-370.102971
4617.395989,222.061783,-8733.488677,-222.061783
4617.396313,0.000000,-8427.050478,-148.041188
4617.396637,370.102971,-8810.098227,-370.102971
4617.396962,296.082377,-8120.612279,-666.185348
4617.397286,370.102971,-8350.440928,-370.102971
4617.397610,518.144159,-8273.831378,-1036.288319
4617.397934,518.144159,-8350.440928,-962.267725
4617.398259,592.164754,-8580.269578,-962.267725
4617.398583,740.205942,-8350.440928,-814.226536
4617.398907,444.123565,-8503.660028,-814.226536
4617.399231,444.123565,-8656.879127,-592.164754
4617.399556,888.247130,-8580.269578,-222.061783
4617.399880,296.082377,-8886.707777,-444.123565
4617.400204,666.185348,-8656.879127,-370.102971
4617.400528,740.205942,-8273.831378,-296.082377
4617.400853,518.144159,-8733.488677,-592.164754
4617.401177,666.185348,-9039.926876,-1184.329507
4617.401501,518.144159,-8503.660028,-666.185348
4617.401825,370.102971,-8580.269578,-962.267725
4617.402150,518.144159,-8273.831378,-814.226536
4617.402474,370.102971,-9269.755526,-518.144159
4617.402798,666.185348,-8580.269578,-666.185348
4617.403122,444.123565,-8580.269578,-518.144159
4617.403447,370.102971,-9193.145976,-666.185348
4617.403771,370.102971,-8886.707777,-370.102971
4617.404095,518.144159,-8886.707777,-444.123565
4617.404419,518.144159,-8656.879127,-740.205942
4617.404744,592.164754,-8810.098227,-740.205942
4617.405068,666.185348,-8656.879127,-740.205942
4617.405392,592.164754,-8963.317327,-666.185348
4617.405716,518.144159,-8350.440928,-592.164754
4617.406041,370.102971,-8503.660028,-888.247130
4617.406365,148.041188,-8427.050478,-518.144159
4617.406689,222.061783,-8580.269578,-1184.329507
4617.407013,222.061783,-8656.879127,-518.144159
4617.407338,222.061783,-8656.879127,-444.123565
4617.407662,74.020594,-8580.269578,-666.185348
4617.407986,370.102971,-8273.831378,-962.267725
4617.408310,444.123565,-8886.707777,-518.144159
4617.408634,592.164754,-8810.098227,-962.267725
4617.408959,296.082377,-8350.440928,-888.247130
4617.409283,444.123565,-8580.269578,-814.226536
4617.409607,222.061783,-9116.536426,-888.247130
4617.409931,148.041188,-8350.440928,-1110.308913
4617.410256,74.020594,-8733.488677,-1036.288319
4617.410580,222.061783,-8963.317327,-888.247130
4617.410904,74.020594,-8503.660028,-814.226536
4617.411228,222.061783,-9039.926876,-666.185348
4617.411553,222.061783,-8886.707777,-592.164754
4617.411877,74.020594,-8427.050478,-814.226536
4617.412201,296.082377,-8733.488677,-962.267725
4617.412525,518.144159,-8427.050478,-740.205942
4617.412850,444.123565,-8733.488677,-1036.288319
4617.413174,222.061783,-8580.269578,-1110.308913
4617.413498,370.102971,-8427.050478,-962.267725
4617.413822,666.185348,-9269.755526,-888.247130
4617.414147,518.144159,-8580.269578,-814.226536
4617.414471,592.164754,-8656.879127,-518.144159
4617.414795,148.041188,-8427.050478,-592.164754
4617.415119,74.020594,-8120.612279,-370.102971
4617.415444,592.164754,-8810.098227,-740.205942
4617.415768,740.205942,-8886.707777,-370.102971
4617.416092,666.185348,-8350.440928,-518.144159
4617.416416,592.164754,-8810.098227,-370.102971
4617.416741,1036.288319,-8886.707777,-592.164754
4617.417065,1110.308913,-8580.269578,-370.102971
4617.417389,592.164754,-8503.660028,-666.185348
4617.417713,370.102971,-8656.879127,-296.082377
4617.418038,518.144159,-8427.050478,0.000000
4617.418362,370.102971,-8733.488677,-296.082377
4617.418686,666.185348,-8273.831378,-666.185348
4617.419010,740.205942,-8350.440928,-148.041188
4617.419335,888.247130,-8656.879127,0.000000
4617.419659,518.144159,-8503.660028,0.000000
4617.419983,444.123565,-8733.488677,0.000000
4617.420307,74.020594,-8503.660028,0.000000
4617.420632,148.041188,-8273.831378,-296.082377
4617.420956,222.061783,-8963.317327,148.041188
4617.421280,370.102971,-8350.440928,-222.061783
4617.421604,888.247130,-8810.098227,0.000000
4617.421929,666.185348,-8273.831378,-370.102971
4617.422253,592.164754,-8963.317327,-222.061783
4617.422577,518.144159,-8503.660028,-222.061783
4617.422901,222.061783,-8427.050478,-296.082377
4617.423225,0.000000,-8733.488677,370.102971
4617.423550,296.082377,-8733.488677,-444.123565
4617.423874,518.144159,-8580.269578,0.000000
4617.424198,740.205942,-8656.879127,-370.102971
4617.424522,962.267725,-8503.660028,74.020594
4617.424847,740.205942,-8810.098227,-148.041188
4617.425171,444.123565,-8580.269578,148.041188
4617.425495,444.123565,-8120.612279,-592.164754
4617.425819,444.123565,-8580.269578,-222.061783
4617.426144,592.164754,-8427.050478,-296.082377
4617.426468,222.061783,-8580.269578,-518.144159
4617.426792,518.144159,-8886.707777,-592.164754
4617.427116,518.144159,-9116.536426,-592.164754
4617.427441,518.144159,-9193.145976,-592.164754
4617.427765,148.041188,-9193.145976,-666.185348
4617.428089,370.102971,-8656.879127,0.000000
4617.428413,296.082377,-8656.879127,-444.123565
4617.428738,222.061783,-8580.269578,-444.123565
4617.429062,444.123565,-8580.269578,-370.102971
4617.429386,148.041188,-8656.879127,-296.082377
4617.429710,666.185348,-8963.317327,-518.144159
4617.430035,296.082377,-8580.269578,-592.164754
4617.430359,444.123565,-8810.098227,-740.205942
4617.430683,222.061783,-8810.098227,-444.123565
4617.431007,74.020594,-8427.050478,-592.164754
4617.431332,444.123565,-8580.269578,-666.185348
4617.431656,370.102971,-8273.831378,-518.144159
4617.431980,740.205942,-8886.707777,-518.144159
4617.432304,1036.288319,-8580.269578,-1036.288319
4617.432629,888.247130,-8503.660028,-666.185348
4617.432953,740.205942,-8580.269578,-740.205942
4617.433277,518.144159,-8503.660028,-518.144159
4617.433601,148.041188,-8733.488677,-962.267725
4617.433926,0.000000,-8503.660028,-814.226536
4617.434250,222.061783,-8503.660028,-1036.288319
4617.434574,148.041188,-8886.707777,-814.226536
4617.434898,370.102971,-8503.660028,-1332.370696
4617.435223,296.082377,-8656.879127,-740.205942
4617.435547,518.144159,-8886.707777,-1184.329507
4617.435871,296.082377,-8580.269578,-1110.308913
4617.436195,518.144159,-8656.879127,-1036.288319
4617.436520,592.164754,-8733.488677,-592.164754
4617.436844,222.061783,-8197.221829,-740.205942
4617.437168,0.000000,-8733.488677,-1332.370696
4617.437492,296.082377,-8503.660028,-962.267725
4617.437817,518.144159,-8427.050478,-1036.288319
4617.438141,592.164754,-8503.660028,-1184.329507
4617.438465,444.123565,-8503.660028,-888.247130
4617.438789,296.082377,-8580.269578,-814.226536
4617.439113,296.082377,-8580.269578,-1110.308913
4617.439438,666.185348,-8580.269578,-1184.329507
4617.439762,444.123565,-8810.098227,-888.247130
4617.440086,370.102971,-8810.098227,-1036.288319
4617.440410,814.226536,-8580.269578,-962.267725
4617.440735,888.247130,-8656.879127,-1110.308913
4617.441059,592.164754,-8427.050478,-962.267725
4617.441383,0.000000,-8350.440928,-962.267725
4617.441707,74.020594,-8656.879127,-740.205942
4617.442032,148.041188,-8580.269578,-740.205942
4617.442356,0.000000,-8733.488677,-740.205942
4617.442680,148.041188,-8733.488677,-592.164754
4617.443004,74.020594,-8580.269578,-740.205942
4617.443329,148.041188,-8810.098227,-814.226536
4617.443653,592.164754,-8503.660028,-370.102971
4617.443977,148.041188,-8427.050478,-296.082377
4617.444301,222.061783,-9193.145976,-518.144159
4617.444626,222.061783,-8656.879127,-740.205942
4617.444950,74.020594,-8427.050478,0.000000
4617.445274,148.041188,-8350.440928,-666.185348
4617.445598,222.061783,-8580.269578,-518.144159
4617.445923,592.164754,-8503.660028,-740.205942
4617.446247,592.164754,-8810.098227,-518.144159
4617.446571,370.102971,-8503.660028,-666.185348
4617.446895,666.185348,-8886.707777,-370.102971
4617.447220,666.185348,-8350.440928,0.000000
4617.447544,0.000000,-8350.440928,0.000000
4617.447868,518.144159,-8120.612279,0.000000
4617.448192,592.164754,-8273.831378,148.041188
4617.448517,888.247130,-8810.098227,-518.144159
4617.448841,740.205942,-8656.879127,-148.041188
4617.449165,666.185348,-8197.221829,0.000000
4617.449489,740.205942,-8427.050478,0.000000
4617.449814,740.205942,-8580.269578,0.000000
4617.450138,518.144159,-8350.440928,148.041188
4617.450462,740.205942,-8427.050478,0.000000
4617.450786,740.205942,-8350.440928,74.020594
4617.451111,666.185348,-8656.879127,0.000000
4617.451435,962.267725,-8963.317327,0.000000
4617.451759,592.164754,-8503.660028,0.000000
4617.452083,1184.329507,-9269.755526,0.000000
4617.452408,518.144159,-8810.098227,0.000000
4617.452732,444.123565,-8733.488677,-222.061783
4617.453056,222.061783,-8503.660028,0.000000
4617.453380,0.000000,-7660.954980,0.000000
4617.453705,296.082377,-8886.707777,-296.082377
4617.454029,148.041188,-8810.098227,-370.102971
4617.454353,222.061783,-8656.879127,-222.061783
4617.454677,222.061783,-8580.269578,-222.061783
4617.455001,148.041188,-8427.050478,-370.102971
4617.455326,74.020594,-8733.488677,-148.041188
4617.455650,0.000000,-8350.440928,-370.102971
4617.455974,222.061783,-8733.488677,-370.102971
4617.456298,222.061783,-8350.440928,-592.164754
4617.456623,0.000000,-8427.050478,-518.144159
4617.456947,592.164754,-8580.269578,-296.082377
4617.457271,444.123565,-8886.707777,-518.144159
4617.457595,148.041188,-8886.707777,74.020594
4617.457920,222.061783,-8197.221829,-148.041188
4617.458244,296.082377,-8580.269578,0.000000
4617.458568,222.061783,-8273.831378,-370.102971
4617.458892,296.082377,-8580.269578,-222.061783
4617.459217,370.102971,-8503.660028,-518.144159
4617.459541,592.164754,-8503.660028,0.000000
4617.459865,592.164754,-8350.440928,0.000000
4617.460189,296.082377,-8580.269578,148.041188
4617.460514,666.185348,-8197.221829,-296.082377
4617.460838,370.102971,-8503.660028,-222.061783
4617.461162,222.061783,-8120.612279,-222.061783
4617.461487,444.123565,-8963.317327,0.000000
4617.461811,592.164754,-8350.440928,-592.164754
4617.462135,518.144159,-9039.926876,-148.041188
4617.462460,370.102971,-8733.488677,-296.082377
4617.462784,518.144159,-8733.488677,-222.061783
4617.463108,74.020594,-8656.879127,0.000000
4617.463433,0.000000,-8733.488677,74.020594
4617.463757,74.020594,-8810.098227,-222.061783
4617.464081,148.041188,-8656.879127,-592.164754
4617.464406,444.123565,-8733.488677,0.000000
4617.464730,1036.288319,-8656.879127,-296.082377
4617.465054,518.144159,-9039.926876,-370.102971
4617.465379,740.205942,-8580.269578,-592.164754
4617.465703,518.144159,-8580.269578,-370.102971
4617.466027,740.205942,-9116.536426,-370.102971
4617.466352,444.123565,-8350.440928,-296.082377
4617.466676,296.082377,-8963.317327,0.000000
4617.467000,666.185348,-8120.612279,-296.082377
4617.467325,1184.329507,-8580.269578,-222.061783
4617.467649,962.267725,-8733.488677,-592.164754
4617.467973,814.226536,-8886.707777,0.000000
4617.468298,370.102971,-8503.660028,-370.102971
4617.468622,296.082377,-8503.660028,0.000000
4617.468946,222.061783,-8503.660028,-296.082377
4617.469271,444.123565,-8580.269578,-518.144159
4617.469595,0.000000,-8810.098227,-518.144159
4617.469919,0.000000,-8580.269578,-222.061783
4617.470244,0.000000,-9039.926876,-518.144159
4617.470568,0.000000,-8503.660028,-592.164754
4617.470893,74.020594,-8350.440928,-296.082377
4617.471217,222.061783,-8656.879127,-370.102971
4617.471541,222.061783,-9039.926876,0.000000
4617.471866,148.041188,-8503.660028,-518.144159
4617.472190,740.205942,-8963.317327,0.000000
4617.472514,370.102971,-8503.660028,-222.061783
4617.472839,740.205942,-8886.707777,-222.061783
4617.473163,444.123565,-8886.707777,148.041188
4617.473487,1110.308913,-8580.269578,-296.082377
4617.473812,592.164754,-8580.269578,148.041188
4617.474136,518.144159,-8273.831378,-370.102971
4617.474460,222.061783,-8656.879127,0.000000
4617.474785,222.061783,-8427.050478,0.000000
4617.475109,444.123565,-8503.660028,0.000000
4617.475433,518.144159,-8886.707777,-444.123565
4617.475758,148.041188,-8656.879127,0.000000
4617.476082,666.185348,-8350.440928,0.000000
4617.476406,296.082377,-8656.879127,74.020594
4617.476731,592.164754,-8503.660028,74.020594
4617.477055,74.020594,-8503.660028,0.000000
4617.477379,0.000000,-8580.269578,-148.041188
4617.477704,370.102971,-8273.831378,-370.102971
4617.478028,444.123565,-8580.269578,-74.020594
4617.478352,148.041188,-8273.831378,0.000000
4617.478677,370.102971,-8656.879127,0.000000
4617.479001,370.102971,-8427.050478,-296.082377
4617.479325,222.061783,-8273.831378,222.061783
4617.479650,296.082377,-8427.050478,-222.061783
4617.479974,296.082377,-8733.488677,0.000000
4617.480298,666.185348,-8427.050478,-148.041188
4617.480623,592.164754,-8350.440928,-296.082377
4617.480947,962.267725,-8580.269578,-148.041188
4617.481271,740.205942,-8273.831378,-296.082377
4617.481596,888.247130,-8656.879127,0.000000
4617.481920,1036.288319,-8120.612279,-592.164754
4617.482245,666.185348,-8656.879127,0.000000
4617.482569,148.041188,-8580.269578,-148.041188
4617.482893,0.000000,-8733.488677,0.000000
4617.483218,888.247130,-8503.660028,0.000000
4617.483542,814.226536,-8427.050478,-222.061783
4617.483866,666.185348,-8963.317327,0.000000
4617.484191,518.144159,-8503.660028,0.000000
4617.484515,666.185348,-9422.974625,-518.144159
4617.484839,740.205942,-8733.488677,0.000000
4617.485164,222.061783,-8810.098227,-296.082377
4617.485488,-296.082377,-8886.707777,-222.061783
4617.485812,0.000000,-8656.879127,-296.082377
4617.486137,740.205942,-9499.584175,0.000000
4617.486461,74.020594,-8656.879127,-296.082377
4617.486785,444.123565,-8580.269578,-296.082377
4617.487110,222.061783,-9346.365076,-370.102971
4617.487434,148.041188,-9499.584175,74.020594
4617.487758,518.144159,-8886.707777,0.000000
4617.488083,-296.082377,-7890.783629,-222.061783
4617.488407,148.041188,-8810.098227,0.000000
4617.488731,740.205942,-8427.050478,-296.082377
4617.489056,296.082377,-9039.926876,-592.164754
4617.489380,592.164754,-9269.755526,0.000000
4617.489704,296.082377,-8427.050478,0.000000
4617.490029,148.041188,-8197.221829,74.020594
4617.490353,0.000000,-8733.488677,148.041188
4617.490677,0.000000,-9039.926876,0.000000
4617.491002,518.144159,-9499.584175,0.000000
4617.491326,370.102971,-8427.050478,0.000000
4617.491650,0.000000,-8273.831378,1036.288319
4617.491975,222.061783,-8197.221829,-370.102971
4617.492299,1110.308913,-9116.536426,0.000000
4617.492623,0.000000,-9039.926876,-518.144159
4617.492948,-296.082377,-9576.193725,-296.082377
4617.493272,0.000000,-8197.221829,0.000000
4617.493597,0.000000,-8044.002729,222.061783
4617.493921,444.123565,-8503.660028,-148.041188
4617.494245,74.020594,-8963.317327,222.061783
4617.494570,222.061783,-8963.317327,0.000000
4617.494894,0.000000,-8580.269578,0.000000
4617.495218,74.020594,-7814.174080,222.061783
4617.495543,1036.288319,-8886.707777,0.000000
4617.495867,1036.288319,-8350.440928,518.144159
4617.496191,0.000000,-8273.831378,296.082377
4617.496516,-148.041188,-8886.707777,-296.082377
4617.496840,370.102971,-8197.221829,0.000000
4617.497164,518.144159,-8656.879127,-444.123565
4617.497489,1406.391290,-8273.831378,0.000000
4617.497813,0.000000,-8120.612279,-148.041188
4617.498137,74.020594,-8656.879127,74.020594
4617.498462,814.226536,-8044.002729,-666.185348
4617.498786,1036.288319,-9116.536426,0.000000
4617.499110,-222.061783,-7737.564530,0.000000
4617.499435,962.267725,-8810.098227,0.000000
4617.499759,666.185348,-8810.098227,-444.123565
4617.500083,666.185348,-9116.536426,0.000000
4617.500408,74.020594,-8810.098227,-222.061783
4617.500732,0.000000,-8810.098227,0.000000
4617.501056,518.144159,-8427.050478,-740.205942
4617.501381,518.144159,-8963.317327,0.000000
4617.501705,-222.061783,-8503.660028,-962.267725
4617.502029,-518.144159,-8810.098227,-222.061783
4617.502354,296.082377,-8427.050478,-888.247130
4617.502678,962.267725,-8733.488677,-666.185348
4617.503002,444.123565,-8120.612279,-222.061783
4617.503327,-370.102971,-8886.707777,-666.185348
4617.503651,370.102971,-8886.707777,-666.185348
4617.503975,222.061783,-8810.098227,-370.102971
4617.504300,592.164754,-8886.707777,-518.144159
4617.504624,-74.020594,-8273.831378,0.000000
4617.504949,0.000000,-8886.707777,-1258.350101
4617.505273,148.041188,-8963.317327,-518.144159
4617.505597,370.102971,-8503.660028,-1406.391290
4617.505922,814.226536,-9269.755526,0.000000
4617.506246,814.226536,-8197.221829,-518.144159
4617.506570,222.061783,-8656.879127,-148.041188
4617.506895,296.082377,-8503.660028,-1184.329507
4617.507219,148.041188,-9422.974625,222.061783
4617.507543,592.164754,-7890.783629,-1184.329507
4617.507868,296.082377,-8733.488677,444.123565
4617.508192,296.082377,-8120.612279,-1258.350101
4617.508516,814.226536,-9269.755526,-592.164754
4617.508841,74.020594,-8810.098227,-1036.288319
4617.509165,-148.041188,-9269.755526,-740.205942
4617.509489,-1036.288319,-8963.317327,-592.164754
4617.509814,222.061783,-8427.050478,-740.205942
4617.510138,148.041188,-8120.612279,0.000000
4617.510462,222.061783,-8503.660028,-592.164754
4617.510787,-222.061783,-8886.707777,-592.164754
4617.511111,0.000000,-8656.879127,-518.144159
4617.511435,814.226536,-8886.707777,-444.123565
4617.511760,222.061783,-8350.440928,-222.061783
4617.512084,148.041188,-8810.098227,0.000000
4617.512408,518.144159,-8656.879127,-1036.288319
4617.512733,296.082377,-8733.488677,-148.041188
4617.513057,370.102971,-7967.393179,-222.061783
4617.513381,666.185348,-8580.269578,0.000000
4617.513706,592.164754,-8273.831378,-518.144159
4617.514030,1628.453072,-8733.488677,-370.102971
4617.514354,1036.288319,-9269.755526,-296.082377
4617.514679,1036.288319,-8350.440928,74.020594
4617.515003,370.102971,-8273.831378,74.020594
4617.515327,0.000000,-7814.174080,-148.041188
4617.515652,740.205942,-9039.926876,-296.082377
4617.515976,444.123565,-8350.440928,-444.123565
4617.516300,444.123565,-8580.269578,-518.144159
4617.516625,666.185348,-7967.393179,74.020594
4617.516949,518.144159,-8656.879127,-444.123565
4617.517274,888.247130,-8810.098227,-296.082377
4617.517598,222.061783,-8044.002729,-444.123565
4617.517922,0.000000,-8810.098227,-148.041188
4617.518247,0.000000,-8656.879127,-740.205942
4617.518571,518.144159,-8580.269578,0.000000
4617.518895,296.082377,-7967.393179,-666.185348
4617.519220,0.000000,-8427.050478,-444.123565
4617.519544,814.226536,-8427.050478,0.000000
4617.519868,592.164754,-8656.879127,148.041188
4617.520193,222.061783,-8427.050478,-518.144159
4617.520517,148.041188,-8120.612279,-592.164754
4617.520841,518.144159,-8197.221829,-296.082377
4617.521166,1554.432478,-8580.269578,-370.102971
4617.521490,814.226536,-8503.660028,-740.205942
4617.521814,74.020594,-8963.317327,-518.144159
4617.522139,518.144159,-8427.050478,-666.185348
4617.522463,370.102971,-8886.707777,0.000000
4617.522787,814.226536,-8197.221829,-370.102971
4617.523112,444.123565,-9116.536426,-222.061783
4617.523436,370.102971,-8350.440928,-222.061783
4617.523760,962.267725,-8580.269578,-370.102971
4617.524085,444.123565,-8733.488677,0.000000
4617.524409,740.205942,-8273.831378,-592.164754
4617.524733,888.247130,-8580.269578,-666.185348
4617.525058,666.185348,-8273.831378,-222.061783
4617.525382,592.164754,-8273.831378,-444.123565
4617.525706,518.144159,-9422.974625,0.000000
4617.526031,222.061783,-8427.050478,-592.164754
4617.526355,1110.308913,-9039.926876,-296.082377
4617.526679,518.144159,-8580.269578,-666.185348
4617.527004,666.185348,-8273.831378,-444.123565
4617.527328,1036.288319,-8886.707777,-222.061783
4617.527652,666.185348,-8427.050478,-592.164754
4617.527977,1036.288319,-8350.440928,-518.144159
4617.528301,592.164754,-8044.002729,-296.082377
4617.528626,814.226536,-8580.269578,-370.102971
4617.528950,444.123565,-8273.831378,-296.082377
4617.529274,518.144159,-8503.660028,-666.185348
4617.529599,444.123565,-8656.879127,-518.144159
4617.529923,888.247130,-8886.707777,-444.123565
4617.530247,1184.329507,-8197.221829,-296.082377
4617.530572,740.205942,-8350.440928,-74.020594
4617.530896,0.000000,-8963.317327,-518.144159
4617.531220,666.185348,-8044.002729,-222.061783
4617.531545,444.123565,-7890.783629,-74.020594
4617.531869,370.102971,-8886.707777,-518.144159
4617.532193,666.185348,-8886.707777,-592.164754
4617.532518,740.205942,-9116.536426,-518.144159
4617.532842,0.000000,-8733.488677,-592.164754
4617.533166,370.102971,-8580.269578,-666.185348
4617.533491,-222.061783,-9422.974625,-666.185348
4617.533815,222.061783,-8733.488677,-666.185348
4617.534139,0.000000,-8427.050478,-740.205942
4617.534464,0.000000,-8733.488677,-740.205942
4617.534788,148.041188,-8810.098227,-814.226536
4617.535112,296.082377,-8810.098227,-592.164754
4617.535437,296.082377,-8273.831378,-814.226536
4617.535761,444.123565,-8273.831378,-592.164754
4617.536085,666.185348,-8656.879127,-518.144159
4617.536410,518.144159,-8656.879127,-962.267725
4617.536734,0.000000,-8886.707777,-370.102971
4617.537058,0.000000,-8503.660028,-592.164754
4617.537383,296.082377,-8580.269578,-222.061783
4617.537707,370.102971,-8197.221829,-814.226536
4617.538031,888.247130,-9269.755526,-666.185348
4617.538356,592.164754,-8963.317327,-962.267725
4617.538680,296.082377,-8656.879127,-296.082377
4617.539004,222.061783,-8427.050478,-370.102971
4617.539329,222.061783,-8810.098227,-296.082377
4617.539653,370.102971,-8656.879127,-592.164754
4617.539978,296.082377,-8810.098227,-370.102971
4617.540302,296.082377,-8580.269578,-370.102971
4617.540626,370.102971,-8503.660028,-666.185348
4617.540951,666.185348,-8273.831378,-444.123565
4617.541275,888.247130,-8733.488677,-666.185348
4617.541599,518.144159,-8273.831378,-518.144159
4617.541924,370.102971,-8273.831378,-296.082377
4617.542248,370.102971,-8350.440928,-296.082377
4617.542572,962.267725,-9193.145976,-444.123565
4617.542897,370.102971,-8503.660028,-666.185348
4617.543221,222.061783,-8350.440928,-444.123565
4617.543545,592.164754,-8503.660028,-592.164754
4617.543870,592.164754,-8886.707777,-666.185348
4617.544194,592.164754,-8503.660028,-444.123565
4617.544518,296.082377,-8503.660028,-296.082377
4617.544843,222.061783,-8656.879127,-740.205942
4617.545167,296.082377,-8810.098227,-296.082377
4617.545491,74.020594,-8273.831378,-222.061783
4617.545816,888.247130,-8810.098227,-370.102971
4617.546140,666.185348,-8580.269578,-518.144159
4617.546464,1036.288319,-8656.879127,-444.123565
4617.546789,888.247130,-9652.803275,-444.123565
4617.547113,888.247130,-8810.098227,-518.144159
4617.547437,296.082377,-8886.707777,-592.164754
4617.547762,666.185348,-8350.440928,-222.061783
4617.548086,222.061783,-8273.831378,-444.123565
4617.548410,518.144159,-8810.098227,-666.185348
4617.548735,518.144159,-8427.050478,-666.185348
4617.549059,444.123565,-8810.098227,-592.164754
4617.549383,666.185348,-8963.317327,-888.247130
4617.549708,370.102971,-9039.926876,-740.205942
4617.550032,222.061783,-8810.098227,-592.164754
4617.550356,-222.061783,-8580.269578,-740.205942
4617.550681,370.102971,-8886.707777,-518.144159
4617.551005,444.123565,-8810.098227,-666.185348
4617.551330,518.144159,-8656.879127,-370.102971
4617.551654,592.164754,-8810.098227,-1184.329507
4617.551978,296.082377,-8656.879127,-592.164754
4617.552303,296.082377,-8120.612279,-370.102971
4617.552627,666.185348,-8810.098227,-518.144159
4617.552951,370.102971,-8733.488677,-666.185348
4617.553276,0.000000,-8656.879127,-222.061783
4617.553600,74.020594,-8580.269578,-148.041188
4617.553924,740.205942,-9039.926876,-148.041188
4617.554249,592.164754,-8656.879127,-666.185348
4617.554573,1036.288319,-8810.098227,-370.102971
4617.554897,814.226536,-8273.831378,-444.123565
4617.555222,370.102971,-9039.926876,-666.185348
4617.555546,148.041188,-8580.269578,-148.041188
4617.555870,-222.061783,-8503.660028,-222.061783
4617.556195,-222.061783,-8580.269578,-592.164754
4617.556519,0.000000,-8503.660028,-148.041188
4617.556843,296.082377,-8810.098227,-296.082377
4617.557168,74.020594,-8273.831378,-296.082377
4617.557492,518.144159,-8580.269578,-148.041188
4617.557816,370.102971,-8120.612279,0.000000
4617.558141,962.267725,-7660.954980,148.041188
4617.558465,222.061783,-8273.831378,-222.061783
4617.558789,296.082377,-8656.879127,-148.041188
4617.559114,370.102971,-8503.660028,0.000000
4617.559438,296.082377,-8350.440928,-148.041188
4617.559762,222.061783,-8503.660028,-444.123565
4617.560087,444.123565,-8886.707777,-148.041188
4617.560411,666.185348,-8427.050478,0.000000
4617.560735,518.144159,-8427.050478,74.020594
4617.561060,296.082377,-8350.440928,-592.164754
4617.561384,814.226536,-8503.660028,0.000000
4617.561709,444.123565,-8273.831378,0.000000
4617.562033,148.041188,-8886.707777,0.000000
4617.562357,370.102971,-8580.269578,-1110.308913
4617.562682,370.102971,-8580.269578,0.000000
4617.563006,444.123565,-8886.707777,-222.061783
4617.563330,0.000000,-8656.879127,0.000000
4617.563655,296.082377,-8963.317327,-370.102971
4617.563979,222.061783,-8580.269578,0.000000
4617.564304,0.000000,-8350.440928,-444.123565
4617.564628,222.061783,-8427.050478,-370.102971
4617.564952,222.061783,-8503.660028,0.000000
4617.565277,592.164754,-8427.050478,-222.061783
4617.565601,518.144159,-8886.707777,-518.144159
4617.565926,518.144159,-8427.050478,-444.123565
4617.566250,370.102971,-8886.707777,-296.082377
4617.566574,888.247130,-8886.707777,-518.144159
4617.566899,518.144159,-8656.879127,-592.164754
4617.567223,518.144159,-8503.660028,-518.144159
4617.567547,148.041188,-8656.879127,-370.102971
4617.567872,518.144159,-8656.879127,-740.205942
4617.568196,740.205942,-8963.317327,-740.205942
4617.568521,666.185348,-8503.660028,-296.082377
4617.568845,296.082377,-8427.050478,-740.205942
4617.569169,518.144159,-8963.317327,-592.164754
4617.569494,666.185348,-8963.317327,-370.102971
4617.569818,666.185348,-8810.098227,-666.185348
4617.570143,592.164754,-8656.879127,-666.185348
4617.570467,370.102971,-8963.317327,-74.020594
4617.570791,370.102971,-8810.098227,-370.102971
4617.571116,444.123565,-8656.879127,-592.164754
4617.571440,222.061783,-8886.707777,-592.164754
4617.571764,518.144159,-8963.317327,-370.102971
4617.572089,148.041188,-8503.660028,-296.082377
4617.572413,-740.205942,-8503.660028,74.020594
4617.572738,444.123565,-8656.879127,-296.082377
4617.573062,518.144159,-8503.660028,-222.061783
4617.573386,814.226536,-8886.707777,-370.102971
4617.573711,814.226536,-8733.488677,-296.082377
4617.574035,518.144159,-9193.145976,444.123565
4617.574360,0.000000,-8427.050478,-370.102971
4617.574684,296.082377,-8810.098227,0.000000
4617.575008,296.082377,-8273.831378,-296.082377
4617.575333,518.144159,-8503.660028,-148.041188
4617.575657,592.164754,-8350.440928,-370.102971
4617.575981,888.247130,-8733.488677,-370.102971
4617.576306,962.267725,-8886.707777,-370.102971
4617.576630,814.226536,-8963.317327,-666.185348
4617.576955,592.164754,-8427.050478,0.000000
4617.577279,74.020594,-8503.660028,0.000000
4617.577603,148.041188,-8503.660028,0.000000
4617.577928,222.061783,-9269.755526,-74.020594
4617.578252,0.000000,-8427.050478,-370.102971
4617.578577,222.061783,-8963.317327,-518.144159
4617.578901,222.061783,-8350.440928,-666.185348
4617.579225,148.041188,-8350.440928,-296.082377
4617.579550,0.000000,-8810.098227,74.020594
4617.579874,0.000000,-8197.221829,-518.144159
4617.580198,222.061783,-8580.269578,-296.082377
4617.580523,-222.061783,-8197.221829,-222.061783
4617.580847,0.000000,-8963.317327,-296.082377
4617.581172,74.020594,-8810.098227,-74.020594
4617.581496,0.000000,-8350.440928,-444.123565
4617.581820,74.020594,-8886.707777,-444.123565
4617.582145,370.102971,-8503.660028,-296.082377
4617.582469,518.144159,-8273.831378,74.020594
4617.582794,0.000000,-8044.002729,-296.082377
4617.583118,74.020594,-8580.269578,-222.061783
4617.583442,518.144159,-8197.221829,-444.123565
4617.583767,222.061783,-8656.879127,0.000000
4617.584091,444.123565,-8886.707777,0.000000
4617.584415,592.164754,-8503.660028,-148.041188
4617.584740,592.164754,-9116.536426,222.061783
4617.585064,518.144159,-8120.612279,0.000000
4617.585389,296.082377,-8810.098227,-296.082377
4617.585713,296.082377,-8810.098227,0.000000
4617.586037,222.061783,-8197.221829,0.000000
4617.586362,222.061783,-9116.536426,0.000000
4617.586686,518.144159,-8733.488677,-370.102971
4617.587011,444.123565,-8886.707777,-444.123565
4617.587335,444.123565,-8733.488677,-296.082377
4617.587659,74.020594,-8733.488677,-296.082377
4617.587984,0.000000,-9193.145976,148.041188
4617.588308,-148.041188,-8350.440928,-222.061783
4617.588632,0.000000,-8656.879127,148.041188
4617.588957,-222.061783,-8580.269578,-592.164754
4617.589281,518.144159,-9422.974625,0.000000
4617.589606,444.123565,-8503.660028,-222.061783
4617.589930,518.144159,-8963.317327,-518.144159
4617.590254,740.205942,-8273.831378,-370.102971
4617.590579,518.144159,-8733.488677,-222.061783
4617.590903,0.000000,-8733.488677,-296.082377
4617.591228,370.102971,-8656.879127,-148.041188
4617.591552,370.102971,-8580.269578,0.000000
4617.591876,370.102971,-8733.488677,0.000000
4617.592201,888.247130,-9039.926876,0.000000
4617.592525,814.226536,-9193.145976,-444.123565
4617.592849,1332.370696,-8273.831378,148.041188
4617.593174,962.267725,-8503.660028,-592.164754
4617.593498,740.205942,-9193.145976,-444.123565
4617.593823,518.144159,-8120.612279,0.000000
4617.594147,444.123565,-8810.098227,-222.061783
4617.594471,370.102971,-8733.488677,-444.123565
4617.594796,148.041188,-8503.660028,-222.061783
4617.595120,444.123565,-8963.317327,0.000000
4617.595445,222.061783,-8503.660028,-296.082377
4617.595769,296.082377,-9116.536426,0.000000
4617.596093,0.000000,-8656.879127,-222.061783
4617.596418,0.000000,-8886.707777,518.144159
4617.596742,0.000000,-8810.098227,0.000000
4617.597066,74.020594,-8350.440928,-222.061783
4617.597391,444.123565,-8503.660028,0.000000
4617.597715,370.102971,-9116.536426,0.000000
4617.598040,296.082377,-8580.269578,-222.061783
4617.598364,296.082377,-8350.440928,-222.061783
4617.598688,222.061783,-8886.707777,0.000000
4617.599013,148.041188,-8350.440928,-222.061783
4617.599337,518.144159,-8810.098227,-222.061783
4617.599662,444.123565,-8197.221829,-148.041188
4617.599986,592.164754,-8273.831378,0.000000
4617.600310,814.226536,-8503.660028,-148.041188
4617.600635,962.267725,-8044.002729,148.041188
4617.600959,1036.288319,-8503.660028,-222.061783
4617.601283,222.061783,-8503.660028,-148.041188
4617.601608,222.061783,-8886.707777,-222.061783
4617.601932,0.000000,-8656.879127,222.061783
4617.602257,0.000000,-8886.707777,222.061783
4617.602581,0.000000,-8503.660028,-370.102971
4617.602905,0.000000,-8733.488677,0.000000
4617.603230,148.041188,-8350.440928,-148.041188
4617.603554,74.020594,-8810.098227,148.041188
4617.603879,74.020594,-8963.317327,-296.082377
4617.604203,148.041188,-8503.660028,-370.102971
4617.604527,222.061783,-8810.098227,-222.061783
4617.604852,0.000000,-8733.488677,148.041188
4617.605176,518.144159,-8427.050478,-222.061783
4617.605500,296.082377,-8503.660028,-518.144159
4617.605825,444.123565,-8656.879127,-518.144159
4617.606149,518.144159,-8503.660028,-444.123565
4617.606474,666.185348,-8427.050478,-370.102971
4617.606798,370.102971,-8197.221829,-592.164754
4617.607122,296.082377,-9039.926876,-592.164754
4617.607447,444.123565,-8427.050478,-370.102971
4617.607771,666.185348,-8427.050478,0.000000
4617.608096,666.185348,-8886.707777,-444.123565
4617.608420,592.164754,-8963.317327,0.000000
4617.608744,592.164754,-8963.317327,-296.082377
4617.609069,1110.308913,-8886.707777,-444.123565
4617.609393,444.123565,-8733.488677,0.000000
4617.609718,296.082377,-8580.269578,-296.082377
4617.610042,222.061783,-8886.707777,-222.061783
4617.610366,0.000000,-8273.831378,-370.102971
4617.610691,296.082377,-8810.098227,0.000000
4617.611015,370.102971,-8810.098227,-444.123565
4617.611339,518.144159,-8273.831378,-370.102971
4617.611664,592.164754,-8656.879127,-370.102971
4617.611988,592.164754,-8886.707777,0.000000
4617.612313,296.082377,-8963.317327,-444.123565
4617.612637,148.041188,-8810.098227,-296.082377
4617.612961,518.144159,-8350.440928,-592.164754
4617.613286,518.144159,-8656.879127,-740.205942
4617.613610,740.205942,-8503.660028,-666.185348
4617.613935,444.123565,-8427.050478,-740.205942
4617.614259,592.164754,-9039.926876,-888.247130
4617.614583,444.123565,-8350.440928,-666.185348
4617.614908,740.205942,-8810.098227,-444.123565
4617.615232,222.061783,-8810.098227,-296.082377
4617.615556,444.123565,-8963.317327,-444.123565
4617.615881,444.123565,-8810.098227,-296.082377
4617.616205,814.226536,-8963.317327,-296.082377
4617.616530,666.185348,-9039.926876,-592.164754
4617.616854,814.226536,-8810.098227,-370.102971
4617.617178,592.164754,-8273.831378,-222.061783
4617.617503,370.102971,-8810.098227,0.000000
4617.617827,74.020594,-8656.879127,-148.041188
4617.618152,222.061783,-8503.660028,0.000000
4617.618476,296.082377,-8503.660028,-296.082377
4617.618800,74.020594,-8656.879127,0.000000
4617.619125,740.205942,-8350.440928,74.020594
4617.619449,518.144159,-8656.879127,-296.082377
4617.619773,518.144159,-8580.269578,0.000000
4617.620098,518.144159,-8656.879127,-296.082377
4617.620422,222.061783,-8350.440928,0.000000
4617.620747,148.041188,-8197.221829,0.000000
4617.621071,222.061783,-8580.269578,-592.164754
4617.621395,222.061783,-8350.440928,-444.123565
4617.621720,518.144159,-8503.660028,74.020594
4617.622044,666.185348,-8656.879127,-592.164754
4617.622369,740.205942,-8427.050478,-370.102971
4617.622693,962.267725,-8580.269578,-444.123565
4617.623017,518.144159,-8503.660028,-148.041188
4617.623342,296.082377,-8273.831378,-296.082377
4617.623666,0.000000,-8733.488677,-666.185348
4617.623990,222.061783,-8120.612279,-222.061783
4617.624315,518.144159,-8350.440928,-592.164754
4617.624639,518.144159,-8886.707777,-296.082377
4617.624964,814.226536,-8427.050478,-592.164754
4617.625288,888.247130,-8580.269578,-444.123565
4617.625612,518.144159,-8503.660028,-444.123565
4617.625937,888.247130,-8427.050478,-222.061783
4617.626261,296.082377,-8810.098227,0.000000
4617.626586,74.020594,-8503.660028,-296.082377
4617.626910,222.061783,-8580.269578,-518.144159
4617.627234,74.020594,-8503.660028,-222.061783
4617.627559,370.102971,-8963.317327,0.000000
4617.627883,518.144159,-8656.879127,-370.102971
4617.628207,444.123565,-8656.879127,-222.061783
4617.628532,666.185348,-8120.612279,-370.102971
4617.628856,370.102971,-7890.783629,-148.041188
4617.629181,222.061783,-8580.269578,-370.102971
4617.629505,370.102971,-8427.050478,-370.102971
4617.629829,444.123565,-8350.440928,-518.144159
4617.630154,444.123565,-8656.879127,-518.144159
4617.630478,592.164754,-8656.879127,-740.205942
4617.630803,740.205942,-8580.269578,-518.144159
4617.631127,518.144159,-8350.440928,-444.123565
4617.631451,444.123565,-8886.707777,-444.123565
4617.631776,740.205942,-8656.879127,-740.205942
4617.632100,370.102971,-8733.488677,-592.164754
4617.632424,296.082377,-8273.831378,-814.226536
4617.632749,592.164754,-8656.879127,-592.164754
4617.633073,962.267725,-8733.488677,-814.226536
4617.633398,518.144159,-8580.269578,-740.205942
4617.633722,518.144159,-8656.879127,-666.185348
4617.634046,222.061783,-8656.879127,-666.185348
4617.634371,592.164754,-8656.879127,-370.102971
4617.634695,74.020594,-8427.050478,-296.082377
4617.635020,0.000000,-8810.098227,-222.061783
4617.635344,296.082377,-8580.269578,-592.164754
4617.635668,444.123565,-8656.879127,-444.123565
4617.635993,1036.288319,-8886.707777,-296.082377
4617.636317,444.123565,-8733.488677,-370.102971
4617.636641,370.102971,-8350.440928,-148.041188
4617.636966,444.123565,-8503.660028,-444.123565
4617.637290,666.185348,-8503.660028,-740.205942
4617.637615,296.082377,-8503.660028,-370.102971
4617.637939,444.123565,-8350.440928,-222.061783
4617.638263,518.144159,-8733.488677,-370.102971
4617.638588,962.267725,-8580.269578,-592.164754
4617.638912,1110.308913,-8580.269578,-370.102971
4617.639237,888.247130,-8733.488677,-592.164754
4617.639561,222.061783,-8503.660028,-740.205942
4617.639885,222.061783,-8427.050478,-444.123565
4617.640210,740.205942,-8350.440928,-444.123565
4617.640534,370.102971,-8580.269578,-666.185348
4617.640858,444.123565,-8580.269578,-962.267725
4617.641183,740.205942,-8656.879127,-296.082377
4617.641507,592.164754,-8503.660028,-296.082377
4617.641832,666.185348,-8350.440928,-444.123565
4617.642156,222.061783,-8810.098227,-296.082377
4617.642480,222.061783,-8503.660028,-148.041188
4617.642805,370.102971,-8733.488677,-370.102971
4617.643129,666.185348,-8273.831378,-370.102971
4617.643454,518.144159,-8503.660028,-148.041188
4617.643778,592.164754,-8580.269578,-444.123565
4617.644102,592.164754,-8810.098227,-370.102971
4617.644427,1184.329507,-8427.050478,-518.144159
4617.644751,592.164754,-8886.707777,-222.061783
4617.645075,74.020594,-8503.660028,-444.123565
4617.645400,296.082377,-8810.098227,-370.102971
4617.645724,296.082377,-8656.879127,-888.247130
4617.646049,370.102971,-9116.536426,-740.205942
4617.646373,370.102971,-8733.488677,-740.205942
4617.646697,222.061783,-8733.488677,-592.164754
4617.647022,222.061783,-8580.269578,-444.123565
4617.647346,444.123565,-8197.221829,-1036.288319
4617.647671,518.144159,-8733.488677,-666.185348
4617.647995,0.000000,-8350.440928,-740.205942
4617.648319,296.082377,-8350.440928,-592.164754
4617.648644,0.000000,-8350.440928,-518.144159
4617.648968,296.082377,-8580.269578,-740.205942
4617.649292,518.144159,-8733.488677,-888.247130
4617.649617,592.164754,-8503.660028,-518.144159
4617.649941,740.205942,-8963.317327,-592.164754
4617.650266,740.205942,-8580.269578,-518.144159
4617.650590,222.061783,-8427.050478,-518.144159
4617.650914,370.102971,-8427.050478,-296.082377
4617.651239,296.082377,-8733.488677,-666.185348
4617.651563,592.164754,-9116.536426,-666.185348
4617.651888,740.205942,-8503.660028,-518.144159
4617.652212,666.185348,-8886.707777,-592.164754
4617.652536,444.123565,-8733.488677,-370.102971
4617.652861,592.164754,-8044.002729,-592.164754
4617.653185,370.102971,-8580.269578,-666.185348
4617.653509,370.102971,-8503.660028,0.000000
4617.653834,296.082377,-8503.660028,-370.102971
4617.654158,370.102971,-8733.488677,-148.041188
4617.654483,222.061783,-8197.221829,-148.041188
4617.654807,814.226536,-8963.317327,-296.082377
4617.655131,444.123565,-8427.050478,-370.102971
4617.655456,592.164754,-8580.269578,-222.061783
4617.655780,370.102971,-8503.660028,-370.102971
4617.656105,74.020594,-8044.002729,-370.102971
4617.656429,518.144159,-8427.050478,-222.061783
4617.656753,222.061783,-8350.440928,-296.082377
4617.657078,518.144159,-8580.269578,-222.061783
4617.657402,740.205942,-8503.660028,-592.164754
4617.657726,740.205942,-8350.440928,-518.144159
4617.658051,962.267725,-8350.440928,-444.123565
4617.658375,296.082377,-8810.098227,-592.164754
4617.658700,-148.041188,-8350.440928,-222.061783
4617.659024,0.000000,-8273.831378,-370.102971
4617.659348,74.020594,-8963.317327,-444.123565
4617.659673,222.061783,-8810.098227,-296.082377
4617.659997,370.102971,-8580.269578,-1036.288319
4617.660322,592.164754,-8503.660028,0.000000
4617.660646,888.247130,-8350.440928,-518.144159
4617.660970,740.205942,-9193.145976,-148.041188
4617.661295,296.082377,-8120.612279,-296.082377
4617.661619,222.061783,-8733.488677,-296.082377
4617.661944,74.020594,-8580.269578,-296.082377
4617.662268,296.082377,-8427.050478,0.000000
4617.662592,148.041188,-8580.269578,-518.144159
4617.662916,0.000000,-8580.269578,-296.082377
4617.663241,592.164754,-8733.488677,-296.082377
4617.663565,740.205942,-8733.488677,-444.123565
4617.663889,296.082377,-8503.660028,-222.061783
4617.664214,592.164754,-9039.926876,-592.164754
4617.664538,222.061783,-8350.440928,-148.041188
4617.664862,592.164754,-8580.269578,-222.061783
4617.665186,518.144159,-8733.488677,-814.226536
4617.665511,740.205942,-8963.317327,-518.144159
4617.665835,370.102971,-8427.050478,-666.185348
4617.666159,444.123565,-9039.926876,-518.144159
4617.666484,370.102971,-8350.440928,-962.267725
4617.666808,296.082377,-8580.269578,-296.082377
4617.667132,222.061783,-8580.269578,-518.144159
4617.667456,518.144159,-8886.707777,-222.061783
4617.667781,814.226536,-8503.660028,-888.247130
4617.668105,592.164754,-8733.488677,-444.123565
4617.668429,666.185348,-9116.536426,-666.185348
4617.668754,740.205942,-8656.879127,-592.164754
4617.669078,666.185348,-8197.221829,-592.164754
4617.669402,148.041188,-8503.660028,-296.082377
4617.669727,74.020594,-8273.831378,-444.123565
4617.670051,-148.041188,-8273.831378,-296.082377
4617.670375,518.144159,-8733.488677,-444.123565
4617.670699,444.123565,-8733.488677,-518.144159
4617.671024,370.102971,-8810.098227,-222.061783
4617.671348,222.061783,-8886.707777,0.000000
4617.671672,666.185348,-8503.660028,-148.041188
4617.671997,296.082377,-8427.050478,-370.102971
4617.672321,592.164754,-8810.098227,-296.082377
4617.672645,0.000000,-8350.440928,74.020594
4617.672969,0.000000,-8580.269578,-296.082377
4617.673294,296.082377,-8580.269578,-444.123565
4617.673618,444.123565,-8427.050478,-296.082377
4617.673942,814.226536,-8580.269578,-370.102971
4617.674267,518.144159,-8273.831378,-296.082377
4617.674591,518.144159,-8580.269578,-222.061783
4617.674915,222.061783,-8120.612279,-370.102971
4617.675239,148.041188,-8427.050478,-518.144159
4617.675564,370.102971,-8580.269578,-370.102971
4617.675888,444.123565,-7967.393179,-370.102971
4617.676212,518.144159,-8810.098227,-592.164754
4617.676537,370.102971,-8810.098227,-666.185348
4617.676861,518.144159,-8503.660028,0.000000
4617.677185,0.000000,-8733.488677,0.000000
4617.677510,148.041188,-8656.879127,-444.123565
4617.677834,0.000000,-8886.707777,-222.061783
4617.678158,222.061783,-8427.050478,-148.041188
4617.678482,222.061783,-9039.926876,296.082377
4617.678807,74.020594,-8503.660028,-296.082377
4617.679131,222.061783,-8733.488677,-222.061783
4617.679455,518.144159,-8273.831378,-148.041188
4617.679780,0.000000,-8886.707777,148.041188
4617.680104,74.020594,-8580.269578,-148.041188
4617.680428,370.102971,-8656.879127,0.000000
4617.680752,0.000000,-8733.488677,-296.082377
4617.681077,296.082377,-8273.831378,-222.061783
4617.681401,518.144159,-8427.050478,0.000000
4617.681725,370.102971,-8886.707777,-296.082377
4617.682050,592.164754,-8427.050478,-296.082377
4617.682374,592.164754,-8580.269578,-740.205942
4617.682698,518.144159,-8120.612279,0.000000
4617.683022,740.205942,-8120.612279,0.000000
4617.683347,148.041188,-8656.879127,0.000000
4617.683671,0.000000,-8733.488677,-296.082377
4617.683995,592.164754,-8886.707777,-222.061783
4617.684320,666.185348,-8733.488677,-370.102971
4617.684644,592.164754,-8810.098227,0.000000
4617.684968,814.226536,-8503.660028,0.000000
4617.685293,518.144159,-8963.317327,-370.102971
4617.685617,370.102971,-8197.221829,-222.061783
4617.685941,444.123565,-8733.488677,-222.061783
4617.686265,222.061783,-8427.050478,74.020594
4617.686590,518.144159,-8273.831378,74.020594
4617.686914,1332.370696,-8580.269578,0.000000
4617.687238,814.226536,-8810.098227,-148.041188
4617.687563,592.164754,-8580.269578,-370.102971
4617.687887,740.205942,-8810.098227,0.000000
4617.688211,296.082377,-8580.269578,0.000000
4617.688535,296.082377,-9269.755526,0.000000
4617.688860,148.041188,-8580.269578,0.000000
4617.689184,222.061783,-8427.050478,-74.020594
4617.689508,518.144159,-9269.755526,-444.123565
4617.689833,1110.308913,-8733.488677,-222.061783
4617.690157,888.247130,-8580.269578,-296.082377
4617.690481,592.164754,-8886.707777,-370.102971
4617.690806,444.123565,-8733.488677,-222.061783
4617.691130,370.102971,-7967.393179,148.041188
4617.691454,296.082377,-8580.269578,-370.102971
4617.691778,0.000000,-8350.440928,-222.061783
4617.692103,0.000000,-8580.269578,-370.102971
4617.692427,74.020594,-8580.269578,-296.082377
4617.692751,148.041188,-8580.269578,-444.123565
4617.693076,222.061783,-8733.488677,-370.102971
4617.693400,370.102971,-8273.831378,-148.041188
4617.693724,296.082377,-8427.050478,-444.123565
4617.694048,0.000000,-8350.440928,0.000000
4617.694373,296.082377,-8427.050478,-148.041188
4617.694697,222.061783,-8733.488677,-518.144159
4617.695021,222.061783,-8580.269578,-444.123565
4617.695346,666.185348,-8886.707777,0.000000
4617.695670,518.144159,-8733.488677,-222.061783
4617.695994,444.123565,-8273.831378,-222.061783
4617.696318,444.123565,-8503.660028,-222.061783
4617.696643,444.123565,-8503.660028,-148.041188
4617.696967,222.061783,-8044.002729,74.020594
4617.697291,444.123565,-8733.488677,-444.123565
4617.697616,296.082377,-8197.221829,-148.041188
4617.697940,962.267725,-8580.269578,-222.061783
4617.698264,888.247130,-8503.660028,-740.205942
4617.698589,740.205942,-8427.050478,-148.041188
4617.698913,148.041188,-8427.050478,0.000000
4617.699237,296.082377,-8810.098227,0.000000
4617.699561,222.061783,-8350.440928,-296.082377
4617.699886,0.000000,-8350.440928,-370.102971
4617.700210,444.123565,-8350.440928,0.000000
4617.700534,296.082377,-8503.660028,0.000000
4617.700859,518.144159,-9116.536426,-444.123565
4617.701183,1258.350101,-8427.050478,-518.144159
4617.701507,666.185348,-8580.269578,-222.061783
4617.701831,666.185348,-8810.098227,-222.061783
4617.702156,222.061783,-8197.221829,74.020594
4617.702480,518.144159,-8350.440928,74.020594
4617.702804,296.082377,-8580.269578,0.000000
4617.703129,296.082377,-8580.269578,-148.041188
4617.703453,518.144159,-8656.879127,-370.102971
4617.703777,962.267725,-8580.269578,0.000000
4617.704101,592.164754,-8733.488677,-148.041188
4617.704426,444.123565,-8656.879127,-370.102971
4617.704750,148.041188,-8427.050478,-222.061783
4617.705074,296.082377,-8656.879127,-148.041188
4617.705399,222.061783,-8733.488677,-518.144159
4617.705723,222.061783,-8580.269578,-370.102971
4617.706047,296.082377,-8503.660028,-222.061783
4617.706372,370.102971,-8656.879127,-296.082377
4617.706696,1036.288319,-8963.317327,-518.144159
4617.707020,296.082377,-8963.317327,-222.061783
4617.707344,518.144159,-8886.707777,-518.144159
4617.707669,222.061783,-8810.098227,-148.041188
4617.707993,444.123565,-8733.488677,-296.082377
4617.708317,444.123565,-8810.098227,0.000000
4617.708642,518.144159,-8580.269578,-592.164754
4617.708966,592.164754,-8733.488677,-222.061783
4617.709290,740.205942,-8656.879127,-148.041188
4617.709614,518.144159,-8503.660028,-444.123565
4617.709939,74.020594,-8886.707777,-222.061783
4617.710263,148.041188,-8656.879127,-148.041188
4617.710587,0.000000,-8580.269578,-222.061783
4617.710912,370.102971,-8580.269578,222.061783
4617.711236,222.061783,-8810.098227,-444.123565
4617.711560,592.164754,-8886.707777,0.000000
4617.711884,518.144159,-8350.440928,-296.082377
4617.712209,444.123565,-8810.098227,148.041188
4617.712533,444.123565,-8350.440928,-148.041188
4617.712857,296.082377,-8733.488677,-148.041188
4617.713182,222.061783,-8503.660028,-222.061783
4617.713506,370.102971,-8427.050478,-296.082377
4617.713830,814.226536,-8886.707777,-888.247130
4617.714155,296.082377,-8197.221829,0.000000
4617.714479,666.185348,-8580.269578,-296.082377
4617.714803,592.164754,-8656.879127,-518.144159
4617.715127,740.205942,-8733.488677,-592.164754
4617.715452,518.144159,-8580.269578,-592.164754
4617.715776,74.020594,-8350.440928,-666.185348
4617.716100,0.000000,-8427.050478,-296.082377
4617.716425,222.061783,-7890.783629,-296.082377
4617.716749,518.144159,-8580.269578,-592.164754
4617.717073,296.082377,-8810.098227,-666.185348
4617.717397,444.123565,-8427.050478,-296.082377
4617.717722,592.164754,-8427.050478,-74.020594
4617.718046,592.164754,-8733.488677,-148.041188
4617.718370,296.082377,-8580.269578,-592.164754
4617.718695,518.144159,-8427.050478,0.000000
4617.719019,592.164754,-8350.440928,-518.144159
4617.719343,740.205942,-8656.879127,-148.041188
4617.719668,296.082377,-8427.050478,0.000000
4617.719992,518.144159,-8810.098227,0.000000
4617.720316,740.205942,-8273.831378,-296.082377
4617.720640,296.082377,-8580.269578,-296.082377
4617.720965,370.102971,-8273.831378,-370.102971
4617.721289,74.020594,-7967.393179,0.000000
4617.721613,0.000000,-8810.098227,-222.061783
4617.721938,0.000000,-8503.660028,-370.102971
4617.722262,666.185348,-8580.269578,-740.205942
4617.722586,296.082377,-8733.488677,-148.041188
4617.722910,444.123565,-8580.269578,-296.082377
4617.723235,222.061783,-8733.488677,-370.102971
4617.723559,0.000000,-8580.269578,-370.102971
4617.723883,518.144159,-8427.050478,-592.164754
4617.724208,444.123565,-8886.707777,-740.205942
4617.724532,518.144159,-8656.879127,-444.123565
4617.724856,740.205942,-8503.660028,-444.123565
4617.725180,592.164754,-9193.145976,-518.144159
4617.725505,740.205942,-8733.488677,-518.144159
4617.725829,888.247130,-8733.488677,-296.082377
4617.726153,518.144159,-8810.098227,-666.185348
4617.726478,296.082377,-9116.536426,-370.102971
4617.726802,740.205942,-8503.660028,-148.041188
4617.727126,222.061783,-8810.098227,-444.123565
4617.727451,444.123565,-8503.660028,-814.226536
4617.727775,444.123565,-8810.098227,-444.123565
4617.728099,222.061783,-8197.221829,-148.041188
4617.728423,518.144159,-8886.707777,-296.082377
4617.728748,444.123565,-8886.707777,0.000000
4617.729072,518.144159,-8810.098227,-148.041188
4617.729396,222.061783,-8963.317327,-148.041188
4617.729721,148.041188,-8733.488677,-222.061783
4617.730045,222.061783,-8503.660028,0.000000
4617.730369,444.123565,-8810.098227,0.000000
4617.730693,592.164754,-8197.221829,-296.082377
4617.731018,814.226536,-8733.488677,-296.082377
4617.731342,888.247130,-8580.269578,-296.082377
4617.731666,518.144159,-8350.440928,-222.061783
4617.731991,444.123565,-8273.831378,-518.144159
4617.732315,370.102971,-8656.879127,74.020594
4617.732639,666.185348,-8197.221829,-740.205942
4617.732963,518.144159,-8963.317327,-444.123565
4617.733288,666.185348,-8656.879127,-592.164754
4617.733612,296.082377,-9116.536426,0.000000
4617.733936,370.102971,-8503.660028,-592.164754
4617.734261,444.123565,-8963.317327,-296.082377
4617.734585,296.082377,-8656.879127,-592.164754
4617.734909,666.185348,-9039.926876,-296.082377
4617.735234,74.020594,-8427.050478,-370.102971
4617.735558,592.164754,-8580.269578,-518.144159
4617.735882,518.144159,-8810.098227,-592.164754
4617.736206,592.164754,-8810.098227,-592.164754
4617.736531,518.144159,-8580.269578,-518.144159
4617.736855,518.144159,-8580.269578,-296.082377
4617.737179,592.164754,-8656.879127,-296.082377
4617.737504,296.082377,-8503.660028,-518.144159
4617.737828,444.123565,-8350.440928,-666.185348
4617.738152,666.185348,-8580.269578,-444.123565
4617.738476,740.205942,-8427.050478,-370.102971
4617.738801,518.144159,-8656.879127,-740.205942
4617.739125,370.102971,-8580.269578,-592.164754
4617.739449,592.164754,-8503.660028,-888.247130
4617.739774,444.123565,-8733.488677,-888.247130
4617.740098,0.000000,-8656.879127,-666.185348
4617.740422,-222.061783,-8580.269578,-370.102971
4617.740746,148.041188,-9039.926876,-518.144159
4617.741071,148.041188,-8580.269578,-962.267725
4617.741395,592.164754,-9039.926876,-518.144159
4617.741719,296.082377,-8427.050478,-444.123565
4617.742044,814.226536,-7967.393179,148.041188
4617.742368,148.041188,-8120.612279,-814.226536
4617.742692,0.000000,-8656.879127,-296.082377
4617.743017,148.041188,-8273.831378,-666.185348
4617.743341,0.000000,-8350.440928,-592.164754
4617.743665,444.123565,-8350.440928,-296.082377
4617.743989,444.123565,-8503.660028,-518.144159
4617.744314,740.205942,-8580.269578,-370.102971
4617.744638,666.185348,-8503.660028,-296.082377
4617.744962,962.267725,-8120.612279,-444.123565
4617.745287,296.082377,-8810.098227,-518.144159
4617.745611,222.061783,-8273.831378,-148.041188
4617.745935,148.041188,-8580.269578,-296.082377
4617.746259,296.082377,-8580.269578,-518.144159
4617.746584,518.144159,-8733.488677,-666.185348
4617.746908,518.144159,-8810.098227,-296.082377
4617.747232,592.164754,-8427.050478,-444.123565
4617.747557,740.205942,-8427.050478,-148.041188
4617.747881,740.205942,-8503.660028,-148.041188
4617.748205,666.185348,-8733.488677,-370.102971
4617.748530,592.164754,-8350.440928,-296.082377
4617.748854,740.205942,-8503.660028,-222.061783
4617.749178,962.267725,-8580.269578,-296.082377
4617.749502,518.144159,-8810.098227,-370.102971
4617.749827,666.185348,-8427.050478,-666.185348
4617.750151,740.205942,-8350.440928,-518.144159
4617.750475,740.205942,-8810.098227,-370.102971
4617.750800,296.082377,-8886.707777,-148.041188
4617.751124,370.102971,-8580.269578,-296.082377
4617.751448,222.061783,-8656.879127,-518.144159
4617.751772,296.082377,-8886.707777,-444.123565
4617.752097,296.082377,-8503.660028,-222.061783
4617.752421,592.164754,-8580.269578,-222.061783
4617.752745,296.082377,-8503.660028,-296.082377
4617.753070,592.164754,-8656.879127,-296.082377
4617.753394,222.061783,-8427.050478,0.000000
4617.753718,296.082377,-8810.098227,-222.061783
4617.754042,148.041188,-8197.221829,74.020594
4617.754367,222.061783,-8580.269578,-296.082377
4617.754691,296.082377,-9039.926876,148.041188
4617.755015,444.123565,-8656.879127,-296.082377
4617.755340,740.205942,-8656.879127,-444.123565
4617.755664,444.123565,-8427.050478,-296.082377
4617.755988,444.123565,-8810.098227,-222.061783
4617.756313,0.000000,-8197.221829,-444.123565
4617.756637,0.000000,-8197.221829,-444.123565
4617.756961,74.020594,-8580.269578,-592.164754
4617.757285,0.000000,-8503.660028,-592.164754
4617.757610,814.226536,-8044.002729,-444.123565
4617.757934,666.185348,-8503.660028,-888.247130
4617.758258,740.205942,-8733.488677,-444.123565
4617.758583,444.123565,-8810.098227,-814.226536
4617.758907,148.041188,-9116.536426,-444.123565
4617.759231,592.164754,-8197.221829,-740.205942
4617.759555,0.000000,-8350.440928,-444.123565
4617.759880,296.082377,-8580.269578,-592.164754
4617.760204,444.123565,-8503.660028,-444.123565
4617.760528,740.205942,-8656.879127,-740.205942
4617.760853,518.144159,-8503.660028,-222.061783
4617.761177,296.082377,-8580.269578,-148.041188
4617.761501,370.102971,-8810.098227,0.000000
4617.761825,740.205942,-8810.098227,-370.102971
4617.762150,296.082377,-8810.098227,-222.061783
4617.762474,518.144159,-8503.660028,-296.082377
4617.762798,592.164754,-8427.050478,-296.082377
4617.763123,518.144159,-8733.488677,-444.123565
4617.763447,444.123565,-8427.050478,-518.144159
4617.763771,888.247130,-8580.269578,-296.082377
4617.764096,592.164754,-8656.879127,-370.102971
4617.764420,148.041188,-8580.269578,-370.102971
4617.764744,518.144159,-8427.050478,-370.102971
4617.765069,370.102971,-8580.269578,-666.185348
4617.765393,222.061783,-8503.660028,-370.102971
4617.765717,370.102971,-8273.831378,-888.247130
4617.766042,814.226536,-9193.145976,-148.041188
4617.766366,1110.308913,-8120.612279,-222.061783
4617.766690,518.144159,-8810.098227,-518.144159
4617.767015,444.123565,-8580.269578,-444.123565
4617.767339,518.144159,-8197.221829,-740.205942
4617.767663,518.144159,-8656.879127,-666.185348
4617.767988,296.082377,-8503.660028,-592.164754
4617.768312,592.164754,-8733.488677,-444.123565
4617.768637,296.082377,-8656.879127,-444.123565
4617.768961,666.185348,-9193.145976,-814.226536
4617.769285,814.226536,-8810.098227,-518.144159
4617.769610,444.123565,-8427.050478,-444.123565
4617.769934,222.061783,-8656.879127,-444.123565
4617.770258,444.123565,-8963.317327,-370.102971
4617.770583,518.144159,-8886.707777,-148.041188
4617.770907,666.185348,-8580.269578,-592.164754
4617.771231,592.164754,-8886.707777,-518.144159
4617.771556,370.102971,-8656.879127,-370.102971
4617.771880,74.020594,-8580.269578,-296.082377
4617.772204,296.082377,-8580.269578,-370.102971
4617.772529,0.000000,-8656.879127,-370.102971
4617.772853,296.082377,-8810.098227,-148.041188
4617.773177,592.164754,-7737.564530,-370.102971
4617.773502,222.061783,-8733.488677,-370.102971
4617.773826,518.144159,-8810.098227,-592.164754
4617.774150,740.205942,-8733.488677,-222.061783
4617.774475,888.247130,-9039.926876,-666.185348
4617.774799,666.185348,-8580.269578,-444.123565
4617.775123,444.123565,-8656.879127,-370.102971
4617.775448,222.061783,-8427.050478,-296.082377
4617.775772,296.082377,-8427.050478,-444.123565
4617.776096,370.102971,-9499.584175,0.000000
4617.776421,740.205942,-8427.050478,-148.041188
4617.776745,814.226536,-8810.098227,0.000000
4617.777069,296.082377,-8580.269578,-370.102971
4617.777394,1036.288319,-9422.974625,222.061783
4617.777718,814.226536,-8503.660028,-222.061783
4617.778042,444.123565,-8580.269578,-370.102971
4617.778367,296.082377,-8044.002729,-148.041188
4617.778691,0.000000,-8427.050478,-518.144159
4617.779015,148.041188,-8656.879127,-222.061783
4617.779340,296.082377,-8120.612279,-592.164754
4617.779664,296.082377,-8503.660028,-296.082377
4617.779988,740.205942,-8350.440928,-370.102971
4617.780313,222.061783,-8427.050478,-148.041188
4617.780637,222.061783,-8886.707777,-148.041188
4617.780961,74.020594,-8350.440928,-222.061783
4617.781286,222.061783,-8350.440928,-296.082377
4617.781610,-518.144159,-8963.317327,0.000000
4617.781934,296.082377,-8580.269578,0.000000
4617.782259,148.041188,-8350.440928,-444.123565
4617.782583,518.144159,-8656.879127,0.000000
4617.782907,370.102971,-8273.831378,-666.185348
4617.783232,222.061783,-8656.879127,0.000000
4617.783556,148.041188,-7967.393179,-296.082377
4617.783880,222.061783,-8580.269578,0.000000
4617.784205,74.020594,-8427.050478,-222.061783
4617.784529,592.164754,-8503.660028,-592.164754
4617.784853,444.123565,-8503.660028,-666.185348
4617.785178,222.061783,-8503.660028,-370.102971
4617.785502,740.205942,-8503.660028,-370.102971
4617.785826,592.164754,-8503.660028,-296.082377
4617.786151,0.000000,-8350.440928,-296.082377
4617.786475,370.102971,-8273.831378,-444.123565
4617.786800,444.123565,-8656.879127,-518.144159
4617.787124,444.123565,-8580.269578,-296.082377
4617.787448,592.164754,-8503.660028,-444.123565
4617.787773,296.082377,-8580.269578,-370.102971
4617.788097,518.144159,-8427.050478,-444.123565
4617.788421,518.144159,-8656.879127,-296.082377
4617.788746,888.247130,-8733.488677,-222.061783
4617.789070,296.082377,-8503.660028,-222.061783
4617.789394,222.061783,-8656.879127,-148.041188
4617.789719,296.082377,-8503.660028,-148.041188
4617.790043,518.144159,-9039.926876,-296.082377
4617.790367,518.144159,-8427.050478,-592.164754
4617.790692,666.185348,-8427.050478,0.000000
4617.791016,592.164754,-8810.098227,-296.082377
4617.791340,296.082377,-8733.488677,-370.102971
4617.791665,814.226536,-8580.269578,-518.144159
4617.791989,518.144159,-8427.050478,-370.102971
4617.792313,222.061783,-8427.050478,0.000000
4617.792638,444.123565,-8656.879127,0.000000
4617.792962,1332.370696,-8810.098227,-296.082377
4617.793286,592.164754,-8427.050478,-296.082377
4617.793611,888.247130,-8810.098227,-592.164754
4617.793935,888.247130,-8273.831378,-222.061783
4617.794259,222.061783,-8580.269578,-148.041188
4617.794584,222.061783,-8886.707777,-148.041188
4617.794908,370.102971,-8580.269578,-444.123565
4617.795232,222.061783,-8810.098227,0.000000
4617.795557,444.123565,-8733.488677,-222.061783
4617.795881,74.020594,-8580.269578,74.020594
4617.796205,370.102971,-8733.488677,-148.041188
4617.796530,296.082377,-8503.660028,0.000000
4617.796854,370.102971,-8810.098227,-518.144159
4617.797178,444.123565,-8197.221829,0.000000
4617.797503,148.041188,-8350.440928,0.000000
4617.797827,148.041188,-9116.536426,0.000000
4617.798151,148.041188,-8656.879127,-444.123565
4617.798476,814.226536,-8580.269578,-148.041188
4617.798800,962.267725,-8733.488677,-74.020594
4617.799124,296.082377,-8810.098227,0.000000
4617.799449,222.061783,-8503.660028,148.041188
4617.799773,74.020594,-8656.879127,148.041188
4617.800097,518.144159,-8733.488677,74.020594
4617.800422,74.020594,-8656.879127,0.000000
4617.800746,296.082377,-8580.269578,0.000000
4617.801070,740.205942,-8427.050478,0.000000
4617.801395,962.267725,-8810.098227,0.000000
4617.801719,518.144159,-8733.488677,0.000000
4617.802043,592.164754,-8503.660028,-296.082377
4617.802368,222.061783,-8503.660028,0.000000
4617.802692,0.000000,-8273.831378,0.000000
4617.803016,0.000000,-8350.440928,-148.041188
4617.803341,74.020594,-8503.660028,0.000000
4617.803665,148.041188,-8273.831378,-592.164754
4617.803990,592.164754,-8656.879127,-592.164754
4617.804314,296.082377,-7890.783629,-740.205942
4617.804638,592.164754,-8580.269578,-296.082377
4617.804963,518.144159,-8273.831378,-518.144159
4617.805287,444.123565,-8427.050478,-444.123565
4617.805611,222.061783,-8120.612279,-592.164754
4617.805936,148.041188,-8656.879127,-444.123565
4617.806260,370.102971,-8427.050478,-666.185348
4617.806584,518.144159,-8733.488677,-518.144159
4617.806909,444.123565,-8580.269578,-518.144159
4617.807233,444.123565,-8656.879127,-370.102971
4617.807557,444.123565,-8580.269578,-444.123565
4617.807882,444.123565,-8580.269578,-222.061783
4617.808206,518.144159,-8350.440928,-370.102971
4617.808530,740.205942,-9729.412825,74.020594
4617.808855,518.144159,-8503.660028,-666.185348
4617.809179,592.164754,-9193.145976,-222.061783
4617.809503,592.164754,-8656.879127,-296.082377
4617.809828,444.123565,-9116.536426,0.000000
4617.810152,592.164754,-8503.660028,-148.041188
4617.810476,370.102971,-8656.879127,-222.061783
4617.810801,518.144159,-8810.098227,-370.102971
4617.811125,740.205942,-8350.440928,-370.102971
4617.811449,592.164754,-8120.612279,-148.041188
4617.811774,666.185348,-8886.707777,-592.164754
4617.812098,518.144159,-8580.269578,-592.164754
4617.812422,740.205942,-8580.269578,-518.144159
4617.812747,444.123565,-9116.536426,-888.247130
4617.813071,148.041188,-8503.660028,-444.123565
4617.813395,74.020594,-8580.269578,-370.102971
4617.813720,370.102971,-8656.879127,-370.102971
4617.814044,444.123565,-8580.269578,-148.041188
4617.814368,592.164754,-8503.660028,-592.164754
4617.814693,740.205942,-8427.050478,-370.102971
4617.815017,740.205942,-8503.660028,-296.082377
4617.815341,222.061783,-8963.317327,-370.102971
4617.815666,740.205942,-7967.393179,-666.185348
4617.815990,222.061783,-8810.098227,-222.061783
4617.816314,444.123565,-8580.269578,-222.061783
4617.816639,370.102971,-8350.440928,-296.082377
4617.816963,222.061783,-8810.098227,-444.123565
4617.817287,518.144159,-8580.269578,0.000000
4617.817612,666.185348,-8427.050478,-518.144159
4617.817936,592.164754,-8733.488677,-370.102971
4617.818260,592.164754,-8427.050478,-222.061783
4617.818585,296.082377,-8963.317327,0.000000
4617.818909,296.082377,-8503.660028,-370.102971
4617.819233,370.102971,-8503.660028,-222.061783
4617.819558,0.000000,-8656.879127,-148.041188
4617.819882,888.247130,-8350.440928,-740.205942
4617.820206,518.144159,-8580.269578,-148.041188
4617.820531,296.082377,-8580.269578,-148.041188
4617.820855,592.164754,-8580.269578,0.000000
4617.821179,296.082377,-8580.269578,-222.061783
4617.821504,444.123565,-8810.098227,-222.061783
4617.821828,296.082377,-8273.831378,0.000000
4617.822153,74.020594,-8656.879127,-148.041188
4617.822477,296.082377,-8810.098227,-222.061783
4617.822801,592.164754,-8197.221829,-296.082377
4617.823126,370.102971,-8656.879127,-296.082377
4617.823450,592.164754,-8733.488677,0.000000
4617.823774,296.082377,-8503.660028,-296.082377
4617.824099,444.123565,-8197.221829,0.000000
4617.824423,222.061783,-8273.831378,0.000000
4617.824747,370.102971,-8656.879127,-296.082377
4617.825072,370.102971,-8427.050478,-592.164754
4617.825396,222.061783,-8963.317327,0.000000
4617.825720,0.000000,-8580.269578,0.000000
4617.826045,222.061783,-8503.660028,-222.061783
4617.826369,592.164754,-8503.660028,-370.102971
4617.826693,592.164754,-8427.050478,0.000000
4617.827018,74.020594,-8733.488677,0.000000
4617.827342,592.164754,-8427.050478,-296.082377
4617.827666,666.185348,-8427.050478,-296.082377
4617.827991,666.185348,-8656.879127,-518.144159
4617.828315,296.082377,-8963.317327,-222.061783
4617.828639,444.123565,-8197.221829,-370.102971
4617.828964,296.082377,-8580.269578,-370.102971
4617.829288,222.061783,-8580.269578,-740.205942
4617.829612,148.041188,-8733.488677,-370.102971
4617.829937,444.123565,-8733.488677,-222.061783
4617.830261,518.144159,-8503.660028,-370.102971
4617.830585,592.164754,-8350.440928,-666.185348
4617.830910,740.205942,-8810.098227,-296.082377
4617.831234,296.082377,-8197.221829,-518.144159
4617.831558,740.205942,-8963.317327,-740.205942
4617.831883,518.144159,-8503.660028,-370.102971
4617.832207,518.144159,-8733.488677,-296.082377
4617.832531,74.020594,-7737.564530,-444.123565
4617.832856,296.082377,-8656.879127,-444.123565
4617.833180,518.144159,-8656.879127,-444.123565
4617.833504,740.205942,-8733.488677,-444.123565
4617.833829,740.205942,-8580.269578,-518.144159
4617.834153,666.185348,-8733.488677,-148.041188
4617.834477,518.144159,-8580.269578,-370.102971
4617.834802,370.102971,-9039.926876,-370.102971
4617.835126,0.000000,-8656.879127,-370.102971
4617.835450,444.123565,-8580.269578,-740.205942
4617.835775,592.164754,-8350.440928,-666.185348
4617.836099,518.144159,-9039.926876,-296.082377
4617.836423,666.185348,-8656.879127,-740.205942
4617.836748,814.226536,-8197.221829,0.000000
4617.837072,518.144159,-8580.269578,-370.102971
4617.837396,370.102971,-8427.050478,-222.061783
4617.837721,222.061783,-8656.879127,-74.020594
4617.838045,148.041188,-8503.660028,0.000000
4617.838369,296.082377,-8886.707777,-666.185348
4617.838694,370.102971,-8656.879127,-592.164754
4617.839018,666.185348,-8580.269578,-296.082377
4617.839342,444.123565,-8503.660028,-370.102971
4617.839667,814.226536,-9116.536426,-370.102971
4617.839991,370.102971,-8427.050478,-296.082377
4617.840316,296.082377,-8503.660028,-296.082377
4617.840640,296.082377,-8273.831378,-222.061783
4617.840964,592.164754,-8503.660028,-222.061783
4617.841289,518.144159,-8656.879127,-296.082377
4617.841613,518.144159,-8273.831378,-222.061783
4617.841937,444.123565,-8580.269578,-370.102971
4617.842262,370.102971,-8656.879127,-296.082377
4617.842586,666.185348,-8197.221829,-296.082377
4617.842910,296.082377,-8810.098227,74.020594
4617.843235,296.082377,-8350.440928,-148.041188
4617.843559,296.082377,-8044.002729,0.000000
4617.843883,592.164754,-9269.755526,148.041188
4617.844208,370.102971,-8503.660028,-222.061783
4617.844532,222.061783,-8580.269578,-74.020594
4617.844856,518.144159,-8580.269578,-518.144159
4617.845181,444.123565,-8503.660028,-296.082377
4617.845505,370.102971,-8810.098227,-740.205942
4617.845829,370.102971,-8656.879127,-370.102971
4617.846154,0.000000,-8120.612279,-444.123565
4617.846478,296.082377,-9116.536426,-296.082377
4617.846802,222.061783,-7890.783629,-592.164754
4617.847127,444.123565,-8733.488677,-296.082377
4617.847451,296.082377,-8656.879127,-518.144159
4617.847775,518.144159,-8733.488677,-222.061783
4617.848100,370.102971,-7890.783629,-740.205942
4617.848424,296.082377,-8810.098227,-370.102971
4617.848748,74.020594,-8350.440928,-518.144159
4617.849073,370.102971,-8580.269578,-222.061783
4617.849397,444.123565,-8427.050478,-222.061783
4617.849721,222.061783,-8810.098227,-592.164754
4617.850046,444.123565,-8810.098227,-666.185348
4617.850370,296.082377,-8733.488677,-222.061783
4617.850694,518.144159,-8656.879127,-444.123565
4617.851019,518.144159,-8810.098227,-518.144159
4617.851343,296.082377,-8503.660028,-296.082377
4617.851667,222.061783,-8580.269578,-444.123565
4617.851992,222.061783,-8733.488677,-518.144159
4617.852316,222.061783,-8963.317327,-1110.308913
4617.852640,518.144159,-8810.098227,-444.123565
4617.852965,518.144159,-8273.831378,-592.164754
4617.853289,592.164754,-8886.707777,-592.164754
4617.853613,296.082377,-8503.660028,-740.205942
4617.853938,74.020594,-8733.488677,-444.123565
4617.854262,222.061783,-8503.660028,-814.226536
4617.854586,222.061783,-8580.269578,-518.144159
4617.854911,518.144159,-8427.050478,-740.205942
4617.855235,740.205942,-8810.098227,0.000000
4617.855559,592.164754,-8427.050478,-592.164754
4617.855884,518.144159,-8810.098227,-592.164754
4617.856208,740.205942,-8580.269578,-592.164754
4617.856532,518.144159,-9116.536426,0.000000
4617.856857,370.102971,-8503.660028,-370.102971
4617.857181,148.041188,-8656.879127,-370.102971
4617.857505,740.205942,-8580.269578,-296.082377
4617.857830,518.144159,-8350.440928,-222.061783
4617.858154,518.144159,-8733.488677,0.000000
4617.858479,518.144159,-8503.660028,-370.102971
4617.858803,666.185348,-8733.488677,-222.061783
4617.859127,74.020594,-8503.660028,-518.144159
4617.859452,0.000000,-8963.317327,0.000000
4617.859776,296.082377,-8503.660028,-222.061783
4617.860100,370.102971,-8427.050478,-222.061783
4617.860425,518.144159,-8503.660028,-296.082377
4617.860749,518.144159,-8656.879127,-148.041188
4617.861073,814.226536,-8733.488677,-444.123565
4617.861398,814.226536,-8427.050478,-296.082377
4617.861722,518.144159,-8733.488677,-148.041188
4617.862046,296.082377,-8656.879127,-222.061783
4617.862371,296.082377,-8656.879127,-222.061783
4617.862695,0.000000,-8503.660028,-296.082377
4617.863019,222.061783,-8503.660028,-296.082377
4617.863344,518.144159,-8273.831378,0.000000
4617.863668,370.102971,-8963.317327,0.000000
4617.863992,222.061783,-8656.879127,-296.082377
4617.864317,222.061783,-8197.221829,-592.164754
4617.864641,0.000000,-8656.879127,0.000000
4617.864966,444.123565,-8886.707777,-296.082377
4617.865290,0.000000,-8503.660028,0.000000
4617.865614,444.123565,-8580.269578,-518.144159
4617.865939,444.123565,-8503.660028,-444.123565
4617.866263,444.123565,-8656.879127,-518.144159
4617.866587,444.123565,-9346.365076,0.000000
4617.866912,740.205942,-8120.612279,-592.164754
4617.867236,370.102971,-9039.926876,-148.041188
4617.867561,370.102971,-8350.440928,-666.185348
4617.867885,296.082377,-8963.317327,0.000000
4617.868209,296.082377,-8733.488677,-370.102971
4617.868534,296.082377,-8886.707777,-370.102971
4617.868858,518.144159,-8963.317327,-518.144159
4617.869183,444.123565,-8580.269578,-222.061783
4617.869507,296.082377,-8427.050478,-222.061783
4617.869831,148.041188,-8580.269578,-592.164754
4617.870156,592.164754,-8810.098227,-444.123565
4617.870480,296.082377,-8273.831378,-222.061783
4617.870804,0.000000,-8197.221829,-740.205942
4617.871129,444.123565,-8580.269578,-740.205942
4617.871453,666.185348,-8810.098227,-740.205942
4617.871778,444.123565,-8963.317327,-592.164754
4617.872102,666.185348,-9039.926876,-222.061783
4617.872426,444.123565,-8656.879127,-444.123565
4617.872751,296.082377,-8810.098227,-222.061783
4617.873075,370.102971,-8733.488677,-740.205942
4617.873399,518.144159,-8656.879127,-666.185348
4617.873724,592.164754,-8350.440928,0.000000
4617.874048,888.247130,-8580.269578,-444.123565
4617.874373,666.185348,-8810.098227,-592.164754
4617.874697,888.247130,-8503.660028,-518.144159
4617.875021,592.164754,-8427.050478,0.000000
4617.875346,444.123565,-8580.269578,-296.082377
4617.875670,222.061783,-8580.269578,-518.144159
4617.875995,592.164754,-8503.660028,-296.082377
4617.876319,296.082377,-8810.098227,0.000000
4617.876643,296.082377,-9116.536426,-370.102971
4617.876968,740.205942,-8350.440928,-148.041188
4617.877292,666.185348,-8273.831378,0.000000
4617.877616,370.102971,-8580.269578,-444.123565
4617.877941,444.123565,-8120.612279,-296.082377
4617.878265,370.102971,-8580.269578,-518.144159
4617.878590,74.020594,-8580.269578,-296.082377
4617.878914,0.000000,-8656.879127,-444.123565
4617.879238,0.000000,-8427.050478,-518.144159
4617.879563,296.082377,-8503.660028,-148.041188
4617.879887,444.123565,-8580.269578,-444.123565
4617.880211,666.185348,-8503.660028,-222.061783
4617.880536,666.185348,-8503.660028,-592.164754
4617.880860,666.185348,-8503.660028,-222.061783
4617.881185,444.123565,-8733.488677,-296.082377
4617.881509,148.041188,-8350.440928,-296.082377
4617.881833,592.164754,-8656.879127,-222.061783
4617.882158,518.144159,-8886.707777,-444.123565
4617.882482,740.205942,-8656.879127,0.000000
4617.882807,296.082377,-8503.660028,-148.041188
4617.883131,740.205942,-8733.488677,74.020594
4617.883455,666.185348,-8810.098227,0.000000
4617.883780,370.102971,-8733.488677,-222.061783
4617.884104,296.082377,-8197.221829,0.000000
4617.884428,222.061783,-8427.050478,-148.041188
4617.884753,148.041188,-8886.707777,-222.061783
4617.885077,814.226536,-8427.050478,-444.123565
4617.885402,666.185348,-8733.488677,-370.102971
4617.885726,518.144159,-8733.488677,-444.123565
4617.886050,444.123565,-8197.221829,0.000000
4617.886375,0.000000,-8810.098227,74.020594
4617.886699,222.061783,-8503.660028,-148.041188
4617.887023,296.082377,-8656.879127,-370.102971
4617.887348,370.102971,-8503.660028,-296.082377
4617.887672,592.164754,-9039.926876,-296.082377
4617.887997,370.102971,-8656.879127,-592.164754
4617.888321,518.144159,-8656.879127,-592.164754
4617.888645,296.082377,-8350.440928,-370.102971
4617.888970,222.061783,-8580.269578,-370.102971
4617.889294,370.102971,-8503.660028,-296.082377
4617.889619,444.123565,-8580.269578,-592.164754
4617.889943,666.185348,-8810.098227,-592.164754
4617.890267,296.082377,-8503.660028,-518.144159
4617.890592,148.041188,-8810.098227,-222.061783
4617.890916,814.226536,-8350.440928,-518.144159
4617.891240,666.185348,-8350.440928,-370.102971
4617.891565,370.102971,-8580.269578,-444.123565
4617.891889,370.102971,-9116.536426,-666.185348
4617.892214,592.164754,-8427.050478,-370.102971
4617.892538,444.123565,-8273.831378,-666.185348
4617.892862,222.061783,-8656.879127,-296.082377
4617.893187,592.164754,-8503.660028,-666.185348
4617.893511,444.123565,-8656.879127,-592.164754
4617.893835,814.226536,-8427.050478,-740.205942
4617.894160,222.061783,-8886.707777,-592.164754
4617.894484,74.020594,-8580.269578,-444.123565
4617.894809,148.041188,-8580.269578,-518.144159
4617.895133,74.020594,-8656.879127,-444.123565
4617.895457,296.082377,-8656.879127,-222.061783
4617.895782,296.082377,-8810.098227,-444.123565
4617.896106,444.123565,-8886.707777,148.041188
4617.896431,592.164754,-8503.660028,-518.144159
4617.896755,370.102971,-8810.098227,-148.041188
4617.897079,222.061783,-8656.879127,0.000000
4617.897404,0.000000,-8580.269578,0.000000
4617.897728,0.000000,-8503.660028,-296.082377
4617.898052,222.061783,-8427.050478,0.000000
4617.898377,370.102971,-8427.050478,-370.102971
4617.898701,444.123565,-8656.879127,0.000000
4617.899026,370.102971,-8427.050478,-370.102971
4617.899350,1110.308913,-8656.879127,0.000000
4617.899674,814.226536,-8503.660028,-222.061783
4617.899999,444.123565,-8656.879127,-222.061783
4617.900323,222.061783,-8350.440928,-296.082377
4617.900647,518.144159,-8427.050478,0.000000
4617.900972,370.102971,-8273.831378,-592.164754
4617.901296,666.185348,-8810.098227,-222.061783
4617.901621,370.102971,-8197.221829,-148.041188
4617.901945,814.226536,-8886.707777,-444.123565
4617.902269,666.185348,-8273.831378,-370.102971
4617.902594,666.185348,-8580.269578,-222.061783
4617.902918,222.061783,-8350.440928,-370.102971
4617.903243,518.144159,-8963.317327,222.061783
4617.903567,148.041188,-8120.612279,-444.123565
4617.903891,74.020594,-8580.269578,-296.082377
4617.904216,-148.041188,-8120.612279,-222.061783
4617.904540,148.041188,-8580.269578,0.000000
4617.904864,148.041188,-8350.440928,-148.041188
4617.905189,222.061783,-8733.488677,0.000000
4617.905513,222.061783,-8656.879127,-296.082377
4617.905838,74.020594,-8350.440928,-148.041188
4617.906162,444.123565,-8427.050478,148.041188
4617.906486,296.082377,-8503.660028,0.000000
4617.906811,222.061783,-8733.488677,-148.041188
4617.907135,370.102971,-8733.488677,-296.082377
4617.907459,370.102971,-8350.440928,370.102971
4617.907784,518.144159,-8810.098227,0.000000
4617.908108,592.164754,-8580.269578,-296.082377
4617.908433,592.164754,-8427.050478,74.020594
4617.908757,592.164754,-8120.612279,-148.041188
4617.909081,666.185348,-8810.098227,0.000000
4617.909406,666.185348,-8656.879127,-370.102971
4617.909730,666.185348,-8810.098227,-222.061783
4617.910055,444.123565,-8810.098227,-296.082377
4617.910379,518.144159,-8886.707777,-148.041188
4617.910703,222.061783,-8503.660028,-370.102971
4617.911028,296.082377,-8503.660028,-666.185348
4617.911352,0.000000,-8580.269578,-518.144159
4617.911676,444.123565,-8503.660028,-518.144159
4617.912001,222.061783,-8273.831378,-518.144159
4617.912325,444.123565,-8886.707777,-592.164754
4617.912650,148.041188,-8580.269578,-814.226536
4617.912974,370.102971,-8656.879127,-370.102971
4617.913298,0.000000,-8503.660028,-222.061783
4617.913623,0.000000,-8733.488677,-296.082377
4617.913947,74.020594,-8580.269578,-148.041188
4617.914271,148.041188,-8810.098227,-222.061783
4617.914596,370.102971,-8273.831378,-148.041188
4617.914920,444.123565,-8503.660028,-444.123565
4617.915245,1036.288319,-8580.269578,-370.102971
4617.915569,888.247130,-8120.612279,-148.041188
4617.915893,518.144159,-8810.098227,-148.041188
4617.916218,444.123565,-8886.707777,-296.082377
4617.916542,370.102971,-8273.831378,-592.164754
4617.916867,0.000000,-8810.098227,-222.061783
4617.917191,370.102971,-8503.660028,-370.102971
4617.917515,444.123565,-8733.488677,-444.123565
4617.917840,814.226536,-8427.050478,-222.061783
4617.918164,740.205942,-8350.440928,-592.164754
4617.918488,814.226536,-8886.707777,-518.144159
4617.918813,814.226536,-8580.269578,0.000000
4617.919137,74.020594,-8733.488677,-518.144159
4617.919462,0.000000,-8580.269578,-592.164754
4617.919786,0.000000,-8350.440928,-592.164754
4617.920110,74.020594,-8886.707777,-740.205942
4617.920435,148.041188,-8886.707777,-592.164754
4617.920759,296.082377,-8580.269578,0.000000
4617.921083,296.082377,-8580.269578,-148.041188
4617.921408,518.144159,-8580.269578,-222.061783
4617.921732,592.164754,-8656.879127,0.000000
4617.922057,666.185348,-8656.879127,0.000000
4617.922381,370.102971,-8120.612279,-296.082377
4617.922705,518.144159,-8656.879127,-444.123565
4617.923030,148.041188,-8197.221829,0.000000
4617.923354,666.185348,-8580.269578,0.000000
4617.923679,592.164754,-8503.660028,-370.102971
4617.924003,444.123565,-8886.707777,222.061783
4617.924327,592.164754,-8427.050478,-148.041188
4617.924652,296.082377,-8427.050478,0.000000
4617.924976,518.144159,-8350.440928,-222.061783
4617.925300,962.267725,-8580.269578,0.000000
4617.925625,814.226536,-8350.440928,-222.061783
4617.925949,666.185348,-8273.831378,0.000000
4617.926274,592.164754,-8580.269578,-370.102971
4617.926598,296.082377,-8427.050478,74.020594
4617.926922,592.164754,-8656.879127,-296.082377
4617.927247,222.061783,-8350.440928,0.000000
4617.927571,222.061783,-8273.831378,0.000000
4617.927895,370.102971,-8656.879127,-148.041188
4617.928220,74.020594,-8273.831378,-296.082377
4617.928544,148.041188,-8580.269578,-296.082377
4617.928869,518.144159,-9193.145976,-444.123565
4617.929193,222.061783,-8503.660028,-222.061783
4617.929517,370.102971,-8733.488677,-148.041188
4617.929842,74.020594,-8580.269578,-296.082377
4617.930166,0.000000,-8044.002729,-444.123565
4617.930491,296.082377,-8810.098227,-222.061783
4617.930815,518.144159,-8580.269578,-74.020594
4617.931139,518.144159,-8580.269578,-296.082377
4617.931464,740.205942,-8580.269578,-222.061783
4617.931788,814.226536,-8427.050478,-518.144159
4617.932112,370.102971,-8810.098227,-444.123565
4617.932437,444.123565,-8733.488677,-296.082377
4617.932761,222.061783,-8580.269578,0.000000
4617.933086,370.102971,-8886.707777,-518.144159
4617.933410,222.061783,-8503.660028,-370.102971
4617.933734,518.144159,-8503.660028,-518.144159
4617.934059,592.164754,-8733.488677,-592.164754
4617.934383,740.205942,-9039.926876,-370.102971
4617.934707,222.061783,-8656.879127,-222.061783
4617.935032,222.061783,-8503.660028,-444.123565
4617.935356,0.000000,-8656.879127,-666.185348
4617.935681,148.041188,-8886.707777,-222.061783
4617.936005,444.123565,-8503.660028,-592.164754
4617.936329,0.000000,-8427.050478,-444.123565
4617.936654,148.041188,-8656.879127,-296.082377
4617.936978,296.082377,-8273.831378,-518.144159
4617.937303,296.082377,-9422.974625,0.000000
4617.937627,592.164754,-8427.050478,-296.082377
4617.937951,444.123565,-8810.098227,-370.102971
4617.938276,518.144159,-8503.660028,-370.102971
4617.938600,592.164754,-8963.317327,0.000000
4617.938924,444.123565,-8427.050478,-370.102971
4617.939249,666.185348,-8580.269578,-444.123565
4617.939573,1110.308913,-8503.660028,-444.123565
4617.939898,592.164754,-8503.660028,-370.102971
4617.940222,370.102971,-8503.660028,-222.061783
4617.940546,444.123565,-8503.660028,-518.144159
4617.940871,518.144159,-8580.269578,0.000000
4617.941195,518.144159,-8197.221829,-74.020594
4617.941519,888.247130,-8427.050478,-222.061783
4617.941844,518.144159,-8503.660028,0.000000
4617.942168,518.144159,-8350.440928,-222.061783
4617.942493,666.185348,-8656.879127,-444.123565
4617.942817,666.185348,-8350.440928,-444.123565
4617.943141,666.185348,-8427.050478,-296.082377
4617.943466,148.041188,-8350.440928,-296.082377
4617.943790,222.061783,-8273.831378,-222.061783
4617.944115,74.020594,-8350.440928,-296.082377
4617.944439,592.164754,-8810.098227,-370.102971
4617.944763,444.123565,-8503.660028,-222.061783
4617.945088,592.164754,-8733.488677,-370.102971
4617.945412,592.164754,-8427.050478,-370.102971
4617.945736,148.041188,-8580.269578,-370.102971
4617.946061,222.061783,-8810.098227,-592.164754
4617.946385,518.144159,-8580.269578,-222.061783
4617.946710,296.082377,-8197.221829,-592.164754
4617.947034,296.082377,-9193.145976,-592.164754
4617.947358,148.041188,-8580.269578,-370.102971
4617.947683,518.144159,-8733.488677,-740.205942
4617.948007,666.185348,-8427.050478,-444.123565
4617.948331,444.123565,-8733.488677,-148.041188
4617.948656,296.082377,-8733.488677,-148.041188
4617.948980,296.082377,-8503.660028,-296.082377
4617.949305,0.000000,-8656.879127,-370.102971
4617.949629,222.061783,-8963.317327,-518.144159
4617.949953,74.020594,-8656.879127,0.000000
4617.950278,222.061783,-8810.098227,-518.144159
4617.950602,444.123565,-8733.488677,-740.205942
4617.950927,222.061783,-8656.879127,-518.144159
4617.951251,444.123565,-8350.440928,-518.144159
4617.951575,74.020594,-8580.269578,-444.123565
4617.951900,0.000000,-8503.660028,-296.082377
4617.952224,370.102971,-8580.269578,-888.247130
4617.952548,518.144159,-8580.269578,-592.164754
4617.952873,296.082377,-8503.660028,-444.123565
4617.953197,444.123565,-8580.269578,-444.123565
4617.953522,962.267725,-8273.831378,-296.082377
4617.953846,370.102971,-8503.660028,-518.144159
4617.954170,444.123565,-8273.831378,0.000000
4617.954495,296.082377,-8350.440928,-296.082377
4617.954819,370.102971,-8580.269578,-370.102971
4617.955143,444.123565,-8503.660028,-666.185348
4617.955468,370.102971,-8503.660028,-518.144159
4617.955792,518.144159,-8733.488677,-296.082377
4617.956117,666.185348,-8580.269578,-370.102971
4617.956441,740.205942,-8810.098227,-370.102971
4617.956765,962.267725,-8427.050478,-370.102971
4617.957090,814.226536,-8580.269578,-444.123565
4617.957414,222.061783,-8810.098227,-296.082377
4617.957739,666.185348,-8580.269578,-370.102971
4617.958063,592.164754,-8656.879127,-592.164754
4617.958387,888.247130,-8503.660028,-370.102971
4617.958712,592.164754,-8350.440928,-222.061783
4617.959036,592.164754,-8580.269578,-148.041188
4617.959360,666.185348,-8580.269578,-370.102971
4617.959685,592.164754,-8503.660028,-148.041188
4617.960009,666.185348,-8427.050478,-222.061783
4617.960334,592.164754,-8197.221829,-222.061783
4617.960658,296.082377,-8427.050478,-444.123565
4617.960982,296.082377,-8886.707777,-444.123565
4617.961307,518.144159,-8350.440928,-666.185348
4617.961631,518.144159,-8810.098227,-740.205942
4617.961955,222.061783,-8656.879127,-444.123565
4617.962280,74.020594,-8503.660028,-222.061783
4617.962604,444.123565,-8273.831378,-296.082377
4617.962929,296.082377,-8656.879127,-444.123565
4617.963253,592.164754,-8580.269578,-444.123565
4617.963577,888.247130,-8810.098227,-518.144159
4617.963902,740.205942,-8580.269578,-666.185348
4617.964226,592.164754,-8656.879127,-222.061783
4617.964550,444.123565,-8810.098227,-666.185348
4617.964875,148.041188,-9039.926876,-296.082377
4617.965199,296.082377,-8503.660028,-444.123565
4617.965524,148.041188,-9193.145976,592.164754
4617.965848,296.082377,-8733.488677,-296.082377
4617.966172,444.123565,-8656.879127,-370.102971
4617.966497,666.185348,-8733.488677,-518.144159
4617.966821,666.185348,-8963.317327,-370.102971
4617.967145,740.205942,-8810.098227,0.000000
4617.967470,296.082377,-8197.221829,-296.082377
4617.967794,0.000000,-8810.098227,-592.164754
4617.968119,0.000000,-8580.269578,-444.123565
4617.968443,-296.082377,-8503.660028,-444.123565
4617.968767,296.082377,-8580.269578,-592.164754
4617.969092,444.123565,-8656.879127,-296.082377
4617.969416,444.123565,-8273.831378,-444.123565
4617.969740,666.185348,-7890.783629,-814.226536
4617.970065,592.164754,-8427.050478,-592.164754
4617.970389,666.185348,-8810.098227,-592.164754
4617.970713,740.205942,-8350.440928,-592.164754
4617.971038,0.000000,-8427.050478,-518.144159
4617.971362,518.144159,-8886.707777,-296.082377
4617.971687,666.185348,-8503.660028,-444.123565
4617.972011,518.144159,-8886.707777,-444.123565
4617.972335,740.205942,-8273.831378,-444.123565
4617.972660,592.164754,-9269.755526,-296.082377
4617.972984,444.123565,-8656.879127,-370.102971
4617.973308,444.123565,-8427.050478,-296.082377
4617.973633,518.144159,-8427.050478,-222.061783
4617.973957,592.164754,-9499.584175,-148.041188
4617.974282,296.082377,-8273.831378,-370.102971
4617.974606,370.102971,-8427.050478,-444.123565
4617.974930,296.082377,-8427.050478,-666.185348
4617.975255,296.082377,-8733.488677,-296.082377
4617.975579,518.144159,-8427.050478,-296.082377
4617.975903,444.123565,-8656.879127,-222.061783
4617.976228,296.082377,-8580.269578,-444.123565
4617.976552,74.020594,-8427.050478,0.000000
4617.976876,444.123565,-8427.050478,-518.144159
4617.977201,370.102971,-8580.269578,-444.123565
4617.977525,444.123565,-8733.488677,-370.102971
4617.977850,370.102971,-8427.050478,-370.102971
4617.978174,370.102971,-8886.707777,-518.144159
4617.978498,296.082377,-8656.879127,-296.082377
4617.978823,740.205942,-8350.440928,-444.123565
4617.979147,518.144159,-8503.660028,-444.123565
4617.979471,444.123565,-8580.269578,-296.082377
4617.979796,666.185348,-8810.098227,0.000000
4617.980120,666.185348,-8503.660028,-518.144159
4617.980445,518.144159,-8503.660028,-518.144159
4617.980769,370.102971,-8197.221829,0.000000
4617.981093,0.000000,-8886.707777,-370.102971
4617.981418,148.041188,-8580.269578,-222.061783
4617.981742,148.041188,-8656.879127,-518.144159
4617.982066,148.041188,-8580.269578,-444.123565
4617.982391,444.123565,-9116.536426,-592.164754
4617.982715,592.164754,-8733.488677,-666.185348
4617.983039,444.123565,-8656.879127,-296.082377
4617.983364,666.185348,-8350.440928,-666.185348
4617.983688,222.061783,-8580.269578,-592.164754
4617.984013,74.020594,-8580.269578,-962.267725
4617.984337,0.000000,-8886.707777,-592.164754
4617.984661,74.020594,-8503.660028,-592.164754
4617.984986,296.082377,-8733.488677,-444.123565
4617.985310,740.205942,-9193.145976,-148.041188
4617.985634,740.205942,-8656.879127,-370.102971
4617.985959,666.185348,-8656.879127,-296.082377
4617.986283,814.226536,-8656.879127,-222.061783
4617.986608,296.082377,-8733.488677,296.082377
4617.986932,370.102971,-8503.660028,0.000000
4617.987256,148.041188,-8503.660028,-518.144159
4617.987581,148.041188,-8656.879127,-444.123565
4617.987905,518.144159,-8810.098227,-518.144159
4617.988229,518.144159,-8427.050478,0.000000
4617.988554,444.123565,-8580.269578,-444.123565
4617.988878,518.144159,-8656.879127,-222.061783
4617.989202,740.205942,-8350.440928,-296.082377
4617.989527,740.205942,-8197.221829,-148.041188
4617.989851,666.185348,-8503.660028,-296.082377
4617.990176,222.061783,-8503.660028,0.000000
4617.990500,222.061783,-8656.879127,-296.082377
4617.990824,444.123565,-8580.269578,-518.144159
4617.991149,666.185348,-8580.269578,-222.061783
4617.991473,740.205942,-8427.050478,-518.144159
4617.991797,518.144159,-8580.269578,0.000000
4617.992122,592.164754,-8656.879127,-296.082377
4617.992446,444.123565,-7814.174080,0.000000
4617.992771,592.164754,-8273.831378,-370.102971
4617.993095,222.061783,-8656.879127,-444.123565
4617.993419,444.123565,-8427.050478,-518.144159
4617.993744,1036.288319,-8427.050478,-592.164754
4617.994068,370.102971,-8273.831378,-296.082377
4617.994392,148.041188,-8427.050478,-222.061783
4617.994717,0.000000,-8580.269578,-370.102971
4617.995041,222.061783,-8503.660028,-296.082377
4617.995365,296.082377,-8427.050478,-296.082377
4617.995690,74.020594,-8656.879127,-592.164754
4617.996014,148.041188,-8503.660028,-148.041188
4617.996339,444.123565,-8810.098227,-444.123565
4617.996663,666.185348,-8580.269578,-444.123565
4617.996987,222.061783,-8427.050478,-222.061783
4617.997312,444.123565,-8886.707777,-148.041188
4617.997636,74.020594,-8733.488677,-296.082377
4617.997960,444.123565,-8963.317327,0.000000
4617.998285,518.144159,-8580.269578,-296.082377
4617.998609,592.164754,-8427.050478,-370.102971
4617.998934,518.144159,-8733.488677,-148.041188
4617.999258,740.205942,-8580.269578,-518.144159
4617.999582,962.267725,-8350.440928,-296.082377
4617.999907,370.102971,-8503.660028,-592.164754
4618.000231,296.082377,-8656.879127,0.000000
4618.000555,148.041188,-8427.050478,-148.041188
4618.000880,444.123565,-8810.098227,0.000000
4618.001204,370.102971,-8350.440928,-370.102971
4618.001528,444.123565,-8886.707777,-370.102971
4618.001853,666.185348,-8733.488677,-518.144159
4618.002177,740.205942,-8963.317327,-74.020594
4618.002502,518.144159,-8580.269578,0.000000
4618.002826,518.144159,-8810.098227,0.000000
4618.003150,370.102971,-8427.050478,-518.144159
4618.003475,444.123565,-8580.269578,-222.061783
4618.003799,74.020594,-8503.660028,-148.041188
4618.004123,444.123565,-8656.879127,-592.164754
4618.004448,518.144159,-8656.879127,-222.061783
4618.004772,814.226536,-8427.050478,-518.144159
4618.005097,592.164754,-8197.221829,-222.061783
4618.005421,1036.288319,-8273.831378,-148.041188
4618.005745,444.123565,-8656.879127,-222.061783
4618.006070,444.123565,-8580.269578,-222.061783
4618.006394,296.082377,-8350.440928,-296.082377
4618.006718,740.205942,-8656.879127,-444.123565
4618.007043,518.144159,-8656.879127,-518.144159
4618.007367,740.205942,-8733.488677,-296.082377
4618.007691,444.123565,-8273.831378,-444.123565
4618.008016,370.102971,-8580.269578,222.061783
4618.008340,148.041188,-8120.612279,-296.082377
4618.008665,296.082377,-8886.707777,0.000000
4618.008989,296.082377,-8197.221829,-148.041188
4618.009313,592.164754,-8273.831378,0.000000
4618.009638,370.102971,-8503.660028,-296.082377
4618.009962,518.144159,-8503.660028,0.000000
4618.010286,592.164754,-8580.269578,-444.123565
4618.010611,296.082377,-8427.050478,0.000000
4618.010935,148.041188,-8580.269578,0.000000
4618.011260,296.082377,-8580.269578,0.000000
4618.011584,296.082377,-7890.783629,-222.061783
4618.011908,518.144159,-8656.879127,0.000000
4618.012233,518.144159,-8427.050478,-444.123565
4618.012557,666.185348,-8580.269578,-222.061783
4618.012881,518.144159,-8733.488677,-296.082377
4618.013206,518.144159,-8656.879127,-296.082377
4618.013530,518.144159,-8273.831378,-148.041188
4618.013854,370.102971,-8656.879127,-222.061783
4618.014179,296.082377,-8656.879127,-148.041188
4618.014503,296.082377,-8733.488677,-222.061783
4618.014828,148.041188,-8810.098227,-74.020594
4618.015152,444.123565,-8273.831378,-592.164754
4618.015476,444.123565,-8810.098227,-296.082377
4618.015801,666.185348,-8733.488677,0.000000
4618.016125,296.082377,-8503.660028,-222.061783
4618.016449,148.041188,-9269.755526,-518.144159
4618.016774,0.000000,-8427.050478,0.000000
4618.017098,0.000000,-8733.488677,-222.061783
4618.017423,0.000000,-8656.879127,-296.082377
4618.017747,74.020594,-9422.974625,-222.061783
4618.018071,444.123565,-8503.660028,-444.123565
4618.018396,592.164754,-8427.050478,-370.102971
4618.018720,592.164754,-8656.879127,-592.164754
4618.019044,296.082377,-8810.098227,-444.123565
4618.019369,444.123565,-8350.440928,-444.123565
4618.019693,74.020594,-8427.050478,-666.185348
4618.020017,222.061783,-8810.098227,-518.144159
4618.020342,0.000000,-8733.488677,-666.185348
4618.020666,370.102971,-8503.660028,-444.123565
4618.020991,444.123565,-8656.879127,-370.102971
4618.021315,518.144159,-8733.488677,-370.102971
4618.021639,666.185348,-8503.660028,-370.102971
4618.021964,666.185348,-8810.098227,-518.144159
4618.022288,592.164754,-8503.660028,-888.247130
4618.022612,666.185348,-8810.098227,-592.164754
4618.022937,592.164754,-8273.831378,-222.061783
4618.023261,444.123565,-8427.050478,-592.164754
4618.023586,814.226536,-8886.707777,-592.164754
4618.023910,444.123565,-8427.050478,-518.144159
4618.024234,592.164754,-8810.098227,-296.082377
4618.024559,370.102971,-8886.707777,-222.061783
4618.024883,370.102971,-8656.879127,-296.082377
4618.025207,518.144159,-8350.440928,-222.061783
4618.025532,518.144159,-8733.488677,0.000000
4618.025856,444.123565,-8656.879127,-444.123565
4618.026180,740.205942,-8886.707777,-222.061783
4618.026505,592.164754,-8273.831378,-222.061783
4618.026829,296.082377,-8886.707777,-296.082377
4618.027154,370.102971,-8656.879127,-296.082377
4618.027478,444.123565,-8963.317327,0.000000
4618.027802,518.144159,-8656.879127,0.000000
4618.028127,296.082377,-8580.269578,-370.102971
4618.028451,666.185348,-8503.660028,-222.061783
4618.028775,814.226536,-8350.440928,-444.123565
4618.029100,296.082377,-8963.317327,-148.041188
4618.029424,740.205942,-8733.488677,-370.102971
4618.029749,814.226536,-8503.660028,-148.041188
4618.030073,296.082377,-8733.488677,-370.102971
4618.030397,296.082377,-8503.660028,-518.144159
4618.030722,592.164754,-8273.831378,-296.082377
4618.031046,222.061783,-8733.488677,-370.102971
4618.031370,148.041188,-8427.050478,-296.082377
4618.031695,740.205942,-8886.707777,-148.041188
4618.032019,1036.288319,-9039.926876,-296.082377
4618.032343,444.123565,-8503.660028,0.000000
4618.032668,370.102971,-8656.879127,0.000000
4618.032992,222.061783,-8733.488677,0.000000
4618.033317,296.082377,-8656.879127,444.123565
4618.033641,148.041188,-8503.660028,-148.041188
4618.033965,148.041188,-8503.660028,0.000000
4618.034290,222.061783,-8580.269578,-222.061783
4618.034614,370.102971,-8733.488677,-370.102971
4618.034938,148.041188,-8656.879127,444.123565
4618.035263,148.041188,-8503.660028,-444.123565
4618.035587,222.061783,-8810.098227,-296.082377
4618.035912,222.061783,-8120.612279,-370.102971
4618.036236,296.082377,-8810.098227,-222.061783
4618.036560,296.082377,-8503.660028,-444.123565
4618.036885,296.082377,-8503.660028,-296.082377
4618.037209,666.185348,-8810.098227,-666.185348
4618.037533,592.164754,-8580.269578,0.000000
4618.037858,444.123565,-8580.269578,-518.144159
4618.038182,222.061783,-8733.488677,-296.082377
4618.038506,518.144159,-8733.488677,-222.061783
4618.038831,518.144159,-8656.879127,-296.082377
4618.039155,888.247130,-8350.440928,-296.082377
4618.039480,370.102971,-8580.269578,-444.123565
4618.039804,444.123565,-8963.317327,-370.102971
4618.040128,666.185348,-8580.269578,-148.041188
4618.040453,1036.288319,-7890.783629,-148.041188
4618.040777,444.123565,-8733.488677,-148.041188
4618.041101,444.123565,-8427.050478,-370.102971
4618.041426,370.102971,-9039.926876,-592.164754
4618.041750,222.061783,-8656.879127,-592.164754
4618.042075,296.082377,-8503.660028,-370.102971
4618.042399,518.144159,-8503.660028,-888.247130
4618.042723,444.123565,-8350.440928,-518.144159
4618.043048,444.123565,-8810.098227,-592.164754
4618.043372,740.205942,-8427.050478,-592.164754
4618.043696,518.144159,-8273.831378,-592.164754
4618.044021,222.061783,-8503.660028,-370.102971
4618.044345,370.102971,-8350.440928,-296.082377
4618.044669,592.164754,-8427.050478,0.000000
4618.044994,740.205942,-8733.488677,-518.144159
4618.045318,740.205942,-8580.269578,-296.082377
4618.045643,370.102971,-8656.879127,-518.144159
4618.045967,444.123565,-8503.660028,-370.102971
4618.046291,518.144159,-8350.440928,-370.102971
4618.046616,222.061783,-8656.879127,-370.102971
4618.046940,518.144159,-8350.440928,-296.082377
4618.047264,592.164754,-8350.440928,0.000000
4618.047589,518.144159,-8886.707777,74.020594
4618.047913,666.185348,-8580.269578,-370.102971
4618.048238,592.164754,-8580.269578,-592.164754
4618.048562,444.123565,-8810.098227,-222.061783
4618.048886,962.267725,-8886.707777,-296.082377
4618.049211,148.041188,-8580.269578,-370.102971
4618.049535,222.061783,-8580.269578,-222.061783
4618.049859,148.041188,-8503.660028,-296.082377
4618.050184,296.082377,-8963.317327,-222.061783
4618.050508,592.164754,-8427.050478,-296.082377
4618.050832,740.205942,-8427.050478,-222.061783
4618.051157,518.144159,-8963.317327,-296.082377
4618.051481,592.164754,-8503.660028,-296.082377
4618.051806,296.082377,-8350.440928,-222.061783
4618.052130,296.082377,-8656.879127,-222.061783
4618.052454,148.041188,-8580.269578,0.000000
4618.052779,222.061783,-8810.098227,-370.102971
4618.053103,592.164754,-8350.440928,-444.123565
4618.053427,666.185348,-8656.879127,-666.185348
4618.053752,814.226536,-8656.879127,-148.041188
4618.054076,296.082377,-8350.440928,-222.061783
4618.054401,518.144159,-8886.707777,-222.061783
4618.054725,370.102971,-8580.269578,-444.123565
4618.055049,296.082377,-8503.660028,-370.102971
4618.055374,296.082377,-8580.269578,-666.185348
4618.055698,296.082377,-8963.317327,-444.123565
4618.056022,962.267725,-8886.707777,-666.185348
4618.056347,296.082377,-8656.879127,-296.082377
4618.056671,296.082377,-8350.440928,-444.123565
4618.056995,296.082377,-8503.660028,-518.144159
4618.057320,222.061783,-9039.926876,-518.144159
4618.057644,444.123565,-8044.002729,-148.041188
4618.057969,74.020594,-8733.488677,-296.082377
4618.058293,370.102971,-8503.660028,-296.082377
4618.058617,296.082377,-8427.050478,-740.205942
4618.058942,888.247130,-8580.269578,-370.102971
4618.059266,370.102971,-8273.831378,-444.123565
4618.059590,370.102971,-8810.098227,-518.144159
4618.059915,148.041188,-8733.488677,-148.041188
4618.060239,370.102971,-8656.879127,-444.123565
4618.060564,370.102971,-8810.098227,-370.102971
4618.060888,518.144159,-8044.002729,-518.144159
4618.061212,592.164754,-8810.098227,-370.102971
4618.061537,444.123565,-8733.488677,-888.247130
4618.061861,814.226536,-8503.660028,-592.164754
4618.062185,444.123565,-8503.660028,-444.123565
4618.062510,518.144159,-8810.098227,-222.061783
4618.062834,296.082377,-8580.269578,-370.102971
4618.063158,444.123565,-9039.926876,0.000000
4618.063483,518.144159,-8503.660028,-444.123565
4618.063807,518.144159,-8886.707777,-296.082377
4618.064132,666.185348,-8580.269578,-518.144159
4618.064456,74.020594,-8886.707777,-222.061783
4618.064780,222.061783,-8656.879127,-370.102971
4618.065105,296.082377,-8656.879127,-444.123565
4618.065429,148.041188,-8580.269578,-370.102971
4618.065753,370.102971,-8503.660028,-370.102971
4618.066078,222.061783,-8656.879127,-222.061783
4618.066402,222.061783,-8427.050478,-148.041188
4618.066726,444.123565,-8656.879127,-296.082377
4618.067051,518.144159,-8503.660028,-296.082377
4618.067375,962.267725,-8810.098227,-518.144159
4618.067699,518.144159,-8427.050478,-296.082377
4618.068024,222.061783,-8427.050478,74.020594
4618.068348,0.000000,-8810.098227,-148.041188
4618.068672,148.041188,-8197.221829,-222.061783
4618.068997,518.144159,-8886.707777,-370.102971
4618.069321,592.164754,-8656.879127,-296.082377
4618.069645,740.205942,-8733.488677,-370.102971
4618.069970,518.144159,-8350.440928,-370.102971
4618.070294,666.185348,-8656.879127,0.000000
4618.070618,370.102971,-8120.612279,-370.102971
4618.070943,148.041188,-8656.879127,-666.185348
4618.071267,370.102971,-8197.221829,-222.061783
4618.071591,444.123565,-8273.831378,0.000000
4618.071916,296.082377,-8810.098227,-444.123565
4618.072240,518.144159,-8810.098227,-148.041188
4618.072564,666.185348,-8656.879127,-444.123565
4618.072889,888.247130,-8963.317327,296.082377
4618.073213,666.185348,-8350.440928,-370.102971
4618.073537,444.123565,-8733.488677,-148.041188
4618.073862,592.164754,-8350.440928,-222.061783
4618.074186,222.061783,-8656.879127,-370.102971
4618.074510,814.226536,-8580.269578,-666.185348
4618.074835,666.185348,-8350.440928,-296.082377
4618.075159,74.020594,-8810.098227,-370.102971
4618.075483,740.205942,-9039.926876,-296.082377
4618.075808,1036.288319,-7967.393179,-666.185348
4618.076132,296.082377,-8810.098227,-296.082377
4618.076456,592.164754,-8580.269578,-296.082377
4618.076781,148.041188,-8656.879127,-592.164754
4618.077105,222.061783,-8656.879127,-740.205942
4618.077429,148.041188,-8503.660028,-370.102971
4618.077754,296.082377,-8580.269578,-740.205942
4618.078078,518.144159,-8810.098227,-814.226536
4618.078402,518.144159,-8427.050478,-148.041188
4618.078727,814.226536,-8886.707777,-592.164754
4618.079051,296.082377,-8810.098227,-592.164754
4618.079376,518.144159,-8503.660028,-370.102971
4618.079700,370.102971,-8580.269578,-296.082377
4618.080024,1110.308913,-8656.879127,-592.164754
4618.080349,296.082377,-8656.879127,-518.144159
4618.080673,518.144159,-8810.098227,-370.102971
4618.080997,148.041188,-8427.050478,-370.102971
4618.081322,296.082377,-9116.536426,-592.164754
4618.081646,0.000000,-8273.831378,0.000000
4618.081970,444.123565,-8656.879127,0.000000
4618.082295,0.000000,-8886.707777,-444.123565
4618.082619,296.082377,-8580.269578,-518.144159
4618.082943,592.164754,-8197.221829,-888.247130
4618.083268,740.205942,-8580.269578,-740.205942
4618.083592,814.226536,-8580.269578,-370.102971
4618.083916,296.082377,-8656.879127,-444.123565
4618.084241,444.123565,-8350.440928,-296.082377
4618.084565,0.000000,-8197.221829,-296.082377
4618.084889,370.102971,-8656.879127,-296.082377
4618.085214,370.102971,-8350.440928,-370.102971
4618.085538,148.041188,-8503.660028,-370.102971
4618.085862,370.102971,-8733.488677,-592.164754
4618.086187,518.144159,-8427.050478,-444.123565
4618.086511,518.144159,-8656.879127,-370.102971
4618.086835,370.102971,-8580.269578,-370.102971
4618.087160,74.020594,-8427.050478,-296.082377
4618.087484,370.102971,-8733.488677,-518.144159
4618.087808,222.061783,-8733.488677,-148.041188
4618.088133,518.144159,-8733.488677,-296.082377
4618.088457,888.247130,-8350.440928,-370.102971
4618.088781,740.205942,-8427.050478,-222.061783
4618.089106,888.247130,-8580.269578,0.000000
4618.089430,666.185348,-8580.269578,-222.061783
4618.089754,592.164754,-8656.879127,-222.061783
4618.090079,666.185348,-8580.269578,-740.205942
4618.090403,518.144159,-8503.660028,-296.082377
4618.090727,518.144159,-8810.098227,-370.102971
4618.091052,296.082377,-8580.269578,-222.061783
4618.091376,814.226536,-8963.317327,148.041188
4618.091700,444.123565,-8733.488677,0.000000
4618.092025,666.185348,-8580.269578,-370.102971
4618.092349,518.144159,-8044.002729,-148.041188
4618.092673,222.061783,-8733.488677,-296.082377
4618.092998,370.102971,-8427.050478,-370.102971
4618.093322,296.082377,-8580.269578,-518.144159
4618.093646,518.144159,-8503.660028,-518.144159
4618.093971,518.144159,-8580.269578,-370.102971
4618.094295,222.061783,-8350.440928,-518.144159
4618.094619,518.144159,-8580.269578,-222.061783
4618.094944,296.082377,-8580.269578,-592.164754
4618.095268,370.102971,-8733.488677,-444.123565
4618.095592,444.123565,-8580.269578,-666.185348
4618.095917,592.164754,-8427.050478,-518.144159
4618.096241,740.205942,-8810.098227,-296.082377
4618.096565,592.164754,-8503.660028,-592.164754
4618.096890,814.226536,-8656.879127,-592.164754
4618.097214,444.123565,-8656.879127,-296.082377
4618.097539,370.102971,-8810.098227,-148.041188
4618.097863,296.082377,-8733.488677,-592.164754
4618.098187,0.000000,-8580.269578,0.000000
4618.098512,0.000000,-8656.879127,148.041188
4618.098836,74.020594,-8656.879127,-296.082377
4618.099160,592.164754,-8427.050478,-296.082377
4618.099485,592.164754,-8350.440928,-222.061783
4618.099809,0.000000,-9269.755526,0.000000
4618.100133,444.123565,-8503.660028,-296.082377
4618.100458,148.041188,-8810.098227,74.020594
4618.100782,0.000000,-8427.050478,-148.041188
4618.101106,0.000000,-8810.098227,0.000000
4618.101431,0.000000,-8044.002729,-296.082377
4618.101755,296.082377,-8733.488677,-296.082377
4618.102079,592.164754,-8656.879127,-592.164754
4618.102404,666.185348,-8733.488677,-444.123565
4618.102728,592.164754,-8120.612279,0.000000
4618.103052,518.144159,-8810.098227,-222.061783
4618.103377,518.144159,-8503.660028,-740.205942
4618.103701,592.164754,-8427.050478,-296.082377
4618.104025,444.123565,-8427.050478,-296.082377
4618.104350,444.123565,-8886.707777,-370.102971
4618.104674,518.144159,-8733.488677,-666.185348
4618.104998,666.185348,-8733.488677,-444.123565
4618.105323,592.164754,-8273.831378,-296.082377
4618.105647,666.185348,-8810.098227,-592.164754
4618.105971,444.123565,-8580.269578,-222.061783
4618.106296,222.061783,-8197.221829,-296.082377
4618.106620,370.102971,-8810.098227,-296.082377
4618.106944,222.061783,-7584.345430,444.123565
4618.107269,666.185348,-8810.098227,-296.082377
4618.107593,666.185348,-8427.050478,-370.102971
4618.107917,518.144159,-8810.098227,0.000000
4618.108242,296.082377,-8886.707777,-148.041188
4618.108566,296.082377,-8656.879127,-148.041188
4618.108890,148.041188,-8350.440928,-370.102971
4618.109215,592.164754,-8656.879127,-222.061783
4618.109539,592.164754,-8427.050478,-444.123565
4618.109863,592.164754,-8886.707777,0.000000
4618.110188,814.226536,-8656.879127,-296.082377
4618.110512,740.205942,-8503.660028,-370.102971
4618.110836,518.144159,-8503.660028,-296.082377
4618.111161,370.102971,-7584.345430,0.000000
4618.111485,74.020594,-8810.098227,74.020594
4618.111809,296.082377,-8503.660028,-296.082377
4618.112134,222.061783,-8273.831378,0.000000
4618.112458,222.061783,-8886.707777,-296.082377
4618.112782,370.102971,-8656.879127,-222.061783
4618.113107,518.144159,-8427.050478,0.000000
4618.113431,370.102971,-8656.879127,-370.102971
4618.113755,444.123565,-8810.098227,-296.082377
4618.114080,666.185348,-8120.612279,-222.061783
4618.114404,148.041188,-8733.488677,-222.061783
4618.114729,296.082377,-8580.269578,0.000000
4618.115053,0.000000,-8656.879127,-296.082377
4618.115377,740.205942,-8810.098227,-592.164754
4618.115702,370.102971,-9039.926876,-592.164754
4618.116026,370.102971,-8810.098227,-518.144159
4618.116350,444.123565,-8503.660028,-222.061783
4618.116675,296.082377,-8656.879127,-296.082377
4618.116999,74.020594,-8580.269578,-296.082377
4618.117323,444.123565,-8273.831378,-666.185348
4618.117648,296.082377,-8197.221829,-370.102971
4618.117972,444.123565,-8503.660028,-592.164754
4618.118296,296.082377,-8120.612279,-370.102971
4618.118621,444.123565,-8580.269578,0.000000
4618.118945,666.185348,-8580.269578,-666.185348
4618.119269,296.082377,-8503.660028,-296.082377
4618.119594,592.164754,-8733.488677,-518.144159
4618.119918,296.082377,-8427.050478,0.000000
4618.120242,0.000000,-8350.440928,-148.041188
4618.120567,370.102971,-8656.879127,-444.123565
4618.120891,592.164754,-8350.440928,-222.061783
4618.121215,814.226536,-8886.707777,-296.082377
4618.121540,666.185348,-8580.269578,0.000000
4618.121864,666.185348,-8503.660028,-296.082377
