#time,accel_x,accel_y,accel_z
4638.319607,296.082377,-9039.926876,-370.102971
4638.319931,222.061783,-8503.660028,-444.123565
4638.320255,222.061783,-8733.488677,-592.164754
4638.320580,444.123565,-8197.221829,-296.082377
4638.320904,296.082377,-8580.269578,-148.041188
4638.321229,74.020594,-8350.440928,-222.061783
4638.321553,222.061783,-8580.269578,-296.082377
4638.321877,518.144159,-8580.269578,-370.102971
4638.322202,444.123565,-8656.879127,-518.144159
4638.322526,222.061783,-8273.831378,-518.144159
4638.322850,444.123565,-8733.488677,-222.061783
4638.323175,444.123565,-8503.660028,-370.102971
4638.323499,296.082377,-8580.269578,-370.102971
4638.323823,296.082377,-8580.269578,-444.123565
4638.324148,666.185348,-8427.050478,-222.061783
4638.324472,148.041188,-8503.660028,-296.082377
4638.324796,222.061783,-8656.879127,-222.061783
4638.325121,444.123565,-8733.488677,-296.082377
4638.325445,740.205942,-9346.365076,-370.102971
4638.325769,296.082377,-8427.050478,-222.061783
4638.326094,296.082377,-8427.050478,-148.041188
4638.326418,370.102971,-8580.269578,-592.164754
4638.326742,666.185348,-9039.926876,0.000000
4638.327067,518.144159,-8810.098227,-222.061783
4638.327391,592.164754,-8656.879127,-222.061783
4638.327715,592.164754,-8503.660028,-148.041188
4638.328040,296.082377,-8733.488677,0.000000
4638.328364,592.164754,-8503.660028,-370.102971
4638.328688,148.041188,-8350.440928,-370.102971
4638.329013,370.102971,-8656.879127,-296.082377
4638.329337,444.123565,-8580.269578,-296.082377
4638.329662,962.267725,-8427.050478,-518.144159
4638.329986,370.102971,-8503.660028,-444.123565
4638.330310,370.102971,-8580.269578,-296.082377
4638.330635,518.144159,-8427.050478,-592.164754
4638.330959,814.226536,-8503.660028,-518.144159
4638.331283,740.205942,-8273.831378,-370.102971
4638.331608,444.123565,-9039.926876,-370.102971
4638.331932,592.164754,-8580.269578,-370.102971
4638.332256,370.102971,-8886.707777,-444.123565
4638.332581,444.123565,-8963.317327,-518.144159
4638.332905,222.061783,-8350.440928,0.000000
4638.333229,444.123565,-8963.317327,-370.102971
4638.333554,296.082377,-8350.440928,-370.102971
4638.333878,444.123565,-9039.926876,0.000000
4638.334202,444.123565,-8580.269578,-518.144159
4638.334527,444.123565,-8810.098227,-222.061783
4638.334851,222.061783,-8427.050478,-444.123565
4638.335175,74.020594,-9346.365076,-148.041188
4638.335500,296.082377,-8580.269578,-518.144159
4638.335824,666.185348,-8656.879127,-518.144159
4638.336148,296.082377,-8503.660028,-222.061783
4638.336473,518.144159,-8503.660028,-74.020594
4638.336797,222.061783,-8733.488677,-74.020594
4638.337121,296.082377,-8350.440928,-222.061783
4638.337446,444.123565,-8503.660028,-518.144159
4638.337770,296.082377,-8580.269578,-222.061783
4638.338094,444.123565,-8350.440928,0.000000
4638.338419,222.061783,-8886.707777,-296.082377
4638.338743,518.144159,-8656.879127,-296.082377
4638.339068,296.082377,-8656.879127,-222.061783
4638.339392,518.144159,-8427.050478,-370.102971
4638.339716,370.102971,-8656.879127,-222.061783
4638.340041,370.102971,-8580.269578,-222.061783
4638.340365,370.102971,-8580.269578,-296.082377
4638.340689,444.123565,-8350.440928,-444.123565
4638.341014,296.082377,-8503.660028,-222.061783
4638.341338,518.144159,-8503.660028,-370.102971
4638.341662,148.041188,-8580.269578,-370.102971
4638.341987,296.082377,-8810.098227,-296.082377
4638.342311,962.267725,-8810.098227,-444.123565
4638.342635,444.123565,-8427.050478,-296.082377
4638.342960,518.144159,-8810.098227,-222.061783
4638.343284,444.123565,-8350.440928,0.000000
4638.343608,444.123565,-8886.707777,-370.102971
4638.343933,444.123565,-8656.879127,-296.082377
4638.344257,222.061783,-8656.879127,-296.082377
4638.344581,296.082377,-8580.269578,-296.082377
4638.344906,518.144159,-8350.440928,-370.102971
4638.345230,592.164754,-8427.050478,-296.082377
4638.345554,296.082377,-8503.660028,-370.102971
4638.345879,592.164754,-8656.879127,0.000000
4638.346203,518.144159,-8656.879127,-740.205942
4638.346527,370.102971,-8503.660028,0.000000
4638.346852,222.061783,-8810.098227,-444.123565
4638.347176,444.123565,-8580.269578,-296.082377
4638.347500,444.123565,-8427.050478,-296.082377
4638.347825,592.164754,-8733.488677,-592.164754
4638.348149,370.102971,-8580.269578,-592.164754
4638.348474,666.185348,-8733.488677,-148.041188
4638.348798,370.102971,-8503.660028,-444.123565
4638.349122,222.061783,-8503.660028,-444.123565
4638.349447,962.267725,-8810.098227,-1036.288319
4638.349771,370.102971,-8963.317327,-592.164754
4638.350095,296.082377,-8733.488677,-592.164754
4638.350420,222.061783,-8733.488677,-518.144159
4638.350744,518.144159,-8656.879127,-592.164754
4638.351068,222.061783,-8427.050478,-666.185348
4638.351393,592.164754,-8886.707777,-962.267725
4638.351717,518.144159,-8503.660028,-592.164754
4638.352041,518.144159,-8427.050478,-592.164754
4638.352366,444.123565,-8427.050478,-740.205942
4638.352690,148.041188,-8580.269578,-592.164754
4638.353014,740.205942,-8350.440928,-1036.288319
4638.353339,222.061783,-8656.879127,-740.205942
4638.353663,444.123565,-8503.660028,-1036.288319
4638.353987,444.123565,-8656.879127,-888.247130
4638.354312,444.123565,-8580.269578,-814.226536
4638.354636,666.185348,-8656.879127,-1036.288319
4638.354960,518.144159,-8580.269578,-888.247130
4638.355285,592.164754,-8733.488677,-814.226536
4638.355609,444.123565,-8427.050478,-1036.288319
4638.355933,370.102971,-8886.707777,-888.247130
4638.356258,222.061783,-8503.660028,-1036.288319
4638.356582,74.020594,-8733.488677,-592.164754
4638.356907,296.082377,-8656.879127,-740.205942
4638.357231,370.102971,-8273.831378,-666.185348
4638.357555,444.123565,-8580.269578,-962.267725
4638.357880,222.061783,-9269.755526,-296.082377
4638.358204,666.185348,-8503.660028,-962.267725
4638.358528,592.164754,-8580.269578,-814.226536
4638.358853,518.144159,-8656.879127,-666.185348
4638.359177,518.144159,-8580.269578,-666.185348
4638.359501,296.082377,-8273.831378,-666.185348
4638.359826,666.185348,-8656.879127,-518.144159
4638.360150,518.144159,-8350.440928,-518.144159
4638.360474,592.164754,-8273.831378,-592.164754
4638.360799,518.144159,-8427.050478,-666.185348
4638.361123,370.102971,-8580.269578,-444.123565
4638.361447,592.164754,-8350.440928,-444.123565
4638.361772,666.185348,-8733.488677,-592.164754
4638.362096,518.144159,-8963.317327,-888.247130
4638.362420,518.144159,-8197.221829,-592.164754
4638.362745,222.061783,-8656.879127,-444.123565
4638.363069,222.061783,-8656.879127,-370.102971
4638.363393,444.123565,-8733.488677,-296.082377
4638.363718,370.102971,-8733.488677,-296.082377
4638.364042,592.164754,-8350.440928,-296.082377
4638.364366,518.144159,-8580.269578,-296.082377
4638.364691,666.185348,-8503.660028,-148.041188
4638.365015,888.247130,-8273.831378,-222.061783
4638.365339,444.123565,-8656.879127,-148.041188
4638.365664,592.164754,-8580.269578,-296.082377
4638.365988,148.041188,-8656.879127,0.000000
4638.366313,0.000000,-9269.755526,74.020594
4638.366637,0.000000,-8656.879127,0.000000
4638.366961,444.123565,-8656.879127,-296.082377
4638.367286,518.144159,-8580.269578,0.000000
4638.367610,518.144159,-8580.269578,0.000000
4638.367934,666.185348,-8733.488677,222.061783
4638.368259,222.061783,-8886.707777,222.061783
4638.368583,370.102971,-8580.269578,0.000000
4638.368907,296.082377,-8580.269578,148.041188
4638.369232,-74.020594,-8503.660028,518.144159
4638.369556,148.041188,-8503.660028,74.020594
4638.369880,0.000000,-8656.879127,0.000000
4638.370205,296.082377,-8580.269578,296.082377
4638.370529,444.123565,-8963.317327,740.205942
4638.370853,518.144159,-8503.660028,370.102971
4638.371178,814.226536,-8350.440928,0.000000
4638.371502,740.205942,-8350.440928,148.041188
4638.371826,592.164754,-8273.831378,0.000000
4638.372151,962.267725,-8963.317327,0.000000
4638.372475,518.144159,-8733.488677,-222.061783
4638.372799,370.102971,-8503.660028,0.000000
4638.373124,296.082377,-8580.269578,0.000000
4638.373448,296.082377,-8273.831378,148.041188
4638.373772,518.144159,-8733.488677,-148.041188
4638.374097,592.164754,-8656.879127,0.000000
4638.374421,740.205942,-8733.488677,0.000000
4638.374745,814.226536,-7890.783629,74.020594
4638.375070,1036.288319,-8580.269578,0.000000
4638.375394,740.205942,-8580.269578,0.000000
4638.375719,444.123565,-8733.488677,0.000000
4638.376043,518.144159,-8350.440928,148.041188
4638.376367,592.164754,-8427.050478,-296.082377
4638.376692,222.061783,-8733.488677,0.000000
4638.377016,370.102971,-8503.660028,0.000000
4638.377340,592.164754,-8427.050478,-222.061783
4638.377665,740.205942,-9729.412825,222.061783
4638.377989,518.144159,-8427.050478,74.020594
4638.378313,370.102971,-8656.879127,74.020594
4638.378638,518.144159,-8197.221829,-296.082377
4638.378962,518.144159,-8656.879127,0.000000
4638.379286,666.185348,-8810.098227,-296.082377
4638.379611,592.164754,-8427.050478,0.000000
4638.379935,444.123565,-8350.440928,-148.041188
4638.380259,222.061783,-8580.269578,-148.041188
4638.380584,74.020594,-8120.612279,0.000000
4638.380908,222.061783,-8733.488677,-296.082377
4638.381232,370.102971,-8733.488677,0.000000
4638.381557,370.102971,-8733.488677,-296.082377
4638.381881,0.000000,-8580.269578,-444.123565
4638.382205,148.041188,-8580.269578,-370.102971
4638.382530,74.020594,-8733.488677,-518.144159
4638.382854,148.041188,-8733.488677,-444.123565
4638.383178,0.000000,-8427.050478,-222.061783
4638.383503,74.020594,-8656.879127,-592.164754
4638.383827,222.061783,-8503.660028,-592.164754
4638.384151,444.123565,-8733.488677,-740.205942
4638.384476,444.123565,-8733.488677,-666.185348
4638.384800,740.205942,-9269.755526,-814.226536
4638.385124,148.041188,-8733.488677,-444.123565
4638.385449,148.041188,-8656.879127,-814.226536
4638.385773,74.020594,-8656.879127,-666.185348
4638.386097,222.061783,-9806.022374,-444.123565
4638.386422,148.041188,-8733.488677,-370.102971
4638.386746,444.123565,-8503.660028,-666.185348
4638.387070,444.123565,-8503.660028,-370.102971
4638.387394,814.226536,-8886.707777,-592.164754
4638.387719,592.164754,-8580.269578,-814.226536
4638.388043,888.247130,-8733.488677,-666.185348
4638.388367,666.185348,-8580.269578,-592.164754
4638.388692,518.144159,-8656.879127,-740.205942
4638.389016,444.123565,-8427.050478,-444.123565
4638.389340,222.061783,-8427.050478,-888.247130
4638.389665,222.061783,-8580.269578,-740.205942
4638.389989,370.102971,-8580.269578,-814.226536
4638.390313,370.102971,-9039.926876,-740.205942
4638.390638,518.144159,-8733.488677,-592.164754
4638.390962,666.185348,-8810.098227,-740.205942
4638.391286,1036.288319,-8733.488677,-740.205942
4638.391611,962.267725,-8503.660028,-518.144159
4638.391935,444.123565,-8503.660028,-370.102971
4638.392259,666.185348,-8656.879127,-740.205942
4638.392584,444.123565,-8120.612279,-592.164754
4638.392908,296.082377,-8427.050478,-1110.308913
4638.393232,0.000000,-8503.660028,-666.185348
4638.393557,518.144159,-8427.050478,-518.144159
4638.393881,296.082377,-8427.050478,-296.082377
4638.394205,518.144159,-8580.269578,-444.123565
4638.394530,740.205942,-8810.098227,-148.041188
4638.394854,592.164754,-8503.660028,0.000000
4638.395178,814.226536,-8733.488677,74.020594
4638.395502,740.205942,-8427.050478,296.082377
4638.395827,888.247130,-8580.269578,0.000000
4638.396151,370.102971,-8273.831378,74.020594
4638.396475,666.185348,-8733.488677,-592.164754
4638.396800,74.020594,-8427.050478,-518.144159
4638.397124,148.041188,-8656.879127,0.000000
4638.397448,0.000000,-8350.440928,-518.144159
4638.397773,148.041188,-8656.879127,148.041188
4638.398097,370.102971,-8350.440928,0.000000
4638.398421,0.000000,-8810.098227,148.041188
4638.398746,444.123565,-8656.879127,296.082377
4638.399070,666.185348,-8120.612279,0.000000
4638.399394,814.226536,-8810.098227,0.000000
4638.399719,518.144159,-8580.269578,74.020594
4638.400043,296.082377,-8886.707777,-148.041188
4638.400367,814.226536,-8810.098227,0.000000
4638.400692,74.020594,-8350.440928,0.000000
4638.401016,-148.041188,-8810.098227,148.041188
4638.401340,-148.041188,-8427.050478,0.000000
4638.401665,74.020594,-9269.755526,148.041188
4638.401989,296.082377,-8656.879127,296.082377
4638.402313,518.144159,-8427.050478,296.082377
4638.402638,666.185348,-8963.317327,222.061783
4638.402962,666.185348,-8580.269578,222.061783
4638.403286,888.247130,-8733.488677,222.061783
4638.403610,666.185348,-8503.660028,148.041188
4638.403935,370.102971,-8427.050478,592.164754
4638.404259,0.000000,-8273.831378,0.000000
4638.404583,-222.061783,-8044.002729,370.102971
4638.404908,222.061783,-8427.050478,148.041188
4638.405232,222.061783,-8503.660028,0.000000
4638.405556,592.164754,-8580.269578,0.000000
4638.405881,962.267725,-8733.488677,518.144159
4638.406205,1184.329507,-8810.098227,148.041188
4638.406529,740.205942,-8427.050478,222.061783
4638.406854,888.247130,-8503.660028,296.082377
4638.407178,888.247130,-8427.050478,296.082377
4638.407502,814.226536,-8427.050478,74.020594
4638.407827,740.205942,-8580.269578,-296.082377
4638.408151,296.082377,-8427.050478,-296.082377
4638.408475,222.061783,-8350.440928,-444.123565
4638.408800,740.205942,-8733.488677,-370.102971
4638.409124,222.061783,-8427.050478,-296.082377
4638.409448,296.082377,-8273.831378,74.020594
4638.409773,222.061783,-8503.660028,0.000000
4638.410097,444.123565,-8350.440928,222.061783
4638.410421,370.102971,-8580.269578,74.020594
4638.410746,740.205942,-8733.488677,296.082377
4638.411070,518.144159,-8350.440928,0.000000
4638.411394,518.144159,-8810.098227,0.000000
4638.411719,222.061783,-8044.002729,-370.102971
4638.412043,0.000000,-8350.440928,-370.102971
4638.412367,222.061783,-8580.269578,0.000000
4638.412691,148.041188,-8350.440928,-296.082377
4638.413016,74.020594,-7890.783629,148.041188
4638.413340,222.061783,-8427.050478,0.000000
4638.413664,666.185348,-8197.221829,-296.082377
4638.413989,444.123565,-8963.317327,0.000000
4638.414313,666.185348,-8733.488677,0.000000
4638.414637,592.164754,-8963.317327,0.000000
4638.414962,592.164754,-9039.926876,0.000000
4638.415286,296.082377,-8350.440928,-296.082377
4638.415610,222.061783,-8580.269578,-296.082377
4638.415935,0.000000,-8503.660028,0.000000
4638.416259,0.000000,-8580.269578,-296.082377
4638.416583,0.000000,-8656.879127,-592.164754
4638.416908,148.041188,-8273.831378,-592.164754
4638.417232,592.164754,-9269.755526,-370.102971
4638.417556,0.000000,-8810.098227,-296.082377
4638.417881,296.082377,-8733.488677,0.000000
4638.418205,296.082377,-8886.707777,-148.041188
4638.418529,518.144159,-8656.879127,0.000000
4638.418854,0.000000,-8273.831378,-370.102971
4638.419178,222.061783,-8580.269578,-296.082377
4638.419502,0.000000,-8273.831378,-148.041188
4638.419827,222.061783,-8810.098227,0.000000
4638.420151,444.123565,-9116.536426,-518.144159
4638.420475,222.061783,-8350.440928,0.000000
4638.420799,370.102971,-8810.098227,0.000000
4638.421124,666.185348,-8503.660028,0.000000
4638.421448,962.267725,-8733.488677,296.082377
4638.421772,518.144159,-8503.660028,222.061783
4638.422097,888.247130,-8656.879127,370.102971
4638.422421,814.226536,-8427.050478,222.061783
4638.422745,666.185348,-8733.488677,222.061783
4638.423070,666.185348,-8580.269578,0.000000
4638.423394,666.185348,-8733.488677,-148.041188
4638.423718,370.102971,-8273.831378,-518.144159
4638.424043,518.144159,-8580.269578,-592.164754
4638.424367,0.000000,-8580.269578,222.061783
4638.424691,518.144159,-8580.269578,-370.102971
4638.425016,518.144159,-8350.440928,0.000000
4638.425340,370.102971,-8733.488677,0.000000
4638.425664,370.102971,-8963.317327,-296.082377
4638.425989,222.061783,-8733.488677,-518.144159
4638.426313,148.041188,-8656.879127,-592.164754
4638.426637,0.000000,-8963.317327,-518.144159
4638.426962,222.061783,-8503.660028,-592.164754
4638.427286,444.123565,-8733.488677,-1036.288319
4638.427610,518.144159,-8656.879127,-666.185348
4638.427935,518.144159,-8580.269578,-666.185348
4638.428259,666.185348,-8503.660028,-666.185348
4638.428583,444.123565,-8733.488677,0.000000
4638.428907,444.123565,-8503.660028,-444.123565
4638.429232,666.185348,-8810.098227,-518.144159
4638.429556,296.082377,-8810.098227,-592.164754
4638.429880,592.164754,-9346.365076,-370.102971
4638.430205,444.123565,-8503.660028,-592.164754
4638.430529,518.144159,-8733.488677,-444.123565
4638.430853,74.020594,-8503.660028,-888.247130
4638.431178,222.061783,-8810.098227,-962.267725
4638.431502,444.123565,-8427.050478,-592.164754
4638.431826,296.082377,-8273.831378,-962.267725
4638.432151,74.020594,-9193.145976,-666.185348
4638.432475,592.164754,-8656.879127,-962.267725
4638.432799,222.061783,-8733.488677,-1110.308913
4638.433124,370.102971,-8963.317327,-740.205942
4638.433448,74.020594,-8733.488677,-814.226536
4638.433772,0.000000,-8810.098227,-592.164754
4638.434097,0.000000,-8580.269578,-814.226536
4638.434421,592.164754,-8733.488677,-1110.308913
4638.434745,222.061783,-9116.536426,-1110.308913
4638.435070,444.123565,-8503.660028,-1332.370696
4638.435394,370.102971,-8580.269578,-962.267725
4638.435718,518.144159,-8427.050478,-1184.329507
4638.436043,296.082377,-8503.660028,-740.205942
4638.436367,444.123565,-8427.050478,-962.267725
4638.436691,444.123565,-8733.488677,-888.247130
4638.437016,74.020594,-9116.536426,0.000000
4638.437340,222.061783,-8886.707777,-740.205942
4638.437664,296.082377,-8580.269578,-370.102971
4638.437988,592.164754,-8273.831378,-888.247130
4638.438313,296.082377,-8656.879127,-814.226536
4638.438637,296.082377,-8350.440928,-740.205942
4638.438961,666.185348,-8350.440928,-1036.288319
4638.439286,740.205942,-8580.269578,-740.205942
4638.439610,518.144159,-8273.831378,-888.247130
4638.439934,592.164754,-7967.393179,-370.102971
4638.440259,444.123565,-8044.002729,-592.164754
4638.440583,444.123565,-8427.050478,-518.144159
4638.440907,592.164754,-8503.660028,-962.267725
4638.441232,370.102971,-8580.269578,-962.267725
4638.441556,444.123565,-8580.269578,-740.205942
4638.441880,518.144159,-8580.269578,-740.205942
4638.442205,592.164754,-8350.440928,-740.205942
4638.442529,518.144159,-8656.879127,-1036.288319
4638.442853,518.144159,-8350.440928,-888.247130
4638.443178,444.123565,-8427.050478,-888.247130
4638.443502,740.205942,-8503.660028,-1036.288319
4638.443826,444.123565,-8656.879127,-592.164754
4638.444151,888.247130,-9499.584175,-518.144159
4638.444475,740.205942,-8580.269578,-592.164754
4638.444799,888.247130,-8656.879127,-592.164754
4638.445124,740.205942,-8963.317327,-444.123565
4638.445448,592.164754,-8580.269578,-444.123565
4638.445772,518.144159,-8810.098227,-296.082377
4638.446096,296.082377,-8810.098227,-592.164754
4638.446421,666.185348,-8427.050478,-148.041188
4638.446745,518.144159,-8886.707777,-222.061783
4638.447069,518.144159,-8656.879127,-74.020594
4638.447394,666.185348,-8810.098227,0.000000
4638.447718,518.144159,-8656.879127,-296.082377
4638.448042,740.205942,-8427.050478,0.000000
4638.448367,0.000000,-8197.221829,0.000000
4638.448691,740.205942,-8886.707777,-222.061783
4638.449015,148.041188,-8273.831378,0.000000
4638.449340,296.082377,-8963.317327,0.000000
4638.449664,0.000000,-8503.660028,-370.102971
4638.449988,444.123565,-8810.098227,-148.041188
4638.450313,222.061783,-8503.660028,-518.144159
4638.450637,518.144159,-8273.831378,-296.082377
4638.450961,518.144159,-8503.660028,-148.041188
4638.451286,148.041188,-8197.221829,74.020594
4638.451610,888.247130,-8580.269578,-296.082377
4638.451934,1036.288319,-8886.707777,-296.082377
4638.452259,814.226536,-8197.221829,-296.082377
4638.452583,666.185348,-8273.831378,-222.061783
4638.452907,370.102971,-8810.098227,-296.082377
4638.453232,592.164754,-8580.269578,-370.102971
4638.453556,296.082377,-8886.707777,-296.082377
4638.453880,296.082377,-8503.660028,-444.123565
4638.454204,370.102971,-8503.660028,-148.041188
4638.454529,444.123565,-9116.536426,0.000000
4638.454853,592.164754,-8580.269578,0.000000
4638.455177,296.082377,-8503.660028,0.000000
4638.455502,444.123565,-8503.660028,-370.102971
4638.455826,592.164754,-8580.269578,-74.020594
4638.456150,0.000000,-8427.050478,-296.082377
4638.456475,74.020594,-8886.707777,-222.061783
4638.456799,222.061783,-9269.755526,-148.041188
4638.457123,370.102971,-9116.536426,-296.082377
4638.457448,222.061783,-8580.269578,-296.082377
4638.457772,518.144159,-8733.488677,-148.041188
4638.458096,370.102971,-8503.660028,-518.144159
4638.458421,148.041188,-8503.660028,-148.041188
4638.458745,592.164754,-8503.660028,-740.205942
4638.459069,814.226536,-8733.488677,-370.102971
4638.459394,740.205942,-8273.831378,-740.205942
4638.459718,296.082377,-8427.050478,-370.102971
4638.460042,296.082377,-8350.440928,-592.164754
4638.460367,296.082377,-8656.879127,-962.267725
4638.460691,296.082377,-8580.269578,-1184.329507
4638.461015,148.041188,-8427.050478,-518.144159
4638.461340,444.123565,-8810.098227,-1036.288319
4638.461664,518.144159,-8886.707777,-1184.329507
4638.461988,370.102971,-8120.612279,-666.185348
4638.462312,518.144159,-8350.440928,-814.226536
4638.462637,222.061783,-8503.660028,-740.205942
4638.462961,296.082377,-8350.440928,-1184.329507
4638.463285,222.061783,-8427.050478,-1184.329507
4638.463610,370.102971,-8503.660028,-888.247130
4638.463934,444.123565,-9039.926876,-888.247130
4638.464258,666.185348,-8580.269578,-1184.329507
4638.464583,370.102971,-8656.879127,-888.247130
4638.464907,518.144159,-8580.269578,-888.247130
4638.465231,296.082377,-8733.488677,-962.267725
4638.465556,592.164754,-8427.050478,-1036.288319
4638.465880,740.205942,-8427.050478,-1406.391290
4638.466204,888.247130,-8810.098227,-1036.288319
4638.466529,444.123565,-8503.660028,-962.267725
4638.466853,962.267725,-9039.926876,-1036.288319
4638.467177,518.144159,-8503.660028,-888.247130
4638.467502,518.144159,-8733.488677,-666.185348
4638.467826,296.082377,-8350.440928,-740.205942
4638.468150,222.061783,-8733.488677,-444.123565
4638.468475,444.123565,-8580.269578,-666.185348
4638.468799,148.041188,-8427.050478,-592.164754
4638.469123,222.061783,-8580.269578,-592.164754
4638.469448,370.102971,-8810.098227,-592.164754
4638.469772,296.082377,-8733.488677,-370.102971
4638.470096,370.102971,-8656.879127,-444.123565
4638.470421,148.041188,-8656.879127,-370.102971
4638.470745,74.020594,-8733.488677,-444.123565
4638.471069,74.020594,-8427.050478,-370.102971
4638.471393,370.102971,-8810.098227,0.000000
4638.471718,444.123565,-8733.488677,-370.102971
4638.472042,592.164754,-8810.098227,74.020594
4638.472366,666.185348,-8273.831378,0.000000
4638.472691,666.185348,-8733.488677,-518.144159
4638.473015,740.205942,-8580.269578,-296.082377
4638.473339,666.185348,-7967.393179,0.000000
4638.473664,592.164754,-8350.440928,-370.102971
4638.473988,370.102971,-8120.612279,-296.082377
4638.474312,592.164754,-8273.831378,-222.061783
4638.474637,592.164754,-8427.050478,0.000000
4638.474961,370.102971,-8427.050478,0.000000
4638.475285,592.164754,-8350.440928,-444.123565
4638.475610,444.123565,-8580.269578,0.000000
4638.475934,222.061783,-8503.660028,-148.041188
4638.476258,370.102971,-8810.098227,0.000000
4638.476583,888.247130,-8580.269578,0.000000
4638.476907,740.205942,-8810.098227,74.020594
4638.477231,222.061783,-8733.488677,-296.082377
4638.477556,518.144159,-8810.098227,-148.041188
4638.477880,666.185348,-8580.269578,-222.061783
4638.478204,518.144159,-8580.269578,0.000000
4638.478529,444.123565,-8733.488677,0.000000
4638.478853,740.205942,-8886.707777,0.000000
4638.479177,592.164754,-8656.879127,0.000000
4638.479501,370.102971,-8886.707777,0.000000
4638.479826,666.185348,-8656.879127,0.000000
4638.480150,666.185348,-8503.660028,-296.082377
4638.480474,222.061783,-8810.098227,-370.102971
4638.480799,444.123565,-9193.145976,-518.144159
4638.481123,518.144159,-8580.269578,0.000000
4638.481447,370.102971,-8963.317327,0.000000
4638.481772,444.123565,-8350.440928,0.000000
4638.482096,74.020594,-8656.879127,0.000000
4638.482421,370.102971,-8427.050478,-296.082377
4638.482745,0.000000,-8580.269578,-222.061783
4638.483070,296.082377,-8580.269578,-296.082377
4638.483394,370.102971,-8580.269578,-222.061783
4638.483719,0.000000,-9039.926876,222.061783
4638.484043,592.164754,-8503.660028,-518.144159
4638.484368,74.020594,-8580.269578,-296.082377
4638.484692,592.164754,-8427.050478,-444.123565
4638.485016,518.144159,-8427.050478,-592.164754
4638.485341,592.164754,-8273.831378,-592.164754
4638.485665,296.082377,-8503.660028,-740.205942
4638.485990,444.123565,-8427.050478,-518.144159
4638.486314,370.102971,-8503.660028,-740.205942
4638.486639,962.267725,-8733.488677,-666.185348
4638.486963,444.123565,-8656.879127,-518.144159
4638.487288,370.102971,-8656.879127,-296.082377
4638.487612,222.061783,-8656.879127,-740.205942
4638.487937,444.123565,-9039.926876,-518.144159
4638.488261,740.205942,-8733.488677,-518.144159
4638.488586,518.144159,-8656.879127,-222.061783
4638.488910,518.144159,-8810.098227,-370.102971
4638.489235,444.123565,-8733.488677,0.000000
4638.489559,222.061783,-8427.050478,0.000000
4638.489883,222.061783,-8503.660028,-148.041188
4638.490208,296.082377,-8503.660028,-370.102971
4638.490532,370.102971,-8427.050478,0.000000
4638.490857,148.041188,-8733.488677,222.061783
4638.491181,518.144159,-8810.098227,0.000000
4638.491506,296.082377,-8427.050478,0.000000
4638.491830,518.144159,-8656.879127,0.000000
4638.492155,0.000000,-8503.660028,0.000000
4638.492479,296.082377,-8580.269578,-296.082377
4638.492804,148.041188,-8427.050478,0.000000
4638.493128,518.144159,-8886.707777,-518.144159
4638.493453,296.082377,-8503.660028,-444.123565
4638.493777,814.226536,-8580.269578,-444.123565
4638.494101,888.247130,-8044.002729,148.041188
4638.494426,740.205942,-8733.488677,-296.082377
4638.494750,592.164754,-8503.660028,0.000000
4638.495075,888.247130,-8120.612279,0.000000
4638.495399,592.164754,-8503.660028,-518.144159
4638.495724,888.247130,-8350.440928,0.000000
4638.496048,444.123565,-8273.831378,0.000000
4638.496373,814.226536,-9422.974625,0.000000
4638.496697,296.082377,-8580.269578,0.000000
4638.497022,666.185348,-8580.269578,-222.061783
4638.497346,518.144159,-8580.269578,-222.061783
4638.497671,444.123565,-8656.879127,0.000000
4638.497995,74.020594,-8886.707777,0.000000
4638.498319,370.102971,-8886.707777,0.000000
4638.498644,296.082377,-8580.269578,0.000000
4638.498968,518.144159,-8963.317327,-296.082377
4638.499293,222.061783,-8044.002729,296.082377
4638.499617,148.041188,-8580.269578,222.061783
4638.499942,370.102971,-8503.660028,0.000000
4638.500266,296.082377,-8656.879127,0.000000
4638.500591,296.082377,-8810.098227,222.061783
4638.500915,518.144159,-8580.269578,0.000000
4638.501240,148.041188,-8427.050478,0.000000
4638.501564,296.082377,-8580.269578,0.000000
4638.501889,148.041188,-8427.050478,-222.061783
4638.502213,74.020594,-8503.660028,0.000000
4638.502537,222.061783,-8503.660028,0.000000
4638.502862,222.061783,-8656.879127,0.000000
4638.503186,370.102971,-8580.269578,-222.061783
4638.503511,592.164754,-9039.926876,0.000000
4638.503835,222.061783,-8580.269578,0.000000
4638.504160,296.082377,-8886.707777,0.000000
4638.504484,74.020594,-8503.660028,-222.061783
4638.504809,0.000000,-8656.879127,74.020594
4638.505133,0.000000,-8963.317327,-296.082377
4638.505458,0.000000,-8963.317327,-296.082377
4638.505782,296.082377,-8580.269578,-370.102971
4638.506107,592.164754,-8810.098227,0.000000
4638.506431,370.102971,-8503.660028,-148.041188
4638.506756,444.123565,-8810.098227,0.000000
4638.507080,296.082377,-8044.002729,148.041188
4638.507404,518.144159,-8427.050478,-296.082377
4638.507729,1036.288319,-9269.755526,-370.102971
4638.508053,148.041188,-8044.002729,-370.102971
4638.508378,518.144159,-8427.050478,0.000000
4638.508702,296.082377,-8350.440928,-444.123565
4638.509027,444.123565,-8503.660028,0.000000
4638.509351,296.082377,-8503.660028,148.041188
4638.509676,222.061783,-8656.879127,-148.041188
4638.510000,296.082377,-8580.269578,74.020594
4638.510325,518.144159,-8656.879127,-444.123565
4638.510649,666.185348,-8656.879127,296.082377
4638.510974,814.226536,-8810.098227,0.000000
4638.511298,740.205942,-8656.879127,0.000000
4638.511622,370.102971,-8427.050478,0.000000
4638.511947,888.247130,-8503.660028,0.000000
4638.512271,0.000000,-8427.050478,-148.041188
4638.512596,222.061783,-8273.831378,-518.144159
4638.512920,74.020594,-8656.879127,-370.102971
4638.513245,740.205942,-8810.098227,-296.082377
4638.513569,592.164754,-8656.879127,-148.041188
4638.513894,666.185348,-8503.660028,-222.061783
4638.514218,370.102971,-8503.660028,-296.082377
4638.514543,370.102971,-8733.488677,-370.102971
4638.514867,592.164754,-7890.783629,-444.123565
4638.515192,0.000000,-8656.879127,-814.226536
4638.515516,0.000000,-9116.536426,-148.041188
4638.515840,0.000000,-8273.831378,-518.144159
4638.516165,148.041188,-9576.193725,-148.041188
4638.516489,222.061783,-8580.269578,0.000000
4638.516814,296.082377,-8656.879127,0.000000
4638.517138,370.102971,-8733.488677,-518.144159
4638.517463,296.082377,-8580.269578,-444.123565
4638.517787,148.041188,-8810.098227,-296.082377
4638.518112,444.123565,-8580.269578,-296.082377
4638.518436,666.185348,-8656.879127,0.000000
4638.518761,296.082377,-8350.440928,-444.123565
4638.519085,74.020594,-8350.440928,0.000000
4638.519410,222.061783,-8197.221829,-370.102971
4638.519734,222.061783,-8733.488677,-370.102971
4638.520059,370.102971,-8273.831378,-444.123565
4638.520383,148.041188,-8656.879127,-370.102971
4638.520707,518.144159,-8197.221829,-296.082377
4638.521032,370.102971,-8656.879127,-370.102971
4638.521356,518.144159,-8963.317327,-740.205942
4638.521681,444.123565,-8427.050478,0.000000
4638.522005,666.185348,-8733.488677,-370.102971
4638.522330,444.123565,-9039.926876,-74.020594
4638.522654,222.061783,-8427.050478,-592.164754
4638.522979,592.164754,-8810.098227,0.000000
4638.523303,518.144159,-8733.488677,-666.185348
4638.523628,518.144159,-8656.879127,0.000000
4638.523952,444.123565,-8427.050478,74.020594
4638.524277,148.041188,-8197.221829,74.020594
4638.524601,370.102971,-8886.707777,0.000000
4638.524925,444.123565,-8733.488677,0.000000
4638.525250,592.164754,-8503.660028,148.041188
4638.525574,592.164754,-8580.269578,148.041188
4638.525899,518.144159,-8580.269578,74.020594
4638.526223,370.102971,-8503.660028,740.205942
4638.526548,296.082377,-8733.488677,0.000000
4638.526872,296.082377,-8656.879127,0.000000
4638.527197,222.061783,-8350.440928,0.000000
4638.527521,74.020594,-8503.660028,296.082377
4638.527846,518.144159,-8580.269578,-296.082377
4638.528170,592.164754,-8580.269578,-296.082377
4638.528495,518.144159,-8656.879127,-222.061783
4638.528819,518.144159,-8273.831378,0.000000
4638.529143,74.020594,-8656.879127,0.000000
4638.529468,148.041188,-8580.269578,-592.164754
4638.529792,0.000000,-8044.002729,-592.164754
4638.530117,222.061783,-8656.879127,-296.082377
4638.530441,148.041188,-8044.002729,-296.082377
4638.530766,444.123565,-8656.879127,-592.164754
4638.531090,74.020594,-8503.660028,-518.144159
4638.531415,222.061783,-8273.831378,-666.185348
4638.531739,296.082377,-8350.440928,-296.082377
4638.532064,222.061783,-8656.879127,-296.082377
4638.532388,444.123565,-8427.050478,-592.164754
4638.532713,518.144159,-8503.660028,-518.144159
4638.533037,592.164754,-8810.098227,-666.185348
4638.533361,888.247130,-8733.488677,-740.205942
4638.533686,740.205942,-8656.879127,-518.144159
4638.534010,592.164754,-8886.707777,-148.041188
4638.534335,370.102971,-8810.098227,-296.082377
4638.534659,962.267725,-8963.317327,-592.164754
4638.534984,814.226536,-9039.926876,-518.144159
4638.535308,296.082377,-8810.098227,-518.144159
4638.535633,592.164754,-8580.269578,0.000000
4638.535957,74.020594,-8656.879127,-518.144159
4638.536282,222.061783,-9193.145976,-444.123565
4638.536606,444.123565,-8733.488677,-370.102971
4638.536931,222.061783,-8733.488677,-444.123565
4638.537255,370.102971,-8580.269578,-222.061783
4638.537580,0.000000,-8656.879127,-444.123565
4638.537904,296.082377,-8810.098227,-444.123565
4638.538228,518.144159,-8733.488677,-592.164754
4638.538553,148.041188,-8733.488677,-444.123565
4638.538877,592.164754,-8733.488677,-666.185348
4638.539202,444.123565,-8273.831378,-592.164754
4638.539526,222.061783,-8656.879127,-740.205942
4638.539851,518.144159,-8580.269578,-1110.308913
4638.540175,814.226536,-8503.660028,-666.185348
4638.540500,888.247130,-8580.269578,-740.205942
4638.540824,592.164754,-8350.440928,-666.185348
4638.541149,444.123565,-8503.660028,-296.082377
4638.541473,444.123565,-8197.221829,-444.123565
4638.541798,666.185348,-8886.707777,-444.123565
4638.542122,518.144159,-8580.269578,-1332.370696
4638.542446,592.164754,-8810.098227,-370.102971
4638.542771,740.205942,-8427.050478,-666.185348
4638.543095,888.247130,-8886.707777,-592.164754
4638.543420,962.267725,-8273.831378,-592.164754
4638.543744,592.164754,-8580.269578,-370.102971
4638.544069,666.185348,-8503.660028,-740.205942
4638.544393,370.102971,-8350.440928,-518.144159
4638.544718,148.041188,-8350.440928,-740.205942
4638.545042,444.123565,-8503.660028,-518.144159
4638.545367,518.144159,-8427.050478,-888.247130
4638.545691,518.144159,-8886.707777,-666.185348
4638.546016,666.185348,-8350.440928,-666.185348
4638.546340,222.061783,-8427.050478,-518.144159
4638.546664,370.102971,-8733.488677,-666.185348
4638.546989,148.041188,-8350.440928,-518.144159
4638.547313,518.144159,-9346.365076,-370.102971
4638.547638,592.164754,-8580.269578,-592.164754
4638.547962,740.205942,-8503.660028,-222.061783
4638.548287,666.185348,-8427.050478,-148.041188
4638.548611,592.164754,-8580.269578,-222.061783
4638.548936,518.144159,-8656.879127,-296.082377
4638.549260,296.082377,-9039.926876,-148.041188
4638.549585,296.082377,-8503.660028,-296.082377
4638.549909,222.061783,-8580.269578,-222.061783
4638.550234,74.020594,-9039.926876,-148.041188
4638.550558,444.123565,-8656.879127,-148.041188
4638.550882,370.102971,-8810.098227,-148.041188
4638.551207,518.144159,-8810.098227,-296.082377
4638.551531,370.102971,-9269.755526,-888.247130
4638.551856,592.164754,-8427.050478,-592.164754
4638.552180,518.144159,-8503.660028,-814.226536
4638.552505,444.123565,-8810.098227,-592.164754
4638.552829,518.144159,-8580.269578,-592.164754
4638.553154,592.164754,-8273.831378,-592.164754
4638.553478,222.061783,-8350.440928,-592.164754
4638.553803,444.123565,-8810.098227,-666.185348
4638.554127,518.144159,-8503.660028,-740.205942
4638.554452,740.205942,-8427.050478,-888.247130
4638.554776,814.226536,-8656.879127,-518.144159
4638.555101,814.226536,-9039.926876,-222.061783
4638.555425,814.226536,-8350.440928,-666.185348
4638.555749,666.185348,-8733.488677,-222.061783
4638.556074,518.144159,-8503.660028,-962.267725
4638.556398,444.123565,-9116.536426,-296.082377
4638.556723,296.082377,-8427.050478,-666.185348
4638.557047,148.041188,-8886.707777,-592.164754
4638.557372,444.123565,-8733.488677,-444.123565
4638.557696,296.082377,-8733.488677,-592.164754
4638.558021,518.144159,-8656.879127,-518.144159
4638.558345,296.082377,-8886.707777,0.000000
4638.558670,296.082377,-9039.926876,-296.082377
4638.558994,296.082377,-8733.488677,-222.061783
4638.559319,74.020594,-8503.660028,-518.144159
4638.559643,296.082377,-9193.145976,-296.082377
4638.559967,518.144159,-8580.269578,-222.061783
4638.560292,148.041188,-8656.879127,-296.082377
4638.560616,518.144159,-8810.098227,-370.102971
4638.560941,296.082377,-8503.660028,-148.041188
4638.561265,222.061783,-8810.098227,-296.082377
4638.561590,1036.288319,-8580.269578,-444.123565
4638.561914,370.102971,-8427.050478,0.000000
4638.562239,666.185348,-8963.317327,-296.082377
4638.562563,444.123565,-8350.440928,-370.102971
4638.562888,740.205942,-8886.707777,-296.082377
4638.563212,370.102971,-8350.440928,-222.061783
4638.563537,370.102971,-8427.050478,-148.041188
4638.563861,0.000000,-8350.440928,-518.144159
4638.564185,0.000000,-8733.488677,-444.123565
4638.564510,592.164754,-8427.050478,-518.144159
4638.564834,222.061783,-8580.269578,-296.082377
4638.565159,444.123565,-8656.879127,-370.102971
4638.565483,148.041188,-8427.050478,-444.123565
4638.565808,814.226536,-8044.002729,-222.061783
4638.566132,296.082377,-8273.831378,-444.123565
4638.566457,222.061783,-8427.050478,-888.247130
4638.566781,222.061783,-8580.269578,-296.082377
4638.567106,370.102971,-8503.660028,-444.123565
4638.567430,444.123565,-8963.317327,-666.185348
4638.567755,296.082377,-8273.831378,-666.185348
4638.568079,888.247130,-8580.269578,-444.123565
4638.568403,592.164754,-8503.660028,-666.185348
4638.568728,518.144159,-8810.098227,-518.144159
4638.569052,444.123565,-8350.440928,-740.205942
4638.569377,148.041188,-8733.488677,-592.164754
4638.569701,148.041188,-8580.269578,-888.247130
4638.570026,296.082377,-8044.002729,-370.102971
4638.570350,592.164754,-8580.269578,-444.123565
4638.570675,444.123565,-8503.660028,-370.102971
4638.570999,370.102971,-8810.098227,-592.164754
4638.571324,518.144159,-8963.317327,-814.226536
4638.571648,592.164754,-9039.926876,-666.185348
4638.571973,518.144159,-8810.098227,-666.185348
4638.572297,370.102971,-8580.269578,-444.123565
4638.572622,740.205942,-8580.269578,-444.123565
4638.572946,592.164754,-8427.050478,-592.164754
4638.573270,222.061783,-8273.831378,-370.102971
4638.573595,740.205942,-8810.098227,-592.164754
4638.573919,296.082377,-8580.269578,-666.185348
4638.574244,444.123565,-8273.831378,-296.082377
4638.574568,592.164754,-8810.098227,-518.144159
4638.574893,666.185348,-8656.879127,-814.226536
4638.575217,666.185348,-8580.269578,-814.226536
4638.575542,592.164754,-8810.098227,-518.144159
4638.575866,518.144159,-8810.098227,-444.123565
4638.576191,0.000000,-8350.440928,-1184.329507
4638.576515,0.000000,-8656.879127,-592.164754
4638.576840,222.061783,-8503.660028,-888.247130
4638.577164,296.082377,-8733.488677,-1184.329507
4638.577488,370.102971,-8120.612279,-592.164754
4638.577813,444.123565,-8656.879127,-222.061783
4638.578137,666.185348,-8427.050478,-740.205942
4638.578462,740.205942,-8963.317327,-592.164754
4638.578786,666.185348,-8580.269578,-666.185348
4638.579111,444.123565,-8427.050478,-148.041188
4638.579435,296.082377,-8427.050478,-444.123565
4638.579760,444.123565,-8580.269578,-370.102971
4638.580084,370.102971,-8580.269578,-296.082377
4638.580409,444.123565,-8580.269578,-148.041188
4638.580733,666.185348,-8580.269578,0.000000
4638.581058,592.164754,-8656.879127,-222.061783
4638.581382,444.123565,-8503.660028,74.020594
4638.581706,592.164754,-8197.221829,-296.082377
4638.582031,444.123565,-8656.879127,-370.102971
4638.582355,296.082377,-9039.926876,74.020594
4638.582680,74.020594,-8656.879127,370.102971
4638.583004,222.061783,-8350.440928,-370.102971
4638.583328,148.041188,-8963.317327,0.000000
4638.583653,296.082377,-8733.488677,0.000000
4638.583977,444.123565,-8733.488677,0.000000
4638.584301,222.061783,-8656.879127,222.061783
4638.584626,592.164754,-8580.269578,0.000000
4638.584950,222.061783,-8580.269578,0.000000
4638.585274,592.164754,-8656.879127,-222.061783
4638.585599,222.061783,-8197.221829,148.041188
4638.585923,296.082377,-8580.269578,222.061783
4638.586247,148.041188,-8580.269578,-148.041188
4638.586572,444.123565,-8273.831378,-444.123565
4638.586896,666.185348,-8503.660028,-592.164754
4638.587220,962.267725,-8733.488677,-518.144159
4638.587545,1036.288319,-8197.221829,-740.205942
4638.587869,740.205942,-8580.269578,-296.082377
4638.588193,740.205942,-8656.879127,-296.082377
4638.588518,592.164754,-8886.707777,-518.144159
4638.588842,444.123565,-8503.660028,-962.267725
4638.589166,444.123565,-8580.269578,-740.205942
4638.589491,148.041188,-8656.879127,-444.123565
4638.589815,370.102971,-8810.098227,-740.205942
4638.590139,444.123565,-8580.269578,-666.185348
4638.590464,370.102971,-8427.050478,0.000000
4638.590788,592.164754,-8580.269578,-518.144159
4638.591112,518.144159,-9039.926876,-592.164754
4638.591437,370.102971,-8120.612279,-518.144159
4638.591761,518.144159,-8656.879127,-296.082377
4638.592085,370.102971,-8503.660028,-888.247130
4638.592410,296.082377,-8580.269578,-592.164754
4638.592734,148.041188,-8963.317327,-444.123565
4638.593058,222.061783,-8810.098227,-666.185348
4638.593383,222.061783,-8886.707777,-740.205942
4638.593707,370.102971,-8810.098227,-740.205942
4638.594031,370.102971,-8580.269578,-740.205942
4638.594356,666.185348,-9116.536426,-518.144159
4638.594680,888.247130,-8656.879127,-666.185348
4638.595004,666.185348,-9116.536426,-296.082377
4638.595329,444.123565,-8656.879127,-888.247130
4638.595653,148.041188,-9116.536426,-592.164754
4638.595977,444.123565,-8503.660028,-666.185348
4638.596302,296.082377,-8810.098227,-666.185348
4638.596626,296.082377,-9039.926876,-592.164754
4638.596950,666.185348,-9116.536426,-74.020594
4638.597275,222.061783,-8503.660028,0.000000
4638.597599,444.123565,-8503.660028,-370.102971
4638.597923,444.123565,-9039.926876,0.000000
4638.598248,740.205942,-8656.879127,518.144159
4638.598572,0.000000,-8503.660028,0.000000
4638.598896,222.061783,-8656.879127,-296.082377
4638.599221,592.164754,-8120.612279,-222.061783
4638.599545,666.185348,-8963.317327,0.000000
4638.599869,444.123565,-8503.660028,0.000000
4638.600194,370.102971,-8503.660028,0.000000
4638.600518,296.082377,-8503.660028,222.061783
4638.600842,296.082377,-7967.393179,-222.061783
4638.601167,148.041188,-8120.612279,0.000000
4638.601491,666.185348,-8044.002729,-222.061783
4638.601815,518.144159,-8120.612279,0.000000
4638.602140,592.164754,-8580.269578,-148.041188
4638.602464,444.123565,-7967.393179,222.061783
4638.602788,444.123565,-8427.050478,222.061783
4638.603113,518.144159,-8427.050478,0.000000
4638.603437,444.123565,-8350.440928,74.020594
4638.603761,148.041188,-8427.050478,0.000000
4638.604086,814.226536,-8197.221829,-222.061783
4638.604410,518.144159,-8503.660028,-222.061783
4638.604734,148.041188,-8886.707777,-444.123565
4638.605059,592.164754,-8350.440928,0.000000
4638.605383,592.164754,-8886.707777,148.041188
4638.605707,74.020594,-8886.707777,-222.061783
4638.606032,148.041188,-8503.660028,0.000000
4638.606356,444.123565,-8733.488677,74.020594
4638.606680,296.082377,-9116.536426,296.082377
4638.607005,666.185348,-8503.660028,222.061783
4638.607329,148.041188,-8733.488677,0.000000
4638.607653,148.041188,-8656.879127,0.000000
4638.607978,0.000000,-8656.879127,-296.082377
4638.608302,74.020594,-8810.098227,-296.082377
4638.608626,444.123565,-8503.660028,-148.041188
4638.608951,148.041188,-8580.269578,-148.041188
4638.609275,222.061783,-9039.926876,0.000000
4638.609599,444.123565,-8503.660028,222.061783
4638.609924,296.082377,-8963.317327,0.000000
4638.610248,74.020594,-8580.269578,0.000000
4638.610572,148.041188,-8810.098227,0.000000
4638.610897,148.041188,-8656.879127,-370.102971
4638.611221,222.061783,-8503.660028,-518.144159
4638.611545,148.041188,-8886.707777,-740.205942
4638.611870,518.144159,-8580.269578,-592.164754
4638.612194,444.123565,-8427.050478,-370.102971
4638.612518,592.164754,-8503.660028,-888.247130
4638.612843,370.102971,-8273.831378,-370.102971
4638.613167,370.102971,-8733.488677,-148.041188
4638.613491,740.205942,-8350.440928,-740.205942
4638.613816,740.205942,-9116.536426,-296.082377
4638.614140,518.144159,-8656.879127,-518.144159
4638.614464,444.123565,-8580.269578,-444.123565
4638.614789,222.061783,-8503.660028,-592.164754
4638.615113,296.082377,-8656.879127,-148.041188
4638.615437,148.041188,-8197.221829,0.000000
4638.615762,296.082377,-8580.269578,-296.082377
4638.616086,148.041188,-8580.269578,-370.102971
4638.616410,592.164754,-8427.050478,-296.082377
4638.616735,814.226536,-8656.879127,-296.082377
4638.617059,222.061783,-8503.660028,74.020594
4638.617383,222.061783,-8733.488677,148.041188
4638.617708,222.061783,-8427.050478,296.082377
4638.618032,444.123565,-9422.974625,148.041188
4638.618356,444.123565,-8350.440928,-296.082377
4638.618681,444.123565,-8503.660028,-222.061783
4638.619005,148.041188,-8350.440928,-222.061783
4638.619329,518.144159,-8810.098227,0.000000
4638.619654,444.123565,-8810.098227,-222.061783
4638.619978,518.144159,-8656.879127,-370.102971
4638.620302,592.164754,-8427.050478,-370.102971
4638.620627,370.102971,-8427.050478,-444.123565
4638.620951,148.041188,-9346.365076,148.041188
4638.621275,518.144159,-8503.660028,0.000000
4638.621600,592.164754,-8580.269578,0.000000
4638.621924,592.164754,-8427.050478,-370.102971
4638.622248,518.144159,-8810.098227,-222.061783
4638.622573,370.102971,-8503.660028,0.000000
4638.622897,296.082377,-8503.660028,-444.123565
4638.623221,74.020594,-8886.707777,-370.102971
4638.623546,370.102971,-8273.831378,-518.144159
4638.623870,296.082377,-8656.879127,-444.123565
4638.624194,444.123565,-8350.440928,-666.185348
4638.624519,370.102971,-8580.269578,-148.041188
4638.624843,444.123565,-8656.879127,-370.102971
4638.625167,222.061783,-8350.440928,-592.164754
4638.625492,222.061783,-8733.488677,-370.102971
4638.625816,370.102971,-8427.050478,-444.123565
4638.626140,444.123565,-8580.269578,-666.185348
4638.626465,222.061783,-9116.536426,-222.061783
4638.626789,296.082377,-8656.879127,-444.123565
4638.627113,518.144159,-8503.660028,-592.164754
4638.627438,666.185348,-8733.488677,-444.123565
4638.627762,148.041188,-8733.488677,-148.041188
4638.628086,740.205942,-8733.488677,-370.102971
4638.628411,592.164754,-8580.269578,-296.082377
4638.628735,666.185348,-8810.098227,-74.020594
4638.629059,592.164754,-9039.926876,0.000000
4638.629384,592.164754,-8503.660028,-592.164754
4638.629708,296.082377,-8810.098227,0.000000
4638.630032,0.000000,-9116.536426,-296.082377
4638.630357,222.061783,-8810.098227,-296.082377
4638.630681,296.082377,-8656.879127,-296.082377
4638.631005,444.123565,-8886.707777,-518.144159
4638.631330,518.144159,-8580.269578,-148.041188
4638.631654,666.185348,-8810.098227,-148.041188
4638.631978,370.102971,-8273.831378,-148.041188
4638.632303,888.247130,-8656.879127,0.000000
4638.632627,444.123565,-8810.098227,0.000000
4638.632951,296.082377,-8273.831378,0.000000
4638.633276,370.102971,-8656.879127,-222.061783
4638.633600,370.102971,-9422.974625,-148.041188
4638.633924,296.082377,-8503.660028,0.000000
4638.634249,518.144159,-8656.879127,-444.123565
4638.634573,296.082377,-8273.831378,0.000000
4638.634897,518.144159,-8733.488677,0.000000
4638.635222,518.144159,-8350.440928,0.000000
4638.635546,370.102971,-8273.831378,-222.061783
4638.635870,740.205942,-8580.269578,-222.061783
4638.636195,518.144159,-8656.879127,74.020594
4638.636519,296.082377,-8044.002729,74.020594
4638.636843,148.041188,-8580.269578,-148.041188
4638.637168,0.000000,-8427.050478,0.000000
4638.637492,370.102971,-8656.879127,-444.123565
4638.637816,296.082377,-8273.831378,0.000000
4638.638141,222.061783,-8350.440928,-296.082377
4638.638465,444.123565,-8503.660028,-592.164754
4638.638789,296.082377,-8350.440928,-148.041188
4638.639114,518.144159,-8580.269578,0.000000
4638.639438,444.123565,-8427.050478,-148.041188
4638.639762,592.164754,-8197.221829,0.000000
4638.640087,666.185348,-8503.660028,-296.082377
4638.640411,740.205942,-8427.050478,-666.185348
4638.640736,740.205942,-8580.269578,-370.102971
4638.641060,592.164754,-8350.440928,-444.123565
4638.641384,444.123565,-8656.879127,0.000000
4638.641709,222.061783,-8810.098227,-296.082377
4638.642033,740.205942,-8656.879127,-370.102971
4638.642357,222.061783,-8197.221829,0.000000
4638.642682,370.102971,-8656.879127,0.000000
4638.643006,518.144159,-8580.269578,-444.123565
4638.643330,962.267725,-8503.660028,0.000000
4638.643655,666.185348,-8580.269578,-148.041188
4638.643979,370.102971,-9193.145976,0.000000
4638.644303,666.185348,-8656.879127,0.000000
4638.644628,222.061783,-8656.879127,-148.041188
4638.644952,592.164754,-9652.803275,-370.102971
4638.645276,148.041188,-8580.269578,-296.082377
4638.645601,222.061783,-8350.440928,-518.144159
4638.645925,370.102971,-8580.269578,-518.144159
4638.646249,740.205942,-8656.879127,-370.102971
4638.646574,962.267725,-8580.269578,0.000000
4638.646898,592.164754,-8503.660028,-444.123565
4638.647222,518.144159,-8580.269578,-370.102971
4638.647547,592.164754,-8580.269578,-666.185348
4638.647871,222.061783,-8350.440928,-1036.288319
4638.648195,0.000000,-8733.488677,-814.226536
4638.648520,0.000000,-8810.098227,-370.102971
4638.648844,222.061783,-8963.317327,-666.185348
4638.649168,148.041188,-9422.974625,-962.267725
4638.649493,296.082377,-8580.269578,-592.164754
4638.649817,518.144159,-8886.707777,-740.205942
4638.650141,518.144159,-8197.221829,-518.144159
4638.650466,444.123565,-8580.269578,-666.185348
4638.650790,444.123565,-8350.440928,-592.164754
4638.651114,740.205942,-8427.050478,-592.164754
4638.651439,740.205942,-8886.707777,-444.123565
4638.651763,888.247130,-8503.660028,-296.082377
4638.652087,444.123565,-8963.317327,0.000000
4638.652412,444.123565,-8503.660028,-518.144159
4638.652736,444.123565,-8503.660028,-592.164754
4638.653060,592.164754,-8580.269578,-740.205942
4638.653385,518.144159,-8427.050478,-592.164754
4638.653709,518.144159,-8120.612279,-370.102971
4638.654033,666.185348,-8427.050478,-222.061783
4638.654358,444.123565,-8810.098227,-444.123565
4638.654682,518.144159,-8350.440928,-296.082377
4638.655006,296.082377,-8580.269578,-518.144159
4638.655331,370.102971,-8580.269578,-222.061783
4638.655655,296.082377,-8580.269578,-222.061783
4638.655979,370.102971,-8580.269578,-148.041188
4638.656304,666.185348,-8273.831378,-296.082377
4638.656628,296.082377,-8427.050478,-444.123565
4638.656952,592.164754,-8350.440928,-222.061783
4638.657277,518.144159,-8273.831378,0.000000
4638.657601,444.123565,-9346.365076,-592.164754
4638.657925,592.164754,-8044.002729,-518.144159
4638.658250,962.267725,-8580.269578,0.000000
4638.658574,592.164754,-8350.440928,-296.082377
4638.658898,666.185348,-8580.269578,0.000000
4638.659223,74.020594,-8963.317327,74.020594
4638.659547,222.061783,-8733.488677,0.000000
4638.659871,370.102971,-8580.269578,-444.123565
4638.660196,518.144159,-8733.488677,-444.123565
4638.660520,370.102971,-8503.660028,148.041188
4638.660844,222.061783,-8656.879127,-148.041188
4638.661169,666.185348,-8810.098227,-444.123565
4638.661493,592.164754,-8733.488677,-222.061783
4638.661817,740.205942,-8656.879127,-296.082377
4638.662142,74.020594,-8656.879127,-296.082377
4638.662466,74.020594,-8503.660028,-370.102971
4638.662790,148.041188,-8810.098227,-740.205942
4638.663115,74.020594,-8427.050478,-518.144159
4638.663439,518.144159,-8810.098227,-666.185348
4638.663763,296.082377,-8733.488677,-592.164754
4638.664088,444.123565,-8427.050478,-370.102971
4638.664412,148.041188,-8733.488677,-592.164754
4638.664736,296.082377,-9039.926876,-740.205942
4638.665061,518.144159,-8273.831378,-740.205942
4638.665385,444.123565,-8810.098227,-666.185348
4638.665709,592.164754,-8810.098227,-740.205942
4638.666034,740.205942,-8733.488677,-518.144159
4638.666358,444.123565,-8810.098227,-444.123565
4638.666682,444.123565,-8503.660028,-592.164754
4638.667007,740.205942,-8733.488677,-666.185348
4638.667331,518.144159,-8963.317327,-666.185348
4638.667655,1110.308913,-8044.002729,-666.185348
4638.667980,666.185348,-8656.879127,-666.185348
4638.668304,592.164754,-8427.050478,-444.123565
4638.668628,814.226536,-8733.488677,-444.123565
4638.668953,740.205942,-9193.145976,-296.082377
4638.669277,222.061783,-8580.269578,-222.061783
4638.669601,518.144159,-8503.660028,-592.164754
4638.669926,296.082377,-8733.488677,-592.164754
4638.670250,148.041188,-8427.050478,-518.144159
4638.670574,518.144159,-8580.269578,-370.102971
4638.670899,222.061783,-8503.660028,-518.144159
4638.671223,592.164754,-8503.660028,-518.144159
4638.671547,518.144159,-8503.660028,-370.102971
4638.671872,962.267725,-8197.221829,-370.102971
4638.672196,592.164754,-8656.879127,-814.226536
4638.672520,592.164754,-8503.660028,-592.164754
4638.672845,518.144159,-8503.660028,-666.185348
4638.673169,444.123565,-7967.393179,0.000000
4638.673493,444.123565,-8427.050478,-518.144159
4638.673818,370.102971,-8427.050478,-296.082377
4638.674142,370.102971,-8656.879127,-370.102971
4638.674466,222.061783,-8503.660028,0.000000
4638.674791,74.020594,-8197.221829,-370.102971
4638.675115,222.061783,-8503.660028,-370.102971
4638.675439,0.000000,-8350.440928,-296.082377
4638.675764,370.102971,-8656.879127,-74.020594
4638.676088,370.102971,-7890.783629,0.000000
4638.676412,296.082377,-8656.879127,0.000000
4638.676737,370.102971,-8580.269578,-592.164754
4638.677061,222.061783,-8656.879127,0.000000
4638.677385,888.247130,-8963.317327,-740.205942
4638.677710,814.226536,-8656.879127,-444.123565
4638.678034,518.144159,-8350.440928,-222.061783
4638.678358,370.102971,-8503.660028,-222.061783
4638.678683,222.061783,-8656.879127,-444.123565
4638.679007,814.226536,-8580.269578,-296.082377
4638.679331,740.205942,-8580.269578,-296.082377
4638.679656,592.164754,-8503.660028,-296.082377
4638.679980,296.082377,-8503.660028,-370.102971
4638.680304,740.205942,-9039.926876,-148.041188
4638.680629,592.164754,-8503.660028,-296.082377
4638.680953,592.164754,-8810.098227,-518.144159
4638.681277,814.226536,-8656.879127,-296.082377
4638.681602,370.102971,-8503.660028,-296.082377
4638.681926,444.123565,-9193.145976,-444.123565
4638.682250,370.102971,-8350.440928,-666.185348
4638.682575,222.061783,-9193.145976,-370.102971
4638.682899,296.082377,-8886.707777,-370.102971
4638.683223,370.102971,-9039.926876,0.000000
4638.683548,740.205942,-8886.707777,-518.144159
4638.683872,666.185348,-8656.879127,-370.102971
4638.684197,444.123565,-8427.050478,-666.185348
4638.684521,740.205942,-9346.365076,-962.267725
4638.684845,740.205942,-8427.050478,-518.144159
4638.685170,666.185348,-8656.879127,-592.164754
4638.685494,592.164754,-8580.269578,-962.267725
4638.685818,814.226536,-8886.707777,-888.247130
4638.686143,666.185348,-8350.440928,-1110.308913
4638.686467,74.020594,-8810.098227,-444.123565
4638.686792,444.123565,-8580.269578,-444.123565
4638.687116,148.041188,-8273.831378,-296.082377
4638.687440,-222.061783,-8656.879127,-666.185348
4638.687765,296.082377,-8580.269578,-740.205942
4638.688089,444.123565,-8656.879127,-666.185348
4638.688413,296.082377,-8427.050478,-296.082377
4638.688738,222.061783,-8503.660028,-592.164754
4638.689062,148.041188,-8810.098227,-370.102971
4638.689387,148.041188,-8580.269578,-370.102971
4638.689711,296.082377,-8656.879127,-592.164754
4638.690035,148.041188,-8963.317327,-222.061783
4638.690360,666.185348,-8580.269578,-370.102971
4638.690684,592.164754,-8886.707777,-296.082377
4638.691008,444.123565,-8120.612279,-370.102971
4638.691333,666.185348,-8656.879127,-296.082377
4638.691657,962.267725,-8656.879127,-222.061783
4638.691982,666.185348,-8273.831378,-518.144159
4638.692306,370.102971,-8733.488677,-518.144159
4638.692630,222.061783,-8273.831378,0.000000
4638.692955,740.205942,-8886.707777,-370.102971
4638.693279,518.144159,-8580.269578,-444.123565
4638.693603,222.061783,-8120.612279,148.041188
4638.693928,148.041188,-8427.050478,148.041188
4638.694252,222.061783,-8273.831378,0.000000
4638.694577,296.082377,-8197.221829,-148.041188
4638.694901,148.041188,-8656.879127,-222.061783
4638.695225,370.102971,-8350.440928,0.000000
4638.695550,0.000000,-8273.831378,0.000000
4638.695874,444.123565,-8427.050478,0.000000
4638.696198,370.102971,-8427.050478,0.000000
4638.696523,518.144159,-8656.879127,0.000000
4638.696847,666.185348,-8580.269578,-518.144159
4638.697172,592.164754,-8963.317327,222.061783
4638.697496,592.164754,-8810.098227,148.041188
4638.697820,814.226536,-8580.269578,-222.061783
4638.698145,444.123565,-8427.050478,-296.082377
4638.698469,814.226536,-8580.269578,-148.041188
4638.698793,740.205942,-8044.002729,-296.082377
4638.699118,370.102971,-8656.879127,-222.061783
4638.699442,444.123565,-8656.879127,-518.144159
4638.699767,444.123565,-8580.269578,-444.123565
4638.700091,666.185348,-9116.536426,-740.205942
4638.700415,370.102971,-8733.488677,-592.164754
4638.700740,222.061783,-8810.098227,-296.082377
4638.701064,296.082377,-8733.488677,-222.061783
4638.701388,296.082377,-8580.269578,-592.164754
4638.701713,518.144159,-8656.879127,-592.164754
4638.702037,444.123565,-8656.879127,-148.041188
4638.702362,74.020594,-8580.269578,-666.185348
4638.702686,592.164754,-8963.317327,-444.123565
4638.703010,814.226536,-8120.612279,-518.144159
4638.703335,592.164754,-9193.145976,-666.185348
4638.703659,222.061783,-8656.879127,-518.144159
4638.703983,296.082377,-8810.098227,-444.123565
4638.704308,222.061783,-8656.879127,-148.041188
4638.704632,444.123565,-8503.660028,-814.226536
4638.704957,518.144159,-8810.098227,-370.102971
4638.705281,518.144159,-8810.098227,-518.144159
4638.705605,444.123565,-8656.879127,-148.041188
4638.705930,814.226536,-8580.269578,-592.164754
4638.706254,518.144159,-8886.707777,-740.205942
4638.706578,370.102971,-8580.269578,-592.164754
4638.706903,74.020594,-8656.879127,-444.123565
4638.707227,666.185348,-8963.317327,-148.041188
4638.707552,370.102971,-8886.707777,-444.123565
4638.707876,518.144159,-8886.707777,-148.041188
4638.708200,148.041188,-8580.269578,-74.020594
4638.708525,666.185348,-8810.098227,148.041188
4638.708849,370.102971,-8656.879127,0.000000
4638.709173,518.144159,-8273.831378,0.000000
4638.709498,370.102971,-8733.488677,0.000000
4638.709822,444.123565,-8350.440928,-296.082377
4638.710147,592.164754,-8273.831378,-222.061783
4638.710471,444.123565,-8350.440928,0.000000
4638.710795,296.082377,-8427.050478,0.000000
4638.711120,0.000000,-8273.831378,148.041188
4638.711444,148.041188,-8273.831378,0.000000
4638.711768,296.082377,-8044.002729,-148.041188
4638.712093,444.123565,-8427.050478,-74.020594
4638.712417,518.144159,-8427.050478,-222.061783
4638.712742,592.164754,-8044.002729,222.061783
4638.713066,666.185348,-8427.050478,0.000000
4638.713390,296.082377,-8273.831378,0.000000
4638.713715,296.082377,-8273.831378,74.020594
4638.714039,370.102971,-8427.050478,-296.082377
4638.714363,74.020594,-8350.440928,0.000000
4638.714688,296.082377,-8656.879127,0.000000
4638.715012,222.061783,-8503.660028,-148.041188
4638.715337,444.123565,-8580.269578,-148.041188
4638.715661,444.123565,-7967.393179,-148.041188
4638.715985,518.144159,-8580.269578,-222.061783
4638.716310,296.082377,-8427.050478,0.000000
4638.716634,444.123565,-8886.707777,0.000000
4638.716958,666.185348,-8656.879127,-296.082377
4638.717283,518.144159,-8427.050478,-296.082377
4638.717607,222.061783,-8886.707777,0.000000
4638.717932,222.061783,-8733.488677,-222.061783
4638.718256,222.061783,-8810.098227,-222.061783
4638.718580,592.164754,-8810.098227,-296.082377
4638.718905,222.061783,-8656.879127,-444.123565
4638.719229,148.041188,-9039.926876,-370.102971
4638.719554,740.205942,-8503.660028,-222.061783
4638.719878,518.144159,-8963.317327,-444.123565
4638.720202,518.144159,-9116.536426,-148.041188
4638.720527,592.164754,-8503.660028,-296.082377
4638.720851,666.185348,-8963.317327,-148.041188
4638.721175,666.185348,-8656.879127,-518.144159
4638.721500,666.185348,-8733.488677,-444.123565
4638.721824,444.123565,-8810.098227,-444.123565
4638.722149,444.123565,-8273.831378,-666.185348
4638.722473,666.185348,-8733.488677,-666.185348
4638.722797,592.164754,-8886.707777,0.000000
4638.723122,444.123565,-8197.221829,-148.041188
4638.723446,518.144159,-8427.050478,-296.082377
4638.723770,74.020594,-8427.050478,-592.164754
4638.724095,-296.082377,-9269.755526,0.000000
4638.724419,666.185348,-8503.660028,-592.164754
4638.724744,222.061783,-8580.269578,-444.123565
4638.725068,444.123565,-8733.488677,0.000000
4638.725392,222.061783,-8810.098227,-444.123565
4638.725717,518.144159,-8656.879127,-444.123565
4638.726041,222.061783,-8044.002729,-296.082377
4638.726365,370.102971,-8503.660028,-148.041188
4638.726690,518.144159,-7967.393179,-222.061783
4638.727014,222.061783,-8197.221829,74.020594
4638.727339,592.164754,-8580.269578,0.000000
4638.727663,1036.288319,-8350.440928,-444.123565
4638.727987,814.226536,-8580.269578,-148.041188
4638.728312,592.164754,-8810.098227,296.082377
4638.728636,518.144159,-8503.660028,-296.082377
4638.728960,444.123565,-8733.488677,-296.082377
4638.729285,222.061783,-8273.831378,-444.123565
4638.729609,370.102971,-8810.098227,0.000000
4638.729934,592.164754,-8427.050478,0.000000
4638.730258,296.082377,-8427.050478,0.000000
4638.730582,148.041188,-8580.269578,-222.061783
4638.730907,148.041188,-8427.050478,0.000000
4638.731231,962.267725,-8733.488677,-296.082377
4638.731555,74.020594,-8350.440928,74.020594
4638.731880,444.123565,-8427.050478,0.000000
4638.732204,296.082377,-8656.879127,0.000000
4638.732529,222.061783,-8580.269578,0.000000
4638.732853,296.082377,-8580.269578,74.020594
4638.733177,296.082377,-8733.488677,-222.061783
4638.733502,296.082377,-8273.831378,0.000000
4638.733826,370.102971,-8427.050478,-370.102971
4638.734150,74.020594,-7967.393179,-370.102971
4638.734475,370.102971,-8733.488677,-296.082377
4638.734799,518.144159,-8427.050478,-444.123565
4638.735124,518.144159,-8810.098227,0.000000
4638.735448,444.123565,-8197.221829,0.000000
4638.735772,592.164754,-8580.269578,-296.082377
4638.736097,666.185348,-8120.612279,-592.164754
4638.736421,666.185348,-8733.488677,-592.164754
4638.736745,666.185348,-8810.098227,-444.123565
4638.737070,814.226536,-8350.440928,-518.144159
4638.737394,444.123565,-8810.098227,-370.102971
4638.737719,444.123565,-8733.488677,-592.164754
4638.738043,444.123565,-8503.660028,-518.144159
4638.738367,296.082377,-8656.879127,-296.082377
4638.738692,296.082377,-8580.269578,0.000000
4638.739016,592.164754,-8963.317327,-370.102971
4638.739340,444.123565,-9039.926876,-518.144159
4638.739665,666.185348,-8886.707777,-740.205942
4638.739989,518.144159,-9116.536426,-740.205942
4638.740314,592.164754,-8810.098227,-370.102971
4638.740638,370.102971,-8656.879127,-74.020594
4638.740962,518.144159,-8810.098227,-296.082377
4638.741287,296.082377,-8580.269578,-666.185348
4638.741611,740.205942,-8656.879127,-444.123565
4638.741935,592.164754,-8963.317327,-518.144159
4638.742260,814.226536,-9116.536426,0.000000
4638.742584,1036.288319,-9346.365076,-518.144159
4638.742909,370.102971,-8427.050478,0.000000
4638.743233,518.144159,-8733.488677,74.020594
4638.743557,296.082377,-8733.488677,-296.082377
4638.743882,222.061783,-9652.803275,148.041188
4638.744206,444.123565,-8503.660028,0.000000
4638.744530,666.185348,-8886.707777,-296.082377
4638.744855,592.164754,-8656.879127,-370.102971
4638.745179,222.061783,-8580.269578,-296.082377
4638.745504,148.041188,-8503.660028,148.041188
4638.745828,74.020594,-8273.831378,0.000000
4638.746152,296.082377,-8733.488677,-296.082377
4638.746477,148.041188,-8197.221829,-592.164754
4638.746801,0.000000,-8197.221829,-444.123565
4638.747125,518.144159,-8886.707777,-222.061783
4638.747450,444.123565,-8120.612279,0.000000
4638.747774,740.205942,-8656.879127,0.000000
4638.748099,370.102971,-8656.879127,-666.185348
4638.748423,296.082377,-8273.831378,-296.082377
4638.748747,370.102971,-8503.660028,-518.144159
4638.749072,222.061783,-8120.612279,-148.041188
4638.749396,296.082377,-8350.440928,-222.061783
4638.749720,296.082377,-8273.831378,-296.082377
4638.750045,74.020594,-8427.050478,0.000000
4638.750369,74.020594,-8350.440928,-592.164754
4638.750694,592.164754,-8044.002729,-518.144159
4638.751018,74.020594,-8273.831378,-222.061783
4638.751342,0.000000,-8580.269578,-666.185348
4638.751667,222.061783,-8656.879127,-296.082377
4638.751991,222.061783,-8350.440928,-370.102971
4638.752315,444.123565,-8733.488677,0.000000
4638.752640,444.123565,-8580.269578,-222.061783
4638.752964,296.082377,-8656.879127,-370.102971
4638.753289,444.123565,-8197.221829,-444.123565
4638.753613,518.144159,-8580.269578,-666.185348
4638.753937,592.164754,-8886.707777,-666.185348
4638.754262,666.185348,-8733.488677,-296.082377
4638.754586,518.144159,-8350.440928,-296.082377
4638.754910,74.020594,-8733.488677,-444.123565
4638.755235,222.061783,-8503.660028,0.000000
4638.755559,222.061783,-8733.488677,-444.123565
4638.755884,296.082377,-8656.879127,-518.144159
4638.756208,0.000000,-8580.269578,-592.164754
4638.756532,592.164754,-8886.707777,-592.164754
4638.756857,74.020594,-8350.440928,-518.144159
4638.757181,518.144159,-8810.098227,-888.247130
4638.757505,666.185348,-8503.660028,-518.144159
4638.757830,592.164754,-8197.221829,-370.102971
4638.758154,444.123565,-8580.269578,-888.247130
4638.758479,592.164754,-8656.879127,-962.267725
4638.758803,222.061783,-8733.488677,-740.205942
4638.759127,592.164754,-8656.879127,-592.164754
4638.759452,740.205942,-8886.707777,-370.102971
4638.759776,592.164754,-8886.707777,-444.123565
4638.760100,814.226536,-8350.440928,-666.185348
4638.760425,592.164754,-8273.831378,-666.185348
4638.760749,666.185348,-8656.879127,-740.205942
4638.761074,740.205942,-8886.707777,-666.185348
4638.761398,592.164754,-8580.269578,-666.185348
4638.761722,592.164754,-8886.707777,-518.144159
4638.762047,444.123565,-8733.488677,-666.185348
4638.762371,740.205942,-8427.050478,-814.226536
4638.762695,444.123565,-8350.440928,-592.164754
4638.763020,222.061783,-9039.926876,0.000000
4638.763344,0.000000,-8350.440928,-518.144159
4638.763669,222.061783,-8044.002729,0.000000
4638.763993,444.123565,-8350.440928,-518.144159
4638.764317,518.144159,-8886.707777,-518.144159
4638.764642,518.144159,-8503.660028,-444.123565
4638.764966,444.123565,-8197.221829,-222.061783
4638.765290,518.144159,-8886.707777,-370.102971
4638.765615,148.041188,-8350.440928,-444.123565
4638.765939,444.123565,-8810.098227,-296.082377
4638.766264,296.082377,-8350.440928,-444.123565
4638.766588,814.226536,-8886.707777,-222.061783
4638.766912,592.164754,-8427.050478,-222.061783
4638.767237,518.144159,-8656.879127,-296.082377
4638.767561,518.144159,-8580.269578,-296.082377
4638.767885,814.226536,-8656.879127,-296.082377
4638.768210,444.123565,-8273.831378,0.000000
4638.768534,148.041188,-8580.269578,0.000000
4638.768859,296.082377,-8656.879127,-148.041188
4638.769183,444.123565,-8503.660028,0.000000
4638.769507,444.123565,-8503.660028,-518.144159
4638.769832,592.164754,-8427.050478,-370.102971
4638.770156,518.144159,-8503.660028,0.000000
4638.770480,222.061783,-8503.660028,0.000000
4638.770805,0.000000,-8810.098227,-518.144159
4638.771129,74.020594,-8503.660028,-518.144159
4638.771454,222.061783,-8273.831378,-222.061783
4638.771778,370.102971,-8503.660028,-222.061783
4638.772102,222.061783,-8886.707777,0.000000
4638.772427,370.102971,-8503.660028,-222.061783
4638.772751,740.205942,-8427.050478,-592.164754
4638.773075,370.102971,-8656.879127,-666.185348
4638.773400,740.205942,-8273.831378,-518.144159
4638.773724,592.164754,-8350.440928,-222.061783
4638.774049,592.164754,-8503.660028,-444.123565
4638.774373,592.164754,-8656.879127,-444.123565
4638.774697,444.123565,-8580.269578,-740.205942
4638.775022,740.205942,-8963.317327,-222.061783
4638.775346,740.205942,-8273.831378,-814.226536
4638.775670,296.082377,-8733.488677,-814.226536
4638.775995,592.164754,-8350.440928,-518.144159
4638.776319,518.144159,-8810.098227,-592.164754
4638.776644,888.247130,-8656.879127,-740.205942
4638.776968,888.247130,-8733.488677,-592.164754
4638.777292,666.185348,-8810.098227,-444.123565
4638.777617,370.102971,-8656.879127,-370.102971
4638.777941,148.041188,-8810.098227,-814.226536
4638.778266,296.082377,-9039.926876,-444.123565
4638.778590,0.000000,-8350.440928,-666.185348
4638.778914,444.123565,-9039.926876,-370.102971
4638.779239,74.020594,-8427.050478,-370.102971
4638.779563,296.082377,-8733.488677,0.000000
4638.779887,370.102971,-8656.879127,-296.082377
4638.780212,592.164754,-8656.879127,-370.102971
4638.780536,518.144159,-8503.660028,-222.061783
4638.780861,518.144159,-8656.879127,-370.102971
4638.781185,296.082377,-8810.098227,-148.041188
4638.781509,666.185348,-8503.660028,-814.226536
4638.781834,592.164754,-8886.707777,-370.102971
4638.782158,222.061783,-8273.831378,222.061783
4638.782482,740.205942,-8886.707777,-592.164754
4638.782807,74.020594,-8656.879127,-444.123565
4638.783131,592.164754,-8427.050478,-518.144159
4638.783456,592.164754,-8503.660028,-518.144159
4638.783780,814.226536,-8580.269578,-444.123565
4638.784105,370.102971,-8427.050478,-148.041188
4638.784429,592.164754,-8350.440928,-518.144159
4638.784753,296.082377,-8120.612279,-444.123565
4638.785078,518.144159,-8810.098227,-370.102971
4638.785402,444.123565,-8273.831378,-518.144159
4638.785727,222.061783,-8273.831378,-370.102971
4638.786051,148.041188,-8656.879127,-148.041188
4638.786376,296.082377,-8503.660028,-222.061783
4638.786700,296.082377,-8810.098227,-222.061783
4638.787025,148.041188,-8427.050478,-222.061783
4638.787349,296.082377,-8580.269578,74.020594
4638.787674,0.000000,-8580.269578,0.000000
4638.787998,148.041188,-8427.050478,-296.082377
4638.788323,296.082377,-8656.879127,0.000000
4638.788647,148.041188,-8580.269578,-370.102971
4638.788971,444.123565,-8503.660028,0.000000
4638.789296,814.226536,-8427.050478,-370.102971
4638.789620,444.123565,-8886.707777,0.000000
4638.789945,444.123565,-8503.660028,-518.144159
4638.790269,222.061783,-8503.660028,-370.102971
4638.790594,740.205942,-7967.393179,0.000000
4638.790918,296.082377,-8580.269578,-296.082377
4638.791243,518.144159,-8886.707777,-296.082377
4638.791567,444.123565,-8503.660028,-444.123565
4638.791892,518.144159,-8810.098227,-592.164754
4638.792216,814.226536,-8810.098227,-444.123565
4638.792541,370.102971,-8503.660028,0.000000
4638.792865,444.123565,-8810.098227,-666.185348
4638.793189,296.082377,-8427.050478,-592.164754
4638.793514,962.267725,-8810.098227,-666.185348
4638.793838,814.226536,-8427.050478,-740.205942
4638.794163,814.226536,-8810.098227,-518.144159
4638.794487,518.144159,-8273.831378,-740.205942
4638.794812,888.247130,-8810.098227,0.000000
4638.795136,296.082377,-8580.269578,-740.205942
4638.795461,518.144159,-8810.098227,-518.144159
4638.795785,518.144159,-8733.488677,-592.164754
4638.796110,518.144159,-8733.488677,-518.144159
4638.796434,370.102971,-8580.269578,-592.164754
4638.796759,444.123565,-8656.879127,-296.082377
4638.797083,666.185348,-8656.879127,-740.205942
4638.797407,444.123565,-8656.879127,-444.123565
4638.797732,148.041188,-8503.660028,-370.102971
4638.798056,296.082377,-8580.269578,-592.164754
4638.798381,592.164754,-8503.660028,-814.226536
4638.798705,370.102971,-8503.660028,-740.205942
4638.799030,296.082377,-8350.440928,-518.144159
4638.799354,518.144159,-8503.660028,-592.164754
4638.799679,148.041188,-8810.098227,-592.164754
4638.800003,222.061783,-8733.488677,-592.164754
4638.800328,444.123565,-8580.269578,-888.247130
4638.800652,888.247130,-8810.098227,-962.267725
4638.800977,518.144159,-8580.269578,-592.164754
4638.801301,814.226536,-8580.269578,-444.123565
4638.801626,740.205942,-8503.660028,-592.164754
4638.801950,740.205942,-9269.755526,-370.102971
4638.802274,148.041188,-8350.440928,-370.102971
4638.802599,222.061783,-8810.098227,-592.164754
4638.802923,370.102971,-8503.660028,-444.123565
4638.803248,222.061783,-8733.488677,-222.061783
4638.803572,370.102971,-8733.488677,-370.102971
4638.803897,444.123565,-8810.098227,-222.061783
4638.804221,444.123565,-8656.879127,-296.082377
4638.804546,148.041188,-8656.879127,74.020594
4638.804870,148.041188,-8886.707777,-296.082377
4638.805195,370.102971,-8656.879127,0.000000
4638.805519,296.082377,-8427.050478,-148.041188
4638.805844,518.144159,-8656.879127,-222.061783
4638.806168,444.123565,-9193.145976,222.061783
4638.806492,962.267725,-8503.660028,0.000000
4638.806817,740.205942,-8580.269578,0.000000
4638.807141,592.164754,-8273.831378,0.000000
4638.807466,592.164754,-8886.707777,-222.061783
4638.807790,444.123565,-8503.660028,-148.041188
4638.808115,222.061783,-8580.269578,0.000000
4638.808439,592.164754,-8503.660028,-222.061783
4638.808764,592.164754,-8733.488677,0.000000
4638.809088,148.041188,-8427.050478,0.000000
4638.809413,296.082377,-8580.269578,-370.102971
4638.809737,740.205942,-8120.612279,-222.061783
4638.810062,444.123565,-8503.660028,-148.041188
4638.810386,296.082377,-8503.660028,-592.164754
4638.810710,592.164754,-8503.660028,0.000000
4638.811035,370.102971,-8810.098227,-296.082377
4638.811359,222.061783,-8733.488677,0.000000
4638.811684,296.082377,-8580.269578,-148.041188
4638.812008,444.123565,-8886.707777,0.000000
4638.812333,222.061783,-8427.050478,-148.041188
4638.812657,0.000000,-8580.269578,-518.144159
4638.812982,296.082377,-8503.660028,0.000000
4638.813306,814.226536,-8886.707777,0.000000
4638.813631,296.082377,-8656.879127,-222.061783
4638.813955,518.144159,-8273.831378,-370.102971
4638.814280,666.185348,-8350.440928,-148.041188
4638.814604,444.123565,-9039.926876,74.020594
4638.814928,444.123565,-8656.879127,-222.061783
4638.815253,222.061783,-9039.926876,-222.061783
4638.815577,444.123565,-8580.269578,-296.082377
4638.815902,370.102971,-8503.660028,-370.102971
4638.816226,370.102971,-8886.707777,-518.144159
4638.816551,592.164754,-8733.488677,0.000000
4638.816875,592.164754,-8350.440928,-74.020594
4638.817200,296.082377,-8350.440928,-296.082377
4638.817524,666.185348,-8733.488677,74.020594
4638.817849,814.226536,-8503.660028,-444.123565
4638.818173,666.185348,-8886.707777,-370.102971
4638.818498,370.102971,-8810.098227,-222.061783
4638.818822,592.164754,-8503.660028,0.000000
4638.819146,148.041188,-8580.269578,0.000000
4638.819471,0.000000,-8427.050478,0.000000
4638.819795,148.041188,-8503.660028,-444.123565
4638.820120,296.082377,-8273.831378,-296.082377
4638.820444,222.061783,-8656.879127,-296.082377
4638.820769,444.123565,-8656.879127,-222.061783
4638.821093,296.082377,-8350.440928,-296.082377
4638.821418,518.144159,-8580.269578,-222.061783
4638.821742,666.185348,-7967.393179,74.020594
4638.822067,296.082377,-8580.269578,0.000000
4638.822391,148.041188,-8350.440928,0.000000
4638.822716,74.020594,-8350.440928,-148.041188
4638.823040,222.061783,-8580.269578,148.041188
4638.823365,518.144159,-8580.269578,-148.041188
4638.823689,888.247130,-8503.660028,-148.041188
4638.824013,222.061783,-8197.221829,-296.082377
4638.824338,444.123565,-8503.660028,0.000000
4638.824662,666.185348,-8350.440928,-296.082377
4638.824987,222.061783,-8503.660028,-222.061783
4638.825311,296.082377,-8503.660028,-148.041188
4638.825636,148.041188,-8273.831378,-222.061783
4638.825960,592.164754,-8733.488677,-370.102971
4638.826285,296.082377,-8656.879127,-592.164754
4638.826609,370.102971,-8733.488677,-592.164754
4638.826934,518.144159,-8733.488677,-296.082377
4638.827258,370.102971,-8580.269578,-370.102971
4638.827583,222.061783,-8580.269578,-592.164754
4638.827907,518.144159,-8733.488677,-592.164754
4638.828231,666.185348,-8503.660028,-592.164754
4638.828556,592.164754,-8886.707777,-296.082377
4638.828880,592.164754,-8580.269578,0.000000
4638.829205,0.000000,-8580.269578,0.000000
4638.829529,148.041188,-8886.707777,-296.082377
4638.829854,296.082377,-8427.050478,-518.144159
4638.830178,222.061783,-8273.831378,0.000000
4638.830503,296.082377,-8810.098227,0.000000
4638.830827,444.123565,-8656.879127,0.000000
4638.831152,444.123565,-8503.660028,-222.061783
4638.831476,592.164754,-8810.098227,-370.102971
4638.831801,370.102971,-8427.050478,148.041188
4638.832125,222.061783,-8886.707777,74.020594
4638.832449,74.020594,-8733.488677,0.000000
4638.832774,296.082377,-8733.488677,-296.082377
4638.833098,444.123565,-8580.269578,0.000000
4638.833423,518.144159,-8886.707777,-148.041188
4638.833747,740.205942,-8886.707777,-518.144159
4638.834072,666.185348,-8503.660028,0.000000
4638.834396,222.061783,-7967.393179,-296.082377
4638.834721,444.123565,-8656.879127,-444.123565
4638.835045,444.123565,-8273.831378,-518.144159
4638.835370,888.247130,-8580.269578,-666.185348
4638.835694,444.123565,-8350.440928,-740.205942
4638.836019,592.164754,-8810.098227,0.000000
4638.836343,296.082377,-8503.660028,-370.102971
4638.836667,222.061783,-8503.660028,-518.144159
4638.836992,296.082377,-8656.879127,-518.144159
4638.837316,222.061783,-8656.879127,-666.185348
4638.837641,518.144159,-8273.831378,-222.061783
4638.837965,74.020594,-8503.660028,-296.082377
4638.838290,592.164754,-8580.269578,-222.061783
4638.838614,740.205942,-8886.707777,-444.123565
4638.838939,518.144159,-8963.317327,-370.102971
4638.839263,518.144159,-8580.269578,-148.041188
4638.839588,296.082377,-8427.050478,-222.061783
4638.839912,518.144159,-8656.879127,-74.020594
4638.840237,444.123565,-8733.488677,-296.082377
4638.840561,740.205942,-8810.098227,-222.061783
4638.840885,370.102971,-8733.488677,-296.082377
4638.841210,592.164754,-8350.440928,0.000000
4638.841534,370.102971,-9269.755526,-148.041188
4638.841859,444.123565,-8503.660028,-518.144159
4638.842183,222.061783,-8350.440928,-740.205942
4638.842508,148.041188,-8273.831378,-518.144159
4638.842832,222.061783,-8503.660028,-370.102971
4638.843157,222.061783,-8810.098227,-74.020594
4638.843481,370.102971,-8886.707777,-592.164754
4638.843806,222.061783,-8427.050478,-148.041188
4638.844130,74.020594,-8733.488677,-222.061783
4638.844455,222.061783,-8580.269578,-370.102971
4638.844779,370.102971,-8197.221829,-296.082377
4638.845104,444.123565,-8503.660028,-296.082377
4638.845428,148.041188,-8656.879127,-518.144159
4638.845752,518.144159,-8350.440928,-740.205942
4638.846077,444.123565,-8503.660028,-370.102971
4638.846401,222.061783,-8427.050478,-296.082377
4638.846726,222.061783,-8580.269578,-296.082377
4638.847050,148.041188,-8656.879127,-222.061783
4638.847375,518.144159,-8503.660028,-518.144159
4638.847699,592.164754,-8503.660028,-370.102971
4638.848024,740.205942,-8350.440928,-148.041188
4638.848348,666.185348,-8350.440928,-296.082377
4638.848673,888.247130,-8963.317327,0.000000
4638.848997,666.185348,-8120.612279,-148.041188
4638.849322,666.185348,-8580.269578,-444.123565
4638.849646,518.144159,-8580.269578,0.000000
4638.849970,148.041188,-8427.050478,148.041188
4638.850295,666.185348,-8503.660028,-148.041188
4638.850619,370.102971,-8350.440928,-518.144159
4638.850944,518.144159,-8886.707777,-222.061783
4638.851268,296.082377,-8350.440928,-148.041188
4638.851593,296.082377,-8580.269578,0.000000
4638.851917,370.102971,-8886.707777,-444.123565
4638.852242,370.102971,-8580.269578,0.000000
4638.852566,518.144159,-8427.050478,-148.041188
4638.852891,444.123565,-7967.393179,0.000000
4638.853215,518.144159,-8580.269578,148.041188
4638.853540,296.082377,-8810.098227,0.000000
4638.853864,370.102971,-8580.269578,0.000000
4638.854188,370.102971,-9039.926876,0.000000
4638.854513,444.123565,-8886.707777,-444.123565
4638.854837,370.102971,-8503.660028,-296.082377
4638.855162,370.102971,-8886.707777,-370.102971
4638.855486,148.041188,-8810.098227,-148.041188
4638.855811,592.164754,-8810.098227,-518.144159
4638.856135,222.061783,-8886.707777,-148.041188
4638.856460,296.082377,-8810.098227,-222.061783
4638.856784,296.082377,-8580.269578,-370.102971
4638.857109,814.226536,-8733.488677,-296.082377
4638.857433,518.144159,-8656.879127,-222.061783
4638.857758,296.082377,-8733.488677,-444.123565
4638.858082,666.185348,-8810.098227,-518.144159
4638.858406,222.061783,-8810.098227,222.061783
4638.858731,296.082377,-8886.707777,-222.061783
4638.859055,0.000000,-8503.660028,-370.102971
4638.859380,222.061783,-8656.879127,-296.082377
4638.859704,148.041188,-8580.269578,-518.144159
4638.860029,814.226536,-8656.879127,-518.144159
4638.860353,592.164754,-8810.098227,-148.041188
4638.860678,296.082377,-8350.440928,-296.082377
4638.861002,370.102971,-8656.879127,-666.185348
4638.861327,814.226536,-8580.269578,-370.102971
4638.861651,740.205942,-8733.488677,-592.164754
4638.861976,296.082377,-8350.440928,-666.185348
4638.862300,444.123565,-8580.269578,-814.226536
4638.862625,518.144159,-8580.269578,-740.205942
4638.862949,740.205942,-8427.050478,-518.144159
4638.863273,296.082377,-8427.050478,-666.185348
4638.863598,518.144159,-8503.660028,-222.061783
4638.863922,592.164754,-8273.831378,-666.185348
4638.864247,370.102971,-8733.488677,-888.247130
4638.864571,518.144159,-8503.660028,-592.164754
4638.864896,518.144159,-8656.879127,-592.164754
4638.865220,592.164754,-8580.269578,-518.144159
4638.865545,592.164754,-8350.440928,-296.082377
4638.865869,592.164754,-8656.879127,-148.041188
4638.866194,444.123565,-8350.440928,-296.082377
4638.866518,518.144159,-8886.707777,-518.144159
4638.866843,518.144159,-8580.269578,-518.144159
4638.867167,592.164754,-8503.660028,0.000000
4638.867491,444.123565,-8963.317327,-370.102971
4638.867816,444.123565,-8427.050478,-592.164754
4638.868140,444.123565,-8273.831378,-518.144159
4638.868465,444.123565,-8656.879127,-148.041188
4638.868789,222.061783,-8197.221829,-222.061783
4638.869114,222.061783,-8580.269578,-444.123565
4638.869438,222.061783,-8427.050478,-444.123565
4638.869763,814.226536,-8580.269578,-1258.350101
4638.870087,592.164754,-8656.879127,-296.082377
4638.870412,518.144159,-8733.488677,-666.185348
4638.870736,296.082377,-8656.879127,-222.061783
4638.871061,222.061783,-8580.269578,-518.144159
4638.871385,222.061783,-8656.879127,-296.082377
4638.871709,222.061783,-8503.660028,-740.205942
4638.872034,518.144159,-8656.879127,-518.144159
4638.872358,666.185348,-8120.612279,-518.144159
4638.872683,814.226536,-8963.317327,-518.144159
4638.873007,518.144159,-8580.269578,-296.082377
4638.873332,666.185348,-8810.098227,-518.144159
4638.873656,740.205942,-8810.098227,-444.123565
4638.873981,296.082377,-8963.317327,-222.061783
4638.874305,518.144159,-8580.269578,-518.144159
4638.874630,444.123565,-8886.707777,-518.144159
4638.874954,666.185348,-8427.050478,-444.123565
4638.875279,222.061783,-8656.879127,-370.102971
4638.875603,370.102971,-8197.221829,-222.061783
4638.875927,444.123565,-8656.879127,-222.061783
4638.876252,148.041188,-8503.660028,-592.164754
4638.876576,296.082377,-8656.879127,-444.123565
4638.876901,0.000000,-8427.050478,-370.102971
4638.877225,370.102971,-8886.707777,0.000000
4638.877550,518.144159,-8427.050478,-296.082377
4638.877874,814.226536,-8580.269578,-222.061783
4638.878199,592.164754,-8656.879127,0.000000
4638.878523,444.123565,-8656.879127,0.000000
4638.878848,370.102971,-8580.269578,0.000000
4638.879172,370.102971,-8503.660028,0.000000
4638.879497,296.082377,-8273.831378,0.000000
4638.879821,296.082377,-9193.145976,74.020594
4638.880145,148.041188,-8580.269578,-148.041188
4638.880470,222.061783,-8580.269578,0.000000
4638.880794,592.164754,-8810.098227,-296.082377
4638.881119,74.020594,-8810.098227,296.082377
4638.881443,518.144159,-8810.098227,-148.041188
4638.881768,518.144159,-8580.269578,-518.144159
4638.882092,518.144159,-8350.440928,-518.144159
4638.882417,666.185348,-8580.269578,0.000000
4638.882741,222.061783,-8503.660028,0.000000
4638.883066,518.144159,-8580.269578,-148.041188
4638.883390,74.020594,-8580.269578,-370.102971
4638.883715,296.082377,-8427.050478,-444.123565
4638.884039,0.000000,-8197.221829,0.000000
4638.884363,0.000000,-8580.269578,-296.082377
4638.884688,370.102971,-8733.488677,-370.102971
4638.885012,370.102971,-8656.879127,0.000000
4638.885337,444.123565,-8733.488677,74.020594
4638.885661,814.226536,-8580.269578,-296.082377
4638.885985,592.164754,-8656.879127,-296.082377
4638.886310,222.061783,-8273.831378,-444.123565
4638.886634,222.061783,-8427.050478,-666.185348
4638.886959,148.041188,-8350.440928,-592.164754
4638.887283,518.144159,-8580.269578,-1036.288319
4638.887608,444.123565,-8733.488677,-666.185348
4638.887932,370.102971,-8503.660028,-444.123565
4638.888256,888.247130,-8656.879127,-518.144159
4638.888581,518.144159,-8503.660028,-592.164754
4638.888905,148.041188,-8503.660028,-666.185348
4638.889230,222.061783,-8580.269578,-888.247130
4638.889554,1110.308913,-8503.660028,-592.164754
4638.889879,666.185348,-8733.488677,-518.144159
4638.890203,518.144159,-8810.098227,-518.144159
4638.890527,222.061783,-8733.488677,-518.144159
4638.890852,296.082377,-8886.707777,-740.205942
4638.891176,148.041188,-8350.440928,-444.123565
4638.891501,74.020594,-8427.050478,-666.185348
4638.891825,148.041188,-8810.098227,-666.185348
4638.892149,370.102971,-8810.098227,-518.144159
4638.892474,148.041188,-8810.098227,-740.205942
4638.892798,296.082377,-8733.488677,-518.144159
4638.893123,444.123565,-8350.440928,-296.082377
4638.893447,296.082377,-8580.269578,-666.185348
4638.893772,222.061783,-8656.879127,-518.144159
4638.894096,370.102971,-8427.050478,-814.226536
4638.894420,370.102971,-8733.488677,-1258.350101
4638.894745,666.185348,-8580.269578,-592.164754
4638.895069,370.102971,-8580.269578,-444.123565
4638.895394,296.082377,-8580.269578,-518.144159
4638.895718,592.164754,-8427.050478,-518.144159
4638.896042,592.164754,-8503.660028,-666.185348
4638.896367,888.247130,-8580.269578,-518.144159
4638.896691,592.164754,-7507.735880,-814.226536
4638.897016,666.185348,-8810.098227,-296.082377
4638.897340,962.267725,-8044.002729,-296.082377
4638.897665,1036.288319,-8580.269578,-148.041188
4638.897989,592.164754,-8656.879127,-222.061783
4638.898313,296.082377,-8427.050478,74.020594
4638.898638,370.102971,-8503.660028,0.000000
4638.898962,148.041188,-8656.879127,-296.082377
4638.899287,296.082377,-8273.831378,-148.041188
4638.899611,518.144159,-9269.755526,0.000000
4638.899935,740.205942,-8503.660028,-444.123565
4638.900260,666.185348,-8503.660028,-222.061783
4638.900584,444.123565,-8656.879127,-296.082377
4638.900909,518.144159,-9039.926876,0.000000
4638.901233,592.164754,-8580.269578,-444.123565
4638.901558,370.102971,-8656.879127,-518.144159
4638.901882,444.123565,-8656.879127,-222.061783
4638.902206,444.123565,-9039.926876,-592.164754
4638.902531,444.123565,-8580.269578,-370.102971
4638.902855,370.102971,-8810.098227,-148.041188
4638.903180,518.144159,-8580.269578,-370.102971
4638.903504,518.144159,-8580.269578,-370.102971
4638.903828,888.247130,-8197.221829,-444.123565
4638.904153,666.185348,-8810.098227,-222.061783
4638.904477,592.164754,-8350.440928,-370.102971
4638.904802,518.144159,-8886.707777,0.000000
4638.905126,444.123565,-8886.707777,-444.123565
4638.905451,0.000000,-8733.488677,0.000000
4638.905775,0.000000,-8733.488677,-296.082377
4638.906099,0.000000,-8733.488677,0.000000
4638.906424,222.061783,-8656.879127,-740.205942
4638.906748,518.144159,-8963.317327,-518.144159
4638.907073,518.144159,-8197.221829,-222.061783
4638.907397,444.123565,-8886.707777,-296.082377
4638.907721,592.164754,-8503.660028,-444.123565
4638.908046,444.123565,-8580.269578,222.061783
4638.908370,518.144159,-8656.879127,-370.102971
4638.908695,222.061783,-8810.098227,-370.102971
4638.909019,370.102971,-8427.050478,-592.164754
4638.909344,148.041188,-9116.536426,-444.123565
4638.909668,518.144159,-8503.660028,-666.185348
4638.909992,740.205942,-8656.879127,-444.123565
4638.910317,666.185348,-8427.050478,-444.123565
4638.910641,518.144159,-8427.050478,-370.102971
4638.910966,666.185348,-8427.050478,-444.123565
4638.911290,444.123565,-8503.660028,-296.082377
4638.911614,518.144159,-8350.440928,-370.102971
4638.911939,666.185348,-8427.050478,-296.082377
4638.912263,592.164754,-8963.317327,-370.102971
4638.912588,666.185348,-8427.050478,-444.123565
4638.912912,222.061783,-8580.269578,-222.061783
4638.913237,0.000000,-8810.098227,-222.061783
4638.913561,370.102971,-8656.879127,-592.164754
4638.913885,444.123565,-8580.269578,0.000000
4638.914210,518.144159,-8350.440928,-370.102971
4638.914534,592.164754,-8656.879127,0.000000
4638.914859,592.164754,-8273.831378,-296.082377
4638.915183,518.144159,-8350.440928,296.082377
4638.915508,592.164754,-8427.050478,0.000000
4638.915832,444.123565,-8503.660028,-148.041188
4638.916156,74.020594,-8350.440928,0.000000
4638.916481,814.226536,-8656.879127,-222.061783
4638.916805,518.144159,-8427.050478,-296.082377
4638.917130,666.185348,-8580.269578,-148.041188
4638.917454,370.102971,-8120.612279,0.000000
4638.917778,592.164754,-8886.707777,148.041188
4638.918103,592.164754,-8197.221829,-592.164754
4638.918427,444.123565,-8427.050478,-370.102971
4638.918752,592.164754,-8580.269578,-592.164754
4638.919076,296.082377,-8656.879127,0.000000
4638.919401,592.164754,-8886.707777,-296.082377
4638.919725,296.082377,-8503.660028,-222.061783
4638.920049,370.102971,-8273.831378,-444.123565
4638.920374,444.123565,-8810.098227,-518.144159
4638.920698,0.000000,-8503.660028,0.000000
4638.921023,444.123565,-8273.831378,-222.061783
4638.921347,518.144159,-8733.488677,-740.205942
4638.921671,518.144159,-8733.488677,-296.082377
4638.921996,814.226536,-8197.221829,-666.185348
4638.922320,296.082377,-8503.660028,0.000000
4638.922645,370.102971,-8580.269578,0.000000
4638.922969,296.082377,-8580.269578,0.000000
4638.923294,296.082377,-8886.707777,-148.041188
4638.923618,592.164754,-8197.221829,-370.102971
4638.923942,444.123565,-9039.926876,-444.123565
4638.924267,518.144159,-8656.879127,0.000000
4638.924591,296.082377,-8427.050478,-74.020594
4638.924916,666.185348,-9346.365076,0.000000
4638.925240,222.061783,-8273.831378,-296.082377
4638.925564,0.000000,-8810.098227,-296.082377
4638.925889,74.020594,-8656.879127,-370.102971
4638.926213,222.061783,-8580.269578,0.000000
4638.926538,518.144159,-8733.488677,-518.144159
4638.926862,518.144159,-8350.440928,-666.185348
4638.927187,518.144159,-8503.660028,-444.123565
4638.927511,592.164754,-8656.879127,-518.144159
4638.927835,666.185348,-8197.221829,-592.164754
4638.928160,592.164754,-8350.440928,-444.123565
4638.928484,148.041188,-8503.660028,-592.164754
4638.928809,592.164754,-8580.269578,-296.082377
4638.929133,814.226536,-8580.269578,-740.205942
4638.929457,592.164754,-9193.145976,-370.102971
4638.929782,444.123565,-8580.269578,-296.082377
4638.930106,296.082377,-8580.269578,-444.123565
4638.930431,74.020594,-8503.660028,-370.102971
4638.930755,592.164754,-8733.488677,-370.102971
4638.931080,222.061783,-8810.098227,-666.185348
4638.931404,0.000000,-8580.269578,-222.061783
4638.931728,296.082377,-8656.879127,0.000000
4638.932053,-296.082377,-9193.145976,0.000000
4638.932377,370.102971,-8580.269578,-148.041188
4638.932702,592.164754,-8733.488677,-148.041188
4638.933026,444.123565,-8503.660028,-222.061783
4638.933350,592.164754,-8427.050478,-148.041188
4638.933675,0.000000,-8580.269578,-222.061783
4638.933999,592.164754,-8580.269578,-222.061783
4638.934324,296.082377,-8350.440928,-296.082377
4638.934648,444.123565,-8733.488677,148.041188
4638.934973,74.020594,-7890.783629,-592.164754
4638.935297,74.020594,-8503.660028,-148.041188
4638.935621,444.123565,-8350.440928,-518.144159
4638.935946,370.102971,-8733.488677,-444.123565
4638.936270,444.123565,-8963.317327,-740.205942
4638.936595,518.144159,-8656.879127,-222.061783
4638.936919,740.205942,-8810.098227,0.000000
4638.937243,296.082377,-8273.831378,0.000000
4638.937568,592.164754,-8580.269578,-222.061783
4638.937892,370.102971,-8503.660028,0.000000
4638.938217,222.061783,-8427.050478,-148.041188
4638.938541,296.082377,-8427.050478,-370.102971
4638.938866,222.061783,-8733.488677,-296.082377
4638.939190,814.226536,-8427.050478,-592.164754
4638.939514,370.102971,-8733.488677,-148.041188
4638.939839,222.061783,-8503.660028,-222.061783
4638.940163,222.061783,-8886.707777,0.000000
4638.940488,444.123565,-8810.098227,0.000000
4638.940812,518.144159,-8656.879127,-592.164754
4638.941136,666.185348,-8580.269578,-444.123565
4638.941461,740.205942,-8503.660028,-296.082377
4638.941785,888.247130,-8350.440928,-222.061783
4638.942110,518.144159,-8810.098227,-222.061783
4638.942434,592.164754,-8273.831378,-518.144159
4638.942759,518.144159,-8656.879127,-296.082377
4638.943083,666.185348,-8733.488677,-666.185348
4638.943407,370.102971,-8580.269578,74.020594
4638.943732,444.123565,-8886.707777,-666.185348
4638.944056,592.164754,-8656.879127,0.000000
4638.944381,370.102971,-8503.660028,0.000000
4638.944705,370.102971,-8963.317327,0.000000
4638.945030,814.226536,-8503.660028,-296.082377
4638.945354,370.102971,-8503.660028,-518.144159
4638.945678,222.061783,-8656.879127,-740.205942
4638.946003,518.144159,-8427.050478,-592.164754
4638.946327,592.164754,-8733.488677,-444.123565
4638.946652,666.185348,-8963.317327,-370.102971
4638.946976,0.000000,-8656.879127,-370.102971
4638.947300,74.020594,-8656.879127,-296.082377
4638.947625,148.041188,-7967.393179,-518.144159
4638.947949,148.041188,-8733.488677,-518.144159
4638.948274,222.061783,-8273.831378,-370.102971
4638.948598,740.205942,-8503.660028,0.000000
4638.948923,592.164754,-8197.221829,-296.082377
4638.949247,740.205942,-8810.098227,-148.041188
4638.949571,592.164754,-8810.098227,-222.061783
4638.949896,592.164754,-8963.317327,0.000000
4638.950220,74.020594,-8580.269578,0.000000
4638.950545,296.082377,-9039.926876,0.000000
4638.950869,0.000000,-8656.879127,0.000000
4638.951193,222.061783,-8733.488677,0.000000
4638.951518,296.082377,-8580.269578,0.000000
4638.951842,518.144159,-9193.145976,222.061783
4638.952167,296.082377,-8427.050478,296.082377
4638.952491,296.082377,-8580.269578,74.020594
4638.952816,666.185348,-8273.831378,-296.082377
4638.953140,444.123565,-8350.440928,-148.041188
4638.953464,296.082377,-8503.660028,-148.041188
4638.953789,370.102971,-8503.660028,-148.041188
4638.954113,592.164754,-8580.269578,0.000000
4638.954438,444.123565,-8503.660028,-370.102971
4638.954762,0.000000,-7967.393179,-518.144159
4638.955086,296.082377,-8580.269578,-296.082377
4638.955411,592.164754,-8197.221829,-370.102971
4638.955735,370.102971,-8120.612279,-296.082377
4638.956060,666.185348,-8580.269578,-888.247130
4638.956384,666.185348,-8580.269578,-444.123565
4638.956709,814.226536,-8273.831378,-296.082377
4638.957033,518.144159,-8733.488677,-592.164754
4638.957357,370.102971,-8886.707777,0.000000
4638.957682,222.061783,-8810.098227,-296.082377
4638.958006,148.041188,-8656.879127,-148.041188
4638.958331,222.061783,-8810.098227,-666.185348
4638.958655,518.144159,-8886.707777,-518.144159
4638.958979,296.082377,-8733.488677,0.000000
4638.959304,148.041188,-8580.269578,-222.061783
4638.959628,0.000000,-8886.707777,-148.041188
4638.959953,444.123565,-8273.831378,-296.082377
4638.960277,740.205942,-9652.803275,-296.082377
4638.960602,148.041188,-8733.488677,-592.164754
4638.960926,518.144159,-9039.926876,0.000000
4638.961250,296.082377,-8580.269578,-666.185348
4638.961575,296.082377,-8810.098227,-148.041188
4638.961899,148.041188,-8733.488677,-370.102971
4638.962224,222.061783,-9039.926876,-740.205942
4638.962548,370.102971,-8044.002729,-666.185348
4638.962872,296.082377,-8656.879127,-740.205942
4638.963197,592.164754,-8733.488677,-444.123565
4638.963521,666.185348,-8350.440928,-740.205942
4638.963846,592.164754,-8733.488677,-592.164754
4638.964170,518.144159,-8656.879127,-296.082377
4638.964495,444.123565,-8656.879127,-370.102971
4638.964819,148.041188,-8427.050478,-518.144159
4638.965143,296.082377,-8350.440928,-592.164754
4638.965468,296.082377,-8580.269578,-1110.308913
4638.965792,222.061783,-8580.269578,-592.164754
4638.966117,666.185348,-8350.440928,-814.226536
4638.966441,444.123565,-8810.098227,-592.164754
4638.966765,444.123565,-8120.612279,-814.226536
4638.967090,370.102971,-8810.098227,-592.164754
4638.967414,518.144159,-9039.926876,-592.164754
4638.967739,148.041188,-8580.269578,-592.164754
4638.968063,444.123565,-8656.879127,-518.144159
4638.968388,444.123565,-8810.098227,-370.102971
4638.968712,296.082377,-9116.536426,-518.144159
4638.969036,296.082377,-9039.926876,-518.144159
4638.969361,518.144159,-8733.488677,0.000000
4638.969685,370.102971,-8503.660028,0.000000
4638.970010,370.102971,-8580.269578,-148.041188
4638.970334,814.226536,-8503.660028,-370.102971
4638.970658,592.164754,-8503.660028,-222.061783
4638.970983,666.185348,-8580.269578,0.000000
4638.971307,592.164754,-8580.269578,0.000000
4638.971632,962.267725,-8886.707777,0.000000
4638.971956,74.020594,-8580.269578,0.000000
4638.972281,592.164754,-8580.269578,0.000000
4638.972605,222.061783,-8810.098227,-370.102971
4638.972929,518.144159,-8503.660028,74.020594
4638.973254,740.205942,-8427.050478,-148.041188
4638.973578,370.102971,-8733.488677,0.000000
4638.973903,888.247130,-8273.831378,-518.144159
4638.974227,296.082377,-8427.050478,-518.144159
4638.974552,0.000000,-8197.221829,296.082377
4638.974876,296.082377,-8427.050478,-444.123565
4638.975200,222.061783,-8886.707777,-518.144159
4638.975525,148.041188,-8120.612279,-518.144159
4638.975849,222.061783,-8963.317327,0.000000
4638.976174,296.082377,-8350.440928,-222.061783
4638.976498,518.144159,-8580.269578,0.000000
4638.976822,370.102971,-8733.488677,-222.061783
4638.977147,592.164754,-8503.660028,-444.123565
4638.977471,518.144159,-8427.050478,-370.102971
4638.977796,518.144159,-8580.269578,-296.082377
4638.978120,592.164754,-8503.660028,-370.102971
4638.978445,518.144159,-8503.660028,-370.102971
4638.978769,740.205942,-8886.707777,-296.082377
4638.979093,592.164754,-8733.488677,-222.061783
4638.979418,444.123565,-8656.879127,-444.123565
4638.979742,444.123565,-8656.879127,-296.082377
4638.980067,1110.308913,-8580.269578,-296.082377
4638.980391,74.020594,-8810.098227,-370.102971
4638.980715,666.185348,-8810.098227,-518.144159
4638.981040,592.164754,-8733.488677,-444.123565
4638.981364,296.082377,-8733.488677,-444.123565
4638.981689,370.102971,-8886.707777,0.000000
4638.982013,222.061783,-8733.488677,-296.082377
4638.982338,370.102971,-8580.269578,-740.205942
4638.982662,222.061783,-8733.488677,-444.123565
4638.982986,222.061783,-8580.269578,-740.205942
4638.983311,592.164754,-8503.660028,-444.123565
4638.983635,370.102971,-8656.879127,-222.061783
4638.983960,296.082377,-8733.488677,-148.041188
4638.984284,296.082377,-7890.783629,-444.123565
4638.984609,222.061783,-8350.440928,-444.123565
4638.984933,444.123565,-8503.660028,-444.123565
4638.985258,370.102971,-8503.660028,-592.164754
4638.985582,518.144159,-8656.879127,-370.102971
4638.985906,444.123565,-8503.660028,-444.123565
4638.986231,666.185348,-8503.660028,-518.144159
4638.986555,666.185348,-8350.440928,0.000000
4638.986880,518.144159,-8197.221829,0.000000
4638.987204,296.082377,-9039.926876,0.000000
4638.987529,518.144159,-8503.660028,-222.061783
4638.987853,518.144159,-8427.050478,-296.082377
4638.988178,666.185348,-8580.269578,-296.082377
4638.988502,740.205942,-8427.050478,-370.102971
4638.988827,740.205942,-8963.317327,0.000000
4638.989151,518.144159,-8503.660028,74.020594
4638.989476,222.061783,-8197.221829,-370.102971
4638.989800,592.164754,-8350.440928,-296.082377
4638.990125,148.041188,-8350.440928,222.061783
4638.990449,592.164754,-8197.221829,-222.061783
4638.990774,592.164754,-8580.269578,-518.144159
4638.991098,592.164754,-8427.050478,-370.102971
4638.991423,444.123565,-8197.221829,-740.205942
4638.991747,370.102971,-8580.269578,-444.123565
4638.992072,222.061783,-8580.269578,-296.082377
4638.992396,222.061783,-8503.660028,-444.123565
4638.992721,222.061783,-8733.488677,-666.185348
4638.993045,0.000000,-8810.098227,-518.144159
4638.993370,444.123565,-8733.488677,-148.041188
4638.993694,444.123565,-8273.831378,-296.082377
4638.994019,148.041188,-8656.879127,-518.144159
4638.994343,74.020594,-8886.707777,-444.123565
4638.994668,444.123565,-8656.879127,-370.102971
4638.994992,296.082377,-8503.660028,-1110.308913
4638.995317,444.123565,-8580.269578,-518.144159
4638.995641,370.102971,-8656.879127,-444.123565
4638.995966,444.123565,-9116.536426,-592.164754
4638.996290,444.123565,-8656.879127,-666.185348
4638.996615,444.123565,-8656.879127,-740.205942
4638.996939,444.123565,-8810.098227,-592.164754
4638.997264,444.123565,-8656.879127,-592.164754
4638.997588,444.123565,-8886.707777,-666.185348
4638.997913,222.061783,-8656.879127,-592.164754
4638.998237,222.061783,-8656.879127,-444.123565
4638.998562,740.205942,-8810.098227,-666.185348
4638.998886,296.082377,-8810.098227,-518.144159
4638.999211,74.020594,-8503.660028,-370.102971
4638.999535,370.102971,-8810.098227,-740.205942
4638.999860,148.041188,-8503.660028,-814.226536
4639.000184,370.102971,-8733.488677,-1036.288319
4639.000509,740.205942,-8810.098227,-592.164754
4639.000833,740.205942,-8427.050478,-296.082377
4639.001158,444.123565,-8656.879127,-370.102971
4639.001482,296.082377,-8733.488677,-444.123565
4639.001807,740.205942,-8733.488677,-592.164754
4639.002131,296.082377,-8656.879127,-592.164754
4639.002456,296.082377,-8580.269578,-518.144159
4639.002780,0.000000,-8580.269578,74.020594
4639.003105,370.102971,-8656.879127,-148.041188
4639.003429,666.185348,-8427.050478,-444.123565
4639.003754,740.205942,-8963.317327,0.000000
4639.004078,592.164754,-8197.221829,0.000000
4639.004403,518.144159,-8656.879127,0.000000
4639.004727,148.041188,-8427.050478,-370.102971
4639.005052,518.144159,-8503.660028,0.000000
4639.005376,518.144159,-8580.269578,-444.123565
4639.005701,1110.308913,-8886.707777,-148.041188
4639.006025,814.226536,-8273.831378,-296.082377
4639.006350,518.144159,-8733.488677,0.000000
4639.006674,444.123565,-8580.269578,-444.123565
4639.006999,740.205942,-8350.440928,-370.102971
4639.007323,592.164754,-8350.440928,-296.082377
4639.007648,592.164754,-8044.002729,-222.061783
4639.007972,592.164754,-8427.050478,0.000000
4639.008296,296.082377,-8427.050478,-222.061783
4639.008621,518.144159,-8656.879127,148.041188
4639.008945,222.061783,-8503.660028,-222.061783
4639.009270,222.061783,-8580.269578,0.000000
4639.009594,148.041188,-8810.098227,0.000000
4639.009919,1036.288319,-8580.269578,0.000000
4639.010243,444.123565,-8427.050478,0.000000
4639.010568,370.102971,-8810.098227,-222.061783
4639.010892,518.144159,-8733.488677,-148.041188
4639.011217,444.123565,-8733.488677,222.061783
4639.011541,370.102971,-8503.660028,-296.082377
4639.011866,148.041188,-8503.660028,-148.041188
4639.012190,444.123565,-8580.269578,-592.164754
4639.012515,296.082377,-8580.269578,-666.185348
4639.012839,296.082377,-9039.926876,-222.061783
4639.013164,222.061783,-8427.050478,-296.082377
4639.013488,666.185348,-8656.879127,0.000000
4639.013813,296.082377,-8273.831378,-370.102971
4639.014137,296.082377,-8273.831378,-222.061783
4639.014462,370.102971,-8427.050478,-296.082377
4639.014786,148.041188,-8503.660028,-666.185348
4639.015111,222.061783,-9116.536426,-444.123565
4639.015435,444.123565,-8963.317327,-518.144159
4639.015760,222.061783,-8810.098227,-592.164754
4639.016084,296.082377,-8886.707777,-296.082377
4639.016409,370.102971,-8963.317327,-148.041188
4639.016733,296.082377,-8580.269578,-370.102971
4639.017058,518.144159,-8427.050478,-444.123565
4639.017382,592.164754,-8580.269578,-444.123565
4639.017707,296.082377,-8733.488677,-370.102971
4639.018031,666.185348,-8580.269578,-148.041188
4639.018356,444.123565,-9499.584175,-222.061783
4639.018680,0.000000,-9039.926876,-370.102971
4639.019005,370.102971,-8810.098227,-444.123565
4639.019329,444.123565,-8580.269578,-740.205942
4639.019654,222.061783,-8656.879127,-444.123565
4639.019978,444.123565,-8580.269578,-666.185348
4639.020303,814.226536,-8656.879127,-444.123565
4639.020627,666.185348,-8810.098227,-370.102971
4639.020952,962.267725,-8580.269578,-592.164754
4639.021276,666.185348,-8427.050478,-296.082377
4639.021601,518.144159,-8580.269578,-444.123565
4639.021925,296.082377,-8886.707777,-518.144159
4639.022250,370.102971,-8810.098227,-370.102971
4639.022574,740.205942,-8197.221829,0.000000
4639.022899,518.144159,-8580.269578,-444.123565
4639.023223,444.123565,-8733.488677,0.000000
4639.023548,444.123565,-8350.440928,0.000000
4639.023872,518.144159,-8810.098227,74.020594
4639.024197,296.082377,-8350.440928,-222.061783
4639.024521,370.102971,-8733.488677,-370.102971
4639.024846,296.082377,-8273.831378,-444.123565
4639.025170,296.082377,-8503.660028,148.041188
4639.025495,148.041188,-8733.488677,0.000000
4639.025819,296.082377,-8810.098227,0.000000
4639.026144,74.020594,-8273.831378,-148.041188
4639.026468,222.061783,-8656.879127,0.000000
4639.026793,518.144159,-8427.050478,-222.061783
4639.027117,518.144159,-8427.050478,-296.082377
4639.027442,814.226536,-8656.879127,-148.041188
4639.027766,518.144159,-8350.440928,-222.061783
4639.028091,740.205942,-8733.488677,-296.082377
4639.028415,740.205942,-8044.002729,0.000000
4639.028740,74.020594,-8656.879127,74.020594
4639.029064,370.102971,-8733.488677,0.000000
4639.029389,296.082377,-8427.050478,0.000000
4639.029713,592.164754,-8350.440928,-370.102971
4639.030038,296.082377,-8427.050478,74.020594
4639.030362,296.082377,-8656.879127,74.020594
4639.030686,222.061783,-8580.269578,-148.041188
4639.031011,222.061783,-9193.145976,0.000000
4639.031335,148.041188,-8580.269578,0.000000
4639.031660,444.123565,-8733.488677,-666.185348
4639.031984,444.123565,-8197.221829,-444.123565
4639.032309,370.102971,-8580.269578,-444.123565
4639.032633,148.041188,-8733.488677,-444.123565
4639.032958,370.102971,-8656.879127,-592.164754
4639.033282,296.082377,-8810.098227,-740.205942
4639.033607,74.020594,-8810.098227,-222.061783
4639.033931,0.000000,-8810.098227,-370.102971
4639.034256,296.082377,-8810.098227,-666.185348
4639.034580,444.123565,-8503.660028,-814.226536
4639.034905,444.123565,-8810.098227,-518.144159
4639.035229,666.185348,-8580.269578,-296.082377
4639.035554,296.082377,-8273.831378,-296.082377
4639.035878,592.164754,-8810.098227,-296.082377
4639.036203,444.123565,-8427.050478,-518.144159
4639.036527,740.205942,-8503.660028,-518.144159
4639.036852,444.123565,-9116.536426,-370.102971
4639.037176,592.164754,-9039.926876,-370.102971
4639.037501,518.144159,-8427.050478,-370.102971
4639.037825,444.123565,-8886.707777,-296.082377
4639.038150,814.226536,-9116.536426,74.020594
4639.038474,444.123565,-9269.755526,-222.061783
4639.038799,444.123565,-8580.269578,-370.102971
4639.039123,370.102971,-8580.269578,-296.082377
4639.039448,74.020594,-9269.755526,-666.185348
4639.039772,148.041188,-8656.879127,-444.123565
4639.040097,518.144159,-8427.050478,-666.185348
4639.040421,518.144159,-8580.269578,-740.205942
4639.040746,370.102971,-8656.879127,-444.123565
4639.041070,222.061783,-8120.612279,-518.144159
4639.041395,296.082377,-8350.440928,-592.164754
4639.041719,74.020594,-8656.879127,-666.185348
4639.042044,444.123565,-8350.440928,-666.185348
4639.042368,370.102971,-8273.831378,-148.041188
4639.042693,444.123565,-8580.269578,-518.144159
4639.043017,666.185348,-8733.488677,-518.144159
4639.043342,592.164754,-8427.050478,-666.185348
4639.043666,518.144159,-8886.707777,-370.102971
4639.043991,148.041188,-8656.879127,0.000000
4639.044315,370.102971,-8810.098227,-444.123565
4639.044640,740.205942,-8273.831378,-296.082377
4639.044964,740.205942,-8427.050478,-148.041188
4639.045289,962.267725,-8427.050478,-148.041188
4639.045613,740.205942,-8656.879127,-370.102971
4639.045938,518.144159,-8350.440928,148.041188
4639.046262,370.102971,-8503.660028,-296.082377
4639.046587,0.000000,-8656.879127,0.000000
4639.046911,296.082377,-8580.269578,-518.144159
4639.047236,0.000000,-8503.660028,-296.082377
4639.047560,444.123565,-8886.707777,-296.082377
4639.047885,74.020594,-8503.660028,-296.082377
4639.048209,444.123565,-8427.050478,0.000000
4639.048534,518.144159,-8580.269578,-296.082377
4639.048858,148.041188,-8656.879127,-222.061783
4639.049183,370.102971,-8197.221829,-592.164754
4639.049507,148.041188,-8120.612279,-666.185348
4639.049832,222.061783,-9039.926876,-296.082377
4639.050156,444.123565,-8427.050478,-444.123565
4639.050481,370.102971,-8580.269578,-148.041188
4639.050805,370.102971,-8044.002729,296.082377
4639.051130,518.144159,-8427.050478,0.000000
4639.051454,148.041188,-8580.269578,0.000000
4639.051779,444.123565,-8427.050478,0.000000
4639.052103,518.144159,-8656.879127,0.000000
4639.052428,592.164754,-8810.098227,0.000000
4639.052752,962.267725,-8580.269578,0.000000
4639.053076,444.123565,-8886.707777,-148.041188
4639.053401,222.061783,-8810.098227,-444.123565
4639.053725,814.226536,-9193.145976,-296.082377
4639.054050,592.164754,-8886.707777,-296.082377
4639.054374,592.164754,-8656.879127,-296.082377
4639.054699,592.164754,-8656.879127,0.000000
4639.055023,740.205942,-8886.707777,-222.061783
4639.055348,962.267725,-8350.440928,-222.061783
4639.055672,814.226536,-8963.317327,-148.041188
4639.055997,666.185348,-8273.831378,-296.082377
4639.056321,740.205942,-8350.440928,-222.061783
4639.056646,518.144159,-8350.440928,-296.082377
4639.056970,666.185348,-8886.707777,-296.082377
4639.057295,666.185348,-8580.269578,-370.102971
4639.057619,370.102971,-8963.317327,0.000000
4639.057944,666.185348,-9269.755526,0.000000
4639.058268,370.102971,-8656.879127,74.020594
4639.058593,296.082377,-8503.660028,74.020594
4639.058917,444.123565,-8503.660028,-296.082377
4639.059242,296.082377,-8580.269578,-148.041188
4639.059566,444.123565,-8580.269578,-148.041188
4639.059891,444.123565,-8503.660028,0.000000
4639.060215,666.185348,-8656.879127,-222.061783
4639.060540,444.123565,-8350.440928,-148.041188
4639.060864,0.000000,-8963.317327,-370.102971
4639.061189,296.082377,-8733.488677,-296.082377
4639.061513,0.000000,-8810.098227,-74.020594
4639.061838,148.041188,-8350.440928,-592.164754
4639.062162,296.082377,-8197.221829,-592.164754
4639.062487,370.102971,-8427.050478,-518.144159
4639.062811,518.144159,-8503.660028,-518.144159
4639.063136,296.082377,-8120.612279,0.000000
4639.063460,148.041188,-8197.221829,-518.144159
4639.063785,296.082377,-8656.879127,-888.247130
4639.064109,444.123565,-8810.098227,-518.144159
4639.064434,444.123565,-8427.050478,-370.102971
4639.064758,518.144159,-8503.660028,-148.041188
4639.065083,370.102971,-8963.317327,0.000000
4639.065407,370.102971,-8427.050478,-148.041188
4639.065732,74.020594,-8197.221829,-370.102971
4639.066056,444.123565,-8427.050478,-222.061783
4639.066381,296.082377,-9039.926876,-888.247130
4639.066705,592.164754,-8656.879127,-222.061783
4639.067030,444.123565,-8273.831378,-740.205942
4639.067354,370.102971,-8886.707777,-370.102971
4639.067679,222.061783,-8580.269578,-518.144159
4639.068003,222.061783,-8886.707777,-518.144159
4639.068328,222.061783,-8656.879127,-592.164754
4639.068652,148.041188,-8273.831378,-518.144159
4639.068977,148.041188,-8580.269578,-666.185348
4639.069301,444.123565,-8580.269578,-444.123565
4639.069626,740.205942,-8503.660028,-814.226536
4639.069950,592.164754,-8427.050478,-444.123565
4639.070275,296.082377,-8120.612279,-518.144159
4639.070599,592.164754,-8656.879127,-370.102971
4639.070924,370.102971,-8656.879127,-444.123565
4639.071248,296.082377,-8503.660028,-814.226536
4639.071573,370.102971,-8733.488677,-518.144159
4639.071897,444.123565,-8656.879127,-148.041188
4639.072222,814.226536,-8656.879127,-666.185348
4639.072546,444.123565,-8733.488677,-148.041188
4639.072871,296.082377,-8273.831378,-370.102971
4639.073195,518.144159,-8810.098227,-444.123565
4639.073520,1258.350101,-8810.098227,-592.164754
4639.073844,444.123565,-8733.488677,-518.144159
4639.074169,222.061783,-8886.707777,-888.247130
4639.074493,222.061783,-8656.879127,-370.102971
4639.074818,592.164754,-8656.879127,-296.082377
4639.075142,296.082377,-9039.926876,-444.123565
4639.075467,296.082377,-8656.879127,-370.102971
4639.075791,592.164754,-8810.098227,-666.185348
4639.076115,296.082377,-8733.488677,-592.164754
4639.076440,740.205942,-8427.050478,-592.164754
4639.076764,444.123565,-8580.269578,-518.144159
4639.077089,666.185348,-8503.660028,-444.123565
4639.077413,296.082377,-8503.660028,-370.102971
4639.077738,592.164754,-8273.831378,-148.041188
4639.078062,0.000000,-8503.660028,-222.061783
4639.078387,444.123565,-8733.488677,-444.123565
4639.078711,370.102971,-8503.660028,-444.123565
4639.079036,444.123565,-8810.098227,0.000000
4639.079360,740.205942,-8580.269578,-592.164754
4639.079685,740.205942,-8427.050478,0.000000
4639.080009,518.144159,-8580.269578,-370.102971
4639.080334,592.164754,-8733.488677,-148.041188
4639.080658,444.123565,-8350.440928,0.000000
4639.080983,370.102971,-8963.317327,0.000000
4639.081307,666.185348,-8503.660028,-296.082377
4639.081632,666.185348,-8503.660028,-296.082377
4639.081956,592.164754,-8733.488677,-222.061783
4639.082281,444.123565,-8580.269578,-74.020594
4639.082605,296.082377,-8733.488677,0.000000
4639.082930,444.123565,-8350.440928,-296.082377
4639.083254,222.061783,-8350.440928,-222.061783
4639.083579,296.082377,-8656.879127,-592.164754
4639.083903,666.185348,-8273.831378,-370.102971
4639.084228,666.185348,-8427.050478,0.000000
4639.084552,592.164754,-8580.269578,-518.144159
4639.084877,666.185348,-8120.612279,-592.164754
4639.085201,148.041188,-8656.879127,-222.061783
4639.085526,296.082377,-8273.831378,0.000000
4639.085850,0.000000,-8656.879127,-148.041188
4639.086175,518.144159,-8733.488677,-296.082377
4639.086499,296.082377,-8350.440928,-592.164754
4639.086824,296.082377,-8503.660028,-370.102971
4639.087148,518.144159,-8273.831378,-592.164754
4639.087473,666.185348,-8656.879127,0.000000
4639.087797,814.226536,-8197.221829,-518.144159
4639.088122,74.020594,-8886.707777,-222.061783
4639.088446,518.144159,-8273.831378,-740.205942
4639.088771,444.123565,-8810.098227,-370.102971
4639.089095,740.205942,-8886.707777,-518.144159
4639.089420,148.041188,-8580.269578,-370.102971
4639.089744,0.000000,-8580.269578,-370.102971
4639.090068,592.164754,-8503.660028,-666.185348
4639.090393,962.267725,-8197.221829,-518.144159
4639.090717,518.144159,-8656.879127,-444.123565
4639.091042,888.247130,-8197.221829,-592.164754
4639.091366,740.205942,-8503.660028,-222.061783
4639.091691,518.144159,-8580.269578,-296.082377
4639.092015,444.123565,-8580.269578,-592.164754
4639.092340,444.123565,-8810.098227,-592.164754
4639.092664,296.082377,-8503.660028,0.000000
4639.092989,222.061783,-8733.488677,-518.144159
4639.093313,666.185348,-8656.879127,-666.185348
4639.093638,370.102971,-8427.050478,-518.144159
4639.093962,740.205942,-8733.488677,-444.123565
4639.094286,740.205942,-8580.269578,-444.123565
4639.094611,814.226536,-8656.879127,-444.123565
4639.094935,592.164754,-8580.269578,-370.102971
4639.095260,444.123565,-8733.488677,-296.082377
4639.095584,518.144159,-8427.050478,-370.102971
4639.095909,370.102971,-8733.488677,-740.205942
4639.096233,518.144159,-9116.536426,-370.102971
4639.096558,518.144159,-8810.098227,-222.061783
4639.096882,592.164754,-8733.488677,-222.061783
4639.097207,666.185348,-7967.393179,-296.082377
4639.097531,518.144159,-9269.755526,-666.185348
4639.097856,518.144159,-8197.221829,-148.041188
4639.098180,222.061783,-8503.660028,-370.102971
4639.098504,148.041188,-8580.269578,-222.061783
4639.098829,296.082377,-8273.831378,-296.082377
4639.099153,222.061783,-8580.269578,0.000000
4639.099478,444.123565,-8656.879127,-222.061783
4639.099802,592.164754,-8503.660028,0.000000
4639.100127,296.082377,-8733.488677,-222.061783
4639.100451,222.061783,-8120.612279,-148.041188
4639.100776,296.082377,-8580.269578,-370.102971
4639.101100,592.164754,-8656.879127,-666.185348
4639.101425,592.164754,-8427.050478,0.000000
4639.101749,370.102971,-8197.221829,-296.082377
4639.102073,370.102971,-8656.879127,-222.061783
4639.102398,444.123565,-8197.221829,-296.082377
4639.102722,444.123565,-8886.707777,-444.123565
4639.103047,518.144159,-8733.488677,-222.061783
4639.103371,222.061783,-8656.879127,0.000000
4639.103696,148.041188,-8656.879127,-296.082377
4639.104020,296.082377,-8656.879127,-222.061783
4639.104345,296.082377,-9039.926876,-370.102971
4639.104669,0.000000,-8886.707777,444.123565
4639.104994,222.061783,-8503.660028,0.000000
4639.105318,222.061783,-8733.488677,-222.061783
4639.105643,444.123565,-8503.660028,-518.144159
4639.105967,370.102971,-8810.098227,0.000000
4639.106291,444.123565,-8656.879127,0.000000
4639.106616,296.082377,-8733.488677,-222.061783
4639.106940,148.041188,-8810.098227,0.000000
4639.107265,222.061783,-8733.488677,0.000000
4639.107589,444.123565,-8656.879127,-370.102971
4639.107914,444.123565,-8656.879127,-592.164754
4639.108238,222.061783,-8580.269578,-666.185348
4639.108563,518.144159,-8273.831378,-222.061783
4639.108887,444.123565,-8886.707777,-444.123565
4639.109212,666.185348,-8350.440928,-518.144159
4639.109536,592.164754,-8580.269578,-518.144159
4639.109861,518.144159,-8580.269578,-666.185348
4639.110185,666.185348,-8810.098227,-666.185348
4639.110509,666.185348,-8427.050478,-888.247130
4639.110834,370.102971,-8580.269578,-666.185348
4639.111158,592.164754,-8656.879127,-518.144159
4639.111483,444.123565,-8886.707777,-518.144159
4639.111807,888.247130,-8120.612279,-518.144159
4639.112132,592.164754,-8503.660028,-370.102971
4639.112456,444.123565,-8503.660028,-444.123565
4639.112781,592.164754,-8197.221829,-666.185348
4639.113105,666.185348,-8044.002729,-592.164754
4639.113430,222.061783,-8273.831378,-740.205942
4639.113754,444.123565,-8810.098227,-370.102971
4639.114078,370.102971,-8733.488677,-592.164754
4639.114403,370.102971,-8733.488677,-148.041188
4639.114727,444.123565,-8580.269578,-444.123565
4639.115052,740.205942,-8886.707777,-296.082377
4639.115376,592.164754,-8427.050478,-444.123565
4639.115701,518.144159,-8503.660028,-518.144159
4639.116025,74.020594,-8197.221829,-370.102971
4639.116350,666.185348,-8580.269578,-666.185348
4639.116674,370.102971,-8580.269578,-740.205942
4639.116999,444.123565,-8503.660028,-296.082377
4639.117323,518.144159,-8810.098227,0.000000
4639.117648,592.164754,-8656.879127,-518.144159
4639.117972,222.061783,-8427.050478,-814.226536
4639.118296,444.123565,-8656.879127,-444.123565
4639.118621,518.144159,-8350.440928,-518.144159
4639.118945,222.061783,-8503.660028,-444.123565
4639.119270,370.102971,-8503.660028,-592.164754
4639.119594,222.061783,-8273.831378,-222.061783
4639.119919,444.123565,-8810.098227,-370.102971
4639.120243,222.061783,-7967.393179,-296.082377
4639.120568,74.020594,-8350.440928,-518.144159
4639.120892,518.144159,-8427.050478,-148.041188
4639.121217,444.123565,-8350.440928,-444.123565
4639.121541,592.164754,-8580.269578,-296.082377
4639.121866,370.102971,-8733.488677,-370.102971
4639.122190,444.123565,-8656.879127,74.020594
4639.122514,370.102971,-8350.440928,-296.082377
4639.122839,74.020594,-8580.269578,-296.082377
4639.123163,444.123565,-8580.269578,-592.164754
4639.123488,296.082377,-8503.660028,-592.164754
4639.123812,444.123565,-8733.488677,-370.102971
4639.124137,518.144159,-8503.660028,-518.144159
4639.124461,814.226536,-8733.488677,-148.041188
4639.124786,222.061783,-8350.440928,-222.061783
4639.125110,518.144159,-8733.488677,-148.041188
4639.125435,518.144159,-8733.488677,-370.102971
4639.125759,444.123565,-8273.831378,-222.061783
4639.126084,296.082377,-8886.707777,-222.061783
4639.126408,296.082377,-8580.269578,-148.041188
4639.126732,518.144159,-8580.269578,0.000000
4639.127057,740.205942,-8810.098227,0.000000
4639.127381,814.226536,-8656.879127,222.061783
4639.127706,592.164754,-8350.440928,0.000000
4639.128030,370.102971,-8580.269578,0.000000
4639.128355,814.226536,-8427.050478,-370.102971
4639.128679,814.226536,-9422.974625,222.061783
4639.129004,592.164754,-8580.269578,-148.041188
4639.129328,814.226536,-8733.488677,0.000000
4639.129653,592.164754,-8273.831378,-222.061783
4639.129977,518.144159,-9039.926876,0.000000
4639.130301,518.144159,-8350.440928,-370.102971
4639.130626,518.144159,-8886.707777,-296.082377
4639.130950,444.123565,-8273.831378,-296.082377
4639.131275,444.123565,-8580.269578,-444.123565
4639.131599,222.061783,-8580.269578,-296.082377
4639.131924,296.082377,-8580.269578,-444.123565
4639.132248,222.061783,-8963.317327,-444.123565
4639.132573,296.082377,-8427.050478,-296.082377
4639.132897,222.061783,-7890.783629,0.000000
4639.133222,296.082377,-8656.879127,-592.164754
4639.133546,370.102971,-8427.050478,-518.144159
4639.133871,518.144159,-8503.660028,0.000000
4639.134195,444.123565,-8503.660028,-296.082377
4639.134519,222.061783,-8503.660028,0.000000
4639.134844,370.102971,-8656.879127,-370.102971
4639.135168,518.144159,-8350.440928,-370.102971
4639.135493,222.061783,-8656.879127,-296.082377
4639.135817,888.247130,-9039.926876,74.020594
4639.136142,592.164754,-8427.050478,-444.123565
4639.136466,666.185348,-8656.879127,-444.123565
4639.136791,370.102971,-8503.660028,-222.061783
4639.137115,666.185348,-8886.707777,-148.041188
4639.137440,296.082377,-8503.660028,-666.185348
4639.137764,0.000000,-8733.488677,-444.123565
4639.138089,370.102971,-8580.269578,-296.082377
4639.138413,74.020594,-8810.098227,-222.061783
4639.138737,592.164754,-8810.098227,-222.061783
4639.139062,444.123565,-8427.050478,-370.102971
4639.139386,222.061783,-8963.317327,0.000000
4639.139711,370.102971,-8427.050478,-222.061783
4639.140035,444.123565,-8810.098227,0.000000
4639.140360,518.144159,-8503.660028,-518.144159
4639.140684,666.185348,-8427.050478,-296.082377
4639.141009,370.102971,-8427.050478,-444.123565
4639.141333,592.164754,-8197.221829,222.061783
4639.141658,148.041188,-8503.660028,-74.020594
