#time,accel_x,accel_y,accel_z
4651.607541,222.061783,-8580.269578,-296.082377
4651.607866,148.041188,-8733.488677,-296.082377
4651.608191,296.082377,-8656.879127,-296.082377
4651.608515,444.123565,-8503.660028,-74.020594
4651.608840,518.144159,-8580.269578,-222.061783
4651.609165,444.123565,-8580.269578,-222.061783
4651.609489,370.102971,-8656.879127,-148.041188
4651.609814,296.082377,-8580.269578,-444.123565
4651.610138,592.164754,-8427.050478,-444.123565
4651.610463,370.102971,-8733.488677,-518.144159
4651.610788,518.144159,-8503.660028,-296.082377
4651.611112,666.185348,-9652.803275,0.000000
4651.611437,148.041188,-8580.269578,0.000000
4651.611762,592.164754,-8580.269578,-296.082377
4651.612086,592.164754,-8656.879127,-296.082377
4651.612411,444.123565,-8503.660028,-444.123565
4651.612735,370.102971,-8580.269578,-296.082377
4651.613060,296.082377,-8580.269578,-370.102971
4651.613385,444.123565,-8733.488677,-222.061783
4651.613709,296.082377,-8503.660028,-370.102971
4651.614034,0.000000,-9193.145976,0.000000
4651.614359,444.123565,-8503.660028,0.000000
4651.614683,444.123565,-8580.269578,-148.041188
4651.615008,296.082377,-8580.269578,-296.082377
4651.615332,518.144159,-8580.269578,-666.185348
4651.615657,592.164754,-8427.050478,-296.082377
4651.615982,296.082377,-8656.879127,-444.123565
4651.616306,74.020594,-8427.050478,-222.061783
4651.616631,666.185348,-8886.707777,0.000000
4651.616956,222.061783,-8350.440928,-296.082377
4651.617280,518.144159,-8810.098227,-370.102971
4651.617605,592.164754,-8427.050478,-296.082377
4651.617929,444.123565,-8656.879127,0.000000
4651.618254,370.102971,-8427.050478,-592.164754
4651.618579,296.082377,-8350.440928,-370.102971
4651.618903,518.144159,-8503.660028,-518.144159
4651.619228,222.061783,-8580.269578,-370.102971
4651.619552,444.123565,-9729.412825,-370.102971
4651.619877,370.102971,-8580.269578,-148.041188
4651.620202,370.102971,-8656.879127,-222.061783
4651.620526,444.123565,-8580.269578,-296.082377
4651.620851,518.144159,-8580.269578,-444.123565
4651.621176,518.144159,-8963.317327,0.000000
4651.621500,296.082377,-8503.660028,0.000000
4651.621825,148.041188,-8580.269578,-370.102971
4651.622149,444.123565,-8503.660028,-444.123565
4651.622474,148.041188,-9116.536426,-148.041188
4651.622799,444.123565,-8810.098227,-666.185348
4651.623123,592.164754,-8810.098227,-370.102971
4651.623448,370.102971,-8656.879127,-370.102971
4651.623773,518.144159,-8580.269578,-370.102971
4651.624097,370.102971,-8503.660028,-370.102971
4651.624422,444.123565,-8733.488677,-296.082377
4651.624746,444.123565,-8350.440928,-296.082377
4651.625071,148.041188,-8656.879127,-296.082377
4651.625396,0.000000,-8427.050478,-370.102971
4651.625720,222.061783,-8580.269578,-74.020594
4651.626045,370.102971,-8580.269578,-370.102971
4651.626370,296.082377,-8733.488677,-222.061783
4651.626694,666.185348,-9039.926876,-740.205942
4651.627019,222.061783,-8427.050478,-296.082377
4651.627343,518.144159,-8273.831378,-296.082377
4651.627668,592.164754,-8656.879127,-444.123565
4651.627993,518.144159,-8503.660028,-370.102971
4651.628317,518.144159,-8503.660028,-370.102971
4651.628642,148.041188,-8656.879127,-296.082377
4651.628967,222.061783,-8503.660028,-518.144159
4651.629291,370.102971,-8656.879127,-444.123565
4651.629616,1036.288319,-8427.050478,-370.102971
4651.629940,370.102971,-8580.269578,0.000000
4651.630265,592.164754,-8503.660028,-518.144159
4651.630590,666.185348,-8503.660028,-222.061783
4651.630914,666.185348,-8044.002729,-222.061783
4651.631239,666.185348,-8580.269578,-518.144159
4651.631564,518.144159,-8580.269578,-444.123565
4651.631888,370.102971,-8580.269578,-296.082377
4651.632213,222.061783,-8427.050478,-370.102971
4651.632537,148.041188,-9039.926876,0.000000
4651.632862,296.082377,-8503.660028,-370.102971
4651.633187,444.123565,-8810.098227,-444.123565
4651.633511,444.123565,-8733.488677,-296.082377
4651.633836,444.123565,-8120.612279,296.082377
4651.634160,518.144159,-8580.269578,-296.082377
4651.634485,444.123565,-8273.831378,-296.082377
4651.634810,370.102971,-8886.707777,-222.061783
4651.635134,148.041188,-8427.050478,0.000000
4651.635459,222.061783,-8350.440928,-518.144159
4651.635784,0.000000,-8963.317327,-222.061783
4651.636108,148.041188,-8350.440928,-296.082377
4651.636433,296.082377,-8886.707777,-518.144159
4651.636757,740.205942,-8810.098227,-370.102971
4651.637082,518.144159,-8810.098227,-296.082377
4651.637407,592.164754,-8656.879127,-370.102971
4651.637731,518.144159,-8427.050478,-518.144159
4651.638056,888.247130,-8350.440928,-666.185348
4651.638381,370.102971,-8733.488677,-370.102971
4651.638705,444.123565,-8427.050478,-370.102971
4651.639030,370.102971,-8886.707777,-370.102971
4651.639354,74.020594,-8810.098227,-666.185348
4651.639679,370.102971,-8580.269578,-444.123565
4651.640004,370.102971,-8733.488677,-518.144159
4651.640328,296.082377,-8503.660028,-444.123565
4651.640653,592.164754,-8503.660028,-666.185348
4651.640978,222.061783,-8427.050478,-296.082377
4651.641302,444.123565,-8350.440928,-666.185348
4651.641627,592.164754,-8580.269578,-740.205942
4651.641951,444.123565,-8427.050478,-962.267725
4651.642276,370.102971,-8120.612279,-370.102971
4651.642601,148.041188,-8656.879127,-888.247130
4651.642925,444.123565,-8656.879127,-666.185348
4651.643250,444.123565,-8273.831378,-962.267725
4651.643575,518.144159,-8963.317327,-666.185348
4651.643899,740.205942,-8503.660028,-740.205942
4651.644224,518.144159,-8656.879127,-666.185348
4651.644548,518.144159,-8273.831378,-1036.288319
4651.644873,592.164754,-8733.488677,-962.267725
4651.645198,148.041188,-8427.050478,-1110.308913
4651.645522,444.123565,-8273.831378,-962.267725
4651.645847,370.102971,-8580.269578,-1110.308913
4651.646172,222.061783,-8503.660028,-814.226536
4651.646496,370.102971,-8656.879127,-592.164754
4651.646821,592.164754,-8580.269578,-740.205942
4651.647145,518.144159,-8580.269578,-962.267725
4651.647470,296.082377,-8503.660028,-592.164754
4651.647795,444.123565,-8656.879127,-814.226536
4651.648119,518.144159,-8810.098227,-740.205942
4651.648444,518.144159,-8427.050478,-962.267725
4651.648768,740.205942,-8886.707777,-814.226536
4651.649093,296.082377,-8044.002729,-888.247130
4651.649418,666.185348,-8963.317327,-814.226536
4651.649742,370.102971,-8503.660028,-740.205942
4651.650067,592.164754,-8580.269578,-518.144159
4651.650392,518.144159,-8580.269578,-740.205942
4651.650716,370.102971,-8273.831378,-444.123565
4651.651041,444.123565,-8503.660028,-444.123565
4651.651365,74.020594,-8886.707777,-370.102971
4651.651690,592.164754,-8427.050478,-444.123565
4651.652015,666.185348,-8733.488677,-740.205942
4651.652339,962.267725,-8810.098227,-592.164754
4651.652664,518.144159,-8273.831378,-148.041188
4651.652989,592.164754,-8963.317327,-296.082377
4651.653313,444.123565,-8503.660028,-296.082377
4651.653638,888.247130,-9346.365076,74.020594
4651.653962,370.102971,-8886.707777,0.000000
4651.654287,370.102971,-8733.488677,0.000000
4651.654612,296.082377,-8580.269578,0.000000
4651.654936,74.020594,-8886.707777,0.000000
4651.655261,222.061783,-8427.050478,74.020594
4651.655586,296.082377,-8810.098227,-296.082377
4651.655910,740.205942,-8427.050478,-296.082377
4651.656235,518.144159,-8503.660028,-296.082377
4651.656559,666.185348,-9346.365076,-74.020594
4651.656884,370.102971,-8503.660028,0.000000
4651.657209,370.102971,-8886.707777,148.041188
4651.657533,148.041188,-8580.269578,0.000000
4651.657858,0.000000,-9116.536426,518.144159
4651.658183,370.102971,-8656.879127,0.000000
4651.658507,296.082377,-8580.269578,148.041188
4651.658832,296.082377,-8810.098227,0.000000
4651.659156,296.082377,-8733.488677,0.000000
4651.659481,370.102971,-8503.660028,296.082377
4651.659806,296.082377,-8580.269578,74.020594
4651.660130,296.082377,-8810.098227,296.082377
4651.660455,592.164754,-8733.488677,444.123565
4651.660780,370.102971,-8580.269578,148.041188
4651.661104,0.000000,-8503.660028,296.082377
4651.661429,0.000000,-8580.269578,222.061783
4651.661753,148.041188,-8810.098227,296.082377
4651.662078,148.041188,-8427.050478,0.000000
4651.662403,444.123565,-8810.098227,0.000000
4651.662727,592.164754,-8733.488677,148.041188
4651.663052,518.144159,-8427.050478,0.000000
4651.663376,148.041188,-8503.660028,0.000000
4651.663701,592.164754,-8656.879127,0.000000
4651.664026,370.102971,-8427.050478,0.000000
4651.664350,666.185348,-8656.879127,148.041188
4651.664675,592.164754,-8503.660028,74.020594
4651.665000,814.226536,-9193.145976,0.000000
4651.665324,740.205942,-8273.831378,-148.041188
4651.665649,592.164754,-8656.879127,0.000000
4651.665973,370.102971,-8580.269578,-296.082377
4651.666298,814.226536,-8886.707777,370.102971
4651.666623,296.082377,-8120.612279,0.000000
4651.666947,74.020594,-8963.317327,0.000000
4651.667272,370.102971,-8350.440928,0.000000
4651.667597,296.082377,-8733.488677,0.000000
4651.667921,592.164754,-8656.879127,-296.082377
4651.668246,444.123565,-8580.269578,148.041188
4651.668570,518.144159,-8656.879127,0.000000
4651.668895,370.102971,-8197.221829,0.000000
4651.669220,1184.329507,-8427.050478,-222.061783
4651.669544,814.226536,-8810.098227,-148.041188
4651.669869,740.205942,-8580.269578,0.000000
4651.670194,444.123565,-8273.831378,-296.082377
4651.670518,518.144159,-8810.098227,0.000000
4651.670843,740.205942,-8197.221829,-370.102971
4651.671167,740.205942,-8810.098227,-296.082377
4651.671492,444.123565,-8427.050478,-444.123565
4651.671817,444.123565,-8733.488677,0.000000
4651.672141,444.123565,-8503.660028,-222.061783
4651.672466,148.041188,-8580.269578,-444.123565
4651.672791,148.041188,-8656.879127,-592.164754
4651.673115,222.061783,-8656.879127,-518.144159
4651.673440,888.247130,-8350.440928,0.000000
4651.673764,222.061783,-8886.707777,-592.164754
4651.674089,222.061783,-8963.317327,-444.123565
4651.674413,222.061783,-8963.317327,-666.185348
4651.674738,148.041188,-8963.317327,0.000000
4651.675062,148.041188,-8427.050478,-370.102971
4651.675386,0.000000,-8733.488677,-370.102971
4651.675711,0.000000,-8580.269578,-222.061783
4651.676035,222.061783,-8503.660028,-444.123565
4651.676360,518.144159,-8733.488677,-518.144159
4651.676684,592.164754,-8580.269578,-296.082377
4651.677008,814.226536,-8810.098227,-592.164754
4651.677333,666.185348,-9039.926876,-888.247130
4651.677657,962.267725,-9193.145976,-666.185348
4651.677982,518.144159,-8580.269578,-592.164754
4651.678306,444.123565,-8503.660028,-666.185348
4651.678630,296.082377,-8580.269578,-740.205942
4651.678955,370.102971,-8810.098227,-740.205942
4651.679279,444.123565,-8656.879127,-962.267725
4651.679604,296.082377,-8580.269578,-962.267725
4651.679928,148.041188,-8886.707777,-814.226536
4651.680252,370.102971,-8733.488677,-666.185348
4651.680577,962.267725,-8963.317327,-962.267725
4651.680901,518.144159,-9269.755526,-592.164754
4651.681226,592.164754,-8810.098227,-740.205942
4651.681550,962.267725,-8733.488677,-666.185348
4651.681874,888.247130,-7890.783629,-444.123565
4651.682199,444.123565,-8886.707777,-666.185348
4651.682523,0.000000,-8273.831378,-740.205942
4651.682848,0.000000,-8427.050478,-518.144159
4651.683172,0.000000,-8350.440928,-888.247130
4651.683496,296.082377,-8656.879127,-444.123565
4651.683821,296.082377,-8427.050478,-592.164754
4651.684145,740.205942,-8656.879127,0.000000
4651.684469,888.247130,-8273.831378,-148.041188
4651.684794,1110.308913,-8503.660028,222.061783
4651.685118,740.205942,-8503.660028,0.000000
4651.685443,888.247130,-8580.269578,0.000000
4651.685767,592.164754,-8503.660028,-148.041188
4651.686091,814.226536,-7814.174080,-148.041188
4651.686416,370.102971,-8503.660028,-518.144159
4651.686740,0.000000,-8656.879127,-370.102971
4651.687065,296.082377,-8350.440928,0.000000
4651.687389,222.061783,-8580.269578,296.082377
4651.687713,518.144159,-8503.660028,74.020594
4651.688038,592.164754,-8580.269578,370.102971
4651.688362,666.185348,-8656.879127,0.000000
4651.688687,888.247130,-8656.879127,222.061783
4651.689011,888.247130,-8886.707777,666.185348
4651.689335,518.144159,-8886.707777,296.082377
4651.689660,444.123565,-8427.050478,0.000000
4651.689984,296.082377,-8580.269578,0.000000
4651.690309,0.000000,-8427.050478,0.000000
4651.690633,0.000000,-8197.221829,370.102971
4651.690957,-222.061783,-8350.440928,148.041188
4651.691282,0.000000,-8810.098227,444.123565
4651.691606,296.082377,-8273.831378,370.102971
4651.691931,222.061783,-8656.879127,296.082377
4651.692255,518.144159,-8733.488677,444.123565
4651.692579,666.185348,-8733.488677,148.041188
4651.692904,1036.288319,-8886.707777,0.000000
4651.693228,518.144159,-8197.221829,0.000000
4651.693553,370.102971,-8733.488677,0.000000
4651.693877,222.061783,-8580.269578,0.000000
4651.694201,296.082377,-8197.221829,0.000000
4651.694526,0.000000,-8733.488677,0.000000
4651.694850,148.041188,-8580.269578,-222.061783
4651.695175,370.102971,-8273.831378,222.061783
4651.695499,592.164754,-8656.879127,0.000000
4651.695823,592.164754,-8580.269578,0.000000
4651.696148,666.185348,-8886.707777,296.082377
4651.696472,592.164754,-8427.050478,370.102971
4651.696797,296.082377,-8503.660028,296.082377
4651.697121,444.123565,-8427.050478,-370.102971
4651.697445,814.226536,-9422.974625,-370.102971
4651.697770,370.102971,-8350.440928,-370.102971
4651.698094,0.000000,-8656.879127,-518.144159
4651.698419,444.123565,-8503.660028,-518.144159
4651.698743,0.000000,-8197.221829,-370.102971
4651.699067,148.041188,-8656.879127,0.000000
4651.699392,0.000000,-8580.269578,0.000000
4651.699716,148.041188,-8580.269578,370.102971
4651.700041,296.082377,-8350.440928,-74.020594
4651.700365,518.144159,-8580.269578,0.000000
4651.700689,592.164754,-8580.269578,0.000000
4651.701014,740.205942,-8427.050478,-444.123565
4651.701338,592.164754,-8580.269578,-444.123565
4651.701663,370.102971,-9116.536426,-444.123565
4651.701987,0.000000,-8427.050478,-592.164754
4651.702311,74.020594,-8350.440928,-592.164754
4651.702636,148.041188,-8273.831378,-518.144159
4651.702960,148.041188,-8656.879127,-296.082377
4651.703285,296.082377,-8120.612279,-666.185348
4651.703609,592.164754,-8503.660028,-518.144159
4651.703933,592.164754,-8810.098227,-370.102971
4651.704258,666.185348,-8810.098227,-296.082377
4651.704582,740.205942,-8886.707777,0.000000
4651.704907,592.164754,-8580.269578,-444.123565
4651.705231,444.123565,-8580.269578,0.000000
4651.705555,148.041188,-8120.612279,-592.164754
4651.705880,370.102971,-8427.050478,-370.102971
4651.706204,518.144159,-8197.221829,-370.102971
4651.706528,296.082377,-8427.050478,0.000000
4651.706853,222.061783,-8733.488677,-222.061783
4651.707177,518.144159,-8656.879127,74.020594
4651.707502,222.061783,-8656.879127,-296.082377
4651.707826,444.123565,-8963.317327,296.082377
4651.708150,370.102971,-8120.612279,0.000000
4651.708475,370.102971,-9193.145976,148.041188
4651.708799,814.226536,-8810.098227,-148.041188
4651.709124,444.123565,-8503.660028,-370.102971
4651.709448,518.144159,-8733.488677,-518.144159
4651.709772,222.061783,-8350.440928,-370.102971
4651.710097,74.020594,-9346.365076,-222.061783
4651.710421,0.000000,-8580.269578,-296.082377
4651.710746,222.061783,-8120.612279,0.000000
4651.711070,148.041188,-9039.926876,74.020594
4651.711394,148.041188,-8503.660028,-148.041188
4651.711719,518.144159,-8503.660028,-148.041188
4651.712043,296.082377,-8656.879127,0.000000
4651.712368,518.144159,-8810.098227,0.000000
4651.712692,444.123565,-8733.488677,-666.185348
4651.713016,1036.288319,-8656.879127,-148.041188
4651.713341,592.164754,-8427.050478,74.020594
4651.713665,740.205942,-8886.707777,-296.082377
4651.713990,370.102971,-8503.660028,-148.041188
4651.714314,518.144159,-8273.831378,0.000000
4651.714638,518.144159,-8810.098227,0.000000
4651.714963,444.123565,-8656.879127,74.020594
4651.715287,222.061783,-8197.221829,0.000000
4651.715612,222.061783,-8963.317327,0.000000
4651.715936,814.226536,-8197.221829,74.020594
4651.716260,370.102971,-8733.488677,-296.082377
4651.716585,444.123565,-8733.488677,0.000000
4651.716909,296.082377,-8733.488677,0.000000
4651.717234,370.102971,-9039.926876,0.000000
4651.717558,148.041188,-8120.612279,0.000000
4651.717882,444.123565,-8810.098227,0.000000
4651.718207,296.082377,-8733.488677,-370.102971
4651.718531,296.082377,-8580.269578,-222.061783
4651.718856,222.061783,-8733.488677,-370.102971
4651.719180,222.061783,-8656.879127,-296.082377
4651.719504,518.144159,-8656.879127,-370.102971
4651.719829,296.082377,-8580.269578,-222.061783
4651.720153,222.061783,-8044.002729,148.041188
4651.720478,592.164754,-8733.488677,-370.102971
4651.720802,740.205942,-8810.098227,-518.144159
4651.721126,592.164754,-8350.440928,-888.247130
4651.721451,1258.350101,-8810.098227,-1036.288319
4651.721775,666.185348,-8656.879127,-444.123565
4651.722100,518.144159,-8503.660028,-740.205942
4651.722424,0.000000,-8733.488677,-370.102971
4651.722748,222.061783,-8656.879127,-814.226536
4651.723073,0.000000,-8656.879127,-666.185348
4651.723397,222.061783,-8503.660028,-740.205942
4651.723722,74.020594,-8273.831378,-740.205942
4651.724046,370.102971,-8886.707777,-592.164754
4651.724370,740.205942,-8350.440928,-888.247130
4651.724695,518.144159,-8427.050478,-962.267725
4651.725019,518.144159,-8733.488677,-1184.329507
4651.725344,222.061783,-8427.050478,-1184.329507
4651.725668,444.123565,-7890.783629,-962.267725
4651.725992,74.020594,-8503.660028,-814.226536
4651.726317,370.102971,-8503.660028,-1258.350101
4651.726641,666.185348,-8580.269578,-814.226536
4651.726966,296.082377,-8197.221829,-592.164754
4651.727290,222.061783,-8656.879127,-888.247130
4651.727614,148.041188,-8580.269578,-888.247130
4651.727939,370.102971,-8963.317327,-888.247130
4651.728263,444.123565,-8427.050478,-1110.308913
4651.728587,444.123565,-8580.269578,-962.267725
4651.728912,740.205942,-8197.221829,-962.267725
4651.729236,518.144159,-8580.269578,-814.226536
4651.729561,222.061783,-9039.926876,-814.226536
4651.729885,296.082377,-8733.488677,-888.247130
4651.730209,296.082377,-9039.926876,-666.185348
4651.730534,296.082377,-8886.707777,-740.205942
4651.730858,296.082377,-8350.440928,-592.164754
4651.731183,592.164754,-8656.879127,-592.164754
4651.731507,74.020594,-8350.440928,-370.102971
4651.731831,518.144159,-8963.317327,-518.144159
4651.732156,518.144159,-8197.221829,-592.164754
4651.732480,296.082377,-8733.488677,-518.144159
4651.732805,592.164754,-8963.317327,-740.205942
4651.733129,296.082377,-8580.269578,-518.144159
4651.733453,296.082377,-8963.317327,-444.123565
4651.733778,370.102971,-8580.269578,-296.082377
4651.734102,296.082377,-8350.440928,-296.082377
4651.734427,740.205942,-8810.098227,-518.144159
4651.734751,444.123565,-8656.879127,-666.185348
4651.735075,370.102971,-8963.317327,-592.164754
4651.735400,370.102971,-8580.269578,-814.226536
4651.735724,740.205942,-8810.098227,-296.082377
4651.736049,444.123565,-8197.221829,-370.102971
4651.736373,370.102971,-8656.879127,-592.164754
4651.736697,444.123565,-8733.488677,-592.164754
4651.737022,592.164754,-9039.926876,-518.144159
4651.737346,814.226536,-9039.926876,-518.144159
4651.737671,888.247130,-8580.269578,-444.123565
4651.737995,740.205942,-8503.660028,-518.144159
4651.738319,444.123565,-8427.050478,-592.164754
4651.738644,518.144159,-8810.098227,-444.123565
4651.738968,740.205942,-8886.707777,-444.123565
4651.739293,592.164754,-8810.098227,-666.185348
4651.739617,518.144159,-9346.365076,-518.144159
4651.739941,222.061783,-8733.488677,0.000000
4651.740266,592.164754,-8273.831378,-370.102971
4651.740590,444.123565,-8656.879127,-444.123565
4651.740915,666.185348,-8733.488677,0.000000
4651.741239,666.185348,-9422.974625,74.020594
4651.741563,592.164754,-9039.926876,-296.082377
4651.741888,592.164754,-8733.488677,-444.123565
4651.742212,666.185348,-8963.317327,-222.061783
4651.742537,1036.288319,-8273.831378,-296.082377
4651.742861,888.247130,-8656.879127,-222.061783
4651.743185,592.164754,-8810.098227,-296.082377
4651.743510,370.102971,-8580.269578,-370.102971
4651.743834,444.123565,-8656.879127,-444.123565
4651.744159,74.020594,-9039.926876,148.041188
4651.744483,370.102971,-8580.269578,-444.123565
4651.744807,296.082377,-8350.440928,-370.102971
4651.745132,518.144159,-8427.050478,-592.164754
4651.745456,592.164754,-9039.926876,-296.082377
4651.745781,592.164754,-8503.660028,-740.205942
4651.746105,370.102971,-8810.098227,-222.061783
4651.746429,0.000000,-8733.488677,-592.164754
4651.746754,222.061783,-8733.488677,-370.102971
4651.747078,222.061783,-8197.221829,-370.102971
4651.747403,222.061783,-8350.440928,-518.144159
4651.747727,222.061783,-8427.050478,-222.061783
4651.748051,148.041188,-8503.660028,-222.061783
4651.748376,740.205942,-8580.269578,-148.041188
4651.748700,444.123565,-8656.879127,-740.205942
4651.749025,592.164754,-8273.831378,-592.164754
4651.749349,666.185348,-8580.269578,-444.123565
4651.749673,370.102971,-8044.002729,-296.082377
4651.749998,444.123565,-8580.269578,-518.144159
4651.750322,222.061783,-8733.488677,-296.082377
4651.750646,74.020594,-9039.926876,-666.185348
4651.750971,222.061783,-9039.926876,-740.205942
4651.751295,666.185348,-8503.660028,-740.205942
4651.751620,370.102971,-8656.879127,-370.102971
4651.751944,148.041188,-8350.440928,-444.123565
4651.752268,148.041188,-8503.660028,-444.123565
4651.752593,666.185348,-9193.145976,-222.061783
4651.752917,592.164754,-8580.269578,-740.205942
4651.753242,222.061783,-8580.269578,-370.102971
4651.753566,370.102971,-8580.269578,-518.144159
4651.753890,444.123565,-8656.879127,-370.102971
4651.754215,370.102971,-8580.269578,-740.205942
4651.754539,370.102971,-8197.221829,-666.185348
4651.754864,370.102971,-8656.879127,-222.061783
4651.755188,444.123565,-8580.269578,-740.205942
4651.755512,222.061783,-8350.440928,-222.061783
4651.755837,518.144159,-8120.612279,-592.164754
4651.756161,296.082377,-8733.488677,-592.164754
4651.756486,592.164754,-8273.831378,-592.164754
4651.756810,370.102971,-8044.002729,-518.144159
4651.757134,444.123565,-8427.050478,-518.144159
4651.757459,444.123565,-8656.879127,-814.226536
4651.757783,444.123565,-8580.269578,-888.247130
4651.758108,518.144159,-8810.098227,-370.102971
4651.758432,518.144159,-8350.440928,-962.267725
4651.758756,518.144159,-8656.879127,-222.061783
4651.759081,222.061783,-8044.002729,-592.164754
4651.759405,444.123565,-8656.879127,-666.185348
4651.759730,814.226536,-8044.002729,-666.185348
4651.760054,222.061783,-7967.393179,-370.102971
4651.760378,444.123565,-8886.707777,-592.164754
4651.760703,666.185348,-8580.269578,-740.205942
4651.761027,666.185348,-8503.660028,-222.061783
4651.761352,1036.288319,-8580.269578,-444.123565
4651.761676,296.082377,-8656.879127,0.000000
4651.762000,518.144159,-9039.926876,-370.102971
4651.762325,666.185348,-8427.050478,-518.144159
4651.762649,370.102971,-9193.145976,-222.061783
4651.762974,296.082377,-8963.317327,-592.164754
4651.763298,444.123565,-8580.269578,0.000000
4651.763622,814.226536,-8350.440928,-148.041188
4651.763947,888.247130,-8810.098227,0.000000
4651.764271,370.102971,-8886.707777,0.000000
4651.764596,592.164754,-8886.707777,-370.102971
4651.764920,148.041188,-8810.098227,-148.041188
4651.765244,518.144159,-8656.879127,-222.061783
4651.765569,148.041188,-8350.440928,-222.061783
4651.765893,222.061783,-8810.098227,74.020594
4651.766218,222.061783,-8427.050478,-296.082377
4651.766542,296.082377,-9116.536426,-296.082377
4651.766866,222.061783,-8197.221829,-222.061783
4651.767191,296.082377,-8656.879127,-222.061783
4651.767515,222.061783,-8810.098227,-370.102971
4651.767840,370.102971,-8656.879127,-296.082377
4651.768164,592.164754,-9039.926876,0.000000
4651.768488,148.041188,-8580.269578,0.000000
4651.768813,370.102971,-8656.879127,0.000000
4651.769137,296.082377,-8810.098227,-74.020594
4651.769462,370.102971,-8580.269578,-296.082377
4651.769786,296.082377,-8503.660028,-222.061783
4651.770110,518.144159,-8427.050478,-222.061783
4651.770435,518.144159,-8273.831378,0.000000
4651.770759,518.144159,-8427.050478,-148.041188
4651.771084,444.123565,-8197.221829,-370.102971
4651.771408,444.123565,-8580.269578,-296.082377
4651.771732,296.082377,-8580.269578,-518.144159
4651.772057,370.102971,-8580.269578,-296.082377
4651.772381,444.123565,-8273.831378,-296.082377
4651.772705,444.123565,-8273.831378,-666.185348
4651.773030,222.061783,-8350.440928,-444.123565
4651.773354,518.144159,-8273.831378,-370.102971
4651.773679,814.226536,-8580.269578,-370.102971
4651.774003,592.164754,-8350.440928,-518.144159
4651.774327,592.164754,-8656.879127,-592.164754
4651.774652,740.205942,-8503.660028,-370.102971
4651.774976,666.185348,-8580.269578,-444.123565
4651.775300,814.226536,-9193.145976,-296.082377
4651.775625,814.226536,-8580.269578,0.000000
4651.775949,666.185348,-8656.879127,0.000000
4651.776273,740.205942,-8580.269578,-444.123565
4651.776598,370.102971,-9269.755526,-444.123565
4651.776922,592.164754,-8656.879127,-222.061783
4651.777246,444.123565,-8120.612279,-148.041188
4651.777571,518.144159,-8273.831378,0.000000
4651.777895,740.205942,-8273.831378,-370.102971
4651.778219,666.185348,-8503.660028,-296.082377
4651.778544,814.226536,-8963.317327,-740.205942
4651.778868,518.144159,-8810.098227,-592.164754
4651.779192,444.123565,-8886.707777,-222.061783
4651.779517,0.000000,-8503.660028,-148.041188
4651.779841,148.041188,-8580.269578,-296.082377
4651.780165,444.123565,-8427.050478,-296.082377
4651.780490,740.205942,-8580.269578,-222.061783
4651.780814,444.123565,-8810.098227,-296.082377
4651.781138,740.205942,-8503.660028,-740.205942
4651.781463,222.061783,-8656.879127,-370.102971
4651.781787,592.164754,-7890.783629,-666.185348
4651.782111,518.144159,-8580.269578,-666.185348
4651.782436,222.061783,-8580.269578,0.000000
4651.782760,222.061783,-8656.879127,-296.082377
4651.783084,296.082377,-8886.707777,-148.041188
4651.783408,222.061783,-8427.050478,-666.185348
4651.783733,518.144159,-8733.488677,-370.102971
4651.784057,740.205942,-8350.440928,-370.102971
4651.784381,518.144159,-8503.660028,-444.123565
4651.784706,592.164754,-8503.660028,0.000000
4651.785030,518.144159,-8503.660028,0.000000
4651.785354,888.247130,-9039.926876,-370.102971
4651.785679,296.082377,-8810.098227,-518.144159
4651.786003,296.082377,-8810.098227,0.000000
4651.786327,148.041188,-8810.098227,0.000000
4651.786652,222.061783,-9039.926876,0.000000
4651.786976,370.102971,-8197.221829,-148.041188
4651.787300,222.061783,-8656.879127,0.000000
4651.787625,444.123565,-8580.269578,0.000000
4651.787949,-222.061783,-9116.536426,0.000000
4651.788273,222.061783,-8963.317327,-296.082377
4651.788598,518.144159,-8580.269578,-296.082377
4651.788922,148.041188,-8580.269578,-222.061783
4651.789246,370.102971,-8427.050478,0.000000
4651.789571,666.185348,-8656.879127,296.082377
4651.789895,444.123565,-9116.536426,0.000000
4651.790219,518.144159,-8656.879127,0.000000
4651.790544,518.144159,-8810.098227,0.000000
4651.790868,1036.288319,-9193.145976,0.000000
4651.791192,888.247130,-8197.221829,0.000000
4651.791517,518.144159,-8273.831378,0.000000
4651.791841,518.144159,-8656.879127,296.082377
4651.792165,444.123565,-9193.145976,444.123565
4651.792489,444.123565,-8810.098227,0.000000
4651.792814,666.185348,-8810.098227,0.000000
4651.793138,444.123565,-8733.488677,0.000000
4651.793462,296.082377,-8733.488677,-370.102971
4651.793787,74.020594,-8120.612279,74.020594
4651.794111,370.102971,-8733.488677,222.061783
4651.794435,444.123565,-8580.269578,-296.082377
4651.794760,444.123565,-8656.879127,0.000000
4651.795084,222.061783,-8886.707777,0.000000
4651.795408,518.144159,-8810.098227,-296.082377
4651.795733,518.144159,-8427.050478,-222.061783
4651.796057,592.164754,-8656.879127,-222.061783
4651.796381,370.102971,-8733.488677,444.123565
4651.796706,74.020594,-8733.488677,-148.041188
4651.797030,0.000000,-9039.926876,-148.041188
4651.797354,518.144159,-8580.269578,-296.082377
4651.797679,518.144159,-8503.660028,-222.061783
4651.798003,962.267725,-8503.660028,-296.082377
4651.798327,740.205942,-8427.050478,-296.082377
4651.798652,740.205942,-8580.269578,-370.102971
4651.798976,592.164754,-8963.317327,0.000000
4651.799300,1036.288319,-8810.098227,-444.123565
4651.799625,444.123565,-9422.974625,-296.082377
4651.799949,74.020594,-8580.269578,0.000000
4651.800273,0.000000,-9039.926876,74.020594
4651.800598,370.102971,-8580.269578,0.000000
4651.800922,148.041188,-8427.050478,0.000000
4651.801246,296.082377,-8580.269578,148.041188
4651.801570,222.061783,-8427.050478,0.000000
4651.801895,444.123565,-8886.707777,0.000000
4651.802219,222.061783,-8503.660028,0.000000
4651.802543,296.082377,-8886.707777,-148.041188
4651.802868,222.061783,-8427.050478,0.000000
4651.803192,0.000000,-8733.488677,148.041188
4651.803516,0.000000,-7890.783629,518.144159
4651.803841,74.020594,-8810.098227,0.000000
4651.804165,74.020594,-9039.926876,-148.041188
4651.804489,148.041188,-8350.440928,-296.082377
4651.804814,518.144159,-8503.660028,-296.082377
4651.805138,370.102971,-8120.612279,-222.061783
4651.805462,444.123565,-8580.269578,0.000000
4651.805787,296.082377,-8120.612279,0.000000
4651.806111,370.102971,-8273.831378,-222.061783
4651.806435,444.123565,-8427.050478,-592.164754
4651.806760,74.020594,-8580.269578,-444.123565
4651.807084,296.082377,-8580.269578,0.000000
4651.807408,296.082377,-8503.660028,-370.102971
4651.807733,814.226536,-8350.440928,0.000000
4651.808057,222.061783,-8273.831378,-296.082377
4651.808381,666.185348,-8350.440928,0.000000
4651.808706,370.102971,-8733.488677,0.000000
4651.809030,148.041188,-8580.269578,-444.123565
4651.809354,814.226536,-8427.050478,222.061783
4651.809679,444.123565,-8427.050478,-148.041188
4651.810003,222.061783,-8503.660028,0.000000
4651.810327,222.061783,-8273.831378,370.102971
4651.810651,592.164754,-8656.879127,296.082377
4651.810976,74.020594,-8963.317327,0.000000
4651.811300,296.082377,-8350.440928,-222.061783
4651.811624,592.164754,-8886.707777,-148.041188
4651.811949,740.205942,-7814.174080,-222.061783
4651.812273,222.061783,-8273.831378,-296.082377
4651.812597,222.061783,-8350.440928,-148.041188
4651.812922,370.102971,-8580.269578,0.000000
4651.813246,370.102971,-8810.098227,-740.205942
4651.813570,296.082377,-8580.269578,-518.144159
4651.813895,444.123565,-8427.050478,0.000000
4651.814219,296.082377,-8886.707777,-296.082377
4651.814543,222.061783,-8427.050478,-592.164754
4651.814868,222.061783,-8044.002729,0.000000
4651.815192,444.123565,-8656.879127,0.000000
4651.815516,0.000000,-8580.269578,-296.082377
4651.815841,74.020594,-9039.926876,-592.164754
4651.816165,296.082377,-8580.269578,-666.185348
4651.816489,444.123565,-8886.707777,-296.082377
4651.816814,444.123565,-8580.269578,-592.164754
4651.817138,444.123565,-8810.098227,148.041188
4651.817462,518.144159,-8503.660028,0.000000
4651.817787,1110.308913,-8963.317327,-222.061783
4651.818111,370.102971,-8427.050478,-518.144159
4651.818435,370.102971,-8656.879127,-370.102971
4651.818760,518.144159,-8580.269578,-518.144159
4651.819084,518.144159,-8733.488677,-814.226536
4651.819408,370.102971,-8656.879127,-444.123565
4651.819732,74.020594,-8503.660028,0.000000
4651.820057,370.102971,-8656.879127,-814.226536
4651.820381,148.041188,-8580.269578,-666.185348
4651.820705,148.041188,-8427.050478,-148.041188
4651.821030,740.205942,-8886.707777,-444.123565
4651.821354,444.123565,-8427.050478,-444.123565
4651.821678,296.082377,-8503.660028,-518.144159
4651.822003,444.123565,-8350.440928,-444.123565
4651.822327,148.041188,-8580.269578,-592.164754
4651.822651,148.041188,-8963.317327,-518.144159
4651.822976,370.102971,-8503.660028,-518.144159
4651.823300,444.123565,-9346.365076,-666.185348
4651.823624,296.082377,-8656.879127,-592.164754
4651.823949,518.144159,-8120.612279,-222.061783
4651.824273,370.102971,-8733.488677,148.041188
4651.824597,444.123565,-8427.050478,-222.061783
4651.824922,740.205942,-8963.317327,-148.041188
4651.825246,592.164754,-8427.050478,-370.102971
4651.825570,518.144159,-8656.879127,-148.041188
4651.825895,444.123565,-8273.831378,0.000000
4651.826219,740.205942,-8963.317327,222.061783
4651.826543,148.041188,-8580.269578,0.000000
4651.826868,740.205942,-8503.660028,-74.020594
4651.827192,666.185348,-8427.050478,-518.144159
4651.827516,666.185348,-9116.536426,0.000000
4651.827841,296.082377,-8503.660028,-222.061783
4651.828165,666.185348,-8503.660028,-222.061783
4651.828489,370.102971,-7814.174080,-296.082377
4651.828813,592.164754,-8580.269578,-370.102971
4651.829138,296.082377,-8810.098227,148.041188
4651.829462,222.061783,-8580.269578,-518.144159
4651.829786,296.082377,-8963.317327,-740.205942
4651.830111,296.082377,-8350.440928,-592.164754
4651.830435,148.041188,-8427.050478,-222.061783
4651.830759,444.123565,-8427.050478,-814.226536
4651.831084,296.082377,-8350.440928,-370.102971
4651.831408,518.144159,-8580.269578,-444.123565
4651.831732,370.102971,-8427.050478,-740.205942
4651.832057,814.226536,-8886.707777,-666.185348
4651.832381,518.144159,-8733.488677,-1036.288319
4651.832705,518.144159,-8656.879127,-370.102971
4651.833030,444.123565,-8427.050478,-592.164754
4651.833354,444.123565,-8733.488677,0.000000
4651.833678,740.205942,-8810.098227,-592.164754
4651.834003,444.123565,-9039.926876,-296.082377
4651.834327,666.185348,-9193.145976,-888.247130
4651.834651,370.102971,-8503.660028,-222.061783
4651.834976,444.123565,-8733.488677,-740.205942
4651.835300,444.123565,-8580.269578,-370.102971
4651.835624,814.226536,-8427.050478,-814.226536
4651.835949,666.185348,-8810.098227,0.000000
4651.836273,444.123565,-7890.783629,-148.041188
4651.836597,370.102971,-8886.707777,-592.164754
4651.836922,0.000000,-8656.879127,-814.226536
4651.837246,592.164754,-8733.488677,-444.123565
4651.837570,222.061783,-7890.783629,-592.164754
4651.837894,74.020594,-8503.660028,-518.144159
4651.838219,222.061783,-8350.440928,-444.123565
4651.838543,296.082377,-8886.707777,-370.102971
4651.838867,296.082377,-8886.707777,-444.123565
4651.839192,222.061783,-8886.707777,-444.123565
4651.839516,592.164754,-8656.879127,-518.144159
4651.839840,444.123565,-8273.831378,-370.102971
4651.840165,296.082377,-8427.050478,-592.164754
4651.840489,666.185348,-8197.221829,0.000000
4651.840813,1036.288319,-8580.269578,-592.164754
4651.841138,518.144159,-8886.707777,-740.205942
4651.841462,370.102971,-8350.440928,-370.102971
4651.841786,740.205942,-8656.879127,0.000000
4651.842111,296.082377,-8580.269578,-592.164754
4651.842435,518.144159,-8273.831378,-518.144159
4651.842759,592.164754,-8350.440928,-148.041188
4651.843084,814.226536,-8733.488677,148.041188
4651.843408,518.144159,-8503.660028,-444.123565
4651.843732,592.164754,-8733.488677,-296.082377
4651.844057,518.144159,-8273.831378,-148.041188
4651.844381,296.082377,-8733.488677,-370.102971
4651.844705,518.144159,-8503.660028,-370.102971
4651.845030,296.082377,-8427.050478,74.020594
4651.845354,592.164754,-8733.488677,-444.123565
4651.845678,370.102971,-8733.488677,-740.205942
4651.846003,888.247130,-8733.488677,-444.123565
4651.846327,666.185348,-8886.707777,-444.123565
4651.846651,666.185348,-8503.660028,-148.041188
4651.846975,370.102971,-8580.269578,-296.082377
4651.847300,1110.308913,-8810.098227,-592.164754
4651.847624,592.164754,-8580.269578,-296.082377
4651.847948,518.144159,-8810.098227,-666.185348
4651.848273,444.123565,-8733.488677,-518.144159
4651.848597,148.041188,-8427.050478,-296.082377
4651.848921,518.144159,-8963.317327,-740.205942
4651.849246,222.061783,-8503.660028,-888.247130
4651.849570,148.041188,-8580.269578,-592.164754
4651.849894,518.144159,-8350.440928,-370.102971
4651.850219,518.144159,-9039.926876,-148.041188
4651.850543,296.082377,-8886.707777,-592.164754
4651.850867,148.041188,-8503.660028,-740.205942
4651.851192,296.082377,-8810.098227,-444.123565
4651.851516,222.061783,-8656.879127,-740.205942
4651.851840,444.123565,-8580.269578,-148.041188
4651.852165,222.061783,-8427.050478,-296.082377
4651.852489,222.061783,-8656.879127,-666.185348
4651.852813,296.082377,-8580.269578,-740.205942
4651.853138,370.102971,-8810.098227,-888.247130
4651.853462,444.123565,-8350.440928,-666.185348
4651.853786,222.061783,-8580.269578,-814.226536
4651.854111,592.164754,-8656.879127,-370.102971
4651.854435,592.164754,-9039.926876,-518.144159
4651.854759,444.123565,-8733.488677,-740.205942
4651.855084,592.164754,-8733.488677,-666.185348
4651.855408,296.082377,-8580.269578,-740.205942
4651.855732,148.041188,-8886.707777,-518.144159
4651.856056,74.020594,-8273.831378,-888.247130
4651.856381,296.082377,-8656.879127,-444.123565
4651.856705,296.082377,-8427.050478,-666.185348
4651.857029,148.041188,-8427.050478,-296.082377
4651.857354,74.020594,-9269.755526,0.000000
4651.857678,222.061783,-8656.879127,-814.226536
4651.858002,666.185348,-8503.660028,-296.082377
4651.858327,666.185348,-8503.660028,-222.061783
4651.858651,518.144159,-8350.440928,-222.061783
4651.858975,370.102971,-8273.831378,-370.102971
4651.859300,296.082377,-8273.831378,-296.082377
4651.859624,444.123565,-8656.879127,-74.020594
4651.859948,592.164754,-8503.660028,-888.247130
4651.860273,518.144159,-8656.879127,-148.041188
4651.860597,518.144159,-7890.783629,148.041188
4651.860921,518.144159,-8427.050478,-740.205942
4651.861246,518.144159,-8427.050478,-296.082377
4651.861570,888.247130,-8273.831378,0.000000
4651.861894,888.247130,-8580.269578,-370.102971
4651.862219,888.247130,-8427.050478,-666.185348
4651.862543,444.123565,-8580.269578,-370.102971
4651.862867,592.164754,-8733.488677,-592.164754
4651.863192,370.102971,-8580.269578,-814.226536
4651.863516,74.020594,-8427.050478,-518.144159
4651.863840,444.123565,-8197.221829,74.020594
4651.864165,222.061783,-8733.488677,-370.102971
4651.864489,0.000000,-8963.317327,-740.205942
4651.864813,296.082377,-8350.440928,-666.185348
4651.865137,222.061783,-8503.660028,-370.102971
4651.865462,296.082377,-8197.221829,-666.185348
4651.865786,296.082377,-9039.926876,74.020594
4651.866110,592.164754,-8656.879127,0.000000
4651.866435,370.102971,-8733.488677,-666.185348
4651.866759,296.082377,-8733.488677,-888.247130
4651.867083,592.164754,-8273.831378,-444.123565
4651.867408,444.123565,-8656.879127,-222.061783
4651.867732,444.123565,-8656.879127,-740.205942
4651.868056,444.123565,-8656.879127,-592.164754
4651.868381,444.123565,-8503.660028,-296.082377
4651.868705,518.144159,-8733.488677,-666.185348
4651.869029,666.185348,-8886.707777,-666.185348
4651.869354,370.102971,-8503.660028,-666.185348
4651.869678,518.144159,-8656.879127,-370.102971
4651.870002,740.205942,-8580.269578,-370.102971
4651.870327,592.164754,-8733.488677,-666.185348
4651.870651,370.102971,-8886.707777,0.000000
4651.870975,222.061783,-8656.879127,-296.082377
4651.871300,0.000000,-9116.536426,-444.123565
4651.871624,74.020594,-8503.660028,-666.185348
4651.871948,296.082377,-8656.879127,-296.082377
4651.872273,444.123565,-8810.098227,-296.082377
4651.872597,74.020594,-8427.050478,-296.082377
4651.872921,740.205942,-8656.879127,0.000000
4651.873246,518.144159,-8427.050478,0.000000
4651.873570,370.102971,-9039.926876,-518.144159
4651.873894,666.185348,-8733.488677,-740.205942
4651.874218,1110.308913,-8963.317327,0.000000
4651.874543,740.205942,-8503.660028,-296.082377
4651.874867,592.164754,-8503.660028,-666.185348
4651.875192,592.164754,-8273.831378,-222.061783
4651.875516,814.226536,-8273.831378,-296.082377
4651.875840,296.082377,-8810.098227,-592.164754
4651.876165,592.164754,-8656.879127,-222.061783
4651.876489,666.185348,-8427.050478,0.000000
4651.876814,592.164754,-8810.098227,0.000000
4651.877138,444.123565,-7660.954980,-222.061783
4651.877462,666.185348,-8656.879127,-148.041188
4651.877787,296.082377,-7967.393179,222.061783
4651.878111,148.041188,-8733.488677,-592.164754
4651.878436,370.102971,-8810.098227,-592.164754
4651.878760,518.144159,-8120.612279,-222.061783
4651.879085,592.164754,-9039.926876,-592.164754
4651.879409,148.041188,-8273.831378,-666.185348
4651.879733,370.102971,-8810.098227,0.000000
4651.880058,592.164754,-8886.707777,-370.102971
4651.880382,444.123565,-8580.269578,-740.205942
4651.880707,518.144159,-9116.536426,-444.123565
4651.881031,740.205942,-8656.879127,-518.144159
4651.881356,1258.350101,-8963.317327,0.000000
4651.881680,222.061783,-8580.269578,-370.102971
4651.882004,666.185348,-8580.269578,-518.144159
4651.882329,740.205942,-8580.269578,-518.144159
4651.882653,814.226536,-8733.488677,-592.164754
4651.882978,592.164754,-8810.098227,-518.144159
4651.883302,888.247130,-8503.660028,-444.123565
4651.883627,592.164754,-8810.098227,-592.164754
4651.883951,666.185348,-8656.879127,-740.205942
4651.884275,814.226536,-8427.050478,-222.061783
4651.884600,666.185348,-9116.536426,-222.061783
4651.884924,222.061783,-8427.050478,-370.102971
4651.885249,296.082377,-9193.145976,-296.082377
4651.885573,222.061783,-8580.269578,-296.082377
4651.885897,518.144159,-8810.098227,-666.185348
4651.886222,518.144159,-8656.879127,-296.082377
4651.886546,148.041188,-8656.879127,-296.082377
4651.886871,148.041188,-9193.145976,0.000000
4651.887195,370.102971,-8350.440928,-296.082377
4651.887520,148.041188,-8963.317327,-222.061783
4651.887844,296.082377,-8503.660028,-518.144159
4651.888168,222.061783,-8580.269578,-444.123565
4651.888493,296.082377,-8197.221829,0.000000
4651.888817,222.061783,-8273.831378,-814.226536
4651.889142,592.164754,-8427.050478,-444.123565
4651.889466,444.123565,-8044.002729,-814.226536
4651.889791,444.123565,-9269.755526,-296.082377
4651.890115,592.164754,-8427.050478,-518.144159
4651.890439,518.144159,-8350.440928,-296.082377
4651.890764,592.164754,-8656.879127,-370.102971
4651.891088,444.123565,-8273.831378,-666.185348
4651.891413,592.164754,-8350.440928,0.000000
4651.891737,148.041188,-7967.393179,0.000000
4651.892061,444.123565,-8810.098227,0.000000
4651.892386,444.123565,-8580.269578,-296.082377
4651.892710,592.164754,-8350.440928,148.041188
4651.893035,814.226536,-8810.098227,0.000000
4651.893359,444.123565,-8273.831378,0.000000
4651.893684,370.102971,-8580.269578,148.041188
4651.894008,518.144159,-8044.002729,888.247130
4651.894332,296.082377,-8350.440928,0.000000
4651.894657,592.164754,-8810.098227,0.000000
4651.894981,740.205942,-8350.440928,148.041188
4651.895306,296.082377,-8656.879127,370.102971
4651.895630,444.123565,-8120.612279,0.000000
4651.895955,370.102971,-8120.612279,0.000000
4651.896279,740.205942,-8427.050478,592.164754
4651.896603,370.102971,-8503.660028,0.000000
4651.896928,444.123565,-9193.145976,148.041188
4651.897252,148.041188,-8350.440928,-222.061783
4651.897577,148.041188,-8656.879127,222.061783
4651.897901,148.041188,-8580.269578,-222.061783
4651.898226,0.000000,-9193.145976,0.000000
4651.898550,370.102971,-8656.879127,370.102971
4651.898874,-296.082377,-8197.221829,-370.102971
4651.899199,-222.061783,-8963.317327,-222.061783
4651.899523,296.082377,-8273.831378,-296.082377
4651.899848,0.000000,-8580.269578,-296.082377
4651.900172,444.123565,-8580.269578,-222.061783
4651.900496,222.061783,-8273.831378,-296.082377
4651.900821,444.123565,-8810.098227,0.000000
4651.901145,444.123565,-8197.221829,-740.205942
4651.901470,518.144159,-9116.536426,-444.123565
4651.901794,370.102971,-8580.269578,-518.144159
4651.902119,666.185348,-8120.612279,-444.123565
4651.902443,370.102971,-9882.631924,-222.061783
4651.902767,592.164754,-8273.831378,-740.205942
4651.903092,592.164754,-8350.440928,-222.061783
4651.903416,518.144159,-8656.879127,-518.144159
4651.903741,666.185348,-8733.488677,-666.185348
4651.904065,592.164754,-9269.755526,-962.267725
4651.904390,370.102971,-8503.660028,-370.102971
4651.904714,148.041188,-8656.879127,-666.185348
4651.905038,74.020594,-8656.879127,-814.226536
4651.905363,-370.102971,-9193.145976,74.020594
4651.905687,296.082377,-8503.660028,-148.041188
4651.906012,0.000000,-8810.098227,-518.144159
4651.906336,222.061783,-8656.879127,-740.205942
4651.906660,740.205942,-8273.831378,-518.144159
4651.906985,222.061783,-8503.660028,-814.226536
4651.907309,592.164754,-8580.269578,-370.102971
4651.907634,222.061783,-8350.440928,-444.123565
4651.907958,370.102971,-9193.145976,74.020594
4651.908283,148.041188,-8120.612279,-592.164754
4651.908607,296.082377,-9116.536426,-148.041188
4651.908931,518.144159,-8273.831378,0.000000
4651.909256,518.144159,-8503.660028,-222.061783
4651.909580,370.102971,-8427.050478,0.000000
4651.909905,814.226536,-8273.831378,-222.061783
4651.910229,1036.288319,-8273.831378,0.000000
4651.910554,814.226536,-8656.879127,-296.082377
4651.910878,518.144159,-8427.050478,-222.061783
4651.911202,592.164754,-8810.098227,222.061783
4651.911527,0.000000,-8273.831378,-296.082377
4651.911851,0.000000,-8886.707777,0.000000
4651.912176,148.041188,-8044.002729,-296.082377
4651.912500,666.185348,-8197.221829,666.185348
4651.912825,0.000000,-8427.050478,-296.082377
4651.913149,296.082377,-8810.098227,-370.102971
4651.913473,370.102971,-8733.488677,-222.061783
4651.913798,518.144159,-8886.707777,148.041188
4651.914122,370.102971,-8503.660028,-592.164754
4651.914447,296.082377,-8350.440928,148.041188
4651.914771,222.061783,-8503.660028,-296.082377
4651.915095,222.061783,-8427.050478,-296.082377
4651.915420,444.123565,-8273.831378,-592.164754
4651.915744,444.123565,-8733.488677,-518.144159
4651.916069,592.164754,-8580.269578,-148.041188
4651.916393,518.144159,-8503.660028,-444.123565
4651.916718,666.185348,-7890.783629,-148.041188
4651.917042,518.144159,-8197.221829,0.000000
4651.917366,740.205942,-9039.926876,0.000000
4651.917691,444.123565,-8810.098227,-148.041188
4651.918015,222.061783,-8963.317327,0.000000
4651.918340,222.061783,-8810.098227,-222.061783
4651.918664,222.061783,-8656.879127,0.000000
4651.918989,222.061783,-8733.488677,-444.123565
4651.919313,592.164754,-8886.707777,74.020594
4651.919637,592.164754,-8886.707777,148.041188
4651.919962,444.123565,-9116.536426,0.000000
4651.920286,518.144159,-8810.098227,0.000000
4651.920611,222.061783,-8886.707777,0.000000
4651.920935,518.144159,-8273.831378,222.061783
4651.921259,148.041188,-8733.488677,222.061783
4651.921584,222.061783,-8503.660028,-148.041188
4651.921908,222.061783,-8656.879127,0.000000
4651.922233,74.020594,-8963.317327,74.020594
4651.922557,222.061783,-8656.879127,-592.164754
4651.922882,518.144159,-8810.098227,-370.102971
4651.923206,370.102971,-8810.098227,-148.041188
4651.923530,296.082377,-8656.879127,-370.102971
4651.923855,222.061783,-8120.612279,0.000000
4651.924179,444.123565,-8656.879127,-296.082377
4651.924504,370.102971,-8580.269578,-148.041188
4651.924828,222.061783,-8656.879127,-740.205942
4651.925153,592.164754,-8427.050478,-148.041188
4651.925477,518.144159,-8427.050478,-592.164754
4651.925801,222.061783,-8503.660028,-222.061783
4651.926126,592.164754,-8580.269578,-370.102971
4651.926450,518.144159,-8044.002729,0.000000
4651.926775,666.185348,-8963.317327,-74.020594
4651.927099,666.185348,-8733.488677,-814.226536
4651.927424,814.226536,-8580.269578,-296.082377
4651.927748,370.102971,-8503.660028,-148.041188
4651.928072,962.267725,-8810.098227,-888.247130
4651.928397,888.247130,-8427.050478,-592.164754
4651.928721,666.185348,-8656.879127,0.000000
4651.929046,444.123565,-8120.612279,0.000000
4651.929370,518.144159,-8427.050478,-296.082377
4651.929694,814.226536,-8273.831378,-666.185348
4651.930019,888.247130,-8350.440928,0.000000
4651.930343,74.020594,-8810.098227,-666.185348
4651.930668,296.082377,-8350.440928,-444.123565
4651.930992,296.082377,-8197.221829,-370.102971
4651.931317,222.061783,-8886.707777,-296.082377
4651.931641,222.061783,-8580.269578,-518.144159
4651.931965,296.082377,-8427.050478,-296.082377
4651.932290,370.102971,-8197.221829,-296.082377
4651.932614,222.061783,-8120.612279,-370.102971
4651.932939,296.082377,-8503.660028,-370.102971
4651.933263,592.164754,-8044.002729,222.061783
4651.933588,296.082377,-8350.440928,0.000000
4651.933912,222.061783,-8810.098227,-666.185348
4651.934236,222.061783,-8656.879127,-666.185348
4651.934561,444.123565,-8503.660028,0.000000
4651.934885,222.061783,-8733.488677,-518.144159
4651.935210,444.123565,-8810.098227,0.000000
4651.935534,444.123565,-8197.221829,-296.082377
4651.935858,740.205942,-8503.660028,0.000000
4651.936183,518.144159,-8503.660028,-1110.308913
4651.936507,1332.370696,-9652.803275,0.000000
4651.936832,592.164754,-8273.831378,-222.061783
4651.937156,296.082377,-8656.879127,-592.164754
4651.937481,296.082377,-8733.488677,-1036.288319
4651.937805,0.000000,-8963.317327,-592.164754
4651.938129,222.061783,-9039.926876,-518.144159
4651.938454,0.000000,-8733.488677,-592.164754
4651.938778,74.020594,-8810.098227,-592.164754
4651.939103,518.144159,-8733.488677,-444.123565
4651.939427,296.082377,-8197.221829,-518.144159
4651.939752,740.205942,-8810.098227,-666.185348
4651.940076,740.205942,-8273.831378,-444.123565
4651.940400,666.185348,-8503.660028,0.000000
4651.940725,518.144159,-8733.488677,-1110.308913
4651.941049,444.123565,-8503.660028,-888.247130
4651.941374,518.144159,-8886.707777,-592.164754
4651.941698,370.102971,-8503.660028,-592.164754
4651.942022,296.082377,-9422.974625,-444.123565
4651.942347,518.144159,-8656.879127,0.000000
4651.942671,296.082377,-8810.098227,-222.061783
4651.942996,444.123565,-8733.488677,-444.123565
4651.943320,592.164754,-8656.879127,-740.205942
4651.943645,814.226536,-8503.660028,0.000000
4651.943969,814.226536,-8273.831378,-370.102971
4651.944293,370.102971,-9116.536426,-666.185348
4651.944618,666.185348,-8503.660028,-296.082377
4651.944942,370.102971,-8886.707777,-370.102971
4651.945267,370.102971,-9116.536426,-222.061783
4651.945591,370.102971,-8733.488677,-518.144159
4651.945916,444.123565,-8886.707777,-148.041188
4651.946240,518.144159,-8197.221829,-296.082377
4651.946564,74.020594,-8273.831378,-592.164754
4651.946889,518.144159,-8733.488677,-370.102971
4651.947213,518.144159,-7967.393179,0.000000
4651.947538,222.061783,-8503.660028,-370.102971
4651.947862,74.020594,-8044.002729,-592.164754
4651.948187,592.164754,-8427.050478,-296.082377
4651.948511,518.144159,-8580.269578,-592.164754
4651.948835,222.061783,-8120.612279,-444.123565
4651.949160,296.082377,-7967.393179,-148.041188
4651.949484,370.102971,-8120.612279,-444.123565
4651.949809,296.082377,-8427.050478,-592.164754
4651.950133,148.041188,-8427.050478,-666.185348
4651.950457,740.205942,-8580.269578,-222.061783
4651.950782,592.164754,-8350.440928,-222.061783
4651.951106,370.102971,-8503.660028,-666.185348
4651.951431,222.061783,-8427.050478,0.000000
4651.951755,888.247130,-8427.050478,0.000000
4651.952080,740.205942,-8886.707777,-296.082377
4651.952404,592.164754,-8810.098227,0.000000
4651.952728,148.041188,-8656.879127,-296.082377
4651.953053,0.000000,-8886.707777,0.000000
4651.953377,370.102971,-8810.098227,-148.041188
4651.953702,0.000000,-8733.488677,-148.041188
4651.954026,740.205942,-8503.660028,0.000000
4651.954351,296.082377,-8427.050478,-296.082377
4651.954675,296.082377,-9193.145976,-592.164754
4651.954999,518.144159,-8427.050478,-888.247130
4651.955324,444.123565,-9039.926876,-296.082377
4651.955648,222.061783,-8503.660028,-888.247130
4651.955973,148.041188,-8656.879127,-296.082377
4651.956297,888.247130,-8810.098227,-296.082377
4651.956621,74.020594,-8427.050478,-814.226536
4651.956946,148.041188,-9116.536426,-666.185348
4651.957270,444.123565,-8580.269578,-1036.288319
4651.957595,444.123565,-8580.269578,0.000000
4651.957919,518.144159,-8580.269578,-1036.288319
4651.958244,592.164754,-8273.831378,-814.226536
4651.958568,888.247130,-8503.660028,-370.102971
4651.958892,518.144159,-8656.879127,-740.205942
4651.959217,592.164754,-8427.050478,-370.102971
4651.959541,592.164754,-8580.269578,-370.102971
4651.959866,444.123565,-8733.488677,-666.185348
4651.960190,370.102971,-8580.269578,-444.123565
4651.960515,592.164754,-7660.954980,-592.164754
4651.960839,592.164754,-8427.050478,-370.102971
4651.961163,592.164754,-8197.221829,-518.144159
4651.961488,518.144159,-9116.536426,-444.123565
4651.961812,740.205942,-8580.269578,-666.185348
4651.962137,814.226536,-8503.660028,-518.144159
4651.962461,814.226536,-8580.269578,-444.123565
4651.962786,518.144159,-8350.440928,0.000000
4651.963110,592.164754,-8427.050478,-666.185348
4651.963434,666.185348,-8427.050478,-296.082377
4651.963759,592.164754,-8273.831378,-740.205942
4651.964083,370.102971,-9193.145976,-592.164754
4651.964408,518.144159,-7967.393179,-888.247130
4651.964732,1110.308913,-8810.098227,-592.164754
4651.965056,296.082377,-8427.050478,-518.144159
4651.965381,370.102971,-8427.050478,-592.164754
4651.965705,740.205942,-8427.050478,-592.164754
4651.966030,296.082377,-8427.050478,-222.061783
4651.966354,296.082377,-8810.098227,0.000000
4651.966679,0.000000,-8427.050478,-740.205942
4651.967003,222.061783,-8733.488677,0.000000
4651.967327,74.020594,-8503.660028,0.000000
4651.967652,148.041188,-8350.440928,-518.144159
4651.967976,148.041188,-8656.879127,148.041188
4651.968301,148.041188,-8427.050478,148.041188
4651.968625,296.082377,-9116.536426,0.000000
4651.968950,0.000000,-7967.393179,-518.144159
4651.969274,444.123565,-8963.317327,0.000000
4651.969598,370.102971,-8427.050478,-148.041188
4651.969923,296.082377,-8810.098227,-222.061783
4651.970247,518.144159,-8273.831378,-296.082377
4651.970572,518.144159,-8503.660028,0.000000
4651.970896,296.082377,-8733.488677,-592.164754
4651.971220,444.123565,-8656.879127,-592.164754
4651.971545,222.061783,-8197.221829,-370.102971
4651.971869,296.082377,-9116.536426,-740.205942
4651.972194,222.061783,-8273.831378,-1036.288319
4651.972518,444.123565,-8503.660028,-518.144159
4651.972843,518.144159,-8197.221829,-592.164754
4651.973167,370.102971,-9269.755526,-518.144159
4651.973491,296.082377,-8810.098227,-814.226536
4651.973816,444.123565,-8580.269578,-444.123565
4651.974140,518.144159,-8580.269578,-518.144159
4651.974465,296.082377,-8503.660028,-1036.288319
4651.974789,370.102971,-8580.269578,-444.123565
4651.975114,518.144159,-8273.831378,148.041188
4651.975438,444.123565,-8963.317327,-592.164754
4651.975762,370.102971,-8886.707777,-740.205942
4651.976087,592.164754,-8120.612279,-444.123565
4651.976412,444.123565,-8733.488677,-222.061783
4651.976736,740.205942,-8580.269578,-518.144159
4651.977061,666.185348,-8656.879127,0.000000
4651.977385,518.144159,-8656.879127,-222.061783
4651.977710,814.226536,-8886.707777,-518.144159
4651.978034,814.226536,-9193.145976,-444.123565
4651.978359,814.226536,-8427.050478,-370.102971
4651.978683,814.226536,-8656.879127,-592.164754
4651.979008,222.061783,-8810.098227,-740.205942
4651.979332,444.123565,-8580.269578,-666.185348
4651.979657,370.102971,-8733.488677,-148.041188
4651.979981,222.061783,-8810.098227,-444.123565
4651.980306,222.061783,-8733.488677,-962.267725
4651.980630,518.144159,-8656.879127,-518.144159
4651.980955,592.164754,-8580.269578,-296.082377
4651.981279,444.123565,-8656.879127,-592.164754
4651.981604,740.205942,-8427.050478,-518.144159
4651.981928,518.144159,-7890.783629,-444.123565
4651.982253,370.102971,-8733.488677,-370.102971
4651.982577,148.041188,-8810.098227,-888.247130
4651.982902,296.082377,-8580.269578,-444.123565
4651.983226,222.061783,-8350.440928,-666.185348
4651.983551,222.061783,-9039.926876,-666.185348
4651.983875,370.102971,-8273.831378,-740.205942
4651.984200,444.123565,-8350.440928,-296.082377
4651.984524,666.185348,-8963.317327,-814.226536
4651.984849,814.226536,-8733.488677,-592.164754
4651.985174,666.185348,-8810.098227,-222.061783
4651.985498,518.144159,-8273.831378,0.000000
4651.985823,370.102971,-8656.879127,-518.144159
4651.986147,222.061783,-8044.002729,-148.041188
4651.986472,518.144159,-8503.660028,0.000000
4651.986796,518.144159,-8810.098227,-370.102971
4651.987121,222.061783,-8656.879127,-222.061783
4651.987445,518.144159,-8733.488677,-296.082377
4651.987770,444.123565,-8733.488677,148.041188
4651.988094,444.123565,-8810.098227,-296.082377
4651.988419,592.164754,-8427.050478,-444.123565
4651.988743,814.226536,-8503.660028,148.041188
4651.989068,222.061783,-8656.879127,0.000000
4651.989392,296.082377,-8733.488677,-296.082377
4651.989717,222.061783,-8810.098227,0.000000
4651.990041,222.061783,-8580.269578,-370.102971
4651.990366,222.061783,-8580.269578,-148.041188
4651.990690,74.020594,-8503.660028,-222.061783
4651.991015,518.144159,-8580.269578,-148.041188
4651.991339,370.102971,-8427.050478,-296.082377
4651.991664,370.102971,-8963.317327,0.000000
4651.991988,814.226536,-8886.707777,-296.082377
4651.992313,592.164754,-8197.221829,-296.082377
4651.992637,518.144159,-8350.440928,-148.041188
4651.992962,296.082377,-8963.317327,0.000000
4651.993286,296.082377,-8350.440928,-148.041188
4651.993611,370.102971,-8656.879127,0.000000
4651.993935,148.041188,-8656.879127,0.000000
4651.994260,0.000000,-8886.707777,0.000000
4651.994585,148.041188,-8427.050478,0.000000
4651.994909,444.123565,-8350.440928,0.000000
4651.995234,222.061783,-8427.050478,-222.061783
4651.995558,666.185348,-8503.660028,-370.102971
4651.995883,370.102971,-8350.440928,222.061783
4651.996207,222.061783,-8656.879127,0.000000
4651.996532,370.102971,-9039.926876,-296.082377
4651.996856,518.144159,-8580.269578,-444.123565
4651.997181,222.061783,-8656.879127,-296.082377
4651.997505,370.102971,-8810.098227,-296.082377
4651.997830,296.082377,-8427.050478,-518.144159
4651.998154,518.144159,-8656.879127,-518.144159
4651.998479,444.123565,-8503.660028,-592.164754
4651.998803,370.102971,-8503.660028,-740.205942
4651.999128,888.247130,-8427.050478,-1110.308913
4651.999452,962.267725,-8273.831378,-444.123565
4651.999777,518.144159,-8886.707777,-814.226536
4652.000101,518.144159,-7890.783629,-444.123565
4652.000426,296.082377,-8503.660028,-592.164754
4652.000750,518.144159,-8886.707777,-444.123565
4652.001075,296.082377,-8656.879127,-740.205942
4652.001399,370.102971,-8963.317327,-740.205942
4652.001724,296.082377,-8810.098227,-518.144159
4652.002048,222.061783,-8886.707777,-518.144159
4652.002373,666.185348,-8427.050478,-592.164754
4652.002697,518.144159,-8273.831378,0.000000
4652.003022,518.144159,-8656.879127,0.000000
4652.003346,296.082377,-9116.536426,-148.041188
4652.003671,518.144159,-8580.269578,-444.123565
4652.003996,370.102971,-8503.660028,-222.061783
4652.004320,1110.308913,-8580.269578,74.020594
4652.004645,592.164754,-8273.831378,-148.041188
4652.004969,592.164754,-8503.660028,-148.041188
4652.005294,370.102971,-8273.831378,-370.102971
4652.005618,370.102971,-8580.269578,-518.144159
4652.005943,592.164754,-8656.879127,-518.144159
4652.006267,592.164754,-7814.174080,-296.082377
4652.006592,592.164754,-8580.269578,0.000000
4652.006916,444.123565,-8120.612279,-296.082377
4652.007241,592.164754,-8120.612279,-296.082377
4652.007565,296.082377,-8350.440928,-222.061783
4652.007890,74.020594,-8427.050478,-148.041188
4652.008214,296.082377,-8810.098227,-370.102971
4652.008539,74.020594,-7660.954980,-518.144159
4652.008863,592.164754,-8656.879127,-222.061783
4652.009188,518.144159,-8427.050478,-740.205942
4652.009512,518.144159,-8273.831378,-222.061783
4652.009837,592.164754,-8197.221829,222.061783
4652.010161,148.041188,-8810.098227,74.020594
4652.010486,370.102971,-8580.269578,-296.082377
4652.010810,518.144159,-8503.660028,-296.082377
4652.011135,518.144159,-8733.488677,296.082377
4652.011459,592.164754,-8120.612279,444.123565
4652.011784,518.144159,-8580.269578,0.000000
4652.012108,444.123565,-8350.440928,296.082377
4652.012433,370.102971,-8733.488677,222.061783
4652.012757,518.144159,-8810.098227,-370.102971
4652.013082,444.123565,-8350.440928,0.000000
4652.013407,148.041188,-8656.879127,0.000000
4652.013731,444.123565,-8810.098227,-148.041188
4652.014056,0.000000,-8197.221829,-518.144159
4652.014380,592.164754,-9039.926876,0.000000
4652.014705,370.102971,-8810.098227,0.000000
4652.015029,0.000000,-9116.536426,-74.020594
4652.015354,296.082377,-8733.488677,-222.061783
4652.015678,592.164754,-9193.145976,-222.061783
4652.016003,666.185348,-9116.536426,-148.041188
4652.016327,740.205942,-8273.831378,-740.205942
4652.016652,814.226536,-8503.660028,-148.041188
4652.016976,444.123565,-8427.050478,0.000000
4652.017301,296.082377,-8963.317327,-296.082377
4652.017625,666.185348,-8580.269578,-740.205942
4652.017950,296.082377,-8273.831378,-296.082377
4652.018274,666.185348,-8810.098227,-148.041188
4652.018599,222.061783,-8733.488677,-592.164754
4652.018923,444.123565,-8580.269578,-222.061783
4652.019248,444.123565,-8427.050478,74.020594
4652.019572,518.144159,-8963.317327,-518.144159
4652.019897,740.205942,-8656.879127,-370.102971
4652.020221,518.144159,-8427.050478,0.000000
4652.020546,148.041188,-8656.879127,-222.061783
4652.020870,444.123565,-8580.269578,-518.144159
4652.021195,666.185348,-8044.002729,-222.061783
4652.021519,666.185348,-8963.317327,0.000000
4652.021844,148.041188,-8656.879127,0.000000
4652.022169,222.061783,-8810.098227,-148.041188
4652.022493,222.061783,-8350.440928,0.000000
4652.022818,740.205942,-8886.707777,74.020594
4652.023142,296.082377,-8427.050478,-444.123565
4652.023467,518.144159,-8120.612279,0.000000
4652.023791,518.144159,-8580.269578,0.000000
4652.024116,444.123565,-9193.145976,74.020594
4652.024440,518.144159,-8580.269578,-518.144159
4652.024765,370.102971,-8580.269578,-222.061783
4652.025089,444.123565,-8120.612279,-74.020594
4652.025414,518.144159,-8503.660028,-444.123565
4652.025738,370.102971,-8503.660028,0.000000
4652.026063,0.000000,-8273.831378,74.020594
4652.026387,74.020594,-8810.098227,-444.123565
4652.026712,148.041188,-8963.317327,-444.123565
4652.027036,370.102971,-8963.317327,370.102971
4652.027361,296.082377,-8273.831378,0.000000
4652.027685,370.102971,-8656.879127,-222.061783
4652.028010,444.123565,-8273.831378,-296.082377
4652.028334,518.144159,-8656.879127,0.000000
4652.028659,296.082377,-8580.269578,0.000000
4652.028983,148.041188,-8580.269578,-222.061783
4652.029308,222.061783,-8580.269578,0.000000
4652.029632,148.041188,-8350.440928,0.000000
4652.029957,518.144159,-8580.269578,-518.144159
4652.030281,296.082377,-8656.879127,-148.041188
4652.030606,444.123565,-8273.831378,74.020594
4652.030930,296.082377,-8580.269578,74.020594
4652.031255,518.144159,-8733.488677,-370.102971
4652.031580,740.205942,-8503.660028,-518.144159
4652.031904,518.144159,-8656.879127,-444.123565
4652.032229,592.164754,-8503.660028,-370.102971
4652.032553,74.020594,-8350.440928,-962.267725
4652.032878,518.144159,-8580.269578,-370.102971
4652.033202,296.082377,-8427.050478,-444.123565
4652.033527,370.102971,-8810.098227,-740.205942
4652.033851,518.144159,-8656.879127,-814.226536
4652.034176,1036.288319,-8580.269578,-222.061783
4652.034500,370.102971,-8886.707777,-518.144159
4652.034825,370.102971,-8810.098227,-518.144159
4652.035149,666.185348,-8197.221829,-518.144159
4652.035474,666.185348,-8886.707777,0.000000
4652.035798,222.061783,-8810.098227,-666.185348
4652.036123,444.123565,-8810.098227,-814.226536
4652.036447,592.164754,-8580.269578,-592.164754
4652.036772,296.082377,-8810.098227,-740.205942
4652.037096,518.144159,-8963.317327,-74.020594
4652.037421,592.164754,-8273.831378,0.000000
4652.037745,370.102971,-8580.269578,0.000000
4652.038070,222.061783,-8810.098227,-518.144159
4652.038394,370.102971,-9116.536426,0.000000
4652.038719,518.144159,-8886.707777,-444.123565
4652.039043,592.164754,-8810.098227,-148.041188
4652.039368,666.185348,-8656.879127,-296.082377
4652.039692,592.164754,-8580.269578,74.020594
4652.040017,444.123565,-8273.831378,0.000000
4652.040341,666.185348,-8656.879127,-518.144159
4652.040666,518.144159,-8427.050478,-370.102971
4652.040991,814.226536,-8427.050478,-222.061783
4652.041315,1036.288319,-8503.660028,-814.226536
4652.041640,444.123565,-8273.831378,-518.144159
4652.041964,444.123565,-8120.612279,-518.144159
4652.042289,148.041188,-8580.269578,-296.082377
4652.042613,444.123565,-9116.536426,-148.041188
4652.042938,222.061783,-8580.269578,-518.144159
4652.043262,370.102971,-8733.488677,-296.082377
4652.043587,148.041188,-8503.660028,-592.164754
4652.043911,296.082377,-8120.612279,-444.123565
4652.044236,666.185348,-8120.612279,-592.164754
4652.044560,518.144159,-8656.879127,0.000000
4652.044885,518.144159,-8656.879127,-592.164754
4652.045209,222.061783,-9039.926876,-592.164754
4652.045534,222.061783,-8733.488677,-740.205942
4652.045858,370.102971,-8656.879127,-666.185348
4652.046183,222.061783,-8503.660028,222.061783
4652.046507,296.082377,-8503.660028,0.000000
4652.046832,518.144159,-8427.050478,0.000000
4652.047156,740.205942,-8427.050478,0.000000
4652.047481,370.102971,-8810.098227,-222.061783
4652.047805,518.144159,-8503.660028,0.000000
4652.048130,148.041188,-8427.050478,-370.102971
4652.048454,444.123565,-8733.488677,-148.041188
4652.048779,296.082377,-7814.174080,-222.061783
4652.049103,592.164754,-8580.269578,-370.102971
4652.049428,148.041188,-8350.440928,0.000000
4652.049752,74.020594,-8810.098227,0.000000
4652.050077,0.000000,-8580.269578,-370.102971
4652.050402,148.041188,-8503.660028,-518.144159
4652.050726,444.123565,-9039.926876,-222.061783
4652.051051,666.185348,-8963.317327,0.000000
4652.051375,296.082377,-8120.612279,-518.144159
4652.051700,296.082377,-8580.269578,0.000000
4652.052024,148.041188,-8120.612279,-518.144159
4652.052349,296.082377,-8963.317327,-814.226536
4652.052673,148.041188,-8656.879127,-666.185348
4652.052998,222.061783,-8273.831378,0.000000
4652.053322,592.164754,-8580.269578,-296.082377
4652.053647,296.082377,-8427.050478,-666.185348
4652.053971,740.205942,-8273.831378,0.000000
4652.054296,592.164754,-8273.831378,-370.102971
4652.054620,518.144159,-8886.707777,-740.205942
4652.054945,888.247130,-8656.879127,-370.102971
4652.055269,370.102971,-8044.002729,-222.061783
4652.055594,814.226536,-8810.098227,-222.061783
4652.055918,666.185348,-8273.831378,-740.205942
4652.056243,814.226536,-8503.660028,0.000000
4652.056567,370.102971,-8810.098227,-148.041188
4652.056892,444.123565,-8733.488677,-222.061783
4652.057216,444.123565,-8580.269578,-222.061783
4652.057541,666.185348,-8503.660028,-518.144159
4652.057865,444.123565,-8886.707777,-518.144159
4652.058190,666.185348,-7660.954980,-222.061783
4652.058514,518.144159,-8427.050478,0.000000
4652.058839,296.082377,-8656.879127,-148.041188
4652.059164,444.123565,-8656.879127,-740.205942
4652.059488,296.082377,-8580.269578,-444.123565
4652.059813,592.164754,-8656.879127,-148.041188
4652.060137,444.123565,-8350.440928,-592.164754
4652.060462,666.185348,-8427.050478,-592.164754
4652.060786,444.123565,-8197.221829,-148.041188
4652.061111,370.102971,-8810.098227,-518.144159
4652.061435,518.144159,-8810.098227,-370.102971
4652.061760,296.082377,-8350.440928,-518.144159
4652.062084,592.164754,-8810.098227,0.000000
4652.062409,740.205942,-8733.488677,-666.185348
4652.062733,444.123565,-8886.707777,-370.102971
4652.063058,666.185348,-8427.050478,-148.041188
4652.063382,518.144159,-8733.488677,0.000000
4652.063707,222.061783,-8810.098227,-518.144159
4652.064031,74.020594,-8810.098227,-222.061783
4652.064356,74.020594,-8733.488677,-296.082377
4652.064680,296.082377,-8580.269578,-592.164754
4652.065005,592.164754,-8197.221829,-370.102971
4652.065329,666.185348,-8427.050478,-518.144159
4652.065654,296.082377,-8810.098227,-296.082377
4652.065978,296.082377,-8656.879127,-592.164754
4652.066303,814.226536,-8886.707777,-592.164754
4652.066627,1036.288319,-9269.755526,-740.205942
4652.066952,296.082377,-8580.269578,-370.102971
4652.067276,296.082377,-8810.098227,-444.123565
4652.067601,444.123565,-8197.221829,-518.144159
4652.067925,296.082377,-8350.440928,-592.164754
4652.068250,222.061783,-9039.926876,-814.226536
4652.068575,518.144159,-8427.050478,-814.226536
4652.068899,370.102971,-8350.440928,-962.267725
4652.069224,444.123565,-8580.269578,-740.205942
4652.069548,592.164754,-7967.393179,-370.102971
4652.069873,370.102971,-8656.879127,-740.205942
4652.070197,518.144159,-8503.660028,-370.102971
4652.070522,222.061783,-8733.488677,-444.123565
4652.070846,0.000000,-8580.269578,-592.164754
4652.071171,148.041188,-8580.269578,-592.164754
4652.071495,370.102971,-8810.098227,-518.144159
4652.071820,148.041188,-8810.098227,-296.082377
4652.072144,666.185348,-8273.831378,-444.123565
4652.072469,444.123565,-8733.488677,-518.144159
4652.072793,222.061783,-8810.098227,0.000000
4652.073118,592.164754,-8656.879127,-518.144159
4652.073442,518.144159,-8886.707777,-370.102971
4652.073767,740.205942,-9193.145976,-444.123565
4652.074091,592.164754,-8503.660028,-296.082377
4652.074416,666.185348,-8580.269578,-148.041188
4652.074740,666.185348,-8197.221829,-222.061783
4652.075065,592.164754,-9346.365076,-148.041188
4652.075389,296.082377,-8656.879127,-740.205942
4652.075713,444.123565,-8503.660028,-370.102971
4652.076038,222.061783,-8427.050478,-518.144159
4652.076362,370.102971,-8350.440928,-666.185348
4652.076687,740.205942,-8427.050478,-666.185348
4652.077011,740.205942,-8580.269578,-666.185348
4652.077336,592.164754,-8580.269578,-592.164754
4652.077660,518.144159,-9193.145976,-444.123565
4652.077985,888.247130,-9116.536426,-666.185348
4652.078309,592.164754,-8503.660028,-740.205942
4652.078634,518.144159,-8656.879127,-518.144159
4652.078958,666.185348,-8197.221829,-444.123565
4652.079283,518.144159,-9346.365076,-296.082377
4652.079607,518.144159,-8273.831378,-518.144159
4652.079931,222.061783,-9039.926876,-666.185348
4652.080256,518.144159,-8656.879127,-666.185348
4652.080580,592.164754,-8503.660028,-370.102971
4652.080905,296.082377,-8810.098227,0.000000
4652.081229,370.102971,-8733.488677,-222.061783
4652.081554,518.144159,-8656.879127,-444.123565
4652.081878,222.061783,-8580.269578,74.020594
4652.082203,0.000000,-9422.974625,296.082377
4652.082527,444.123565,-8886.707777,-148.041188
4652.082852,370.102971,-8580.269578,-370.102971
4652.083176,148.041188,-8886.707777,0.000000
4652.083501,148.041188,-8503.660028,-444.123565
4652.083825,148.041188,-8733.488677,-370.102971
4652.084150,370.102971,-8810.098227,0.000000
4652.084474,0.000000,-8810.098227,-148.041188
4652.084798,222.061783,-8886.707777,-592.164754
4652.085123,592.164754,-8580.269578,-518.144159
4652.085447,592.164754,-8656.879127,-222.061783
4652.085772,444.123565,-8733.488677,-444.123565
4652.086096,518.144159,-8044.002729,-296.082377
4652.086421,518.144159,-9039.926876,444.123565
4652.086745,148.041188,-8427.050478,-666.185348
4652.087070,592.164754,-8810.098227,-814.226536
4652.087394,296.082377,-8197.221829,-666.185348
4652.087719,444.123565,-8350.440928,-296.082377
4652.088043,518.144159,-8656.879127,-666.185348
4652.088368,296.082377,-8656.879127,-370.102971
4652.088692,370.102971,-7890.783629,-296.082377
4652.089017,222.061783,-9039.926876,-148.041188
4652.089341,370.102971,-8427.050478,-370.102971
4652.089665,296.082377,-8656.879127,0.000000
4652.089990,518.144159,-8503.660028,-222.061783
4652.090314,148.041188,-8656.879127,-370.102971
4652.090639,814.226536,-7737.564530,-222.061783
4652.090963,518.144159,-8197.221829,0.000000
4652.091288,222.061783,-8350.440928,-148.041188
4652.091612,592.164754,-8656.879127,-296.082377
4652.091937,296.082377,-8580.269578,-518.144159
4652.092261,666.185348,-8197.221829,-296.082377
4652.092586,444.123565,-8580.269578,-444.123565
4652.092910,666.185348,-8350.440928,-148.041188
4652.093235,370.102971,-8350.440928,0.000000
4652.093559,740.205942,-9039.926876,-148.041188
4652.093884,592.164754,-8656.879127,-592.164754
4652.094208,666.185348,-8350.440928,-814.226536
4652.094532,666.185348,-8733.488677,0.000000
4652.094857,592.164754,-8350.440928,-370.102971
4652.095181,592.164754,-8580.269578,-888.247130
4652.095506,666.185348,-8273.831378,-296.082377
4652.095830,370.102971,-8427.050478,-370.102971
4652.096155,666.185348,-9039.926876,-222.061783
4652.096479,222.061783,-8273.831378,-814.226536
4652.096804,592.164754,-8810.098227,0.000000
4652.097128,148.041188,-8197.221829,0.000000
4652.097453,592.164754,-8963.317327,-666.185348
4652.097777,370.102971,-8427.050478,-518.144159
4652.098102,592.164754,-8886.707777,148.041188
4652.098426,222.061783,-9039.926876,-296.082377
4652.098750,222.061783,-8963.317327,-666.185348
4652.099075,444.123565,-8503.660028,0.000000
4652.099399,370.102971,-8886.707777,-222.061783
4652.099724,296.082377,-8733.488677,-740.205942
4652.100048,222.061783,-8580.269578,0.000000
4652.100373,370.102971,-8656.879127,0.000000
4652.100697,0.000000,-8963.317327,-296.082377
4652.101022,370.102971,-8886.707777,-740.205942
4652.101346,296.082377,-8656.879127,0.000000
4652.101671,518.144159,-8733.488677,-148.041188
4652.101995,592.164754,-8733.488677,-222.061783
4652.102320,370.102971,-8580.269578,-370.102971
4652.102644,740.205942,-8733.488677,222.061783
4652.102969,444.123565,-8733.488677,-444.123565
4652.103293,592.164754,-8503.660028,-370.102971
4652.103617,518.144159,-8273.831378,-370.102971
4652.103942,0.000000,-8427.050478,-148.041188
4652.104266,370.102971,-8580.269578,-518.144159
4652.104591,222.061783,-8273.831378,-518.144159
4652.104915,814.226536,-8810.098227,0.000000
4652.105240,296.082377,-8120.612279,-370.102971
4652.105564,296.082377,-8810.098227,-444.123565
4652.105889,370.102971,-8350.440928,-444.123565
4652.106213,444.123565,-8963.317327,-518.144159
4652.106538,444.123565,-8733.488677,0.000000
4652.106862,222.061783,-8350.440928,0.000000
4652.107187,444.123565,-8656.879127,74.020594
4652.107511,518.144159,-8656.879127,0.000000
4652.107836,222.061783,-8886.707777,-518.144159
4652.108160,518.144159,-8656.879127,-370.102971
4652.108484,592.164754,-8427.050478,0.000000
4652.108809,296.082377,-8963.317327,0.000000
4652.109133,962.267725,-8503.660028,-518.144159
4652.109458,518.144159,-8273.831378,-296.082377
4652.109782,518.144159,-8580.269578,74.020594
4652.110107,518.144159,-8503.660028,-518.144159
4652.110431,518.144159,-9116.536426,-518.144159
4652.110756,444.123565,-8427.050478,-666.185348
4652.111080,370.102971,-8273.831378,-518.144159
4652.111405,444.123565,-8427.050478,-444.123565
4652.111729,222.061783,-8350.440928,-518.144159
4652.112054,740.205942,-8886.707777,-370.102971
4652.112378,74.020594,-8580.269578,-666.185348
4652.112703,222.061783,-9039.926876,-296.082377
4652.113027,518.144159,-8044.002729,-296.082377
4652.113351,518.144159,-8886.707777,-740.205942
4652.113676,592.164754,-8580.269578,-296.082377
4652.114000,444.123565,-7814.174080,-518.144159
4652.114325,814.226536,-8963.317327,0.000000
4652.114649,518.144159,-8733.488677,0.000000
4652.114974,666.185348,-8886.707777,-740.205942
4652.115298,666.185348,-8656.879127,-592.164754
4652.115623,222.061783,-8733.488677,-222.061783
4652.115947,296.082377,-8810.098227,-518.144159
4652.116272,222.061783,-8120.612279,-518.144159
4652.116596,518.144159,-8580.269578,-296.082377
4652.116921,296.082377,-8963.317327,-518.144159
4652.117245,444.123565,-8580.269578,-370.102971
4652.117569,740.205942,-8427.050478,-444.123565
4652.117894,370.102971,-8580.269578,-444.123565
4652.118218,592.164754,-8503.660028,-370.102971
4652.118543,222.061783,-8656.879127,-814.226536
4652.118867,370.102971,-8963.317327,0.000000
4652.119192,222.061783,-8810.098227,-148.041188
4652.119516,148.041188,-9193.145976,-370.102971
4652.119841,296.082377,-8810.098227,-518.144159
4652.120165,740.205942,-8810.098227,-518.144159
4652.120490,296.082377,-8350.440928,-370.102971
4652.120814,370.102971,-8427.050478,0.000000
4652.121139,444.123565,-8656.879127,0.000000
4652.121463,296.082377,-8580.269578,0.000000
4652.121788,666.185348,-9193.145976,-592.164754
4652.122112,148.041188,-8350.440928,-444.123565
4652.122436,444.123565,-8427.050478,-222.061783
4652.122761,444.123565,-8427.050478,-148.041188
4652.123085,148.041188,-8427.050478,-222.061783
4652.123410,74.020594,-8273.831378,-222.061783
4652.123734,222.061783,-8580.269578,0.000000
4652.124059,444.123565,-8656.879127,-222.061783
4652.124383,222.061783,-8580.269578,-296.082377
4652.124708,740.205942,-8656.879127,0.000000
4652.125032,444.123565,-8733.488677,0.000000
4652.125357,518.144159,-8656.879127,-148.041188
4652.125681,518.144159,-8733.488677,-148.041188
4652.126006,222.061783,-8197.221829,148.041188
4652.126330,296.082377,-8810.098227,74.020594
4652.126655,296.082377,-8350.440928,-148.041188
4652.126979,518.144159,-8427.050478,-222.061783
4652.127303,444.123565,-8810.098227,0.000000
4652.127628,444.123565,-8120.612279,-296.082377
4652.127952,370.102971,-8350.440928,-148.041188
4652.128277,592.164754,-8733.488677,222.061783
4652.128601,592.164754,-8733.488677,-222.061783
4652.128926,1036.288319,-9346.365076,-666.185348
4652.129250,444.123565,-8656.879127,0.000000
4652.129575,666.185348,-8503.660028,0.000000
4652.129899,666.185348,-8427.050478,-444.123565
4652.130224,444.123565,-9269.755526,-296.082377
4652.130548,444.123565,-8503.660028,74.020594
4652.130873,444.123565,-8733.488677,-222.061783
4652.131197,370.102971,-8580.269578,-370.102971
4652.131522,518.144159,-8503.660028,0.000000
4652.131846,444.123565,-8580.269578,74.020594
4652.132170,518.144159,-8580.269578,-592.164754
4652.132495,222.061783,-8656.879127,0.000000
4652.132819,0.000000,-8580.269578,0.000000
4652.133144,370.102971,-8886.707777,0.000000
4652.133468,74.020594,-8656.879127,-222.061783
4652.133793,296.082377,-8427.050478,-666.185348
4652.134117,444.123565,-8580.269578,-444.123565
4652.134442,444.123565,-8963.317327,-444.123565
4652.134766,296.082377,-8350.440928,-370.102971
4652.135091,444.123565,-8427.050478,-370.102971
4652.135415,518.144159,-8503.660028,-518.144159
4652.135740,222.061783,-8963.317327,-888.247130
4652.136064,740.205942,-8733.488677,-222.061783
4652.136388,296.082377,-8656.879127,-222.061783
4652.136713,296.082377,-8733.488677,-518.144159
4652.137037,518.144159,-8427.050478,-666.185348
4652.137362,296.082377,-8810.098227,148.041188
4652.137686,592.164754,-8656.879127,-666.185348
4652.138011,740.205942,-8733.488677,-518.144159
4652.138335,444.123565,-8580.269578,-962.267725
4652.138660,444.123565,-8886.707777,-222.061783
4652.138984,444.123565,-8350.440928,-592.164754
4652.139309,296.082377,-8656.879127,-592.164754
4652.139633,518.144159,-8580.269578,0.000000
4652.139958,370.102971,-8656.879127,0.000000
4652.140282,962.267725,-8886.707777,-518.144159
4652.140607,370.102971,-8580.269578,-296.082377
4652.140931,370.102971,-8656.879127,-222.061783
4652.141255,296.082377,-8963.317327,-370.102971
4652.141580,592.164754,-8733.488677,0.000000
4652.141904,222.061783,-8733.488677,0.000000
4652.142229,518.144159,-8503.660028,-148.041188
4652.142553,370.102971,-8886.707777,-370.102971
4652.142878,518.144159,-8580.269578,-222.061783
4652.143202,666.185348,-8350.440928,74.020594
4652.143527,370.102971,-8733.488677,0.000000
4652.143851,222.061783,-8120.612279,-518.144159
4652.144176,518.144159,-8273.831378,0.000000
4652.144500,814.226536,-8810.098227,-222.061783
4652.144825,222.061783,-8656.879127,-518.144159
4652.145149,518.144159,-8427.050478,-592.164754
4652.145474,74.020594,-8273.831378,-444.123565
4652.145798,518.144159,-8120.612279,0.000000
4652.146122,74.020594,-8044.002729,-444.123565
4652.146447,518.144159,-8350.440928,0.000000
4652.146771,592.164754,-8197.221829,-222.061783
4652.147096,444.123565,-8656.879127,0.000000
4652.147420,74.020594,-8427.050478,-296.082377
4652.147745,444.123565,-8580.269578,-592.164754
4652.148069,518.144159,-8886.707777,-444.123565
4652.148394,296.082377,-8503.660028,-444.123565
4652.148718,148.041188,-8120.612279,-222.061783
4652.149043,370.102971,-8503.660028,0.000000
4652.149367,148.041188,-8503.660028,-296.082377
4652.149692,518.144159,-8963.317327,-740.205942
4652.150016,518.144159,-8120.612279,-370.102971
4652.150341,518.144159,-8580.269578,0.000000
4652.150665,592.164754,-8810.098227,-296.082377
4652.150989,296.082377,-8580.269578,-444.123565
4652.151314,740.205942,-8503.660028,-444.123565
4652.151638,814.226536,-8733.488677,0.000000
4652.151963,518.144159,-8886.707777,-666.185348
4652.152287,148.041188,-8503.660028,-592.164754
4652.152612,444.123565,-8733.488677,-370.102971
4652.152936,222.061783,-8427.050478,-518.144159
4652.153261,370.102971,-8886.707777,-666.185348
4652.153585,518.144159,-8427.050478,-296.082377
4652.153910,518.144159,-8733.488677,0.000000
4652.154234,148.041188,-9116.536426,-740.205942
4652.154559,518.144159,-8886.707777,-740.205942
4652.154883,518.144159,-8580.269578,-518.144159
4652.155207,666.185348,-8733.488677,-444.123565
4652.155532,296.082377,-8733.488677,-666.185348
4652.155856,814.226536,-9193.145976,-296.082377
4652.156181,518.144159,-9039.926876,-296.082377
4652.156505,370.102971,-9039.926876,-888.247130
4652.156830,444.123565,-8733.488677,-592.164754
4652.157154,518.144159,-9039.926876,0.000000
4652.157479,370.102971,-8503.660028,-592.164754
4652.157803,222.061783,-8810.098227,-592.164754
4652.158128,666.185348,-8427.050478,-518.144159
4652.158452,444.123565,-8427.050478,-296.082377
4652.158777,370.102971,-8580.269578,-666.185348
4652.159101,0.000000,-8656.879127,-1036.288319
4652.159426,296.082377,-8810.098227,-444.123565
4652.159750,592.164754,-8656.879127,-444.123565
4652.160074,666.185348,-8580.269578,-888.247130
4652.160399,518.144159,-8273.831378,-444.123565
4652.160723,296.082377,-8273.831378,0.000000
4652.161048,370.102971,-8810.098227,-666.185348
4652.161372,370.102971,-8810.098227,-814.226536
4652.161697,444.123565,-8427.050478,-296.082377
4652.162021,740.205942,-8810.098227,0.000000
4652.162346,444.123565,-7967.393179,-666.185348
4652.162670,148.041188,-8427.050478,-296.082377
4652.162995,222.061783,-8044.002729,148.041188
4652.163319,518.144159,-8963.317327,-222.061783
4652.163644,518.144159,-8656.879127,-814.226536
4652.163968,518.144159,-8350.440928,0.000000
4652.164293,888.247130,-8733.488677,0.000000
4652.164617,296.082377,-8427.050478,-592.164754
4652.164941,222.061783,-8273.831378,0.000000
4652.165266,592.164754,-8580.269578,0.000000
4652.165590,814.226536,-8427.050478,0.000000
4652.165915,148.041188,-8733.488677,-148.041188
4652.166239,148.041188,-8503.660028,0.000000
4652.166564,74.020594,-8733.488677,74.020594
4652.166888,370.102971,-8350.440928,0.000000
4652.167213,518.144159,-8810.098227,-222.061783
4652.167537,518.144159,-8503.660028,222.061783
4652.167862,222.061783,-8656.879127,0.000000
4652.168186,296.082377,-8810.098227,-370.102971
4652.168511,444.123565,-8580.269578,0.000000
4652.168835,74.020594,-8810.098227,-222.061783
4652.169160,370.102971,-8427.050478,-222.061783
4652.169484,148.041188,-8580.269578,-296.082377
4652.169808,296.082377,-8886.707777,0.000000
4652.170133,148.041188,-8273.831378,-296.082377
4652.170457,74.020594,-9269.755526,-296.082377
4652.170782,296.082377,-8580.269578,-962.267725
4652.171106,444.123565,-8656.879127,0.000000
4652.171431,148.041188,-8273.831378,-222.061783
4652.171755,370.102971,-8580.269578,-666.185348
4652.172080,444.123565,-8503.660028,-592.164754
4652.172404,740.205942,-8733.488677,-222.061783
4652.172729,592.164754,-8580.269578,-1036.288319
4652.173053,370.102971,-8886.707777,-888.247130
4652.173378,518.144159,-8656.879127,0.000000
4652.173702,370.102971,-8810.098227,-222.061783
4652.174026,296.082377,-8197.221829,-592.164754
4652.174351,740.205942,-8810.098227,0.000000
4652.174675,592.164754,-8580.269578,-444.123565
4652.175000,740.205942,-9039.926876,-296.082377
4652.175324,370.102971,-8886.707777,-518.144159
4652.175649,444.123565,-8580.269578,0.000000
4652.175973,518.144159,-8580.269578,-148.041188
4652.176298,296.082377,-8656.879127,-370.102971
4652.176622,592.164754,-8580.269578,-296.082377
4652.176947,518.144159,-8580.269578,-370.102971
4652.177271,444.123565,-8886.707777,-592.164754
4652.177596,222.061783,-8810.098227,-740.205942
4652.177920,444.123565,-8350.440928,-370.102971
4652.178245,444.123565,-8656.879127,-370.102971
4652.178569,444.123565,-8886.707777,-592.164754
4652.178894,592.164754,-8656.879127,-444.123565
4652.179218,444.123565,-8656.879127,-370.102971
4652.179542,444.123565,-9039.926876,-592.164754
4652.179867,444.123565,-9039.926876,-592.164754
4652.180191,444.123565,-8656.879127,-592.164754
4652.180516,444.123565,-8427.050478,-370.102971
4652.180840,518.144159,-8580.269578,-740.205942
4652.181165,814.226536,-9039.926876,-444.123565
4652.181489,444.123565,-8580.269578,-296.082377
4652.181814,296.082377,-8886.707777,-444.123565
4652.182138,370.102971,-8427.050478,-962.267725
4652.182463,518.144159,-8503.660028,-666.185348
4652.182787,592.164754,-8427.050478,-296.082377
4652.183112,518.144159,-7967.393179,-592.164754
4652.183436,370.102971,-8656.879127,-444.123565
4652.183761,370.102971,-8350.440928,-296.082377
4652.184085,518.144159,-8503.660028,-814.226536
4652.184410,518.144159,-8810.098227,-666.185348
4652.184734,296.082377,-8656.879127,-592.164754
4652.185058,444.123565,-8273.831378,-296.082377
4652.185383,74.020594,-8580.269578,-740.205942
4652.185707,370.102971,-8350.440928,-740.205942
4652.186032,518.144159,-8427.050478,-222.061783
4652.186356,740.205942,-8810.098227,-444.123565
4652.186681,370.102971,-8886.707777,-444.123565
4652.187005,296.082377,-8656.879127,-592.164754
4652.187330,592.164754,-8580.269578,-370.102971
4652.187654,518.144159,-8120.612279,-592.164754
4652.187979,444.123565,-8810.098227,-814.226536
4652.188303,444.123565,-7660.954980,0.000000
4652.188628,296.082377,-8580.269578,-296.082377
4652.188952,592.164754,-8963.317327,-962.267725
4652.189277,222.061783,-8350.440928,-666.185348
4652.189601,370.102971,-8886.707777,-518.144159
4652.189925,592.164754,-8427.050478,-370.102971
4652.190250,444.123565,-8427.050478,-518.144159
4652.190574,518.144159,-8503.660028,-518.144159
4652.190899,370.102971,-8580.269578,0.000000
4652.191223,592.164754,-8656.879127,-740.205942
4652.191548,518.144159,-8810.098227,-814.226536
4652.191872,444.123565,-8656.879127,-296.082377
4652.192197,518.144159,-8963.317327,-444.123565
4652.192521,1036.288319,-8273.831378,-666.185348
4652.192846,370.102971,-8273.831378,-370.102971
4652.193170,592.164754,-8733.488677,-296.082377
4652.193495,296.082377,-8733.488677,-296.082377
4652.193819,666.185348,-8733.488677,-666.185348
4652.194144,370.102971,-8886.707777,-444.123565
4652.194468,740.205942,-8580.269578,148.041188
4652.194793,814.226536,-8503.660028,-444.123565
4652.195117,444.123565,-8580.269578,-518.144159
4652.195441,592.164754,-8120.612279,-370.102971
4652.195766,296.082377,-8733.488677,-370.102971
4652.196090,148.041188,-8810.098227,-814.226536
4652.196415,518.144159,-8810.098227,-592.164754
4652.196739,518.144159,-8197.221829,0.000000
4652.197064,296.082377,-8197.221829,0.000000
4652.197388,148.041188,-8273.831378,-518.144159
4652.197713,666.185348,-8580.269578,-148.041188
4652.198037,592.164754,-8503.660028,-148.041188
4652.198362,1036.288319,-8810.098227,-592.164754
4652.198686,222.061783,-8503.660028,-444.123565
4652.199011,518.144159,-8656.879127,0.000000
4652.199335,74.020594,-8656.879127,-148.041188
4652.199660,148.041188,-8273.831378,-296.082377
4652.199984,370.102971,-8350.440928,-148.041188
4652.200308,518.144159,-8733.488677,148.041188
4652.200633,518.144159,-8503.660028,-444.123565
4652.200957,444.123565,-8197.221829,-222.061783
4652.201282,518.144159,-8427.050478,222.061783
4652.201606,740.205942,-8503.660028,-148.041188
4652.201931,592.164754,-8580.269578,-370.102971
4652.202255,370.102971,-8273.831378,370.102971
4652.202580,444.123565,-8580.269578,-148.041188
4652.202904,222.061783,-8733.488677,-592.164754
4652.203229,0.000000,-8350.440928,-592.164754
4652.203553,74.020594,-8427.050478,-296.082377
4652.203878,666.185348,-8810.098227,0.000000
4652.204202,222.061783,-8120.612279,-592.164754
4652.204527,518.144159,-8197.221829,-296.082377
4652.204851,518.144159,-8273.831378,0.000000
4652.205176,592.164754,-8656.879127,-962.267725
4652.205500,740.205942,-8580.269578,-666.185348
4652.205824,444.123565,-8580.269578,-148.041188
4652.206149,222.061783,-8427.050478,-370.102971
4652.206473,370.102971,-8580.269578,-518.144159
4652.206798,0.000000,-8120.612279,-296.082377
4652.207122,592.164754,-8886.707777,-296.082377
4652.207447,222.061783,-8350.440928,-444.123565
4652.207771,296.082377,-8656.879127,-592.164754
4652.208096,444.123565,-8350.440928,-666.185348
4652.208420,370.102971,-8580.269578,-370.102971
4652.208745,518.144159,-8656.879127,-592.164754
4652.209069,370.102971,-8427.050478,-74.020594
4652.209394,444.123565,-8656.879127,0.000000
4652.209718,74.020594,-8886.707777,0.000000
4652.210043,518.144159,-8580.269578,-814.226536
4652.210367,370.102971,-8810.098227,-444.123565
4652.210692,666.185348,-8656.879127,-370.102971
4652.211016,296.082377,-8580.269578,74.020594
4652.211340,148.041188,-9039.926876,-666.185348
4652.211665,592.164754,-8273.831378,-296.082377
4652.211989,740.205942,-8580.269578,-148.041188
4652.212314,222.061783,-9422.974625,-518.144159
4652.212638,296.082377,-8273.831378,-592.164754
4652.212963,740.205942,-8427.050478,-222.061783
4652.213287,370.102971,-8503.660028,-740.205942
4652.213612,592.164754,-8580.269578,-740.205942
4652.213936,518.144159,-8350.440928,0.000000
4652.214261,370.102971,-8580.269578,-296.082377
4652.214585,444.123565,-8656.879127,-740.205942
4652.214910,296.082377,-8656.879127,-444.123565
4652.215234,296.082377,-8427.050478,0.000000
4652.215559,296.082377,-8580.269578,-666.185348
4652.215883,444.123565,-8580.269578,-814.226536
4652.216207,518.144159,-8503.660028,74.020594
4652.216532,666.185348,-8810.098227,-296.082377
4652.216856,518.144159,-9039.926876,-370.102971
4652.217181,296.082377,-8810.098227,-296.082377
4652.217505,518.144159,-8810.098227,0.000000
4652.217830,222.061783,-8503.660028,-222.061783
4652.218154,444.123565,-9039.926876,0.000000
4652.218479,370.102971,-8427.050478,0.000000
4652.218803,518.144159,-8886.707777,74.020594
4652.219128,370.102971,-8580.269578,-370.102971
4652.219452,370.102971,-8273.831378,148.041188
4652.219777,370.102971,-8503.660028,0.000000
4652.220101,592.164754,-8656.879127,74.020594
4652.220426,370.102971,-8427.050478,-518.144159
4652.220750,518.144159,-9346.365076,222.061783
4652.221075,518.144159,-8656.879127,296.082377
4652.221399,370.102971,-8733.488677,0.000000
4652.221723,444.123565,-8963.317327,-370.102971
4652.222048,148.041188,-8733.488677,296.082377
4652.222372,296.082377,-8503.660028,0.000000
4652.222697,666.185348,-8656.879127,-370.102971
4652.223021,518.144159,-8503.660028,-222.061783
4652.223346,222.061783,-8656.879127,0.000000
4652.223670,148.041188,-8273.831378,0.000000
4652.223995,222.061783,-8810.098227,-370.102971
4652.224319,148.041188,-8427.050478,0.000000
4652.224644,518.144159,-8273.831378,-444.123565
4652.224968,0.000000,-8503.660028,-148.041188
4652.225293,296.082377,-8656.879127,-222.061783
4652.225617,518.144159,-8503.660028,-296.082377
4652.225942,518.144159,-8886.707777,-296.082377
4652.226266,296.082377,-8886.707777,-814.226536
4652.226591,592.164754,-9193.145976,0.000000
4652.226915,296.082377,-8350.440928,-370.102971
4652.227239,296.082377,-8580.269578,-444.123565
4652.227564,296.082377,-8197.221829,-740.205942
4652.227888,740.205942,-8580.269578,-296.082377
4652.228213,666.185348,-8733.488677,-370.102971
4652.228537,0.000000,-8656.879127,-888.247130
4652.228862,370.102971,-8503.660028,-740.205942
4652.229186,296.082377,-8273.831378,-518.144159
4652.229511,444.123565,-8733.488677,-296.082377
4652.229835,296.082377,-8580.269578,-888.247130
4652.230160,296.082377,-8197.221829,-222.061783
4652.230484,518.144159,-8810.098227,-222.061783
4652.230809,296.082377,-8886.707777,-592.164754
4652.231133,518.144159,-8963.317327,-666.185348
4652.231458,370.102971,-8656.879127,-222.061783
4652.231782,444.123565,-8580.269578,0.000000
4652.232106,740.205942,-8503.660028,-740.205942
4652.232431,370.102971,-8350.440928,-148.041188
4652.232755,444.123565,-8503.660028,-148.041188
4652.233080,0.000000,-8656.879127,-888.247130
4652.233404,222.061783,-8733.488677,-370.102971
4652.233729,370.102971,-8427.050478,-296.082377
4652.234053,592.164754,-8427.050478,-518.144159
4652.234378,222.061783,-8273.831378,-592.164754
4652.234702,370.102971,-8656.879127,-296.082377
4652.235027,444.123565,-8273.831378,-148.041188
4652.235351,518.144159,-8197.221829,-814.226536
4652.235676,666.185348,-9039.926876,-296.082377
4652.236000,592.164754,-8273.831378,0.000000
4652.236325,666.185348,-8350.440928,-222.061783
4652.236649,666.185348,-8350.440928,-592.164754
4652.236974,518.144159,-8427.050478,0.000000
4652.237298,592.164754,-8810.098227,-370.102971
4652.237622,296.082377,-8886.707777,-148.041188
4652.237947,444.123565,-8427.050478,-740.205942
4652.238271,740.205942,-8810.098227,-148.041188
4652.238596,370.102971,-8044.002729,0.000000
4652.238920,814.226536,-8733.488677,-370.102971
4652.239245,740.205942,-9269.755526,-370.102971
4652.239569,814.226536,-8503.660028,0.000000
4652.239894,592.164754,-8427.050478,-296.082377
4652.240218,148.041188,-8886.707777,-444.123565
4652.240543,296.082377,-8580.269578,-148.041188
4652.240867,222.061783,-8427.050478,0.000000
4652.241192,74.020594,-9039.926876,0.000000
4652.241516,148.041188,-8427.050478,-592.164754
4652.241841,444.123565,-8733.488677,74.020594
4652.242165,740.205942,-8503.660028,0.000000
4652.242489,518.144159,-8656.879127,-740.205942
4652.242814,222.061783,-8656.879127,-148.041188
4652.243138,444.123565,-8810.098227,148.041188
4652.243463,370.102971,-8656.879127,-296.082377
4652.243787,74.020594,-9039.926876,-296.082377
4652.244112,148.041188,-8427.050478,222.061783
4652.244436,592.164754,-8886.707777,0.000000
4652.244761,222.061783,-8656.879127,-888.247130
4652.245085,444.123565,-8886.707777,-296.082377
4652.245410,1036.288319,-8580.269578,0.000000
4652.245734,296.082377,-8427.050478,0.000000
4652.246059,370.102971,-8656.879127,-444.123565
4652.246383,592.164754,-8733.488677,74.020594
4652.246708,296.082377,-8963.317327,-222.061783
4652.247032,148.041188,-8963.317327,-666.185348
4652.247357,0.000000,-8810.098227,-370.102971
4652.247681,444.123565,-9039.926876,-296.082377
4652.248005,444.123565,-8733.488677,-148.041188
4652.248330,296.082377,-8733.488677,-888.247130
4652.248654,518.144159,-8656.879127,-148.041188
4652.248979,592.164754,-8427.050478,0.000000
4652.249303,296.082377,-8963.317327,-444.123565
4652.249628,148.041188,-8886.707777,-814.226536
4652.249952,370.102971,-8656.879127,0.000000
4652.250277,148.041188,-8427.050478,-370.102971
4652.250601,148.041188,-9039.926876,-148.041188
4652.250926,444.123565,-8427.050478,0.000000
4652.251250,444.123565,-8427.050478,0.000000
4652.251575,740.205942,-8350.440928,-296.082377
4652.251899,666.185348,-8427.050478,-518.144159
4652.252224,666.185348,-8350.440928,-296.082377
4652.252548,518.144159,-8197.221829,0.000000
4652.252873,222.061783,-8503.660028,-444.123565
4652.253197,740.205942,-8273.831378,-370.102971
4652.253521,740.205942,-8427.050478,0.000000
4652.253846,592.164754,-8810.098227,-592.164754
4652.254170,296.082377,-8580.269578,-740.205942
4652.254495,592.164754,-8733.488677,-296.082377
4652.254819,592.164754,-7890.783629,0.000000
4652.255144,370.102971,-8350.440928,-370.102971
4652.255468,222.061783,-8427.050478,-296.082377
4652.255793,518.144159,-8733.488677,0.000000
4652.256117,592.164754,-8197.221829,0.000000
4652.256442,296.082377,-8810.098227,-444.123565
4652.256766,592.164754,-8197.221829,-222.061783
4652.257091,444.123565,-8350.440928,0.000000
4652.257415,222.061783,-8580.269578,-296.082377
4652.257740,74.020594,-8350.440928,74.020594
4652.258064,370.102971,-8733.488677,0.000000
4652.258388,518.144159,-8580.269578,74.020594
4652.258713,0.000000,-8580.269578,-592.164754
4652.259037,814.226536,-8810.098227,-888.247130
4652.259362,666.185348,-8427.050478,-370.102971
4652.259686,296.082377,-8656.879127,-666.185348
4652.260011,370.102971,-8733.488677,-666.185348
4652.260335,370.102971,-8656.879127,-444.123565
4652.260660,296.082377,-8733.488677,-518.144159
4652.260984,74.020594,-8810.098227,-1184.329507
4652.261309,74.020594,-8810.098227,-592.164754
4652.261633,666.185348,-8503.660028,-592.164754
4652.261958,888.247130,-8427.050478,-962.267725
4652.262282,666.185348,-8503.660028,-888.247130
4652.262607,444.123565,-8503.660028,-666.185348
4652.262931,444.123565,-8427.050478,-592.164754
4652.263256,0.000000,-8273.831378,-814.226536
4652.263580,74.020594,-8963.317327,-888.247130
4652.263904,74.020594,-8810.098227,-370.102971
4652.264229,370.102971,-8733.488677,-444.123565
4652.264553,148.041188,-8810.098227,-518.144159
4652.264878,370.102971,-8733.488677,0.000000
4652.265202,444.123565,-8963.317327,-148.041188
4652.265527,296.082377,-8810.098227,-370.102971
4652.265851,296.082377,-8886.707777,-592.164754
4652.266176,1036.288319,-8656.879127,-592.164754
4652.266500,666.185348,-8120.612279,-222.061783
4652.266825,518.144159,-8656.879127,-444.123565
4652.267149,518.144159,-8273.831378,0.000000
4652.267474,740.205942,-8503.660028,-296.082377
4652.267798,444.123565,-8810.098227,-296.082377
4652.268123,592.164754,-8350.440928,-666.185348
4652.268447,814.226536,-8503.660028,-222.061783
4652.268771,444.123565,-8427.050478,-148.041188
4652.269096,740.205942,-8427.050478,-592.164754
4652.269420,444.123565,-8656.879127,-444.123565
4652.269745,666.185348,-8503.660028,-148.041188
4652.270069,296.082377,-8503.660028,-148.041188
4652.270394,592.164754,-8810.098227,-444.123565
4652.270718,296.082377,-8197.221829,-296.082377
4652.271043,666.185348,-8810.098227,0.000000
4652.271367,592.164754,-8273.831378,-370.102971
4652.271692,592.164754,-8427.050478,0.000000
4652.272016,518.144159,-8656.879127,0.000000
4652.272341,444.123565,-8810.098227,74.020594
4652.272665,518.144159,-8733.488677,-592.164754
4652.272990,444.123565,-8810.098227,-222.061783
4652.273314,814.226536,-8273.831378,0.000000
4652.273639,222.061783,-8580.269578,-148.041188
4652.273963,592.164754,-8733.488677,-444.123565
4652.274287,518.144159,-8580.269578,148.041188
4652.274612,370.102971,-8580.269578,-740.205942
4652.274936,518.144159,-9039.926876,-592.164754
4652.275261,370.102971,-8427.050478,-666.185348
4652.275585,444.123565,-8810.098227,0.000000
4652.275910,222.061783,-8273.831378,-370.102971
4652.276234,370.102971,-8733.488677,-592.164754
4652.276559,296.082377,-8350.440928,-74.020594
4652.276883,222.061783,-8733.488677,-148.041188
4652.277208,296.082377,-8886.707777,-740.205942
4652.277534,74.020594,-8886.707777,-666.185348
4652.277858,222.061783,-8656.879127,-222.061783
4652.278182,444.123565,-8580.269578,-296.082377
4652.278507,222.061783,-8656.879127,-740.205942
4652.278831,518.144159,-8273.831378,-370.102971
4652.279156,296.082377,-8503.660028,0.000000
4652.279480,592.164754,-8656.879127,-814.226536
4652.279804,296.082377,-8503.660028,-1036.288319
4652.280129,814.226536,-8580.269578,-296.082377
4652.280453,296.082377,-8273.831378,-370.102971
4652.280777,222.061783,-8733.488677,-1110.308913
4652.281102,296.082377,-8273.831378,-814.226536
4652.281426,518.144159,-8503.660028,-518.144159
4652.281751,296.082377,-8273.831378,-666.185348
4652.282075,518.144159,-8656.879127,-888.247130
4652.282399,518.144159,-8503.660028,-666.185348
4652.282724,666.185348,-8810.098227,-370.102971
4652.283048,148.041188,-7890.783629,-740.205942
4652.283372,370.102971,-8503.660028,-296.082377
4652.283697,740.205942,-8503.660028,0.000000
4652.284021,370.102971,-8580.269578,-296.082377
4652.284346,222.061783,-8656.879127,-444.123565
4652.284670,666.185348,-8427.050478,0.000000
4652.284994,370.102971,-8656.879127,0.000000
4652.285319,370.102971,-8503.660028,-148.041188
4652.285643,444.123565,-8427.050478,148.041188
4652.285967,888.247130,-8350.440928,296.082377
4652.286292,666.185348,-8350.440928,-148.041188
4652.286616,518.144159,-8580.269578,-592.164754
4652.286941,666.185348,-8580.269578,-222.061783
4652.287265,592.164754,-8350.440928,74.020594
4652.287589,518.144159,-8733.488677,-444.123565
4652.287914,444.123565,-8273.831378,-740.205942
4652.288238,444.123565,-8580.269578,0.000000
4652.288562,370.102971,-8810.098227,0.000000
4652.288887,814.226536,-8503.660028,-666.185348
4652.289211,222.061783,-8810.098227,-222.061783
4652.289536,296.082377,-8427.050478,-222.061783
4652.289860,296.082377,-8580.269578,0.000000
4652.290184,222.061783,-8810.098227,-666.185348
4652.290509,814.226536,-8733.488677,74.020594
4652.290833,666.185348,-8350.440928,0.000000
4652.291157,148.041188,-8963.317327,0.000000
4652.291482,518.144159,-8580.269578,-296.082377
4652.291806,444.123565,-8733.488677,0.000000
4652.292130,296.082377,-8733.488677,-222.061783
4652.292455,370.102971,-8427.050478,-370.102971
4652.292779,222.061783,-8503.660028,0.000000
4652.293104,148.041188,-8733.488677,148.041188
4652.293428,0.000000,-8656.879127,-962.267725
4652.293752,370.102971,-8733.488677,-740.205942
4652.294077,592.164754,-8503.660028,-518.144159
4652.294401,592.164754,-9269.755526,-444.123565
4652.294725,148.041188,-8580.269578,-1036.288319
4652.295050,370.102971,-8733.488677,-296.082377
4652.295374,370.102971,-8580.269578,-888.247130
4652.295699,296.082377,-8886.707777,-888.247130
4652.296023,222.061783,-8733.488677,-962.267725
4652.296347,370.102971,-8580.269578,-666.185348
4652.296672,444.123565,-8810.098227,-666.185348
4652.296996,222.061783,-8580.269578,-888.247130
4652.297320,888.247130,-8350.440928,-518.144159
4652.297645,444.123565,-8580.269578,-296.082377
4652.297969,518.144159,-8886.707777,-592.164754
4652.298294,370.102971,-8810.098227,-740.205942
4652.298618,962.267725,-8580.269578,-592.164754
4652.298942,370.102971,-8963.317327,-222.061783
4652.299267,370.102971,-8733.488677,-592.164754
4652.299591,222.061783,-8656.879127,-592.164754
4652.299915,370.102971,-8810.098227,-148.041188
4652.300240,370.102971,-9039.926876,-592.164754
4652.300564,666.185348,-8810.098227,-740.205942
4652.300889,666.185348,-8503.660028,-666.185348
4652.301213,444.123565,-8580.269578,-296.082377
4652.301537,444.123565,-8273.831378,-518.144159
4652.301862,74.020594,-8350.440928,-518.144159
4652.302186,222.061783,-8427.050478,-296.082377
4652.302510,296.082377,-8503.660028,-296.082377
4652.302835,296.082377,-9422.974625,-518.144159
4652.303159,444.123565,-8503.660028,-518.144159
4652.303484,296.082377,-8273.831378,-148.041188
4652.303808,518.144159,-8350.440928,-222.061783
4652.304132,592.164754,-8503.660028,-518.144159
4652.304457,518.144159,-8427.050478,74.020594
4652.304781,444.123565,-8427.050478,0.000000
4652.305105,444.123565,-8733.488677,-222.061783
4652.305430,518.144159,-8273.831378,-592.164754
4652.305754,0.000000,-8580.269578,370.102971
4652.306079,592.164754,-8580.269578,-222.061783
4652.306403,518.144159,-8656.879127,-592.164754
4652.306727,296.082377,-8580.269578,0.000000
4652.307052,222.061783,-8656.879127,-148.041188
4652.307376,296.082377,-8886.707777,-740.205942
4652.307700,296.082377,-8503.660028,-814.226536
4652.308025,592.164754,-7967.393179,-370.102971
4652.308349,666.185348,-8350.440928,0.000000
4652.308674,148.041188,-8197.221829,-370.102971
4652.308998,962.267725,-8503.660028,0.000000
4652.309322,592.164754,-8427.050478,-370.102971
4652.309647,148.041188,-8963.317327,-296.082377
4652.309971,370.102971,-8120.612279,-296.082377
4652.310295,74.020594,-8733.488677,74.020594
4652.310620,148.041188,-8580.269578,0.000000
4652.310944,222.061783,-8656.879127,-370.102971
4652.311268,518.144159,-8810.098227,0.000000
4652.311593,666.185348,-8733.488677,0.000000
4652.311917,444.123565,-8733.488677,-370.102971
4652.312242,592.164754,-8963.317327,-518.144159
4652.312566,666.185348,-8503.660028,-370.102971
4652.312890,1110.308913,-8810.098227,-296.082377
4652.313215,370.102971,-8503.660028,-592.164754
4652.313539,296.082377,-8580.269578,0.000000
4652.313863,444.123565,-8810.098227,-296.082377
4652.314188,814.226536,-8120.612279,-370.102971
4652.314512,518.144159,-8810.098227,-888.247130
4652.314837,592.164754,-8580.269578,-666.185348
4652.315161,518.144159,-8350.440928,-444.123565
4652.315485,296.082377,-8503.660028,-962.267725
4652.315810,148.041188,-8273.831378,-444.123565
4652.316134,666.185348,-8427.050478,-296.082377
4652.316458,296.082377,-8810.098227,-666.185348
4652.316783,592.164754,-8886.707777,-518.144159
4652.317107,370.102971,-8427.050478,-666.185348
4652.317432,444.123565,-8733.488677,-222.061783
4652.317756,148.041188,-8273.831378,-370.102971
4652.318080,518.144159,-8886.707777,74.020594
4652.318405,370.102971,-8810.098227,222.061783
4652.318729,444.123565,-8580.269578,0.000000
4652.319053,74.020594,-8963.317327,-148.041188
4652.319378,444.123565,-8273.831378,-148.041188
4652.319702,518.144159,-8656.879127,0.000000
4652.320027,666.185348,-8503.660028,-518.144159
4652.320351,370.102971,-8350.440928,-296.082377
4652.320675,370.102971,-8350.440928,0.000000
4652.321000,444.123565,-8656.879127,0.000000
4652.321324,444.123565,-8273.831378,-814.226536
4652.321648,370.102971,-9116.536426,-370.102971
4652.321973,592.164754,-8273.831378,-370.102971
4652.322297,296.082377,-8656.879127,74.020594
4652.322622,148.041188,-8120.612279,-444.123565
4652.322946,518.144159,-8656.879127,74.020594
4652.323270,370.102971,-8580.269578,0.000000
4652.323595,444.123565,-8656.879127,-148.041188
4652.323919,222.061783,-8273.831378,-296.082377
4652.324243,592.164754,-8963.317327,74.020594
4652.324568,518.144159,-8273.831378,0.000000
4652.324892,444.123565,-8656.879127,-296.082377
4652.325217,666.185348,-8273.831378,0.000000
4652.325541,666.185348,-9116.536426,0.000000
4652.325865,592.164754,-8580.269578,-370.102971
4652.326190,222.061783,-8580.269578,-222.061783
4652.326514,592.164754,-8503.660028,0.000000
4652.326838,444.123565,-8733.488677,-148.041188
4652.327163,222.061783,-8273.831378,0.000000
4652.327487,370.102971,-8427.050478,-370.102971
4652.327812,222.061783,-8580.269578,-148.041188
4652.328136,74.020594,-8656.879127,-444.123565
4652.328460,0.000000,-8350.440928,-888.247130
4652.328785,444.123565,-8580.269578,-222.061783
4652.329109,518.144159,-8350.440928,-370.102971
4652.329433,222.061783,-8656.879127,-296.082377
4652.329758,444.123565,-8044.002729,-740.205942
4652.330082,222.061783,-8810.098227,-222.061783
4652.330406,370.102971,-9116.536426,-592.164754
4652.330731,444.123565,-8810.098227,-666.185348
4652.331055,370.102971,-8810.098227,-666.185348
4652.331380,518.144159,-8810.098227,-222.061783
4652.331704,370.102971,-8733.488677,-592.164754
4652.332028,370.102971,-8963.317327,-666.185348
4652.332353,444.123565,-8580.269578,-370.102971
4652.332677,148.041188,-9116.536426,-148.041188
4652.333001,444.123565,-8580.269578,-814.226536
4652.333326,518.144159,-8503.660028,-518.144159
4652.333650,518.144159,-8963.317327,-592.164754
4652.333975,296.082377,-8503.660028,-222.061783
4652.334299,444.123565,-8350.440928,-888.247130
4652.334623,444.123565,-8733.488677,-444.123565
4652.334948,370.102971,-8810.098227,-444.123565
4652.335272,444.123565,-9039.926876,-888.247130
4652.335596,74.020594,-8810.098227,-814.226536
4652.335921,444.123565,-8656.879127,0.000000
4652.336245,444.123565,-8656.879127,-148.041188
4652.336570,444.123565,-8503.660028,-518.144159
4652.336894,814.226536,-7967.393179,0.000000
4652.337218,592.164754,-8656.879127,0.000000
4652.337543,518.144159,-8886.707777,-222.061783
4652.337867,518.144159,-8580.269578,-592.164754
4652.338191,148.041188,-8810.098227,0.000000
4652.338516,370.102971,-8350.440928,0.000000
4652.338840,222.061783,-8656.879127,-370.102971
4652.339165,296.082377,-8350.440928,0.000000
4652.339489,444.123565,-8427.050478,0.000000
4652.339813,296.082377,-9116.536426,0.000000
4652.340138,444.123565,-8273.831378,-666.185348
4652.340462,1036.288319,-8427.050478,0.000000
4652.340786,666.185348,-8580.269578,-444.123565
4652.341111,444.123565,-7890.783629,0.000000
4652.341435,518.144159,-8273.831378,-666.185348
4652.341760,296.082377,-8580.269578,-296.082377
4652.342084,74.020594,-8197.221829,-296.082377
4652.342408,74.020594,-8810.098227,-962.267725
4652.342733,296.082377,-8503.660028,-296.082377
4652.343057,296.082377,-8580.269578,0.000000
4652.343381,370.102971,-8580.269578,-222.061783
4652.343706,518.144159,-8427.050478,0.000000
4652.344030,666.185348,-8733.488677,74.020594
4652.344355,740.205942,-9116.536426,296.082377
4652.344679,666.185348,-8273.831378,-296.082377
4652.345003,444.123565,-8886.707777,74.020594
4652.345328,592.164754,-8733.488677,74.020594
4652.345652,0.000000,-8886.707777,0.000000
4652.345976,0.000000,-8810.098227,0.000000
4652.346301,296.082377,-8503.660028,296.082377
4652.346625,222.061783,-8656.879127,0.000000
4652.346950,296.082377,-8656.879127,-296.082377
4652.347274,518.144159,-8503.660028,-222.061783
4652.347598,518.144159,-8503.660028,-222.061783
4652.347923,518.144159,-8503.660028,-592.164754
4652.348247,592.164754,-8120.612279,-444.123565
4652.348571,222.061783,-8886.707777,-370.102971
4652.348896,74.020594,-8656.879127,-592.164754
4652.349220,296.082377,-8656.879127,-888.247130
4652.349545,370.102971,-8197.221829,-222.061783
4652.349869,444.123565,-8580.269578,-814.226536
4652.350193,222.061783,-8580.269578,-814.226536
4652.350518,518.144159,-8350.440928,-518.144159
4652.350842,444.123565,-8580.269578,-518.144159
4652.351166,666.185348,-8656.879127,-592.164754
4652.351491,518.144159,-8580.269578,-296.082377
4652.351815,370.102971,-8963.317327,-666.185348
4652.352139,592.164754,-8656.879127,-296.082377
4652.352464,814.226536,-8503.660028,-666.185348
4652.352788,518.144159,-8810.098227,-222.061783
4652.353113,518.144159,-8427.050478,0.000000
4652.353437,592.164754,-8580.269578,148.041188
4652.353761,888.247130,-8886.707777,-666.185348
4652.354086,592.164754,-8580.269578,-444.123565
4652.354410,666.185348,-8886.707777,-296.082377
4652.354734,518.144159,-8273.831378,-296.082377
4652.355059,444.123565,-8427.050478,-148.041188
4652.355383,592.164754,-8580.269578,-148.041188
4652.355708,296.082377,-8656.879127,74.020594
4652.356032,666.185348,-8886.707777,-518.144159
4652.356356,814.226536,-8810.098227,-444.123565
4652.356681,740.205942,-8810.098227,-444.123565
4652.357005,518.144159,-8810.098227,-148.041188
4652.357329,222.061783,-8044.002729,-444.123565
4652.357654,666.185348,-8350.440928,-296.082377
4652.357978,592.164754,-9039.926876,-296.082377
4652.358303,296.082377,-8810.098227,0.000000
4652.358627,296.082377,-8427.050478,0.000000
4652.358951,518.144159,-8580.269578,-370.102971
4652.359276,222.061783,-8273.831378,148.041188
4652.359600,444.123565,-8427.050478,0.000000
4652.359924,740.205942,-8427.050478,0.000000
4652.360249,814.226536,-8656.879127,148.041188
4652.360573,666.185348,-8886.707777,-370.102971
4652.360898,222.061783,-8044.002729,-888.247130
4652.361222,444.123565,-8503.660028,-518.144159
4652.361546,296.082377,-8580.269578,-296.082377
4652.361871,296.082377,-8427.050478,-296.082377
4652.362195,0.000000,-8350.440928,-296.082377
4652.362519,222.061783,-8580.269578,0.000000
4652.362844,148.041188,-8197.221829,-370.102971
4652.363168,74.020594,-8810.098227,-518.144159
4652.363493,296.082377,-8273.831378,-518.144159
4652.363817,0.000000,-8503.660028,-296.082377
4652.364141,0.000000,-8656.879127,-370.102971
4652.364466,-148.041188,-8120.612279,-222.061783
4652.364790,444.123565,-8886.707777,-148.041188
4652.365114,370.102971,-8580.269578,-296.082377
4652.365439,296.082377,-8656.879127,-370.102971
4652.365763,592.164754,-8810.098227,-296.082377
4652.366088,444.123565,-8503.660028,-444.123565
4652.366412,444.123565,-8580.269578,-222.061783
4652.366736,148.041188,-8350.440928,-814.226536
4652.367061,296.082377,-8810.098227,0.000000
4652.367385,74.020594,-9039.926876,-222.061783
4652.367709,296.082377,-9269.755526,-740.205942
4652.368034,518.144159,-8733.488677,-962.267725
4652.368358,444.123565,-8810.098227,-666.185348
4652.368683,592.164754,-8503.660028,-592.164754
4652.369007,592.164754,-8503.660028,-592.164754
4652.369331,666.185348,-8963.317327,-888.247130
4652.369656,740.205942,-8810.098227,-666.185348
4652.369980,370.102971,-8656.879127,-888.247130
4652.370304,296.082377,-9116.536426,-888.247130
4652.370629,296.082377,-8503.660028,-666.185348
4652.370953,740.205942,-8810.098227,-518.144159
4652.371277,444.123565,-8273.831378,-666.185348
4652.371602,444.123565,-8503.660028,-518.144159
4652.371926,666.185348,-8503.660028,-296.082377
4652.372251,740.205942,-9346.365076,-296.082377
4652.372575,666.185348,-8273.831378,-592.164754
4652.372899,666.185348,-8580.269578,-148.041188
4652.373224,296.082377,-8044.002729,-222.061783
4652.373548,444.123565,-8886.707777,-518.144159
4652.373872,888.247130,-8580.269578,-518.144159
4652.374197,592.164754,-8273.831378,-296.082377
4652.374521,666.185348,-8580.269578,-740.205942
4652.374846,444.123565,-8503.660028,-666.185348
4652.375170,888.247130,-8503.660028,-666.185348
4652.375494,740.205942,-8656.879127,-518.144159
4652.375819,518.144159,-8580.269578,-666.185348
4652.376143,740.205942,-8350.440928,-666.185348
4652.376467,1110.308913,-8503.660028,-888.247130
4652.376792,518.144159,-8580.269578,-370.102971
4652.377116,222.061783,-8733.488677,-1036.288319
4652.377441,222.061783,-8273.831378,-592.164754
4652.377765,148.041188,-8503.660028,-148.041188
4652.378089,0.000000,-8656.879127,-518.144159
4652.378414,370.102971,-8197.221829,-370.102971
4652.378738,0.000000,-8580.269578,0.000000
4652.379063,0.000000,-8733.488677,74.020594
4652.379387,296.082377,-8656.879127,-370.102971
4652.379712,370.102971,-8656.879127,0.000000
4652.380036,222.061783,-8810.098227,0.000000
4652.380360,370.102971,-8656.879127,-148.041188
4652.380685,592.164754,-8427.050478,-296.082377
4652.381009,592.164754,-8503.660028,222.061783
4652.381334,518.144159,-8810.098227,74.020594
4652.381658,222.061783,-8886.707777,-370.102971
4652.381983,592.164754,-8656.879127,-148.041188
4652.382307,370.102971,-8733.488677,0.000000
4652.382631,592.164754,-8656.879127,0.000000
4652.382956,370.102971,-8044.002729,-222.061783
4652.383280,592.164754,-8656.879127,0.000000
4652.383605,222.061783,-8120.612279,0.000000
4652.383929,518.144159,-8733.488677,-296.082377
4652.384254,518.144159,-8427.050478,-148.041188
4652.384578,444.123565,-8273.831378,-148.041188
4652.384902,518.144159,-8886.707777,222.061783
4652.385227,296.082377,-8427.050478,-592.164754
4652.385551,222.061783,-8503.660028,0.000000
4652.385876,0.000000,-8886.707777,-444.123565
4652.386200,592.164754,-8963.317327,-296.082377
4652.386525,592.164754,-8810.098227,-222.061783
4652.386849,518.144159,-8580.269578,-148.041188
4652.387173,296.082377,-8503.660028,-222.061783
4652.387498,444.123565,-8963.317327,0.000000
4652.387822,888.247130,-8580.269578,370.102971
4652.388147,518.144159,-8810.098227,0.000000
4652.388471,888.247130,-8656.879127,-370.102971
4652.388796,592.164754,-8427.050478,-592.164754
4652.389120,888.247130,-7890.783629,0.000000
4652.389444,370.102971,-8427.050478,-518.144159
4652.389769,518.144159,-8503.660028,0.000000
4652.390093,222.061783,-8044.002729,-370.102971
4652.390418,370.102971,-8733.488677,-222.061783
4652.390742,296.082377,-8197.221829,0.000000
4652.391067,444.123565,-8810.098227,-518.144159
4652.391391,444.123565,-7967.393179,-370.102971
4652.391716,666.185348,-8733.488677,-592.164754
4652.392040,592.164754,-8273.831378,-148.041188
4652.392364,592.164754,-8273.831378,0.000000
4652.392689,518.144159,-8427.050478,-518.144159
4652.393013,518.144159,-8886.707777,-222.061783
4652.393338,0.000000,-7660.954980,-296.082377
4652.393662,740.205942,-8886.707777,-296.082377
4652.393987,370.102971,-8427.050478,-444.123565
4652.394311,296.082377,-8733.488677,0.000000
4652.394635,666.185348,-8197.221829,0.000000
4652.394960,814.226536,-8427.050478,-148.041188
4652.395284,444.123565,-8580.269578,-222.061783
4652.395609,222.061783,-8580.269578,-444.123565
4652.395933,740.205942,-8733.488677,-444.123565
4652.396258,222.061783,-7967.393179,-222.061783
4652.396582,0.000000,-8350.440928,-444.123565
4652.396906,296.082377,-8273.831378,0.000000
4652.397231,-222.061783,-8273.831378,-296.082377
4652.397555,222.061783,-9193.145976,-370.102971
4652.397880,222.061783,-8810.098227,-962.267725
4652.398204,444.123565,-8733.488677,-296.082377
4652.398529,74.020594,-8197.221829,-370.102971
4652.398853,370.102971,-8810.098227,-370.102971
4652.399177,592.164754,-8350.440928,-222.061783
4652.399502,296.082377,-8503.660028,-296.082377
4652.399826,222.061783,-8886.707777,0.000000
4652.400151,444.123565,-8656.879127,0.000000
4652.400475,370.102971,-8886.707777,-962.267725
4652.400800,666.185348,-8580.269578,-148.041188
4652.401124,296.082377,-8197.221829,-666.185348
4652.401448,518.144159,-8733.488677,-74.020594
4652.401773,518.144159,-8197.221829,-370.102971
4652.402097,444.123565,-8427.050478,-296.082377
4652.402422,370.102971,-8503.660028,-888.247130
4652.402746,296.082377,-8810.098227,-370.102971
4652.403071,666.185348,-8810.098227,-740.205942
4652.403395,370.102971,-8733.488677,-296.082377
4652.403719,518.144159,-8350.440928,-444.123565
4652.404044,296.082377,-8810.098227,-518.144159
4652.404368,370.102971,-8580.269578,-740.205942
4652.404693,814.226536,-9499.584175,-518.144159
4652.405017,444.123565,-8503.660028,-962.267725
4652.405342,666.185348,-8733.488677,-666.185348
4652.405666,148.041188,-8350.440928,-888.247130
4652.405990,592.164754,-8810.098227,-444.123565
4652.406315,666.185348,-8273.831378,-518.144159
4652.406639,666.185348,-8886.707777,-592.164754
4652.406964,666.185348,-8963.317327,-370.102971
4652.407288,740.205942,-8656.879127,-1036.288319
4652.407613,740.205942,-8733.488677,-888.247130
4652.407937,740.205942,-8580.269578,-592.164754
4652.408262,370.102971,-8810.098227,-592.164754
4652.408586,740.205942,-8580.269578,-518.144159
4652.408910,518.144159,-8733.488677,-1184.329507
4652.409235,444.123565,-8810.098227,-666.185348
4652.409559,370.102971,-8580.269578,-1184.329507
4652.409884,740.205942,-8810.098227,-666.185348
4652.410208,666.185348,-8656.879127,-740.205942
4652.410533,740.205942,-8886.707777,-740.205942
4652.410857,518.144159,-8580.269578,-296.082377
4652.411181,148.041188,-8810.098227,-444.123565
4652.411506,592.164754,-8810.098227,-740.205942
4652.411830,148.041188,-8733.488677,-370.102971
4652.412155,296.082377,-8503.660028,-444.123565
4652.412479,0.000000,-8886.707777,-370.102971
4652.412804,0.000000,-8503.660028,-814.226536
4652.413128,0.000000,-8886.707777,-222.061783
4652.413452,148.041188,-8656.879127,-296.082377
4652.413777,0.000000,-8886.707777,-444.123565
4652.414101,74.020594,-8580.269578,-518.144159
4652.414426,148.041188,-8503.660028,-296.082377
4652.414750,370.102971,-8197.221829,0.000000
4652.415075,370.102971,-8427.050478,-296.082377
4652.415399,370.102971,-8503.660028,-222.061783
4652.415723,666.185348,-8580.269578,74.020594
4652.416048,222.061783,-8963.317327,148.041188
4652.416372,296.082377,-8810.098227,-370.102971
4652.416697,518.144159,-8120.612279,-296.082377
4652.417021,666.185348,-8503.660028,-222.061783
4652.417346,592.164754,-8350.440928,74.020594
4652.417670,592.164754,-7967.393179,0.000000
4652.417994,444.123565,-8273.831378,222.061783
4652.418319,444.123565,-8580.269578,0.000000
4652.418643,592.164754,-8503.660028,-148.041188
4652.418968,148.041188,-8503.660028,444.123565
4652.419292,370.102971,-8427.050478,0.000000
4652.419617,444.123565,-8656.879127,296.082377
4652.419941,296.082377,-8120.612279,148.041188
4652.420265,444.123565,-8580.269578,444.123565
4652.420590,592.164754,-8810.098227,148.041188
4652.420914,444.123565,-8580.269578,0.000000
4652.421239,888.247130,-8503.660028,-296.082377
4652.421563,444.123565,-8963.317327,222.061783
4652.421888,444.123565,-8350.440928,-222.061783
4652.422212,370.102971,-8656.879127,-222.061783
4652.422537,370.102971,-8273.831378,74.020594
4652.422861,296.082377,-8656.879127,0.000000
4652.423185,666.185348,-8886.707777,-370.102971
4652.423510,592.164754,-8503.660028,-592.164754
4652.423834,740.205942,-8503.660028,-296.082377
4652.424159,296.082377,-8886.707777,-148.041188
4652.424483,370.102971,-8580.269578,-296.082377
4652.424808,518.144159,-8120.612279,-222.061783
4652.425132,0.000000,-8733.488677,0.000000
4652.425456,148.041188,-8733.488677,-444.123565
4652.425781,296.082377,-9039.926876,-444.123565
4652.426105,444.123565,-8656.879127,0.000000
4652.426430,148.041188,-8963.317327,-296.082377
4652.426754,222.061783,-8656.879127,-518.144159
4652.427079,296.082377,-8580.269578,-148.041188
4652.427403,444.123565,-8503.660028,148.041188
4652.427727,370.102971,-8963.317327,-444.123565
4652.428052,518.144159,-8656.879127,-444.123565
4652.428376,592.164754,-8810.098227,-518.144159
4652.428701,296.082377,-8273.831378,-370.102971
4652.429025,592.164754,-8197.221829,-592.164754
4652.429350,444.123565,-8350.440928,0.000000
4652.429674,148.041188,-8580.269578,-148.041188
4652.429998,296.082377,-8656.879127,-666.185348
