#time,accel_x,accel_y,accel_z
4554.015155,222.061783,-8580.269578,-370.102971
4554.015480,222.061783,-8656.879127,-370.102971
4554.015805,518.144159,-8350.440928,-296.082377
4554.016129,222.061783,-8656.879127,0.000000
4554.016454,444.123565,-8810.098227,296.082377
4554.016778,444.123565,-8656.879127,0.000000
4554.017103,592.164754,-8733.488677,0.000000
4554.017427,296.082377,-8963.317327,444.123565
4554.017752,222.061783,-8580.269578,0.000000
4554.018077,296.082377,-8656.879127,444.123565
4554.018401,74.020594,-8580.269578,444.123565
4554.018726,0.000000,-8810.098227,518.144159
4554.019050,444.123565,-8810.098227,222.061783
4554.019375,444.123565,-8503.660028,592.164754
4554.019699,370.102971,-8733.488677,592.164754
4554.020024,444.123565,-8427.050478,888.247130
4554.020349,222.061783,-9499.584175,1110.308913
4554.020673,370.102971,-8580.269578,740.205942
4554.020998,370.102971,-8427.050478,666.185348
4554.021322,444.123565,-8580.269578,666.185348
4554.021647,444.123565,-8350.440928,888.247130
4554.021971,74.020594,-8427.050478,740.205942
4554.022296,222.061783,-8656.879127,592.164754
4554.022621,370.102971,-8580.269578,666.185348
4554.022945,444.123565,-8733.488677,518.144159
4554.023270,370.102971,-8810.098227,814.226536
4554.023594,370.102971,-8656.879127,888.247130
4554.023919,370.102971,-8656.879127,518.144159
4554.024243,740.205942,-8580.269578,444.123565
4554.024568,666.185348,-8580.269578,518.144159
4554.024893,740.205942,-8580.269578,370.102971
4554.025217,666.185348,-8503.660028,296.082377
4554.025542,222.061783,-8656.879127,296.082377
4554.025866,518.144159,-8273.831378,0.000000
4554.026191,518.144159,-8350.440928,74.020594
4554.026515,296.082377,-8503.660028,-148.041188
4554.026840,592.164754,-8733.488677,0.000000
4554.027165,222.061783,-8580.269578,0.000000
4554.027489,666.185348,-9499.584175,444.123565
4554.027814,518.144159,-8427.050478,-296.082377
4554.028138,592.164754,-8810.098227,-370.102971
4554.028463,592.164754,-8656.879127,-222.061783
4554.028787,592.164754,-9193.145976,-444.123565
4554.029112,222.061783,-8886.707777,-444.123565
4554.029436,592.164754,-8656.879127,-592.164754
4554.029761,592.164754,-8580.269578,-592.164754
4554.030085,148.041188,-8733.488677,-740.205942
4554.030410,222.061783,-8580.269578,-518.144159
4554.030734,296.082377,-8580.269578,-666.185348
4554.031059,296.082377,-8886.707777,-296.082377
4554.031383,296.082377,-8503.660028,-518.144159
4554.031708,222.061783,-8810.098227,-222.061783
4554.032032,370.102971,-8197.221829,-888.247130
4554.032357,444.123565,-8427.050478,-740.205942
4554.032681,444.123565,-8427.050478,-888.247130
4554.033005,518.144159,-8810.098227,-962.267725
4554.033330,518.144159,-8427.050478,-1332.370696
4554.033654,444.123565,-8197.221829,-1110.308913
4554.033979,296.082377,-8733.488677,-1332.370696
4554.034303,296.082377,-8580.269578,-1332.370696
4554.034628,296.082377,-8810.098227,-1184.329507
4554.034952,518.144159,-8656.879127,-1332.370696
4554.035277,592.164754,-8656.879127,-1184.329507
4554.035601,592.164754,-8656.879127,-1184.329507
4554.035926,296.082377,-8810.098227,-1406.391290
4554.036250,666.185348,-8580.269578,-1332.370696
4554.036575,740.205942,-8580.269578,-1332.370696
4554.036899,740.205942,-8733.488677,-1480.411884
4554.037224,444.123565,-8963.317327,-1110.308913
4554.037548,222.061783,-8580.269578,-1184.329507
4554.037872,592.164754,-9039.926876,-1110.308913
4554.038197,370.102971,-8656.879127,-1036.288319
4554.038521,370.102971,-8810.098227,-1110.308913
4554.038846,888.247130,-8656.879127,-1036.288319
4554.039170,296.082377,-8733.488677,-962.267725
4554.039495,148.041188,-8963.317327,-962.267725
4554.039819,444.123565,-8580.269578,-666.185348
4554.040144,518.144159,-9193.145976,-666.185348
4554.040468,592.164754,-8580.269578,-962.267725
4554.040793,370.102971,-8810.098227,-888.247130
4554.041117,222.061783,-9039.926876,-814.226536
4554.041442,296.082377,-8503.660028,-962.267725
4554.041766,370.102971,-8886.707777,-888.247130
4554.042090,444.123565,-8427.050478,-888.247130
4554.042415,518.144159,-8580.269578,-444.123565
4554.042739,444.123565,-8656.879127,-962.267725
4554.043064,222.061783,-8886.707777,-296.082377
4554.043388,296.082377,-8350.440928,-740.205942
4554.043713,444.123565,-8580.269578,-666.185348
4554.044037,592.164754,-8427.050478,-666.185348
4554.044362,370.102971,-8733.488677,-370.102971
4554.044686,296.082377,-8656.879127,-592.164754
4554.045011,518.144159,-8656.879127,-370.102971
4554.045335,444.123565,-8503.660028,-518.144159
4554.045660,444.123565,-8886.707777,-370.102971
4554.045984,296.082377,-8197.221829,0.000000
4554.046308,666.185348,-8733.488677,0.000000
4554.046633,518.144159,-8503.660028,-370.102971
4554.046957,518.144159,-8810.098227,0.000000
4554.047282,592.164754,-8427.050478,0.000000
4554.047606,370.102971,-8656.879127,296.082377
4554.047931,740.205942,-8656.879127,0.000000
4554.048255,1110.308913,-8963.317327,222.061783
4554.048580,888.247130,-8580.269578,592.164754
4554.048904,962.267725,-9116.536426,0.000000
4554.049229,1036.288319,-8427.050478,370.102971
4554.049553,1036.288319,-8427.050478,592.164754
4554.049878,592.164754,-8503.660028,296.082377
4554.050202,814.226536,-8197.221829,518.144159
4554.050526,740.205942,-8656.879127,444.123565
4554.050851,592.164754,-8503.660028,444.123565
4554.051175,444.123565,-8810.098227,444.123565
4554.051500,1036.288319,-8963.317327,518.144159
4554.051824,444.123565,-8503.660028,740.205942
4554.052149,666.185348,-9039.926876,666.185348
4554.052473,592.164754,-8580.269578,444.123565
4554.052798,592.164754,-8350.440928,962.267725
4554.053122,666.185348,-8197.221829,592.164754
4554.053447,444.123565,-8656.879127,814.226536
4554.053771,666.185348,-8427.050478,666.185348
4554.054096,592.164754,-8580.269578,888.247130
4554.054420,814.226536,-8580.269578,740.205942
4554.054744,444.123565,-8580.269578,814.226536
4554.055069,296.082377,-8503.660028,888.247130
4554.055393,370.102971,-8427.050478,888.247130
4554.055718,666.185348,-8273.831378,518.144159
4554.056042,148.041188,-8503.660028,740.205942
4554.056367,222.061783,-8273.831378,740.205942
4554.056691,0.000000,-8427.050478,592.164754
4554.057016,222.061783,-8503.660028,222.061783
4554.057340,666.185348,-8350.440928,444.123565
4554.057665,296.082377,-8580.269578,518.144159
4554.057989,148.041188,-8580.269578,592.164754
4554.058314,222.061783,-8503.660028,666.185348
4554.058638,666.185348,-8656.879127,1036.288319
4554.058962,444.123565,-8197.221829,296.082377
4554.059287,296.082377,-8580.269578,518.144159
4554.059611,296.082377,-8580.269578,222.061783
4554.059936,370.102971,-8503.660028,666.185348
4554.060260,222.061783,-8580.269578,0.000000
4554.060585,296.082377,-8503.660028,0.000000
4554.060909,296.082377,-8656.879127,0.000000
4554.061234,148.041188,-8810.098227,0.000000
4554.061558,518.144159,-8656.879127,-222.061783
4554.061883,444.123565,-8503.660028,-222.061783
4554.062207,444.123565,-8503.660028,-222.061783
4554.062532,740.205942,-8580.269578,-370.102971
4554.062856,666.185348,-9652.803275,0.000000
4554.063181,592.164754,-8733.488677,-222.061783
4554.063505,148.041188,-8733.488677,-518.144159
4554.063829,148.041188,-8810.098227,-592.164754
4554.064154,0.000000,-8580.269578,-370.102971
4554.064478,296.082377,-9039.926876,-518.144159
4554.064803,148.041188,-8810.098227,-444.123565
4554.065127,0.000000,-8656.879127,-370.102971
4554.065452,296.082377,-8963.317327,-666.185348
4554.065776,518.144159,-8810.098227,-370.102971
4554.066101,888.247130,-8886.707777,-592.164754
4554.066425,1036.288319,-8886.707777,-370.102971
4554.066750,518.144159,-8656.879127,-444.123565
4554.067074,962.267725,-8810.098227,-370.102971
4554.067399,444.123565,-8580.269578,-592.164754
4554.067723,592.164754,-8427.050478,-518.144159
4554.068047,740.205942,-8273.831378,-814.226536
4554.068372,222.061783,-8810.098227,-592.164754
4554.068696,148.041188,-8350.440928,-740.205942
4554.069021,222.061783,-8350.440928,-592.164754
4554.069345,296.082377,-8580.269578,-444.123565
4554.069670,444.123565,-8810.098227,-518.144159
4554.069994,888.247130,-8350.440928,-666.185348
4554.070319,888.247130,-8350.440928,-74.020594
4554.070643,814.226536,-8810.098227,-518.144159
4554.070968,666.185348,-8503.660028,-222.061783
4554.071292,962.267725,-9039.926876,0.000000
4554.071617,222.061783,-8197.221829,-296.082377
4554.071941,74.020594,-8580.269578,0.000000
4554.072265,0.000000,-8503.660028,-296.082377
4554.072590,74.020594,-8503.660028,74.020594
4554.072914,148.041188,-8350.440928,74.020594
4554.073239,444.123565,-8886.707777,222.061783
4554.073563,518.144159,-8273.831378,370.102971
4554.073888,666.185348,-9193.145976,814.226536
4554.074212,1332.370696,-8656.879127,740.205942
4554.074537,814.226536,-8656.879127,740.205942
4554.074861,666.185348,-8350.440928,296.082377
4554.075186,296.082377,-8350.440928,592.164754
4554.075510,222.061783,-8810.098227,444.123565
4554.075835,-148.041188,-8273.831378,666.185348
4554.076159,-444.123565,-8503.660028,666.185348
4554.076483,-444.123565,-8733.488677,518.144159
4554.076808,-222.061783,-8810.098227,370.102971
4554.077132,518.144159,-8810.098227,888.247130
4554.077457,518.144159,-8656.879127,888.247130
4554.077781,740.205942,-8886.707777,814.226536
4554.078106,1184.329507,-8656.879127,740.205942
4554.078430,1184.329507,-8197.221829,814.226536
4554.078755,518.144159,-8580.269578,296.082377
4554.079079,74.020594,-7890.783629,74.020594
4554.079404,0.000000,-8503.660028,148.041188
4554.079728,-518.144159,-8427.050478,-222.061783
4554.080053,-666.185348,-8963.317327,-148.041188
4554.080377,-148.041188,-8503.660028,-148.041188
4554.080701,0.000000,-8273.831378,0.000000
4554.081026,370.102971,-9116.536426,0.000000
4554.081350,1406.391290,-8656.879127,0.000000
4554.081675,1036.288319,-8656.879127,74.020594
4554.081999,1184.329507,-8733.488677,0.000000
4554.082324,740.205942,-8427.050478,0.000000
4554.082648,518.144159,-8733.488677,-222.061783
4554.082973,74.020594,-8350.440928,-666.185348
4554.083297,-296.082377,-8427.050478,-666.185348
4554.083622,-370.102971,-8656.879127,-592.164754
4554.083946,-222.061783,-8656.879127,-888.247130
4554.084271,74.020594,-8656.879127,-666.185348
4554.084595,222.061783,-8656.879127,-444.123565
4554.084919,740.205942,-8810.098227,-296.082377
4554.085244,1406.391290,-8503.660028,-296.082377
4554.085568,1628.453072,-8733.488677,-518.144159
4554.085893,1184.329507,-8503.660028,-518.144159
4554.086217,888.247130,-8427.050478,-592.164754
4554.086542,148.041188,-8503.660028,-1110.308913
4554.086866,222.061783,-8350.440928,-1776.494261
4554.087191,-296.082377,-8427.050478,-1332.370696
4554.087515,-370.102971,-8427.050478,-1332.370696
4554.087840,0.000000,-8427.050478,-1332.370696
4554.088164,0.000000,-8656.879127,-1110.308913
4554.088489,666.185348,-8503.660028,-888.247130
4554.088813,666.185348,-8810.098227,-666.185348
4554.089137,1110.308913,-8733.488677,-222.061783
4554.089462,1184.329507,-8656.879127,-444.123565
4554.089786,1036.288319,-9039.926876,-814.226536
4554.090111,592.164754,-8503.660028,-962.267725
4554.090435,222.061783,-8350.440928,-1332.370696
4554.090760,0.000000,-8503.660028,-1554.432478
4554.091084,0.000000,-9499.584175,-1184.329507
4554.091409,-518.144159,-8656.879127,-1184.329507
4554.091733,0.000000,-8580.269578,-1036.288319
4554.092058,370.102971,-8044.002729,-962.267725
4554.092382,518.144159,-8733.488677,-592.164754
4554.092707,666.185348,-8427.050478,-370.102971
4554.093031,1480.411884,-8656.879127,-296.082377
4554.093356,1036.288319,-8656.879127,-444.123565
4554.093680,666.185348,-8810.098227,-518.144159
4554.094004,74.020594,-8427.050478,-1110.308913
4554.094329,148.041188,-8273.831378,-1258.350101
4554.094653,-148.041188,-8427.050478,-888.247130
4554.094978,-444.123565,-8350.440928,-1554.432478
4554.095302,-148.041188,-8963.317327,-1406.391290
4554.095627,0.000000,-8503.660028,-1184.329507
4554.095951,518.144159,-8810.098227,-666.185348
4554.096276,962.267725,-8886.707777,-370.102971
4554.096600,1036.288319,-8886.707777,0.000000
4554.096925,1258.350101,-8810.098227,-148.041188
4554.097249,1036.288319,-8580.269578,-592.164754
4554.097574,814.226536,-8810.098227,-518.144159
4554.097898,444.123565,-8427.050478,-814.226536
4554.098222,74.020594,-8656.879127,-1332.370696
4554.098547,0.000000,-8656.879127,-1258.350101
4554.098871,0.000000,-8656.879127,-1332.370696
4554.099196,74.020594,-8810.098227,-1036.288319
4554.099520,296.082377,-8733.488677,-814.226536
4554.099845,740.205942,-8810.098227,0.000000
4554.100169,1184.329507,-8656.879127,0.000000
4554.100494,1036.288319,-9422.974625,0.000000
4554.100818,1406.391290,-8963.317327,148.041188
4554.101143,1332.370696,-9116.536426,-74.020594
4554.101467,740.205942,-8963.317327,-592.164754
4554.101792,444.123565,-8580.269578,-814.226536
4554.102116,0.000000,-9039.926876,-1110.308913
4554.102440,-370.102971,-9193.145976,-592.164754
4554.102765,444.123565,-8503.660028,-1184.329507
4554.103089,0.000000,-8580.269578,-740.205942
4554.103414,444.123565,-8656.879127,-740.205942
4554.103738,962.267725,-8810.098227,-518.144159
4554.104063,1036.288319,-8810.098227,0.000000
4554.104387,1258.350101,-8886.707777,-222.061783
4554.104712,1554.432478,-9193.145976,-148.041188
4554.105036,888.247130,-8656.879127,-740.205942
4554.105361,592.164754,-9039.926876,-740.205942
4554.105685,74.020594,-8273.831378,-1628.453072
4554.106010,0.000000,-8197.221829,-1332.370696
4554.106334,-148.041188,-8273.831378,-1480.411884
4554.106658,-592.164754,-8886.707777,-1036.288319
4554.106983,370.102971,-8503.660028,-1184.329507
4554.107307,444.123565,-8810.098227,-888.247130
4554.107632,1036.288319,-8810.098227,-444.123565
4554.107956,1036.288319,-8810.098227,-444.123565
4554.108281,1406.391290,-8580.269578,370.102971
4554.108605,814.226536,-8656.879127,-296.082377
4554.108930,666.185348,-9116.536426,-592.164754
4554.109254,74.020594,-8580.269578,-962.267725
4554.109579,-296.082377,-8810.098227,-444.123565
4554.109903,-370.102971,-8503.660028,-1110.308913
4554.110228,-444.123565,-8580.269578,-1110.308913
4554.110552,-222.061783,-8197.221829,-1110.308913
4554.110876,518.144159,-8810.098227,-444.123565
4554.111201,814.226536,-8580.269578,-296.082377
4554.111525,1628.453072,-8580.269578,-444.123565
4554.111850,1628.453072,-8656.879127,0.000000
4554.112174,1110.308913,-8886.707777,0.000000
4554.112499,518.144159,-8810.098227,-370.102971
4554.112823,370.102971,-8810.098227,-814.226536
4554.113148,-296.082377,-8580.269578,-1184.329507
4554.113472,-592.164754,-8273.831378,-1332.370696
4554.113797,-814.226536,-7814.174080,-1776.494261
4554.114121,-370.102971,-8120.612279,-1332.370696
4554.114446,0.000000,-7660.954980,-1036.288319
4554.114770,518.144159,-8580.269578,-888.247130
4554.115094,1036.288319,-8350.440928,-370.102971
4554.115419,1332.370696,-8350.440928,0.000000
4554.115743,962.267725,-8963.317327,0.000000
4554.116068,814.226536,-8656.879127,-370.102971
4554.116392,444.123565,-8656.879127,-592.164754
4554.116717,-444.123565,-8273.831378,-888.247130
4554.117041,-370.102971,-8656.879127,-962.267725
4554.117366,-370.102971,-8273.831378,-1332.370696
4554.117690,0.000000,-8427.050478,-1110.308913
4554.118015,962.267725,-8044.002729,-740.205942
4554.118339,518.144159,-8503.660028,-666.185348
4554.118664,1480.411884,-8197.221829,-222.061783
4554.118988,1480.411884,-8273.831378,0.000000
4554.119313,1110.308913,-9193.145976,0.000000
4554.119637,1258.350101,-8350.440928,-444.123565
4554.119961,888.247130,-8963.317327,-222.061783
4554.120286,0.000000,-8656.879127,-740.205942
4554.120610,0.000000,-8580.269578,-740.205942
4554.120935,0.000000,-8427.050478,-814.226536
4554.121259,-370.102971,-8427.050478,-1480.411884
4554.121584,-74.020594,-8273.831378,-1332.370696
4554.121908,74.020594,-8503.660028,-740.205942
4554.122233,444.123565,-8350.440928,-296.082377
4554.122557,1332.370696,-8503.660028,-370.102971
4554.122882,1184.329507,-9039.926876,0.000000
4554.123206,1184.329507,-8886.707777,148.041188
4554.123531,814.226536,-8886.707777,0.000000
4554.123855,222.061783,-9039.926876,-222.061783
4554.124179,0.000000,-8427.050478,-444.123565
4554.124504,-370.102971,-8733.488677,-814.226536
4554.124828,-370.102971,-8580.269578,-962.267725
4554.125153,518.144159,-8350.440928,-888.247130
4554.125477,296.082377,-8120.612279,-444.123565
4554.125802,666.185348,-8120.612279,-74.020594
4554.126126,1036.288319,-8810.098227,-222.061783
4554.126451,962.267725,-9193.145976,814.226536
4554.126775,1110.308913,-8656.879127,370.102971
4554.127100,888.247130,-8963.317327,370.102971
4554.127424,222.061783,-8810.098227,222.061783
4554.127749,0.000000,-8886.707777,0.000000
4554.128073,-296.082377,-8427.050478,-592.164754
4554.128397,-370.102971,-8733.488677,-666.185348
4554.128722,-370.102971,-8197.221829,-1036.288319
4554.129046,74.020594,-8427.050478,-666.185348
4554.129371,592.164754,-8273.831378,-370.102971
4554.129695,888.247130,-8580.269578,-444.123565
4554.130020,1406.391290,-8273.831378,-444.123565
4554.130344,1332.370696,-8886.707777,222.061783
4554.130668,1184.329507,-9116.536426,296.082377
4554.130993,1110.308913,-8656.879127,0.000000
4554.131317,296.082377,-8656.879127,0.000000
4554.131642,0.000000,-8503.660028,-888.247130
4554.131966,-444.123565,-8350.440928,-1110.308913
4554.132290,0.000000,-8656.879127,-1110.308913
4554.132615,0.000000,-7967.393179,-1258.350101
4554.132939,222.061783,-8580.269578,-962.267725
4554.133264,592.164754,-8503.660028,-666.185348
4554.133588,1332.370696,-8963.317327,0.000000
4554.133912,1406.391290,-8810.098227,-296.082377
4554.134237,1480.411884,-9269.755526,148.041188
4554.134561,1184.329507,-8656.879127,-148.041188
4554.134886,814.226536,-8963.317327,0.000000
4554.135210,296.082377,-8273.831378,-962.267725
4554.135534,-296.082377,-8810.098227,-888.247130
4554.135859,-222.061783,-8656.879127,-1554.432478
4554.136183,-370.102971,-8350.440928,-1406.391290
4554.136508,74.020594,-8427.050478,-1554.432478
4554.136832,592.164754,-8197.221829,-962.267725
4554.137156,1036.288319,-8427.050478,-962.267725
4554.137481,1480.411884,-8580.269578,-592.164754
4554.137805,1998.556043,-8810.098227,222.061783
4554.138130,1406.391290,-8580.269578,0.000000
4554.138454,888.247130,-8886.707777,-592.164754
4554.138778,518.144159,-8350.440928,-740.205942
4554.139103,74.020594,-8350.440928,-1036.288319
4554.139427,-518.144159,-8427.050478,-1258.350101
4554.139752,-592.164754,-8197.221829,-1480.411884
4554.140076,-518.144159,-8580.269578,-1110.308913
4554.140400,74.020594,-8197.221829,-1332.370696
4554.140725,962.267725,-7814.174080,-444.123565
4554.141049,1406.391290,-8350.440928,-370.102971
4554.141373,1850.514855,-8427.050478,74.020594
4554.141698,2146.597232,-8580.269578,0.000000
4554.142022,1184.329507,-8886.707777,592.164754
4554.142347,370.102971,-8580.269578,-518.144159
4554.142671,0.000000,-8886.707777,-740.205942
4554.142995,-296.082377,-8503.660028,-592.164754
4554.143320,-666.185348,-8503.660028,-888.247130
4554.143644,-370.102971,-8503.660028,-1258.350101
4554.143969,0.000000,-8120.612279,-740.205942
4554.144293,592.164754,-8427.050478,-518.144159
4554.144617,962.267725,-8580.269578,0.000000
4554.144942,1258.350101,-7507.735880,444.123565
4554.145266,1702.473667,-8886.707777,518.144159
4554.145591,1110.308913,-8503.660028,370.102971
4554.145915,740.205942,-8963.317327,74.020594
4554.146239,296.082377,-8733.488677,74.020594
4554.146564,-296.082377,-8503.660028,0.000000
4554.146888,-962.267725,-8733.488677,-296.082377
4554.147213,-888.247130,-8656.879127,-518.144159
4554.147537,-296.082377,-8350.440928,-222.061783
4554.147861,518.144159,-8656.879127,0.000000
4554.148186,888.247130,-8427.050478,296.082377
4554.148510,1332.370696,-8427.050478,814.226536
4554.148835,1480.411884,-8580.269578,1110.308913
4554.149159,1850.514855,-8350.440928,1332.370696
4554.149483,1036.288319,-8580.269578,888.247130
4554.149808,444.123565,-8810.098227,518.144159
4554.150132,74.020594,-8580.269578,222.061783
4554.150457,-518.144159,-9039.926876,814.226536
4554.150781,-592.164754,-8580.269578,-148.041188
4554.151105,-296.082377,-8580.269578,-370.102971
4554.151430,0.000000,-8120.612279,-296.082377
4554.151754,370.102971,-8733.488677,370.102971
4554.152079,1110.308913,-8197.221829,444.123565
4554.152403,1628.453072,-8503.660028,592.164754
4554.152727,1702.473667,-8427.050478,518.144159
4554.153052,1332.370696,-8963.317327,740.205942
4554.153376,1110.308913,-8120.612279,814.226536
4554.153701,296.082377,-8886.707777,0.000000
4554.154025,-370.102971,-8733.488677,0.000000
4554.154349,-592.164754,-8733.488677,-444.123565
4554.154674,-296.082377,-8273.831378,-888.247130
4554.154998,-222.061783,-8810.098227,-444.123565
4554.155323,222.061783,-8810.098227,-296.082377
4554.155647,962.267725,-8580.269578,0.000000
4554.155971,1406.391290,-8733.488677,296.082377
4554.156296,1480.411884,-8350.440928,592.164754
4554.156620,1776.494261,-8733.488677,592.164754
4554.156944,1184.329507,-8656.879127,592.164754
4554.157269,666.185348,-8886.707777,0.000000
4554.157593,0.000000,-8503.660028,0.000000
4554.157918,-296.082377,-8733.488677,-814.226536
4554.158242,-592.164754,-8733.488677,-814.226536
4554.158566,-592.164754,-8656.879127,-814.226536
4554.158891,0.000000,-8656.879127,-592.164754
4554.159215,888.247130,-8580.269578,-370.102971
4554.159540,1184.329507,-8427.050478,-222.061783
4554.159864,1776.494261,-8810.098227,0.000000
4554.160188,1628.453072,-8886.707777,296.082377
4554.160513,1480.411884,-9116.536426,592.164754
4554.160837,592.164754,-8810.098227,74.020594
4554.161162,74.020594,-9039.926876,-370.102971
4554.161486,-296.082377,-8580.269578,-518.144159
4554.161810,-370.102971,-9116.536426,-962.267725
4554.162135,-1110.308913,-8427.050478,-962.267725
4554.162459,-518.144159,-8580.269578,-666.185348
4554.162784,148.041188,-8197.221829,-666.185348
4554.163108,740.205942,-8273.831378,-444.123565
4554.163432,1332.370696,-8733.488677,0.000000
4554.163757,1850.514855,-8350.440928,222.061783
4554.164081,1554.432478,-8350.440928,296.082377
4554.164406,1184.329507,-8733.488677,296.082377
4554.164730,888.247130,-8733.488677,0.000000
4554.165054,0.000000,-8810.098227,0.000000
4554.165379,-888.247130,-8656.879127,-518.144159
4554.165703,-814.226536,-8503.660028,-740.205942
4554.166028,-740.205942,-8503.660028,-1110.308913
4554.166352,0.000000,-8120.612279,-592.164754
4554.166676,222.061783,-8350.440928,-222.061783
4554.167001,1184.329507,-8580.269578,148.041188
4554.167325,1702.473667,-8350.440928,444.123565
4554.167650,1406.391290,-8810.098227,666.185348
4554.167974,1110.308913,-8810.098227,296.082377
4554.168298,666.185348,-8733.488677,444.123565
4554.168623,222.061783,-8886.707777,0.000000
4554.168947,-370.102971,-8810.098227,0.000000
4554.169272,-1036.288319,-8656.879127,-518.144159
4554.169596,-1036.288319,-8733.488677,-740.205942
4554.169920,-222.061783,-8350.440928,-592.164754
4554.170245,370.102971,-8580.269578,-592.164754
4554.170569,1110.308913,-8427.050478,0.000000
4554.170894,1480.411884,-8580.269578,370.102971
4554.171218,1406.391290,-8656.879127,592.164754
4554.171542,1332.370696,-8656.879127,444.123565
4554.171867,1110.308913,-9039.926876,592.164754
4554.172191,518.144159,-8886.707777,0.000000
4554.172515,-296.082377,-8656.879127,0.000000
4554.172840,-962.267725,-8886.707777,-222.061783
4554.173164,-814.226536,-8427.050478,-148.041188
4554.173489,-888.247130,-8503.660028,-888.247130
4554.173813,-296.082377,-8886.707777,-370.102971
4554.174137,740.205942,-8273.831378,-518.144159
4554.174462,1406.391290,-8503.660028,0.000000
4554.174786,1702.473667,-8656.879127,0.000000
4554.175111,1628.453072,-8580.269578,518.144159
4554.175435,1184.329507,-9039.926876,518.144159
4554.175759,888.247130,-8963.317327,222.061783
4554.176084,370.102971,-9269.755526,370.102971
4554.176408,-518.144159,-8810.098227,-222.061783
4554.176733,-962.267725,-9039.926876,-666.185348
4554.177057,-962.267725,-8580.269578,-888.247130
4554.177381,74.020594,-8427.050478,-814.226536
4554.177706,222.061783,-8350.440928,-370.102971
4554.178030,518.144159,-8503.660028,0.000000
4554.178355,1406.391290,-8656.879127,74.020594
4554.178679,1406.391290,-8197.221829,370.102971
4554.179003,1332.370696,-8656.879127,962.267725
4554.179328,1110.308913,-8810.098227,518.144159
4554.179652,370.102971,-8810.098227,222.061783
4554.179977,-370.102971,-8580.269578,-148.041188
4554.180301,-740.205942,-8503.660028,-592.164754
4554.180625,-1110.308913,-8810.098227,-814.226536
4554.180950,-740.205942,-8656.879127,-370.102971
4554.181274,-74.020594,-8120.612279,-592.164754
4554.181599,222.061783,-7890.783629,0.000000
4554.181923,962.267725,-8120.612279,0.000000
4554.182247,1332.370696,-8350.440928,296.082377
4554.182572,1702.473667,-8273.831378,518.144159
4554.182896,1406.391290,-8503.660028,518.144159
4554.183221,888.247130,-8427.050478,222.061783
4554.183545,0.000000,-8656.879127,0.000000
4554.183869,-296.082377,-8503.660028,-444.123565
4554.184194,-888.247130,-8427.050478,-666.185348
4554.184518,-592.164754,-8273.831378,-740.205942
4554.184843,-666.185348,-8197.221829,-740.205942
4554.185167,-148.041188,-8503.660028,-518.144159
4554.185491,666.185348,-8273.831378,-296.082377
4554.185816,1332.370696,-8733.488677,-148.041188
4554.186140,1480.411884,-8273.831378,296.082377
4554.186465,1258.350101,-8427.050478,592.164754
4554.186789,888.247130,-8733.488677,296.082377
4554.187113,296.082377,-8350.440928,0.000000
4554.187438,-444.123565,-8503.660028,-518.144159
4554.187762,-740.205942,-8580.269578,-518.144159
4554.188086,-740.205942,-8197.221829,-1258.350101
4554.188411,-740.205942,-8503.660028,-666.185348
4554.188735,0.000000,-8120.612279,-740.205942
4554.189060,592.164754,-8580.269578,-518.144159
4554.189384,1036.288319,-8427.050478,-370.102971
4554.189708,1480.411884,-8580.269578,148.041188
4554.190033,1406.391290,-8120.612279,296.082377
4554.190357,1110.308913,-8503.660028,296.082377
4554.190682,592.164754,-8503.660028,0.000000
4554.191006,222.061783,-9193.145976,-222.061783
4554.191330,-592.164754,-8656.879127,-962.267725
4554.191655,-370.102971,-8273.831378,-814.226536
4554.191979,-888.247130,-8503.660028,-962.267725
4554.192304,-518.144159,-8810.098227,-1406.391290
4554.192628,0.000000,-8273.831378,-1036.288319
4554.192952,1332.370696,-8656.879127,-444.123565
4554.193277,1406.391290,-8427.050478,-222.061783
4554.193601,1924.535449,-8810.098227,0.000000
4554.193926,1850.514855,-8733.488677,0.000000
4554.194250,1110.308913,-8656.879127,148.041188
4554.194574,444.123565,-8733.488677,-518.144159
4554.194899,0.000000,-8886.707777,-444.123565
4554.195223,-518.144159,-8503.660028,-666.185348
4554.195548,-814.226536,-9039.926876,-1406.391290
4554.195872,-222.061783,-8733.488677,-2072.576638
4554.196196,0.000000,-8427.050478,-1110.308913
4554.196521,740.205942,-8503.660028,-1110.308913
4554.196845,1184.329507,-8427.050478,-370.102971
4554.197170,1702.473667,-7584.345430,0.000000
4554.197494,1998.556043,-8580.269578,0.000000
4554.197818,1480.411884,-8580.269578,0.000000
4554.198143,888.247130,-8886.707777,0.000000
4554.198467,518.144159,-8350.440928,-370.102971
4554.198792,-296.082377,-8886.707777,-888.247130
4554.199116,-592.164754,-8963.317327,-1110.308913
4554.199440,-518.144159,-8656.879127,-1184.329507
4554.199765,-296.082377,-8580.269578,-1184.329507
4554.200089,518.144159,-8273.831378,-592.164754
4554.200414,1110.308913,-8427.050478,-296.082377
4554.200738,1628.453072,-8273.831378,-148.041188
4554.201062,1998.556043,-8197.221829,74.020594
4554.201387,1628.453072,-8733.488677,222.061783
4554.201711,1110.308913,-8656.879127,296.082377
4554.202036,592.164754,-8580.269578,0.000000
4554.202360,0.000000,-9039.926876,-370.102971
4554.202684,-370.102971,-8503.660028,-740.205942
4554.203009,-1036.288319,-8350.440928,-740.205942
4554.203333,-296.082377,-8427.050478,-1110.308913
4554.203657,0.000000,-8273.831378,-592.164754
4554.203982,444.123565,-8503.660028,-444.123565
4554.204306,1184.329507,-8044.002729,148.041188
4554.204631,1702.473667,-8120.612279,0.000000
4554.204955,1850.514855,-8656.879127,370.102971
4554.205279,1628.453072,-8580.269578,148.041188
4554.205604,814.226536,-8580.269578,296.082377
4554.205928,222.061783,-8427.050478,-222.061783
4554.206253,-370.102971,-8656.879127,-814.226536
4554.206577,-814.226536,-8580.269578,-962.267725
4554.206901,-666.185348,-8656.879127,-888.247130
4554.207226,-518.144159,-8120.612279,-962.267725
4554.207550,296.082377,-8273.831378,-666.185348
4554.207875,888.247130,-8273.831378,-370.102971
4554.208199,1184.329507,-8503.660028,-148.041188
4554.208523,1702.473667,-7890.783629,0.000000
4554.208848,1480.411884,-8120.612279,296.082377
4554.209172,1258.350101,-8580.269578,74.020594
4554.209497,296.082377,-8656.879127,-518.144159
4554.209821,0.000000,-8656.879127,-592.164754
4554.210145,-740.205942,-8656.879127,-962.267725
4554.210470,-666.185348,-9116.536426,-1258.350101
4554.210794,-444.123565,-8273.831378,-1184.329507
4554.211119,0.000000,-8503.660028,-962.267725
4554.211443,740.205942,-8197.221829,-814.226536
4554.211767,1332.370696,-8503.660028,-518.144159
4554.212092,1776.494261,-8427.050478,0.000000
4554.212416,1776.494261,-8120.612279,0.000000
4554.212741,1332.370696,-9346.365076,0.000000
4554.213065,962.267725,-8810.098227,-370.102971
4554.213389,0.000000,-8580.269578,-518.144159
4554.213714,-296.082377,-8733.488677,-1110.308913
4554.214038,-666.185348,-8963.317327,-1036.288319
4554.214363,-814.226536,-8810.098227,-814.226536
4554.214687,-296.082377,-8733.488677,-1110.308913
4554.215011,592.164754,-8427.050478,-814.226536
4554.215336,814.226536,-8886.707777,-814.226536
4554.215660,1776.494261,-8656.879127,-518.144159
4554.215985,1406.391290,-8427.050478,0.000000
4554.216309,1406.391290,-8963.317327,0.000000
4554.216633,888.247130,-8580.269578,-222.061783
4554.216958,444.123565,-8810.098227,-666.185348
4554.217282,0.000000,-9116.536426,-962.267725
4554.217607,-592.164754,-8503.660028,-1110.308913
4554.217931,-370.102971,-8810.098227,-1332.370696
4554.218255,-444.123565,-8197.221829,-1332.370696
4554.218580,0.000000,-8427.050478,-444.123565
4554.218904,444.123565,-8273.831378,-888.247130
4554.219228,888.247130,-8273.831378,-296.082377
4554.219553,1258.350101,-8656.879127,-148.041188
4554.219877,1406.391290,-9576.193725,-370.102971
4554.220202,1184.329507,-8810.098227,74.020594
4554.220526,888.247130,-8656.879127,-444.123565
4554.220850,222.061783,-9116.536426,-370.102971
4554.221175,-518.144159,-8580.269578,-814.226536
4554.221499,-888.247130,-8963.317327,-740.205942
4554.221824,-518.144159,-8580.269578,-1036.288319
4554.222148,0.000000,-8197.221829,-962.267725
4554.222472,148.041188,-8350.440928,-592.164754
4554.222797,444.123565,-8580.269578,74.020594
4554.223121,1258.350101,-8503.660028,-148.041188
4554.223446,1332.370696,-8810.098227,0.000000
4554.223770,1258.350101,-8580.269578,148.041188
4554.224094,1036.288319,-9499.584175,148.041188
4554.224419,444.123565,-8886.707777,-222.061783
4554.224743,0.000000,-8580.269578,-444.123565
4554.225068,-592.164754,-8656.879127,-962.267725
4554.225392,-592.164754,-8580.269578,-1184.329507
4554.225716,0.000000,-8273.831378,-1036.288319
4554.226041,0.000000,-8197.221829,-740.205942
4554.226365,592.164754,-8427.050478,-518.144159
4554.226690,1110.308913,-8503.660028,-592.164754
4554.227014,1924.535449,-8273.831378,-370.102971
4554.227338,1480.411884,-8503.660028,0.000000
4554.227663,1184.329507,-8963.317327,0.000000
4554.227987,518.144159,-8886.707777,0.000000
4554.228312,222.061783,-9039.926876,-962.267725
4554.228636,-148.041188,-8656.879127,-962.267725
4554.228960,-518.144159,-8580.269578,-962.267725
4554.229285,-370.102971,-8886.707777,-888.247130
4554.229609,0.000000,-8197.221829,-888.247130
4554.229934,592.164754,-8273.831378,-740.205942
4554.230257,1110.308913,-8580.269578,-962.267725
4554.230582,1480.411884,-8580.269578,-370.102971
4554.230906,1924.535449,-8427.050478,0.000000
4554.231230,1480.411884,-8350.440928,0.000000
4554.231555,1184.329507,-8810.098227,-444.123565
4554.231879,148.041188,-8963.317327,-296.082377
4554.232203,-444.123565,-8580.269578,-962.267725
4554.232528,-592.164754,-8733.488677,-1110.308913
4554.232852,-592.164754,-8580.269578,-1776.494261
4554.233176,-148.041188,-8427.050478,-962.267725
4554.233501,0.000000,-8273.831378,-1110.308913
4554.233825,592.164754,-8656.879127,-814.226536
4554.234149,1554.432478,-8580.269578,-740.205942
4554.234474,1480.411884,-8656.879127,-148.041188
4554.234798,1702.473667,-8580.269578,0.000000
4554.235122,1184.329507,-8656.879127,74.020594
4554.235447,962.267725,-9269.755526,0.000000
4554.235771,0.000000,-8580.269578,-814.226536
4554.236095,-666.185348,-8963.317327,-962.267725
4554.236420,-518.144159,-8810.098227,-888.247130
4554.236744,-592.164754,-8427.050478,-1480.411884
4554.237068,-74.020594,-8810.098227,-888.247130
4554.237393,444.123565,-8197.221829,-740.205942
4554.237717,888.247130,-8580.269578,-592.164754
4554.238041,1554.432478,-8656.879127,-370.102971
4554.238366,1258.350101,-8580.269578,592.164754
4554.238690,1258.350101,-8580.269578,148.041188
4554.239014,740.205942,-9116.536426,-148.041188
4554.239339,592.164754,-8810.098227,-370.102971
4554.239663,0.000000,-9422.974625,-740.205942
4554.239987,-370.102971,-8963.317327,-740.205942
4554.240312,-962.267725,-8503.660028,-1036.288319
4554.240636,-518.144159,-8580.269578,-962.267725
4554.240960,0.000000,-8273.831378,-666.185348
4554.241285,148.041188,-8273.831378,-666.185348
4554.241609,1258.350101,-8273.831378,0.000000
4554.241933,1628.453072,-8350.440928,0.000000
4554.242258,1480.411884,-8963.317327,296.082377
4554.242582,1110.308913,-9039.926876,444.123565
4554.242906,814.226536,-8733.488677,-148.041188
4554.243231,74.020594,-9039.926876,-296.082377
4554.243555,-444.123565,-8350.440928,-888.247130
4554.243879,-518.144159,-8963.317327,-666.185348
4554.244204,-814.226536,-8350.440928,-1110.308913
4554.244528,-296.082377,-8427.050478,-592.164754
4554.244852,666.185348,-8350.440928,-740.205942
4554.245177,1184.329507,-8733.488677,-296.082377
4554.245501,1480.411884,-8580.269578,0.000000
4554.245825,1850.514855,-8656.879127,0.000000
4554.246150,1554.432478,-8656.879127,148.041188
4554.246474,1184.329507,-8810.098227,0.000000
4554.246798,148.041188,-8886.707777,74.020594
4554.247123,0.000000,-8656.879127,-296.082377
4554.247447,-666.185348,-9039.926876,-814.226536
4554.247771,-518.144159,-9039.926876,-1184.329507
4554.248096,-148.041188,-8197.221829,-666.185348
4554.248420,222.061783,-8197.221829,-518.144159
4554.248744,814.226536,-8580.269578,-370.102971
4554.249069,1554.432478,-8580.269578,0.000000
4554.249393,1702.473667,-8580.269578,0.000000
4554.249717,1406.391290,-8044.002729,0.000000
4554.250042,1406.391290,-8810.098227,0.000000
4554.250366,888.247130,-8810.098227,-296.082377
4554.250690,0.000000,-9116.536426,-296.082377
4554.251015,-592.164754,-9116.536426,-518.144159
4554.251339,-740.205942,-8963.317327,-888.247130
4554.251663,-370.102971,-8733.488677,-1184.329507
4554.251988,0.000000,-8733.488677,-518.144159
4554.252312,444.123565,-8044.002729,-444.123565
4554.252636,962.267725,-8350.440928,-296.082377
4554.252961,1554.432478,-8503.660028,0.000000
4554.253285,1702.473667,-8580.269578,0.000000
4554.253609,1628.453072,-8886.707777,74.020594
4554.253934,1036.288319,-8580.269578,0.000000
4554.254258,222.061783,-8656.879127,-296.082377
4554.254582,-296.082377,-8886.707777,-592.164754
4554.254907,-518.144159,-8810.098227,-814.226536
4554.255231,-962.267725,-8656.879127,-1110.308913
4554.255555,-296.082377,-8580.269578,-888.247130
4554.255880,74.020594,-8503.660028,-518.144159
4554.256204,592.164754,-8273.831378,-444.123565
4554.256528,1258.350101,-8733.488677,-148.041188
4554.256853,1480.411884,-8503.660028,0.000000
4554.257177,1554.432478,-8656.879127,296.082377
4554.257501,1184.329507,-8273.831378,74.020594
4554.257826,518.144159,-8886.707777,0.000000
4554.258150,0.000000,-8427.050478,0.000000
4554.258474,-592.164754,-8503.660028,-740.205942
4554.258799,-592.164754,-8656.879127,-740.205942
4554.259123,-518.144159,-8656.879127,-962.267725
4554.259447,-296.082377,-8733.488677,0.000000
4554.259772,296.082377,-8503.660028,0.000000
4554.260096,962.267725,-8503.660028,-148.041188
4554.260420,1554.432478,-8427.050478,74.020594
4554.260745,1850.514855,-8503.660028,518.144159
4554.261069,1184.329507,-8197.221829,592.164754
4554.261393,888.247130,-8810.098227,370.102971
4554.261718,296.082377,-8580.269578,74.020594
4554.262042,-222.061783,-8273.831378,-296.082377
4554.262366,0.000000,-8810.098227,-592.164754
4554.262691,-518.144159,-8580.269578,-666.185348
4554.263015,-296.082377,-8580.269578,-518.144159
4554.263339,0.000000,-8580.269578,-666.185348
4554.263664,666.185348,-8503.660028,-370.102971
4554.263988,1406.391290,-8580.269578,0.000000
4554.264312,1628.453072,-8503.660028,222.061783
4554.264637,1332.370696,-8273.831378,740.205942
4554.264961,1036.288319,-8886.707777,370.102971
4554.265285,814.226536,-8580.269578,222.061783
4554.265610,74.020594,-8963.317327,-222.061783
4554.265934,-444.123565,-8733.488677,-518.144159
4554.266258,-888.247130,-8810.098227,-666.185348
4554.266583,-148.041188,-8044.002729,-518.144159
4554.266907,-296.082377,-8503.660028,-814.226536
4554.267231,222.061783,-8273.831378,-518.144159
4554.267556,888.247130,-8656.879127,0.000000
4554.267880,1332.370696,-8120.612279,148.041188
4554.268204,1184.329507,-8273.831378,592.164754
4554.268529,1406.391290,-8580.269578,0.000000
4554.268853,740.205942,-8733.488677,74.020594
4554.269177,74.020594,-8580.269578,0.000000
4554.269502,-222.061783,-9039.926876,0.000000
4554.269826,-740.205942,-8886.707777,-666.185348
4554.270150,-666.185348,-8886.707777,-888.247130
4554.270475,-740.205942,-8350.440928,-888.247130
4554.270799,0.000000,-8810.098227,-296.082377
4554.271123,740.205942,-8427.050478,-592.164754
4554.271448,1184.329507,-8350.440928,0.000000
4554.271772,1184.329507,-8273.831378,0.000000
4554.272096,1184.329507,-8427.050478,444.123565
4554.272421,1110.308913,-8503.660028,74.020594
4554.272745,444.123565,-8733.488677,0.000000
4554.273069,-148.041188,-8886.707777,0.000000
4554.273394,-1110.308913,-8427.050478,-592.164754
4554.273718,-666.185348,-9193.145976,-962.267725
4554.274042,-888.247130,-8273.831378,-1110.308913
4554.274367,-592.164754,-9039.926876,-740.205942
4554.274691,370.102971,-8350.440928,-296.082377
4554.275015,1036.288319,-8733.488677,0.000000
4554.275340,1184.329507,-8503.660028,74.020594
4554.275664,1258.350101,-8120.612279,370.102971
4554.275988,1258.350101,-8580.269578,444.123565
4554.276313,888.247130,-8503.660028,74.020594
4554.276637,222.061783,-8810.098227,0.000000
4554.276961,-74.020594,-8503.660028,-148.041188
4554.277286,-518.144159,-8580.269578,-444.123565
4554.277610,-518.144159,-8503.660028,-518.144159
4554.277934,0.000000,-8503.660028,-370.102971
4554.278259,296.082377,-8044.002729,-222.061783
4554.278583,740.205942,-8503.660028,-74.020594
4554.278907,1184.329507,-8197.221829,74.020594
4554.279232,2072.576638,-8427.050478,592.164754
4554.279556,1554.432478,-8503.660028,296.082377
4554.279880,962.267725,-8886.707777,444.123565
4554.280205,74.020594,-8580.269578,370.102971
4554.280529,-222.061783,-8963.317327,148.041188
4554.280853,-518.144159,-8350.440928,-370.102971
4554.281178,-740.205942,-9116.536426,-814.226536
4554.281502,-444.123565,-8580.269578,-518.144159
4554.281826,0.000000,-8197.221829,-518.144159
4554.282151,740.205942,-9499.584175,148.041188
4554.282475,1036.288319,-8656.879127,0.000000
4554.282799,1406.391290,-8350.440928,148.041188
4554.283124,1480.411884,-8733.488677,444.123565
4554.283448,1036.288319,-9039.926876,148.041188
4554.283772,814.226536,-8810.098227,148.041188
4554.284097,74.020594,-8580.269578,0.000000
4554.284421,-148.041188,-8963.317327,-222.061783
4554.284745,-592.164754,-8886.707777,-814.226536
4554.285070,-592.164754,-9039.926876,-518.144159
4554.285394,-370.102971,-8427.050478,-814.226536
4554.285718,0.000000,-8810.098227,-888.247130
4554.286043,518.144159,-8350.440928,-518.144159
4554.286367,1332.370696,-8503.660028,0.000000
4554.286691,1258.350101,-8656.879127,0.000000
4554.287016,1480.411884,-8810.098227,296.082377
4554.287340,888.247130,-8733.488677,74.020594
4554.287664,370.102971,-8963.317327,148.041188
4554.287989,0.000000,-8656.879127,-370.102971
4554.288313,-592.164754,-8886.707777,-666.185348
4554.288637,-518.144159,-8350.440928,-962.267725
4554.288962,-814.226536,-8503.660028,-666.185348
4554.289286,-370.102971,-8427.050478,-666.185348
4554.289610,148.041188,-8427.050478,-444.123565
4554.289935,1332.370696,-8580.269578,0.000000
4554.290259,1628.453072,-8503.660028,0.000000
4554.290583,1776.494261,-8580.269578,0.000000
4554.290908,1628.453072,-8580.269578,296.082377
4554.291232,666.185348,-8580.269578,148.041188
4554.291556,518.144159,-8810.098227,0.000000
4554.291881,-444.123565,-8656.879127,-444.123565
4554.292205,-296.082377,-8810.098227,-444.123565
4554.292529,-666.185348,-8656.879127,-740.205942
4554.292854,-444.123565,-8503.660028,-148.041188
4554.293178,222.061783,-8350.440928,-222.061783
4554.293502,444.123565,-8197.221829,-222.061783
4554.293827,1554.432478,-8580.269578,518.144159
4554.294151,1702.473667,-8273.831378,444.123565
4554.294475,1406.391290,-8656.879127,518.144159
4554.294800,1036.288319,-8580.269578,222.061783
4554.295124,444.123565,-8733.488677,74.020594
4554.295448,0.000000,-8580.269578,0.000000
4554.295773,-296.082377,-8503.660028,-370.102971
4554.296097,-592.164754,-8656.879127,-370.102971
4554.296421,-370.102971,-8273.831378,-1036.288319
4554.296746,0.000000,-8656.879127,-370.102971
4554.297070,518.144159,-8120.612279,-296.082377
4554.297394,1258.350101,-8197.221829,74.020594
4554.297719,1628.453072,-8580.269578,0.000000
4554.298043,1628.453072,-8197.221829,444.123565
4554.298367,1258.350101,-8656.879127,74.020594
4554.298692,666.185348,-9039.926876,-222.061783
4554.299016,148.041188,-9422.974625,0.000000
4554.299340,0.000000,-8427.050478,-592.164754
4554.299665,-592.164754,-8810.098227,-888.247130
4554.299989,-666.185348,-8733.488677,-962.267725
4554.300313,-592.164754,-8733.488677,-592.164754
4554.300638,296.082377,-8810.098227,-592.164754
4554.300962,666.185348,-8427.050478,-222.061783
4554.301286,1184.329507,-8733.488677,0.000000
4554.301611,1406.391290,-8273.831378,74.020594
4554.301935,1258.350101,-9499.584175,296.082377
4554.302259,962.267725,-8963.317327,74.020594
4554.302584,740.205942,-8656.879127,-296.082377
4554.302908,0.000000,-8886.707777,-518.144159
4554.303232,-370.102971,-8810.098227,-814.226536
4554.303557,-666.185348,-8810.098227,-1036.288319
4554.303881,-296.082377,-8656.879127,-962.267725
4554.304205,0.000000,-8503.660028,-962.267725
4554.304530,666.185348,-8580.269578,-518.144159
4554.304854,1258.350101,-8810.098227,-740.205942
4554.305178,1628.453072,-8656.879127,-296.082377
4554.305503,1628.453072,-8733.488677,0.000000
4554.305827,1332.370696,-8810.098227,0.000000
4554.306151,666.185348,-8733.488677,0.000000
4554.306476,148.041188,-8886.707777,-592.164754
4554.306800,0.000000,-8733.488677,-814.226536
4554.307124,-444.123565,-8886.707777,-1258.350101
4554.307449,-222.061783,-8656.879127,-1332.370696
4554.307773,-222.061783,-8197.221829,-888.247130
4554.308097,296.082377,-8580.269578,-666.185348
4554.308422,1110.308913,-8197.221829,-592.164754
4554.308746,1480.411884,-8273.831378,-222.061783
4554.309070,1406.391290,-8197.221829,-222.061783
4554.309395,1406.391290,-8503.660028,0.000000
4554.309719,962.267725,-8580.269578,0.000000
4554.310043,444.123565,-8810.098227,-370.102971
4554.310368,0.000000,-9193.145976,-444.123565
4554.310692,-222.061783,-8656.879127,-1036.288319
4554.311016,-370.102971,-8656.879127,-1110.308913
4554.311341,-296.082377,-8810.098227,-1110.308913
4554.311665,0.000000,-8427.050478,-1036.288319
4554.311989,666.185348,-8273.831378,-518.144159
4554.312314,1184.329507,-8503.660028,-444.123565
4554.312638,1258.350101,-8656.879127,-222.061783
4554.312962,1554.432478,-8120.612279,222.061783
4554.313287,1332.370696,-8273.831378,222.061783
4554.313611,740.205942,-8580.269578,0.000000
4554.313935,0.000000,-8810.098227,0.000000
4554.314260,-296.082377,-8886.707777,-222.061783
4554.314584,-518.144159,-9116.536426,-592.164754
4554.314908,-888.247130,-8580.269578,-666.185348
4554.315233,-296.082377,-8733.488677,-444.123565
4554.315557,148.041188,-8273.831378,-592.164754
4554.315881,888.247130,-8580.269578,-444.123565
4554.316206,1184.329507,-8580.269578,222.061783
4554.316530,1332.370696,-8427.050478,148.041188
4554.316854,1110.308913,-9039.926876,518.144159
4554.317179,1036.288319,-8656.879127,148.041188
4554.317503,666.185348,-9499.584175,592.164754
4554.317827,222.061783,-8886.707777,-740.205942
4554.318152,-296.082377,-8580.269578,-222.061783
4554.318476,-148.041188,-8656.879127,-962.267725
4554.318800,-296.082377,-9039.926876,-740.205942
4554.319125,222.061783,-8656.879127,-888.247130
4554.319449,518.144159,-8810.098227,-814.226536
4554.319773,1258.350101,-8197.221829,-148.041188
4554.320098,1258.350101,-8427.050478,-148.041188
4554.320422,1184.329507,-8810.098227,296.082377
4554.320746,814.226536,-8503.660028,0.000000
4554.321071,518.144159,-8810.098227,-222.061783
4554.321395,74.020594,-8810.098227,-518.144159
4554.321719,-370.102971,-8810.098227,-222.061783
4554.322044,-296.082377,-8963.317327,-666.185348
4554.322368,-518.144159,-8350.440928,-1036.288319
4554.322692,222.061783,-8580.269578,-1110.308913
4554.323017,148.041188,-8350.440928,-1036.288319
4554.323341,1110.308913,-8273.831378,-518.144159
4554.323665,1036.288319,-8427.050478,-370.102971
4554.323990,1406.391290,-8810.098227,-222.061783
4554.324314,1406.391290,-8580.269578,0.000000
4554.324638,1110.308913,-8810.098227,0.000000
4554.324963,592.164754,-8656.879127,-518.144159
4554.325287,0.000000,-8733.488677,-592.164754
4554.325611,-148.041188,-8580.269578,-962.267725
4554.325936,-740.205942,-8350.440928,-518.144159
4554.326260,-296.082377,-8580.269578,-1184.329507
4554.326584,148.041188,-8273.831378,-814.226536
4554.326909,814.226536,-8273.831378,-592.164754
4554.327233,1036.288319,-8656.879127,-370.102971
4554.327557,1036.288319,-8427.050478,-148.041188
4554.327882,1628.453072,-8580.269578,-148.041188
4554.328206,1110.308913,-8580.269578,0.000000
4554.328530,370.102971,-8886.707777,-148.041188
4554.328855,0.000000,-7967.393179,-592.164754
4554.329179,-518.144159,-8656.879127,-518.144159
4554.329503,-370.102971,-8427.050478,-1258.350101
4554.329828,-518.144159,-8656.879127,-1110.308913
4554.330152,0.000000,-8427.050478,-888.247130
4554.330476,296.082377,-8197.221829,-518.144159
4554.330801,592.164754,-8580.269578,-592.164754
4554.331125,1184.329507,-8503.660028,-222.061783
4554.331450,1406.391290,-8273.831378,0.000000
4554.331774,1184.329507,-8733.488677,0.000000
4554.332098,592.164754,-8427.050478,0.000000
4554.332423,222.061783,-8427.050478,-296.082377
4554.332747,-222.061783,-8580.269578,-592.164754
4554.333072,-222.061783,-8580.269578,-888.247130
4554.333396,-592.164754,-8963.317327,-962.267725
4554.333720,-370.102971,-7967.393179,-888.247130
4554.334045,0.000000,-8197.221829,-444.123565
4554.334369,296.082377,-8580.269578,-296.082377
4554.334694,814.226536,-8120.612279,-148.041188
4554.335018,1258.350101,-8656.879127,0.000000
4554.335343,1332.370696,-8580.269578,148.041188
4554.335667,1110.308913,-8580.269578,74.020594
4554.335991,222.061783,-8810.098227,0.000000
4554.336316,148.041188,-8656.879127,0.000000
4554.336640,0.000000,-8886.707777,-740.205942
4554.336965,-296.082377,-8886.707777,-1258.350101
4554.337289,0.000000,-7890.783629,-666.185348
4554.337613,0.000000,-8350.440928,-814.226536
4554.337938,370.102971,-8503.660028,-962.267725
4554.338262,1258.350101,-8273.831378,-370.102971
4554.338587,1554.432478,-8656.879127,-370.102971
4554.338911,1628.453072,-8733.488677,-296.082377
4554.339235,1406.391290,-8733.488677,-444.123565
4554.339560,962.267725,-8733.488677,-370.102971
4554.339884,148.041188,-9039.926876,-592.164754
4554.340209,-370.102971,-8886.707777,-1184.329507
4554.340533,-666.185348,-8733.488677,-1258.350101
4554.340858,-592.164754,-8350.440928,-1036.288319
4554.341182,-370.102971,-9039.926876,-1036.288319
4554.341506,814.226536,-8810.098227,-1184.329507
4554.341831,888.247130,-8810.098227,-814.226536
4554.342155,1184.329507,-8810.098227,-148.041188
4554.342480,1554.432478,-8350.440928,-148.041188
4554.342804,1628.453072,-8810.098227,0.000000
4554.343128,1258.350101,-8656.879127,-370.102971
4554.343453,666.185348,-8503.660028,-740.205942
4554.343777,0.000000,-8963.317327,-888.247130
4554.344102,-222.061783,-8503.660028,-888.247130
4554.344426,-148.041188,-9269.755526,-1258.350101
4554.344751,-148.041188,-8810.098227,-1332.370696
4554.345075,74.020594,-8427.050478,-1184.329507
4554.345399,888.247130,-8580.269578,-1036.288319
4554.345724,1406.391290,-8273.831378,-666.185348
4554.346048,1628.453072,-8656.879127,0.000000
4554.346373,1406.391290,-8733.488677,-370.102971
4554.346697,1036.288319,-8656.879127,0.000000
4554.347021,592.164754,-8350.440928,-222.061783
4554.347346,0.000000,-8503.660028,-296.082377
4554.347670,-518.144159,-8427.050478,-740.205942
4554.347995,-814.226536,-8733.488677,-518.144159
4554.348319,-666.185348,-8580.269578,-888.247130
4554.348643,222.061783,-7814.174080,-592.164754
4554.348968,296.082377,-8427.050478,-666.185348
4554.349292,814.226536,-8273.831378,74.020594
4554.349617,1110.308913,-7890.783629,0.000000
4554.349941,1554.432478,-7890.783629,222.061783
4554.350266,1332.370696,-8044.002729,370.102971
4554.350590,962.267725,-8656.879127,0.000000
4554.350914,444.123565,-8580.269578,0.000000
4554.351239,0.000000,-8273.831378,0.000000
4554.351563,-444.123565,-8427.050478,-518.144159
4554.351888,-592.164754,-8427.050478,-666.185348
4554.352212,-74.020594,-8273.831378,-518.144159
4554.352536,74.020594,-8503.660028,-370.102971
4554.352861,370.102971,-7967.393179,222.061783
4554.353185,814.226536,-8427.050478,222.061783
4554.353510,1258.350101,-8120.612279,74.020594
4554.353834,1554.432478,-8350.440928,518.144159
4554.354159,1258.350101,-8427.050478,148.041188
4554.354483,592.164754,-8120.612279,222.061783
4554.354807,-222.061783,-8503.660028,0.000000
4554.355132,-148.041188,-8733.488677,-296.082377
4554.355456,-592.164754,-8503.660028,-444.123565
4554.355781,-740.205942,-8197.221829,-962.267725
4554.356105,-592.164754,-8273.831378,-592.164754
4554.356429,0.000000,-8503.660028,-518.144159
4554.356754,666.185348,-8427.050478,-296.082377
4554.357078,1554.432478,-7967.393179,-222.061783
4554.357403,1628.453072,-8503.660028,-296.082377
4554.357727,1628.453072,-8503.660028,74.020594
4554.358052,1332.370696,-8580.269578,-74.020594
4554.358376,592.164754,-8963.317327,-370.102971
4554.358700,222.061783,-9116.536426,-666.185348
4554.359025,-296.082377,-8733.488677,-888.247130
4554.359349,-592.164754,-8963.317327,-1110.308913
4554.359674,-370.102971,-8656.879127,-1036.288319
4554.359998,148.041188,-8197.221829,-666.185348
4554.360322,296.082377,-8810.098227,-666.185348
4554.360647,1406.391290,-8580.269578,-444.123565
4554.360971,1406.391290,-8580.269578,-296.082377
4554.361296,2072.576638,-8273.831378,148.041188
4554.361620,1406.391290,-8503.660028,74.020594
4554.361944,740.205942,-8963.317327,0.000000
4554.362269,74.020594,-8886.707777,-814.226536
4554.362593,-148.041188,-8656.879127,-592.164754
4554.362918,-666.185348,-8656.879127,-666.185348
4554.363242,-592.164754,-8886.707777,-888.247130
4554.363567,-222.061783,-8580.269578,-666.185348
4554.363891,296.082377,-8580.269578,-370.102971
4554.364215,1036.288319,-8810.098227,-148.041188
4554.364540,1258.350101,-8733.488677,-222.061783
4554.364864,1554.432478,-8273.831378,222.061783
4554.365189,1184.329507,-8427.050478,148.041188
4554.365513,888.247130,-8886.707777,-296.082377
4554.365837,296.082377,-8656.879127,0.000000
4554.366162,0.000000,-8733.488677,-444.123565
4554.366486,-444.123565,-8963.317327,-518.144159
4554.366811,-296.082377,-8733.488677,-740.205942
4554.367135,-148.041188,-8580.269578,-518.144159
4554.367460,74.020594,-8273.831378,-444.123565
4554.367784,814.226536,-8273.831378,-666.185348
4554.368108,1110.308913,-8503.660028,-370.102971
4554.368433,1554.432478,-8427.050478,74.020594
4554.368757,1258.350101,-8503.660028,148.041188
4554.369082,740.205942,-8656.879127,444.123565
4554.369406,518.144159,-8733.488677,0.000000
4554.369730,0.000000,-9346.365076,74.020594
4554.370055,-518.144159,-8733.488677,-222.061783
4554.370379,-666.185348,-8886.707777,-444.123565
4554.370704,-370.102971,-8810.098227,-370.102971
4554.371028,-296.082377,-8273.831378,-518.144159
4554.371353,592.164754,-8810.098227,-444.123565
4554.371677,814.226536,-8350.440928,-370.102971
4554.372001,1110.308913,-8044.002729,148.041188
4554.372326,1332.370696,-8197.221829,74.020594
4554.372650,1258.350101,-8886.707777,0.000000
4554.372975,814.226536,-8580.269578,296.082377
4554.373299,222.061783,-8503.660028,-148.041188
4554.373623,0.000000,-8656.879127,0.000000
4554.373948,-518.144159,-8656.879127,-518.144159
4554.374272,-296.082377,-8656.879127,-962.267725
4554.374597,-444.123565,-8197.221829,-666.185348
4554.374921,0.000000,-8733.488677,-518.144159
4554.375245,592.164754,-8197.221829,-740.205942
4554.375570,1184.329507,-8810.098227,-296.082377
4554.375894,1184.329507,-8580.269578,0.000000
4554.376219,1258.350101,-8733.488677,370.102971
4554.376543,1036.288319,-8733.488677,74.020594
4554.376868,592.164754,-9806.022374,148.041188
4554.377192,148.041188,-8656.879127,0.000000
4554.377516,0.000000,-8963.317327,-296.082377
4554.377841,-296.082377,-8580.269578,-592.164754
4554.378165,-444.123565,-8656.879127,-814.226536
4554.378490,0.000000,-8503.660028,-296.082377
4554.378814,518.144159,-8197.221829,-370.102971
4554.379138,1036.288319,-8273.831378,-370.102971
4554.379463,1406.391290,-8503.660028,74.020594
4554.379787,1332.370696,-8886.707777,296.082377
4554.380112,1406.391290,-8580.269578,148.041188
4554.380436,888.247130,-8733.488677,222.061783
4554.380761,518.144159,-8656.879127,0.000000
4554.381085,74.020594,-9652.803275,0.000000
4554.381409,-370.102971,-8810.098227,-592.164754
4554.381734,-444.123565,-8810.098227,-814.226536
4554.382058,0.000000,-8503.660028,-814.226536
4554.382383,222.061783,-8273.831378,-592.164754
4554.382707,666.185348,-8350.440928,-148.041188
4554.383031,1332.370696,-8427.050478,0.000000
4554.383356,1850.514855,-8427.050478,74.020594
4554.383680,1628.453072,-8810.098227,148.041188
4554.384005,1258.350101,-8810.098227,592.164754
4554.384329,740.205942,-8503.660028,74.020594
4554.384653,0.000000,-8733.488677,0.000000
4554.384978,-518.144159,-8656.879127,-296.082377
4554.385302,-518.144159,-8810.098227,-666.185348
4554.385627,-444.123565,-8350.440928,-444.123565
4554.385951,-444.123565,-8427.050478,-592.164754
4554.386276,222.061783,-8427.050478,-222.061783
4554.386600,740.205942,-8580.269578,148.041188
4554.386924,814.226536,-8580.269578,0.000000
4554.387249,1332.370696,-8656.879127,222.061783
4554.387573,740.205942,-8503.660028,518.144159
4554.387898,444.123565,-8886.707777,666.185348
4554.388222,74.020594,-9039.926876,296.082377
4554.388546,-296.082377,-8886.707777,0.000000
4554.388871,-666.185348,-8427.050478,-666.185348
4554.389195,-592.164754,-8427.050478,-296.082377
4554.389520,-592.164754,-8427.050478,-444.123565
4554.389844,0.000000,-8273.831378,-296.082377
4554.390169,222.061783,-7967.393179,-222.061783
4554.390493,1184.329507,-8886.707777,0.000000
4554.390817,1036.288319,-7967.393179,222.061783
4554.391142,1258.350101,-8810.098227,962.267725
4554.391466,962.267725,-8427.050478,222.061783
4554.391791,296.082377,-8656.879127,296.082377
4554.392115,74.020594,-8963.317327,-444.123565
4554.392439,-740.205942,-9116.536426,0.000000
4554.392764,-666.185348,-8120.612279,-666.185348
4554.393088,-740.205942,-8733.488677,-666.185348
4554.393413,-74.020594,-8656.879127,-592.164754
4554.393737,518.144159,-8273.831378,-518.144159
4554.394062,888.247130,-8580.269578,-222.061783
4554.394386,1258.350101,-8580.269578,148.041188
4554.394710,1628.453072,-8656.879127,222.061783
4554.395035,1258.350101,-8580.269578,148.041188
4554.395359,518.144159,-9116.536426,518.144159
4554.395684,296.082377,-9116.536426,0.000000
4554.396008,0.000000,-8733.488677,-592.164754
4554.396332,-518.144159,-8580.269578,-666.185348
4554.396657,-740.205942,-9116.536426,-296.082377
4554.396981,-518.144159,-8580.269578,-814.226536
4554.397306,0.000000,-8350.440928,-444.123565
4554.397630,518.144159,-8963.317327,0.000000
4554.397954,1110.308913,-8350.440928,-222.061783
4554.398279,1480.411884,-8810.098227,74.020594
4554.398603,1554.432478,-8580.269578,296.082377
4554.398928,1406.391290,-8810.098227,0.000000
4554.399252,888.247130,-8810.098227,-296.082377
4554.399577,222.061783,-8503.660028,518.144159
4554.399901,74.020594,-8963.317327,-740.205942
4554.400225,-518.144159,-8733.488677,-962.267725
4554.400550,-370.102971,-8580.269578,-814.226536
4554.400874,74.020594,-8350.440928,-740.205942
4554.401199,666.185348,-8656.879127,-888.247130
4554.401523,1332.370696,-8580.269578,-370.102971
4554.401847,1702.473667,-8886.707777,-148.041188
4554.402172,1702.473667,-8273.831378,0.000000
4554.402496,1776.494261,-8886.707777,0.000000
4554.402821,1184.329507,-8963.317327,0.000000
4554.403145,444.123565,-8733.488677,0.000000
4554.403470,-222.061783,-8963.317327,-814.226536
4554.403794,-666.185348,-8656.879127,-740.205942
4554.404118,-444.123565,-8503.660028,-814.226536
4554.404443,-518.144159,-8656.879127,-888.247130
4554.404767,148.041188,-8810.098227,-592.164754
4554.405092,444.123565,-8350.440928,-370.102971
4554.405416,1480.411884,-8580.269578,74.020594
4554.405740,1628.453072,-8580.269578,0.000000
4554.406065,1702.473667,-8733.488677,74.020594
4554.406389,1406.391290,-8656.879127,370.102971
4554.406714,814.226536,-8427.050478,74.020594
4554.407038,0.000000,-9346.365076,-370.102971
4554.407363,-296.082377,-8656.879127,-592.164754
4554.407687,-370.102971,-8886.707777,-814.226536
4554.408011,-222.061783,-8733.488677,-888.247130
4554.408336,-148.041188,-8580.269578,-148.041188
4554.408660,444.123565,-8350.440928,-444.123565
4554.408985,1184.329507,-8580.269578,0.000000
4554.409309,1184.329507,-8044.002729,-222.061783
4554.409633,1554.432478,-8656.879127,148.041188
4554.409958,1110.308913,-8350.440928,222.061783
4554.410282,370.102971,-8656.879127,148.041188
4554.410607,-222.061783,-8580.269578,0.000000
4554.410931,74.020594,-8197.221829,0.000000
4554.411255,-518.144159,-8810.098227,-740.205942
4554.411580,-962.267725,-8580.269578,-814.226536
4554.411904,-592.164754,-8580.269578,-592.164754
4554.412229,0.000000,-8580.269578,0.000000
4554.412553,222.061783,-7967.393179,-74.020594
4554.412878,1332.370696,-8580.269578,0.000000
4554.413202,1628.453072,-8044.002729,0.000000
4554.413526,1628.453072,-8427.050478,148.041188
4554.413851,1332.370696,-8350.440928,-296.082377
4554.414175,444.123565,-8656.879127,0.000000
4554.414500,0.000000,-8503.660028,-592.164754
4554.414824,-296.082377,-8656.879127,-740.205942
4554.415148,0.000000,-9039.926876,-888.247130
4554.415473,-444.123565,-8656.879127,-962.267725
4554.415797,0.000000,-8580.269578,-814.226536
4554.416122,148.041188,-8273.831378,-370.102971
4554.416446,888.247130,-8350.440928,0.000000
4554.416771,1702.473667,-8350.440928,0.000000
4554.417095,1406.391290,-8120.612279,0.000000
4554.417419,1406.391290,-9039.926876,0.000000
4554.417744,1036.288319,-8503.660028,0.000000
4554.418068,814.226536,-8810.098227,0.000000
4554.418393,-222.061783,-8963.317327,-666.185348
4554.418717,-444.123565,-8503.660028,-370.102971
4554.419041,-1036.288319,-8656.879127,-962.267725
4554.419366,222.061783,-8886.707777,-666.185348
4554.419690,-222.061783,-8503.660028,-740.205942
4554.420015,814.226536,-8733.488677,-444.123565
4554.420339,1628.453072,-8273.831378,0.000000
4554.420663,1554.432478,-8197.221829,0.000000
4554.420988,1850.514855,-8810.098227,-296.082377
4554.421312,814.226536,-8580.269578,74.020594
4554.421637,592.164754,-9039.926876,-222.061783
4554.421961,-74.020594,-8886.707777,-592.164754
4554.422286,0.000000,-8427.050478,-814.226536
4554.422610,-518.144159,-8810.098227,-1036.288319
4554.422934,-592.164754,-8503.660028,-1110.308913
4554.423259,0.000000,-8580.269578,-962.267725
4554.423583,666.185348,-8044.002729,-370.102971
4554.423908,1110.308913,-8120.612279,-444.123565
4554.424232,1628.453072,-8580.269578,0.000000
4554.424556,1554.432478,-8427.050478,0.000000
4554.424881,1258.350101,-8427.050478,148.041188
4554.425205,888.247130,-8886.707777,-296.082377
4554.425530,0.000000,-9039.926876,-222.061783
4554.425854,-296.082377,-8580.269578,-814.226536
4554.426179,-518.144159,-8963.317327,-740.205942
4554.426503,-740.205942,-8503.660028,-1554.432478
4554.426827,-222.061783,-8963.317327,-814.226536
4554.427152,296.082377,-8427.050478,-888.247130
4554.427476,518.144159,-8427.050478,-222.061783
4554.427801,1036.288319,-8044.002729,0.000000
4554.428125,1332.370696,-8656.879127,0.000000
4554.428449,1258.350101,-8733.488677,0.000000
4554.428774,1036.288319,-8733.488677,0.000000
4554.429098,370.102971,-8580.269578,0.000000
4554.429423,148.041188,-8503.660028,-222.061783
4554.429747,-370.102971,-8733.488677,-1184.329507
4554.430072,-740.205942,-8733.488677,-1036.288319
4554.430396,-296.082377,-8656.879127,-1184.329507
4554.430720,0.000000,-7737.564530,-296.082377
4554.431045,518.144159,-8427.050478,-518.144159
4554.431369,888.247130,-8656.879127,-296.082377
4554.431694,1036.288319,-8427.050478,0.000000
4554.432018,1480.411884,-8886.707777,0.000000
4554.432342,1036.288319,-8886.707777,0.000000
4554.432667,740.205942,-8656.879127,74.020594
4554.432991,370.102971,-8810.098227,-370.102971
4554.433316,-148.041188,-8810.098227,-740.205942
4554.433640,0.000000,-8427.050478,-814.226536
4554.433964,0.000000,-8580.269578,-1184.329507
4554.434289,0.000000,-7814.174080,-666.185348
4554.434613,296.082377,-8273.831378,-666.185348
4554.434938,1406.391290,-8503.660028,-592.164754
4554.435262,1554.432478,-8044.002729,-370.102971
4554.435586,1480.411884,-8733.488677,0.000000
4554.435911,1332.370696,-8273.831378,148.041188
4554.436235,1258.350101,-9193.145976,0.000000
4554.436560,592.164754,-8810.098227,-444.123565
4554.436884,222.061783,-8656.879127,-518.144159
4554.437209,-592.164754,-8503.660028,-740.205942
4554.437533,-518.144159,-8503.660028,-666.185348
4554.437857,0.000000,-8197.221829,-740.205942
4554.438182,0.000000,-8656.879127,-666.185348
4554.438506,296.082377,-8273.831378,-370.102971
4554.438831,1110.308913,-8427.050478,-370.102971
4554.439155,1776.494261,-8656.879127,0.000000
4554.439479,1554.432478,-8810.098227,0.000000
4554.439804,1258.350101,-8810.098227,0.000000
4554.440128,814.226536,-8733.488677,-222.061783
4554.440453,74.020594,-9039.926876,0.000000
4554.440777,-296.082377,-8963.317327,-740.205942
4554.441101,-222.061783,-8427.050478,-592.164754
4554.441426,-666.185348,-8427.050478,-888.247130
4554.441750,-148.041188,-8580.269578,-962.267725
4554.442075,592.164754,-8120.612279,-1036.288319
4554.442399,888.247130,-8580.269578,-592.164754
4554.442724,1406.391290,-8350.440928,-370.102971
4554.443048,1184.329507,-8120.612279,222.061783
4554.443372,1480.411884,-9346.365076,-296.082377
4554.443697,518.144159,-8580.269578,-148.041188
4554.444021,222.061783,-8963.317327,0.000000
4554.444346,-518.144159,-8963.317327,-444.123565
4554.444670,-592.164754,-8350.440928,-740.205942
4554.444994,-962.267725,-8580.269578,-888.247130
4554.445319,-444.123565,-8810.098227,-888.247130
4554.445643,74.020594,-8197.221829,-814.226536
4554.445968,740.205942,-8580.269578,-666.185348
4554.446292,962.267725,-8273.831378,-148.041188
4554.446616,1184.329507,-8273.831378,-148.041188
4554.446941,1258.350101,-8580.269578,74.020594
4554.447265,1110.308913,-8503.660028,0.000000
4554.447590,444.123565,-8427.050478,-296.082377
4554.447914,370.102971,-8656.879127,-370.102971
4554.448238,0.000000,-8427.050478,-592.164754
4554.448563,-370.102971,-8886.707777,-962.267725
4554.448887,-370.102971,-8350.440928,-1110.308913
4554.449212,148.041188,-8273.831378,-1184.329507
4554.449536,592.164754,-8350.440928,-740.205942
4554.449861,1184.329507,-8273.831378,-518.144159
4554.450185,1406.391290,-8427.050478,-222.061783
4554.450509,1628.453072,-9039.926876,-592.164754
4554.450834,1184.329507,-8503.660028,0.000000
4554.451158,1036.288319,-8656.879127,0.000000
4554.451483,666.185348,-8580.269578,-222.061783
4554.451807,0.000000,-8963.317327,-370.102971
4554.452131,-370.102971,-8810.098227,-1036.288319
4554.452456,-592.164754,-8580.269578,-962.267725
4554.452780,-148.041188,-8656.879127,-1110.308913
4554.453105,148.041188,-8580.269578,-740.205942
4554.453429,1184.329507,-8580.269578,-592.164754
4554.453753,1332.370696,-8427.050478,-444.123565
4554.454078,1628.453072,-8580.269578,0.000000
4554.454402,1332.370696,-8810.098227,-148.041188
4554.454727,1258.350101,-9882.631924,0.000000
4554.455051,962.267725,-8733.488677,0.000000
4554.455376,0.000000,-8886.707777,-592.164754
4554.455700,-444.123565,-8733.488677,-814.226536
4554.456024,-518.144159,-8810.098227,-1184.329507
4554.456349,-518.144159,-8733.488677,-1184.329507
4554.456673,-296.082377,-8580.269578,-962.267725
4554.456998,222.061783,-8503.660028,-666.185348
4554.457322,592.164754,-8733.488677,-444.123565
4554.457646,1258.350101,-8273.831378,-222.061783
4554.457971,1702.473667,-8503.660028,-296.082377
4554.458295,1628.453072,-8810.098227,0.000000
4554.458620,814.226536,-8656.879127,0.000000
4554.458944,0.000000,-8350.440928,-222.061783
4554.459268,-444.123565,-8733.488677,-296.082377
4554.459593,-518.144159,-9039.926876,-962.267725
4554.459917,-592.164754,-8733.488677,-1258.350101
4554.460242,-518.144159,-8886.707777,-666.185348
4554.460566,0.000000,-8427.050478,-814.226536
4554.460890,518.144159,-8580.269578,-444.123565
4554.461215,1184.329507,-8427.050478,-444.123565
4554.461539,1702.473667,-8886.707777,0.000000
4554.461864,1258.350101,-8273.831378,74.020594
4554.462188,1110.308913,-8810.098227,0.000000
4554.462513,740.205942,-8733.488677,-444.123565
4554.462837,0.000000,-8733.488677,-370.102971
4554.463161,-296.082377,-8886.707777,-814.226536
4554.463486,-592.164754,-8733.488677,-740.205942
4554.463810,-444.123565,-8427.050478,-962.267725
4554.464135,0.000000,-8656.879127,-444.123565
4554.464459,592.164754,-8273.831378,-444.123565
4554.464783,740.205942,-7967.393179,296.082377
4554.465108,1628.453072,-8350.440928,-148.041188
4554.465432,1776.494261,-7814.174080,518.144159
4554.465757,1258.350101,-8656.879127,370.102971
4554.466081,814.226536,-8733.488677,0.000000
4554.466405,0.000000,-8503.660028,222.061783
4554.466730,-222.061783,-9039.926876,-222.061783
4554.467054,-444.123565,-8656.879127,-518.144159
4554.467379,-666.185348,-8810.098227,-444.123565
4554.467703,-296.082377,-8503.660028,-518.144159
4554.468028,0.000000,-8503.660028,-518.144159
4554.468352,888.247130,-8273.831378,-370.102971
4554.468676,1406.391290,-8273.831378,0.000000
4554.469001,1406.391290,-8273.831378,74.020594
4554.469325,1258.350101,-8503.660028,222.061783
4554.469650,1332.370696,-8427.050478,0.000000
4554.469974,814.226536,-8503.660028,0.000000
4554.470298,-296.082377,-8733.488677,-148.041188
4554.470623,-444.123565,-8580.269578,-444.123565
4554.470947,-296.082377,-8810.098227,-962.267725
4554.471272,-444.123565,-8656.879127,-962.267725
4554.471596,0.000000,-8427.050478,-740.205942
4554.471920,296.082377,-8197.221829,-370.102971
4554.472245,1184.329507,-8044.002729,-296.082377
4554.472569,1480.411884,-8197.221829,0.000000
4554.472894,1480.411884,-8656.879127,74.020594
4554.473218,1036.288319,-8350.440928,296.082377
4554.473542,592.164754,-8656.879127,0.000000
4554.473867,0.000000,-8886.707777,0.000000
4554.474191,-592.164754,-8810.098227,0.000000
4554.474516,-888.247130,-8656.879127,-740.205942
4554.474840,-518.144159,-8656.879127,-888.247130
4554.475165,-518.144159,-8580.269578,-888.247130
4554.475489,296.082377,-8503.660028,-666.185348
4554.475813,592.164754,-8197.221829,-296.082377
4554.476138,888.247130,-8350.440928,0.000000
4554.476462,1554.432478,-8503.660028,0.000000
4554.476787,1406.391290,-8810.098227,0.000000
4554.477111,1184.329507,-8733.488677,-222.061783
4554.477435,814.226536,-8656.879127,0.000000
4554.477760,-296.082377,-8963.317327,-222.061783
4554.478084,-222.061783,-9039.926876,-592.164754
4554.478409,-518.144159,-8580.269578,-888.247130
4554.478733,-296.082377,-9116.536426,-888.247130
4554.479057,74.020594,-8503.660028,-740.205942
4554.479382,888.247130,-8427.050478,-518.144159
4554.479706,888.247130,-8427.050478,-370.102971
4554.480031,1628.453072,-8580.269578,-148.041188
4554.480355,1406.391290,-8273.831378,148.041188
4554.480679,1036.288319,-8886.707777,0.000000
4554.481004,666.185348,-8656.879127,0.000000
4554.481328,222.061783,-9039.926876,0.000000
4554.481653,0.000000,-8963.317327,0.000000
4554.481977,-666.185348,-8733.488677,-592.164754
4554.482302,-592.164754,-8580.269578,-814.226536
4554.482626,0.000000,-8886.707777,-370.102971
4554.482950,370.102971,-8656.879127,-592.164754
4554.483275,888.247130,-8656.879127,-370.102971
4554.483599,1406.391290,-8273.831378,0.000000
4554.483924,1554.432478,-8427.050478,0.000000
4554.484248,1332.370696,-8580.269578,74.020594
4554.484572,1258.350101,-8656.879127,370.102971
4554.484897,296.082377,-8886.707777,0.000000
4554.485221,-148.041188,-8580.269578,-296.082377
4554.485546,-666.185348,-8963.317327,-592.164754
4554.485870,-518.144159,-9346.365076,-666.185348
4554.486194,0.000000,-8580.269578,-814.226536
4554.486519,0.000000,-8350.440928,-740.205942
4554.486843,518.144159,-8503.660028,-296.082377
4554.487168,1258.350101,-8886.707777,-296.082377
4554.487492,1332.370696,-8580.269578,0.000000
4554.487817,1628.453072,-8427.050478,148.041188
4554.488141,1110.308913,-8810.098227,74.020594
4554.488465,666.185348,-8810.098227,0.000000
4554.488790,0.000000,-8810.098227,0.000000
4554.489114,-518.144159,-8503.660028,-518.144159
4554.489439,-370.102971,-8886.707777,-666.185348
4554.489763,-444.123565,-8350.440928,-666.185348
4554.490087,-592.164754,-8886.707777,0.000000
4554.490412,296.082377,-8503.660028,-370.102971
4554.490736,888.247130,-8197.221829,-148.041188
4554.491061,1406.391290,-8350.440928,74.020594
4554.491385,1628.453072,-8503.660028,296.082377
4554.491709,1258.350101,-8503.660028,444.123565
4554.492034,962.267725,-8810.098227,222.061783
4554.492358,148.041188,-8503.660028,0.000000
4554.492683,-74.020594,-9193.145976,0.000000
4554.493007,74.020594,-8273.831378,-296.082377
4554.493331,-444.123565,-8580.269578,-592.164754
4554.493656,-296.082377,-9039.926876,-518.144159
4554.493980,148.041188,-8273.831378,-518.144159
4554.494305,666.185348,-8580.269578,222.061783
4554.494629,1258.350101,-8427.050478,0.000000
4554.494954,1406.391290,-8503.660028,74.020594
4554.495278,1406.391290,-8656.879127,370.102971
4554.495602,1258.350101,-8503.660028,74.020594
4554.495927,814.226536,-8810.098227,148.041188
4554.496251,222.061783,-8886.707777,0.000000
4554.496576,-296.082377,-8427.050478,-222.061783
4554.496900,-518.144159,-8810.098227,-296.082377
4554.497224,-666.185348,-9116.536426,-518.144159
4554.497549,0.000000,-8503.660028,-518.144159
4554.497873,222.061783,-8197.221829,-592.164754
4554.498198,814.226536,-8733.488677,0.000000
4554.498522,1036.288319,-8580.269578,148.041188
4554.498846,1184.329507,-8503.660028,296.082377
4554.499171,1036.288319,-8810.098227,666.185348
4554.499495,888.247130,-8503.660028,74.020594
4554.499820,148.041188,-9269.755526,74.020594
4554.500144,-370.102971,-8580.269578,0.000000
4554.500469,-518.144159,-8963.317327,-296.082377
4554.500793,-666.185348,-8656.879127,-666.185348
4554.501117,-444.123565,-8273.831378,-592.164754
4554.501442,74.020594,-8197.221829,-444.123565
4554.501766,444.123565,-8580.269578,-518.144159
4554.502091,1110.308913,-8197.221829,74.020594
4554.502415,1332.370696,-8120.612279,74.020594
4554.502739,1184.329507,-8427.050478,444.123565
4554.503064,1332.370696,-8580.269578,0.000000
4554.503388,1036.288319,-8810.098227,148.041188
4554.503713,148.041188,-8733.488677,0.000000
4554.504037,-444.123565,-8733.488677,-518.144159
4554.504361,-444.123565,-8427.050478,-592.164754
4554.504686,-740.205942,-8427.050478,-1036.288319
4554.505010,-444.123565,-8580.269578,-740.205942
4554.505335,296.082377,-8427.050478,-592.164754
4554.505659,888.247130,-7660.954980,0.000000
4554.505983,1406.391290,-8503.660028,0.000000
4554.506308,1258.350101,-8044.002729,0.000000
4554.506632,1406.391290,-8963.317327,74.020594
4554.506957,814.226536,-8580.269578,0.000000
4554.507281,592.164754,-8656.879127,0.000000
4554.507606,-370.102971,-8886.707777,-666.185348
4554.507930,-370.102971,-8810.098227,-666.185348
4554.508254,-518.144159,-8733.488677,-1036.288319
4554.508579,-666.185348,-8197.221829,-592.164754
4554.508903,-222.061783,-8656.879127,-296.082377
4554.509228,592.164754,-8427.050478,-592.164754
4554.509552,1110.308913,-8273.831378,-148.041188
4554.509876,1554.432478,-8580.269578,148.041188
4554.510201,1702.473667,-8580.269578,0.000000
4554.510525,1480.411884,-8273.831378,148.041188
4554.510850,814.226536,-8656.879127,74.020594
4554.511174,222.061783,-8733.488677,-148.041188
4554.511498,-296.082377,-8656.879127,-592.164754
4554.511823,-296.082377,-8963.317327,-666.185348
4554.512147,-592.164754,-8656.879127,-740.205942
4554.512472,-592.164754,-8503.660028,-814.226536
4554.512796,296.082377,-8197.221829,-592.164754
4554.513120,666.185348,-8503.660028,-370.102971
4554.513445,1184.329507,-8427.050478,0.000000
4554.513769,1628.453072,-8350.440928,0.000000
4554.514094,1554.432478,-8656.879127,296.082377
4554.514418,740.205942,-8427.050478,-296.082377
4554.514743,296.082377,-8810.098227,0.000000
4554.515067,0.000000,-8886.707777,-740.205942
4554.515391,-370.102971,-8733.488677,-666.185348
4554.515716,-740.205942,-8963.317327,-888.247130
4554.516040,-592.164754,-8656.879127,-814.226536
4554.516365,0.000000,-8656.879127,-666.185348
4554.516689,296.082377,-8197.221829,-370.102971
4554.517013,1036.288319,-8350.440928,-370.102971
4554.517338,1702.473667,-8427.050478,74.020594
4554.517662,1628.453072,-8733.488677,222.061783
4554.517987,1258.350101,-8886.707777,74.020594
4554.518311,814.226536,-8810.098227,148.041188
4554.518635,222.061783,-8733.488677,-518.144159
4554.518960,0.000000,-8580.269578,-592.164754
4554.519284,-444.123565,-8963.317327,-814.226536
4554.519609,-592.164754,-8733.488677,-518.144159
4554.519933,-592.164754,-7967.393179,-814.226536
4554.520258,148.041188,-8350.440928,-296.082377
4554.520582,888.247130,-8580.269578,-296.082377
4554.520906,1702.473667,-8427.050478,74.020594
4554.521231,1776.494261,-7890.783629,444.123565
4554.521555,1406.391290,-8656.879127,222.061783
4554.521880,888.247130,-8656.879127,296.082377
4554.522204,370.102971,-8733.488677,-222.061783
4554.522528,-74.020594,-8963.317327,-222.061783
4554.522853,-740.205942,-8886.707777,-296.082377
4554.523177,-666.185348,-8580.269578,-740.205942
4554.523502,-666.185348,-8656.879127,-444.123565
4554.523826,148.041188,-8273.831378,-666.185348
4554.524150,1110.308913,-8656.879127,-370.102971
4554.524475,1036.288319,-7814.174080,-370.102971
4554.524799,1480.411884,-8656.879127,0.000000
4554.525124,1406.391290,-8120.612279,-222.061783
4554.525448,1628.453072,-8580.269578,0.000000
4554.525772,814.226536,-8656.879127,-444.123565
4554.526097,0.000000,-8733.488677,-444.123565
4554.526421,-666.185348,-8503.660028,-740.205942
4554.526746,-962.267725,-9039.926876,-962.267725
4554.527070,-666.185348,-8580.269578,-962.267725
4554.527395,-222.061783,-8503.660028,-888.247130
4554.527719,222.061783,-7967.393179,-666.185348
4554.528043,814.226536,-8427.050478,-444.123565
4554.528368,1258.350101,-8350.440928,74.020594
4554.528692,1332.370696,-8273.831378,148.041188
4554.529017,1036.288319,-8656.879127,0.000000
4554.529341,1110.308913,-8886.707777,148.041188
4554.529665,222.061783,-7737.564530,222.061783
4554.529990,-296.082377,-8810.098227,-148.041188
4554.530314,-666.185348,-8656.879127,-592.164754
4554.530639,-444.123565,-8580.269578,-1110.308913
4554.530963,-370.102971,-8580.269578,-1036.288319
4554.531287,74.020594,-7890.783629,-296.082377
4554.531612,222.061783,-8197.221829,-370.102971
4554.531936,962.267725,-8427.050478,-592.164754
4554.532260,1480.411884,-8197.221829,-148.041188
4554.532585,1258.350101,-8273.831378,0.000000
4554.532909,1110.308913,-8886.707777,-222.061783
4554.533233,592.164754,-8656.879127,-370.102971
4554.533557,0.000000,-9039.926876,-296.082377
4554.533882,-148.041188,-7814.174080,-666.185348
4554.534206,-518.144159,-8810.098227,-740.205942
4554.534530,-296.082377,-8273.831378,-888.247130
4554.534855,0.000000,-8273.831378,-592.164754
4554.535179,592.164754,-8427.050478,-666.185348
4554.535503,1258.350101,-8503.660028,-518.144159
4554.535827,1406.391290,-8503.660028,0.000000
4554.536152,1628.453072,-8503.660028,74.020594
4554.536476,1776.494261,-8733.488677,0.000000
4554.536800,1036.288319,-8503.660028,148.041188
4554.537124,666.185348,-8886.707777,0.000000
4554.537449,0.000000,-8580.269578,-518.144159
4554.537773,-296.082377,-8963.317327,-666.185348
4554.538097,-296.082377,-8733.488677,-1258.350101
4554.538422,-296.082377,-8580.269578,-740.205942
4554.538746,0.000000,-8350.440928,-740.205942
4554.539070,814.226536,-8427.050478,-666.185348
4554.539394,1036.288319,-8044.002729,-518.144159
4554.539719,1480.411884,-9116.536426,-444.123565
4554.540043,1332.370696,-8963.317327,0.000000
4554.540367,1036.288319,-8733.488677,0.000000
4554.540691,592.164754,-8810.098227,0.000000
4554.541016,-148.041188,-8733.488677,-370.102971
4554.541340,-592.164754,-9422.974625,-962.267725
4554.541664,-666.185348,-8886.707777,-740.205942
4554.541988,-518.144159,-8580.269578,-1184.329507
4554.542313,-222.061783,-8656.879127,-962.267725
4554.542637,222.061783,-8503.660028,-740.205942
4554.542961,1110.308913,-8580.269578,-518.144159
4554.543286,1258.350101,-8197.221829,-370.102971
4554.543610,1258.350101,-8427.050478,74.020594
4554.543934,1554.432478,-9116.536426,-370.102971
4554.544258,1036.288319,-8963.317327,-370.102971
4554.544583,370.102971,-9039.926876,-296.082377
4554.544907,-222.061783,-8886.707777,-592.164754
4554.545231,0.000000,-8733.488677,-1036.288319
4554.545555,-444.123565,-8810.098227,-666.185348
4554.545880,-296.082377,-8503.660028,-1110.308913
4554.546204,444.123565,-8580.269578,-518.144159
4554.546528,888.247130,-8350.440928,-814.226536
4554.546852,1258.350101,-8656.879127,0.000000
4554.547177,1406.391290,-8120.612279,222.061783
4554.547501,1332.370696,-8810.098227,74.020594
4554.547825,962.267725,-8427.050478,222.061783
4554.548150,740.205942,-8580.269578,-148.041188
4554.548474,518.144159,-8963.317327,-148.041188
4554.548798,-370.102971,-8656.879127,-592.164754
4554.549122,0.000000,-8580.269578,-740.205942
4554.549447,-296.082377,-7967.393179,-666.185348
4554.549771,0.000000,-8197.221829,-518.144159
4554.550095,666.185348,-8197.221829,-444.123565
4554.550419,1258.350101,-8197.221829,0.000000
4554.550744,1480.411884,-8273.831378,-148.041188
4554.551068,1480.411884,-7967.393179,74.020594
4554.551392,1184.329507,-8656.879127,0.000000
4554.551717,740.205942,-8963.317327,-444.123565
4554.552041,444.123565,-8427.050478,0.000000
4554.552365,-296.082377,-9193.145976,-666.185348
4554.552689,-518.144159,-9193.145976,-666.185348
4554.553014,-222.061783,-8656.879127,-1184.329507
4554.553338,-148.041188,-8580.269578,-888.247130
4554.553662,222.061783,-8350.440928,-888.247130
4554.553986,444.123565,-8273.831378,-296.082377
4554.554311,1110.308913,-8350.440928,-222.061783
4554.554635,1110.308913,-8197.221829,74.020594
4554.554959,1406.391290,-8273.831378,-148.041188
4554.555283,666.185348,-8733.488677,0.000000
4554.555608,444.123565,-8656.879127,0.000000
4554.555932,-296.082377,-8886.707777,-370.102971
4554.556256,-666.185348,-8733.488677,-740.205942
4554.556581,-740.205942,-8963.317327,-1258.350101
4554.556905,-444.123565,-8733.488677,-962.267725
4554.557229,-148.041188,-8580.269578,-666.185348
4554.557553,296.082377,-8580.269578,-518.144159
4554.557878,888.247130,-8427.050478,-740.205942
4554.558202,1554.432478,-8503.660028,0.000000
4554.558526,1776.494261,-8656.879127,-148.041188
4554.558850,1480.411884,-8886.707777,0.000000
4554.559175,888.247130,-8503.660028,-222.061783
4554.559499,222.061783,-9652.803275,-296.082377
4554.559823,-222.061783,-8963.317327,-814.226536
4554.560148,-592.164754,-9116.536426,-962.267725
4554.560472,-592.164754,-8656.879127,-814.226536
4554.560796,-222.061783,-9116.536426,-666.185348
4554.561120,148.041188,-8656.879127,-592.164754
4554.561445,888.247130,-8120.612279,-444.123565
4554.561769,1036.288319,-8350.440928,-296.082377
4554.562093,1480.411884,-8580.269578,0.000000
4554.562417,1332.370696,-8656.879127,-222.061783
4554.562742,814.226536,-8656.879127,0.000000
4554.563066,222.061783,-8963.317327,-296.082377
4554.563390,0.000000,-8656.879127,-592.164754
4554.563714,-444.123565,-9193.145976,-740.205942
4554.564039,-444.123565,-8733.488677,-1036.288319
4554.564363,-444.123565,-8580.269578,-666.185348
4554.564687,0.000000,-8427.050478,-740.205942
4554.565012,740.205942,-8810.098227,0.000000
4554.565336,1406.391290,-8197.221829,-296.082377
4554.565660,1480.411884,-8503.660028,0.000000
4554.565984,1702.473667,-8044.002729,74.020594
4554.566309,1480.411884,-8656.879127,0.000000
4554.566633,518.144159,-8810.098227,222.061783
4554.566957,444.123565,-8656.879127,-222.061783
4554.567281,74.020594,-8656.879127,-518.144159
4554.567606,-592.164754,-8656.879127,-444.123565
4554.567930,-222.061783,-9116.536426,-592.164754
4554.568254,-222.061783,-8503.660028,-444.123565
4554.568578,444.123565,-8273.831378,-592.164754
4554.568903,888.247130,-8350.440928,-592.164754
4554.569227,1702.473667,-8733.488677,-222.061783
4554.569551,1776.494261,-8580.269578,0.000000
4554.569876,1110.308913,-8963.317327,0.000000
4554.570200,666.185348,-9116.536426,0.000000
4554.570524,444.123565,-8886.707777,0.000000
4554.570848,0.000000,-8886.707777,-148.041188
4554.571173,-370.102971,-8963.317327,-296.082377
4554.571497,-592.164754,-8810.098227,-814.226536
4554.571821,-148.041188,-8656.879127,-370.102971
4554.572145,148.041188,-8580.269578,-592.164754
4554.572470,666.185348,-8810.098227,-296.082377
4554.572794,1036.288319,-8197.221829,-296.082377
4554.573118,1184.329507,-8427.050478,0.000000
4554.573443,1184.329507,-8427.050478,-296.082377
4554.573767,962.267725,-8733.488677,148.041188
4554.574091,666.185348,-8810.098227,0.000000
4554.574415,148.041188,-8886.707777,-148.041188
4554.574740,-444.123565,-9039.926876,-370.102971
4554.575064,-592.164754,-9116.536426,-814.226536
4554.575388,-518.144159,-8733.488677,-740.205942
4554.575712,-296.082377,-8810.098227,-962.267725
4554.576037,370.102971,-8886.707777,-592.164754
4554.576361,740.205942,-8120.612279,0.000000
4554.576685,1332.370696,-8427.050478,-222.061783
4554.577009,1184.329507,-8733.488677,0.000000
4554.577334,1110.308913,-8656.879127,222.061783
4554.577658,1110.308913,-8656.879127,-222.061783
4554.577982,666.185348,-8580.269578,-370.102971
4554.578307,0.000000,-8427.050478,-666.185348
4554.578631,-148.041188,-8810.098227,-518.144159
4554.578955,-370.102971,-8273.831378,-1110.308913
4554.579279,-148.041188,-9269.755526,-814.226536
4554.579604,0.000000,-8273.831378,-740.205942
4554.579928,592.164754,-8273.831378,-296.082377
4554.580252,1184.329507,-8427.050478,-444.123565
4554.580576,1628.453072,-8886.707777,148.041188
4554.580901,1554.432478,-8656.879127,0.000000
4554.581225,1258.350101,-8580.269578,0.000000
4554.581549,740.205942,-8810.098227,148.041188
4554.581874,74.020594,-8580.269578,74.020594
4554.582198,-296.082377,-9269.755526,0.000000
4554.582522,-592.164754,-8580.269578,-518.144159
4554.582846,-370.102971,-8810.098227,-666.185348
4554.583171,0.000000,-8350.440928,-370.102971
4554.583495,148.041188,-8197.221829,370.102971
4554.583819,814.226536,-8427.050478,0.000000
4554.584143,1184.329507,-8197.221829,74.020594
4554.584468,1480.411884,-8350.440928,148.041188
4554.584792,1258.350101,-8733.488677,222.061783
4554.585116,666.185348,-8656.879127,518.144159
4554.585440,0.000000,-8886.707777,296.082377
4554.585765,0.000000,-8733.488677,-222.061783
4554.586089,-518.144159,-8580.269578,-592.164754
4554.586413,-888.247130,-8733.488677,-666.185348
4554.586738,-296.082377,-8656.879127,-740.205942
4554.587062,0.000000,-8427.050478,-518.144159
4554.587386,592.164754,-8273.831378,-444.123565
4554.587710,962.267725,-8427.050478,-296.082377
4554.588035,1406.391290,-8197.221829,-296.082377
4554.588359,1406.391290,-8350.440928,0.000000
4554.588683,888.247130,-8733.488677,0.000000
4554.589007,518.144159,-8810.098227,0.000000
4554.589332,0.000000,-8580.269578,-296.082377
4554.589656,-296.082377,-8886.707777,-370.102971
4554.589980,-518.144159,-8810.098227,-888.247130
4554.590304,-370.102971,-8427.050478,-666.185348
4554.590629,-444.123565,-8656.879127,-814.226536
4554.590953,222.061783,-8350.440928,-518.144159
4554.591277,592.164754,-8503.660028,-148.041188
4554.591602,1110.308913,-8580.269578,0.000000
4554.591926,962.267725,-8810.098227,518.144159
4554.592250,888.247130,-8427.050478,148.041188
4554.592574,740.205942,-8963.317327,74.020594
4554.592899,74.020594,-8810.098227,0.000000
4554.593223,-222.061783,-9193.145976,-370.102971
4554.593547,-296.082377,-8350.440928,-444.123565
4554.593871,-518.144159,-8656.879127,-962.267725
4554.594196,-370.102971,-8656.879127,-592.164754
4554.594520,148.041188,-8350.440928,-592.164754
4554.594844,592.164754,-8120.612279,0.000000
4554.595169,1258.350101,-8503.660028,-222.061783
4554.595493,1406.391290,-8197.221829,0.000000
4554.595817,1406.391290,-8350.440928,0.000000
4554.596141,1184.329507,-8810.098227,222.061783
4554.596466,592.164754,-8580.269578,-222.061783
4554.596790,296.082377,-8963.317327,-296.082377
4554.597114,-222.061783,-8503.660028,-518.144159
4554.597438,-222.061783,-9116.536426,-814.226536
4554.597763,-370.102971,-8580.269578,-888.247130
4554.598087,0.000000,-8503.660028,-666.185348
4554.598411,518.144159,-8427.050478,-666.185348
4554.598735,888.247130,-8350.440928,-370.102971
4554.599060,1110.308913,-7890.783629,296.082377
4554.599384,1332.370696,-8350.440928,0.000000
4554.599708,1258.350101,-8580.269578,148.041188
4554.600033,888.247130,-8810.098227,0.000000
4554.600357,814.226536,-8963.317327,0.000000
4554.600681,222.061783,-8733.488677,-518.144159
4554.601005,0.000000,-8580.269578,-592.164754
4554.601330,-444.123565,-8503.660028,-666.185348
4554.601654,-296.082377,-8197.221829,-666.185348
4554.601978,-74.020594,-8120.612279,-222.061783
4554.602302,296.082377,-8427.050478,0.000000
4554.602627,592.164754,-8427.050478,0.000000
4554.602951,1110.308913,-8273.831378,0.000000
4554.603275,1184.329507,-7967.393179,148.041188
4554.603600,1036.288319,-8503.660028,0.000000
4554.603924,814.226536,-8810.098227,-148.041188
4554.604248,0.000000,-8656.879127,0.000000
4554.604572,-740.205942,-8963.317327,148.041188
4554.604897,-666.185348,-8656.879127,-518.144159
4554.605221,-444.123565,-8580.269578,-814.226536
4554.605545,-148.041188,-8656.879127,-592.164754
4554.605869,222.061783,-8350.440928,-148.041188
4554.606194,666.185348,-8350.440928,0.000000
4554.606518,1184.329507,-8503.660028,0.000000
4554.606842,1332.370696,-8427.050478,148.041188
4554.607166,1110.308913,-8886.707777,74.020594
4554.607491,740.205942,-7584.345430,444.123565
4554.607815,222.061783,-8503.660028,0.000000
4554.608139,-518.144159,-9116.536426,-370.102971
4554.608464,-296.082377,-8733.488677,-666.185348
4554.608788,-518.144159,-8886.707777,-962.267725
4554.609112,-518.144159,-8733.488677,-740.205942
4554.609436,0.000000,-8503.660028,-370.102971
4554.609761,666.185348,-8427.050478,-370.102971
4554.610085,1036.288319,-8273.831378,-296.082377
4554.610409,1332.370696,-8503.660028,-148.041188
4554.610733,1480.411884,-8503.660028,0.000000
4554.611058,1480.411884,-8197.221829,222.061783
4554.611382,444.123565,-8810.098227,0.000000
4554.611706,592.164754,-8886.707777,-222.061783
4554.612030,0.000000,-8580.269578,-444.123565
4554.612355,0.000000,-8963.317327,-1110.308913
4554.612679,-296.082377,-8580.269578,-740.205942
4554.613003,0.000000,-8273.831378,-370.102971
4554.613328,296.082377,-7890.783629,-370.102971
4554.613652,888.247130,-8273.831378,-222.061783
4554.613976,1628.453072,-8503.660028,-296.082377
4554.614300,1554.432478,-8427.050478,0.000000
4554.614625,1406.391290,-8273.831378,148.041188
4554.614949,740.205942,-8580.269578,-148.041188
4554.615273,518.144159,-8963.317327,-370.102971
4554.615597,-222.061783,-8810.098227,-666.185348
4554.615922,0.000000,-8810.098227,-592.164754
4554.616246,-370.102971,-8733.488677,-592.164754
4554.616570,0.000000,-8656.879127,-888.247130
4554.616895,0.000000,-8733.488677,-592.164754
4554.617219,518.144159,-8197.221829,-444.123565
4554.617543,1036.288319,-8580.269578,0.000000
4554.617867,1332.370696,-8273.831378,-148.041188
4554.618192,1110.308913,-8350.440928,74.020594
4554.618516,888.247130,-8810.098227,0.000000
4554.618840,592.164754,-8733.488677,222.061783
4554.619164,74.020594,-8810.098227,-370.102971
4554.619489,-222.061783,-8810.098227,-518.144159
4554.619813,-666.185348,-8656.879127,-444.123565
4554.620137,-296.082377,-8120.612279,-518.144159
4554.620461,-370.102971,-7967.393179,-518.144159
4554.620786,592.164754,-8656.879127,-518.144159
4554.621110,814.226536,-8503.660028,0.000000
4554.621434,1258.350101,-8503.660028,296.082377
4554.621759,962.267725,-8350.440928,296.082377
4554.622083,962.267725,-8427.050478,370.102971
4554.622407,814.226536,-8427.050478,0.000000
4554.622731,0.000000,-8810.098227,0.000000
4554.623056,0.000000,-8656.879127,0.000000
4554.623380,-592.164754,-8580.269578,-444.123565
4554.623704,-518.144159,-8656.879127,-444.123565
4554.624028,-296.082377,-8120.612279,-592.164754
4554.624353,222.061783,-8810.098227,-444.123565
4554.624677,592.164754,-7967.393179,74.020594
4554.625001,1110.308913,-8044.002729,0.000000
4554.625326,1332.370696,-8350.440928,74.020594
4554.625650,1258.350101,-8273.831378,0.000000
4554.625974,1110.308913,-8886.707777,-370.102971
4554.626298,296.082377,-8656.879127,-444.123565
4554.626623,222.061783,-8810.098227,-296.082377
4554.626947,-296.082377,-8656.879127,-518.144159
4554.627271,-148.041188,-9499.584175,-888.247130
4554.627595,-148.041188,-8503.660028,-1036.288319
4554.627920,222.061783,-8656.879127,-888.247130
4554.628244,814.226536,-8273.831378,-666.185348
4554.628568,814.226536,-8350.440928,-296.082377
4554.628892,1628.453072,-8656.879127,-222.061783
4554.629217,1332.370696,-8503.660028,0.000000
4554.629541,1258.350101,-8656.879127,74.020594
4554.629865,962.267725,-9039.926876,-148.041188
4554.630190,370.102971,-9269.755526,-296.082377
4554.630514,0.000000,-8810.098227,-592.164754
4554.630838,-296.082377,-8503.660028,-740.205942
4554.631162,-296.082377,-8580.269578,-1036.288319
4554.631487,0.000000,-8963.317327,-888.247130
4554.631811,222.061783,-8273.831378,-370.102971
4554.632135,888.247130,-8427.050478,-518.144159
4554.632459,1110.308913,-8580.269578,-296.082377
4554.632784,1258.350101,-8273.831378,-222.061783
4554.633108,1184.329507,-8580.269578,-74.020594
4554.633432,888.247130,-8886.707777,-444.123565
4554.633756,296.082377,-8810.098227,-296.082377
4554.634081,-296.082377,-8886.707777,-592.164754
4554.634405,-666.185348,-9193.145976,-592.164754
4554.634729,-370.102971,-8886.707777,-1332.370696
4554.635053,-296.082377,-8963.317327,-888.247130
4554.635377,0.000000,-8427.050478,-814.226536
4554.635702,740.205942,-9193.145976,-666.185348
4554.636026,1406.391290,-8427.050478,-296.082377
4554.636350,1628.453072,-8427.050478,-148.041188
4554.636674,1480.411884,-8197.221829,-370.102971
4554.636999,814.226536,-8656.879127,222.061783
4554.637323,518.144159,-8886.707777,74.020594
4554.637647,444.123565,-9039.926876,0.000000
4554.637971,-296.082377,-8810.098227,-666.185348
4554.638295,-370.102971,-9039.926876,-740.205942
4554.638620,-592.164754,-8733.488677,-444.123565
4554.638944,-148.041188,-8273.831378,-518.144159
4554.639268,148.041188,-8503.660028,-370.102971
4554.639592,814.226536,-8273.831378,-296.082377
4554.639917,1258.350101,-8503.660028,-148.041188
4554.640241,1184.329507,-8503.660028,74.020594
4554.640565,1036.288319,-8733.488677,296.082377
4554.640889,962.267725,-8580.269578,74.020594
4554.641214,370.102971,-8886.707777,0.000000
4554.641538,-296.082377,-8427.050478,-222.061783
4554.641862,-296.082377,-8810.098227,-592.164754
4554.642186,-666.185348,-8580.269578,-370.102971
4554.642510,0.000000,-8120.612279,-666.185348
4554.642835,74.020594,-8580.269578,-962.267725
4554.643159,592.164754,-8273.831378,-518.144159
4554.643483,1184.329507,-8427.050478,-148.041188
4554.643807,1258.350101,-8273.831378,0.000000
4554.644132,1258.350101,-8197.221829,-74.020594
4554.644456,1184.329507,-8656.879127,148.041188
4554.644780,518.144159,-8427.050478,-148.041188
4554.645104,296.082377,-8656.879127,-518.144159
4554.645429,148.041188,-8810.098227,-518.144159
4554.645753,-222.061783,-8810.098227,-148.041188
4554.646077,0.000000,-8503.660028,-888.247130
4554.646401,-148.041188,-8273.831378,-962.267725
4554.646725,444.123565,-8273.831378,-592.164754
4554.647050,296.082377,-8427.050478,-370.102971
4554.647374,1036.288319,-8427.050478,-222.061783
4554.647698,888.247130,-8810.098227,148.041188
4554.648022,1258.350101,-8197.221829,148.041188
4554.648347,666.185348,-8810.098227,-148.041188
4554.648671,222.061783,-8810.098227,-148.041188
4554.648995,0.000000,-9039.926876,-222.061783
4554.649319,-222.061783,-8273.831378,-740.205942
4554.649643,-370.102971,-8963.317327,-814.226536
4554.649968,0.000000,-8350.440928,-666.185348
4554.650292,222.061783,-8810.098227,-740.205942
4554.650616,518.144159,-8273.831378,-814.226536
4554.650940,1184.329507,-8656.879127,-148.041188
4554.651265,1406.391290,-8733.488677,-444.123565
4554.651589,888.247130,-8656.879127,148.041188
4554.651913,1184.329507,-8580.269578,-444.123565
4554.652237,444.123565,-9039.926876,-222.061783
4554.652562,370.102971,-8656.879127,-740.205942
4554.652886,-222.061783,-9039.926876,-518.144159
4554.653210,-370.102971,-8886.707777,-1036.288319
4554.653534,0.000000,-8656.879127,-888.247130
4554.653858,0.000000,-8656.879127,-962.267725
4554.654183,0.000000,-8656.879127,-296.082377
4554.654507,814.226536,-7890.783629,-592.164754
4554.654831,1110.308913,-8656.879127,-222.061783
4554.655155,1406.391290,-8427.050478,0.000000
4554.655480,1406.391290,-8273.831378,0.000000
4554.655804,962.267725,-8963.317327,-296.082377
4554.656128,296.082377,-8733.488677,0.000000
4554.656452,0.000000,-8886.707777,-296.082377
4554.656777,-370.102971,-9116.536426,-444.123565
4554.657101,-592.164754,-8197.221829,-666.185348
4554.657425,0.000000,-8656.879127,-740.205942
4554.657749,0.000000,-8503.660028,-814.226536
4554.658073,666.185348,-8580.269578,-444.123565
4554.658398,888.247130,-8044.002729,74.020594
4554.658722,1184.329507,-8273.831378,0.000000
4554.659046,1184.329507,-8503.660028,0.000000
4554.659370,740.205942,-8580.269578,74.020594
4554.659695,444.123565,-8580.269578,0.000000
4554.660019,0.000000,-8886.707777,0.000000
4554.660343,-518.144159,-8350.440928,-296.082377
4554.660667,-296.082377,-8273.831378,-888.247130
4554.660991,0.000000,-8580.269578,-1036.288319
4554.661316,0.000000,-7890.783629,-592.164754
4554.661640,666.185348,-8503.660028,-370.102971
4554.661964,1036.288319,-8197.221829,-148.041188
4554.662288,1110.308913,-8197.221829,-148.041188
4554.662613,2072.576638,-8580.269578,-444.123565
4554.662937,1184.329507,-8273.831378,74.020594
4554.663261,592.164754,-8580.269578,74.020594
4554.663585,148.041188,-8886.707777,-370.102971
4554.663910,74.020594,-8963.317327,-666.185348
4554.664234,-148.041188,-8656.879127,-962.267725
4554.664558,-592.164754,-8656.879127,-740.205942
4554.664882,-222.061783,-8656.879127,-666.185348
4554.665206,296.082377,-8503.660028,-592.164754
4554.665531,814.226536,-8197.221829,0.000000
4554.665855,1036.288319,-8427.050478,-296.082377
4554.666179,1110.308913,-8580.269578,0.000000
4554.666503,1258.350101,-8427.050478,0.000000
4554.666828,592.164754,-8120.612279,0.000000
4554.667152,370.102971,-8886.707777,0.000000
4554.667476,-74.020594,-8580.269578,-370.102971
4554.667800,-444.123565,-8886.707777,-370.102971
4554.668125,-296.082377,-9116.536426,-740.205942
4554.668449,-444.123565,-8656.879127,-592.164754
4554.668773,0.000000,-8427.050478,-592.164754
4554.669097,222.061783,-8197.221829,-592.164754
4554.669421,1036.288319,-8503.660028,-370.102971
4554.669746,1628.453072,-8963.317327,-370.102971
4554.670070,1480.411884,-8350.440928,148.041188
4554.670394,1184.329507,-8656.879127,-222.061783
4554.670718,814.226536,-8427.050478,-296.082377
4554.671043,518.144159,-9193.145976,-222.061783
4554.671367,0.000000,-8656.879127,-444.123565
4554.671691,-222.061783,-8886.707777,-666.185348
4554.672015,-296.082377,-8810.098227,-592.164754
4554.672339,0.000000,-8427.050478,-1258.350101
4554.672664,74.020594,-8427.050478,-592.164754
4554.672988,814.226536,-8273.831378,-1036.288319
4554.673312,1480.411884,-8503.660028,-370.102971
4554.673636,1406.391290,-8120.612279,-444.123565
4554.673961,1406.391290,-9576.193725,0.000000
4554.674285,1332.370696,-8503.660028,-370.102971
4554.674609,370.102971,-8963.317327,-370.102971
4554.674933,74.020594,-8886.707777,-444.123565
4554.675258,-518.144159,-8963.317327,-666.185348
4554.675582,-740.205942,-8733.488677,-888.247130
4554.675906,-296.082377,-8503.660028,-740.205942
4554.676230,0.000000,-8350.440928,-888.247130
4554.676554,740.205942,-8656.879127,-444.123565
4554.676879,1406.391290,-8044.002729,-518.144159
4554.677203,1480.411884,-8656.879127,74.020594
4554.677527,1258.350101,-8503.660028,0.000000
4554.677851,1184.329507,-8580.269578,148.041188
4554.678176,888.247130,-9116.536426,-444.123565
4554.678500,148.041188,-8580.269578,0.000000
4554.678824,0.000000,-8886.707777,-370.102971
4554.679148,-444.123565,-8733.488677,-518.144159
4554.679473,-592.164754,-8503.660028,-444.123565
4554.679797,-296.082377,-8427.050478,-592.164754
4554.680121,222.061783,-8503.660028,-592.164754
4554.680445,666.185348,-8197.221829,-370.102971
4554.680769,1110.308913,-8273.831378,-222.061783
4554.681094,1258.350101,-8197.221829,-222.061783
4554.681418,1332.370696,-8350.440928,0.000000
4554.681742,1036.288319,-8580.269578,0.000000
4554.682066,296.082377,-8886.707777,0.000000
4554.682391,-222.061783,-8810.098227,-518.144159
4554.682715,-370.102971,-8503.660028,-592.164754
4554.683039,-592.164754,-8580.269578,-962.267725
4554.683363,-370.102971,-8886.707777,-888.247130
4554.683687,0.000000,-8273.831378,-592.164754
4554.684012,666.185348,-8503.660028,-370.102971
4554.684336,814.226536,-8427.050478,-74.020594
4554.684660,1258.350101,-8273.831378,-148.041188
4554.684984,1184.329507,-8503.660028,0.000000
4554.685309,1406.391290,-9193.145976,0.000000
4554.685633,740.205942,-8503.660028,0.000000
4554.685957,296.082377,-8580.269578,0.000000
4554.686281,-222.061783,-8963.317327,-296.082377
4554.686606,-370.102971,-9193.145976,-518.144159
4554.686930,-296.082377,-9039.926876,-592.164754
4554.687254,0.000000,-8350.440928,-370.102971
4554.687578,296.082377,-8427.050478,-444.123565
4554.687902,740.205942,-8580.269578,-296.082377
4554.688227,1332.370696,-8427.050478,-222.061783
4554.688551,1406.391290,-8656.879127,0.000000
4554.688875,1480.411884,-8810.098227,74.020594
4554.689199,518.144159,-8886.707777,74.020594
4554.689524,444.123565,-8963.317327,0.000000
4554.689848,-222.061783,-8503.660028,-222.061783
4554.690172,-370.102971,-9116.536426,-518.144159
4554.690496,-370.102971,-8886.707777,-814.226536
4554.690821,-222.061783,-8427.050478,-444.123565
4554.691145,148.041188,-8733.488677,-666.185348
4554.691469,740.205942,-8044.002729,-592.164754
4554.691793,1036.288319,-8427.050478,-222.061783
4554.692117,1332.370696,-8580.269578,-222.061783
4554.692442,1702.473667,-8810.098227,74.020594
4554.692766,1036.288319,-8503.660028,0.000000
4554.693090,814.226536,-9039.926876,-222.061783
4554.693414,148.041188,-8427.050478,-148.041188
4554.693739,0.000000,-8197.221829,0.000000
4554.694063,-296.082377,-8810.098227,-592.164754
4554.694387,-370.102971,-8886.707777,-518.144159
4554.694711,0.000000,-8503.660028,-518.144159
4554.695035,444.123565,-8350.440928,-518.144159
4554.695360,888.247130,-8350.440928,-296.082377
4554.695684,1036.288319,-8350.440928,0.000000
4554.696008,1036.288319,-8656.879127,0.000000
4554.696332,962.267725,-8656.879127,148.041188
4554.696657,518.144159,-8503.660028,518.144159
4554.696981,370.102971,-8886.707777,0.000000
4554.697305,-296.082377,-8886.707777,-444.123565
4554.697629,-370.102971,-8580.269578,-222.061783
4554.697954,-370.102971,-8503.660028,-592.164754
4554.698278,0.000000,-8656.879127,-592.164754
4554.698602,222.061783,-7890.783629,-814.226536
4554.698926,592.164754,-8120.612279,-370.102971
4554.699250,1110.308913,-8044.002729,-296.082377
4554.699575,1258.350101,-8503.660028,0.000000
4554.699899,1036.288319,-8427.050478,0.000000
4554.700223,814.226536,-8580.269578,-74.020594
4554.700547,592.164754,-8886.707777,0.000000
4554.700872,370.102971,-9193.145976,0.000000
4554.701196,-444.123565,-8580.269578,-592.164754
4554.701520,-444.123565,-8886.707777,-666.185348
4554.701844,-296.082377,-8427.050478,-666.185348
4554.702168,148.041188,-8580.269578,-370.102971
4554.702493,444.123565,-8427.050478,-666.185348
4554.702817,1036.288319,-8580.269578,-370.102971
4554.703141,1036.288319,-8120.612279,0.000000
4554.703465,1110.308913,-8580.269578,222.061783
4554.703790,814.226536,-8273.831378,222.061783
4554.704114,740.205942,-8886.707777,0.000000
4554.704438,370.102971,-8580.269578,0.000000
4554.704762,-222.061783,-9116.536426,-148.041188
4554.705087,-148.041188,-9116.536426,-370.102971
4554.705411,-296.082377,-8580.269578,-814.226536
4554.705735,0.000000,-8580.269578,-888.247130
4554.706059,0.000000,-8580.269578,-370.102971
4554.706383,666.185348,-7431.126331,-592.164754
4554.706708,740.205942,-8273.831378,-222.061783
4554.707032,1332.370696,-8350.440928,-370.102971
4554.707356,1110.308913,-8273.831378,0.000000
4554.707680,888.247130,-8733.488677,-222.061783
4554.708005,666.185348,-8656.879127,-296.082377
4554.708329,148.041188,-8656.879127,-296.082377
4554.708653,0.000000,-8886.707777,-592.164754
4554.708977,-296.082377,-8733.488677,-740.205942
4554.709302,-222.061783,-8656.879127,-370.102971
4554.709626,0.000000,-8427.050478,-740.205942
4554.709950,370.102971,-8580.269578,-296.082377
4554.710274,814.226536,-8427.050478,-296.082377
4554.710598,1036.288319,-8733.488677,0.000000
4554.710923,1554.432478,-8427.050478,-148.041188
4554.711247,1258.350101,-9039.926876,148.041188
4554.711571,962.267725,-8503.660028,148.041188
4554.711895,518.144159,-9116.536426,148.041188
4554.712220,-148.041188,-8427.050478,0.000000
4554.712544,-296.082377,-9039.926876,-222.061783
4554.712868,-296.082377,-8810.098227,-740.205942
4554.713192,-296.082377,-8963.317327,-222.061783
4554.713516,0.000000,-8580.269578,-1036.288319
4554.713841,518.144159,-8427.050478,-592.164754
4554.714165,814.226536,-8580.269578,-222.061783
4554.714489,1258.350101,-8273.831378,-222.061783
4554.714813,1184.329507,-8733.488677,0.000000
4554.715138,888.247130,-7967.393179,-222.061783
4554.715462,518.144159,-8656.879127,-222.061783
4554.715786,74.020594,-8503.660028,-296.082377
4554.716110,-222.061783,-8580.269578,-518.144159
4554.716435,-296.082377,-8580.269578,-1110.308913
4554.716759,-222.061783,-8580.269578,-814.226536
4554.717083,-222.061783,-8503.660028,-740.205942
4554.717407,148.041188,-8197.221829,-370.102971
4554.717731,814.226536,-8120.612279,-444.123565
4554.718056,1184.329507,-8427.050478,0.000000
4554.718380,1184.329507,-8120.612279,0.000000
4554.718704,1258.350101,-8580.269578,0.000000
4554.719028,592.164754,-8503.660028,0.000000
4554.719353,296.082377,-8503.660028,0.000000
4554.719677,0.000000,-9039.926876,-370.102971
4554.720001,-740.205942,-8733.488677,-222.061783
4554.720325,-592.164754,-8656.879127,-444.123565
4554.720650,0.000000,-8810.098227,-740.205942
4554.720974,148.041188,-8427.050478,-148.041188
4554.721298,518.144159,-8273.831378,-296.082377
4554.721622,1184.329507,-8044.002729,0.000000
4554.721946,1554.432478,-8580.269578,296.082377
4554.722271,962.267725,-8503.660028,148.041188
4554.722595,740.205942,-8427.050478,0.000000
4554.722919,444.123565,-8656.879127,0.000000
4554.723243,0.000000,-8886.707777,-148.041188
4554.723568,222.061783,-8886.707777,-444.123565
4554.723892,-370.102971,-9116.536426,-222.061783
4554.724216,0.000000,-8733.488677,-592.164754
4554.724540,222.061783,-8350.440928,-444.123565
4554.724864,296.082377,-8580.269578,-518.144159
4554.725189,1184.329507,-8350.440928,74.020594
4554.725513,1258.350101,-8120.612279,-296.082377
4554.725837,1258.350101,-8656.879127,148.041188
4554.726161,1036.288319,-8350.440928,0.000000
4554.726486,814.226536,-8810.098227,-222.061783
4554.726810,222.061783,-8963.317327,-222.061783
4554.727134,-148.041188,-8886.707777,-148.041188
4554.727458,-222.061783,-8810.098227,-444.123565
4554.727783,74.020594,-8580.269578,-888.247130
4554.728107,-296.082377,-8656.879127,-740.205942
4554.728431,74.020594,-8427.050478,-666.185348
4554.728755,444.123565,-7967.393179,-592.164754
4554.729079,1036.288319,-8427.050478,-666.185348
4554.729404,1258.350101,-8580.269578,-666.185348
4554.729728,1036.288319,-8503.660028,-296.082377
4554.730052,888.247130,-8656.879127,-518.144159
4554.730376,518.144159,-8733.488677,-296.082377
4554.730701,74.020594,-8963.317327,-370.102971
4554.731025,-444.123565,-9116.536426,-444.123565
4554.731349,-518.144159,-8810.098227,-962.267725
4554.731673,-222.061783,-8886.707777,-1110.308913
4554.731998,370.102971,-9039.926876,-814.226536
4554.732322,444.123565,-8427.050478,-592.164754
4554.732646,1406.391290,-8273.831378,-814.226536
4554.732970,1406.391290,-8350.440928,-518.144159
4554.733295,1036.288319,-8810.098227,0.000000
4554.733619,962.267725,-8810.098227,-222.061783
4554.733943,518.144159,-8810.098227,0.000000
4554.734268,74.020594,-8963.317327,0.000000
4554.734592,-74.020594,-8733.488677,-518.144159
4554.734917,-222.061783,-8810.098227,-592.164754
4554.735241,-296.082377,-8810.098227,-740.205942
4554.735565,222.061783,-8810.098227,-592.164754
4554.735890,370.102971,-8503.660028,-518.144159
4554.736214,1110.308913,-8733.488677,-592.164754
4554.736538,888.247130,-8350.440928,-148.041188
4554.736863,1258.350101,-8503.660028,0.000000
4554.737187,1184.329507,-8503.660028,74.020594
4554.737511,1110.308913,-9039.926876,592.164754
4554.737836,592.164754,-8963.317327,0.000000
4554.738160,148.041188,-9039.926876,0.000000
4554.738485,-444.123565,-8656.879127,-888.247130
4554.738809,-296.082377,-8886.707777,-370.102971
4554.739133,0.000000,-8656.879127,-518.144159
4554.739458,74.020594,-8350.440928,-518.144159
4554.739782,444.123565,-8273.831378,-444.123565
4554.740106,1036.288319,-7967.393179,-222.061783
4554.740431,1258.350101,-8427.050478,148.041188
4554.740755,1184.329507,-8503.660028,222.061783
4554.741080,1406.391290,-8273.831378,0.000000
4554.741404,740.205942,-8886.707777,0.000000
4554.741728,222.061783,-8580.269578,0.000000
4554.742053,0.000000,-8886.707777,-296.082377
4554.742377,-518.144159,-8580.269578,-666.185348
4554.742701,0.000000,-8427.050478,-518.144159
4554.743026,-296.082377,-8120.612279,-666.185348
4554.743350,0.000000,-8503.660028,-296.082377
4554.743674,962.267725,-7967.393179,-444.123565
4554.743999,1406.391290,-8580.269578,0.000000
4554.744323,1184.329507,-8044.002729,0.000000
4554.744648,1776.494261,-8733.488677,74.020594
4554.744972,814.226536,-8580.269578,0.000000
4554.745296,370.102971,-8580.269578,0.000000
4554.745621,0.000000,-9039.926876,-148.041188
4554.745945,-148.041188,-8810.098227,-444.123565
4554.746269,-148.041188,-8656.879127,-518.144159
4554.746594,-296.082377,-8886.707777,-740.205942
4554.746918,0.000000,-8503.660028,-740.205942
4554.747242,444.123565,-8503.660028,-444.123565
4554.747567,1036.288319,-8427.050478,-370.102971
4554.747891,1332.370696,-8580.269578,0.000000
4554.748216,1332.370696,-8503.660028,-148.041188
4554.748540,1110.308913,-8886.707777,0.000000
4554.748864,1110.308913,-8886.707777,-370.102971
4554.749189,0.000000,-9269.755526,-148.041188
4554.749513,-222.061783,-8810.098227,-518.144159
4554.749837,-370.102971,-8733.488677,-740.205942
4554.750162,-518.144159,-8963.317327,-888.247130
4554.750486,0.000000,-8733.488677,-666.185348
4554.750811,296.082377,-8810.098227,-888.247130
4554.751135,814.226536,-8656.879127,-296.082377
4554.751459,1036.288319,-8044.002729,-296.082377
4554.751784,1628.453072,-8656.879127,518.144159
4554.752108,1184.329507,-8273.831378,0.000000
4554.752432,888.247130,-8810.098227,-222.061783
4554.752757,370.102971,-8656.879127,-370.102971
4554.753081,296.082377,-7814.174080,148.041188
4554.753405,-592.164754,-8810.098227,-592.164754
4554.753730,-666.185348,-8733.488677,-666.185348
4554.754054,-370.102971,-8503.660028,-888.247130
4554.754379,0.000000,-8503.660028,-666.185348
4554.754703,370.102971,-8350.440928,-444.123565
4554.755027,888.247130,-8427.050478,-148.041188
4554.755352,1406.391290,-8197.221829,-370.102971
4554.755676,1258.350101,-8350.440928,0.000000
4554.756000,1110.308913,-8273.831378,0.000000
4554.756325,666.185348,-8810.098227,-296.082377
4554.756649,74.020594,-8427.050478,-222.061783
4554.756974,-222.061783,-9039.926876,-592.164754
4554.757298,74.020594,-8656.879127,-740.205942
4554.757622,-74.020594,-8580.269578,-1036.288319
4554.757947,-148.041188,-8350.440928,-888.247130
4554.758271,296.082377,-8273.831378,-518.144159
4554.758595,814.226536,-8350.440928,-222.061783
4554.758920,1258.350101,-8580.269578,-148.041188
4554.759244,1406.391290,-8350.440928,-148.041188
4554.759568,1184.329507,-8427.050478,0.000000
4554.759893,888.247130,-8350.440928,0.000000
4554.760217,666.185348,-8963.317327,148.041188
4554.760542,-370.102971,-8886.707777,0.000000
4554.760866,-666.185348,-8810.098227,-370.102971
4554.761190,-518.144159,-8810.098227,-740.205942
4554.761515,-518.144159,-8963.317327,-666.185348
4554.761839,222.061783,-8273.831378,-666.185348
4554.762163,370.102971,-8197.221829,-518.144159
4554.762488,962.267725,-8273.831378,-296.082377
4554.762812,1110.308913,-8273.831378,-222.061783
4554.763136,1776.494261,-8580.269578,-592.164754
4554.763461,1258.350101,-8427.050478,0.000000
4554.763785,518.144159,-8656.879127,0.000000
4554.764110,222.061783,-9116.536426,-592.164754
4554.764434,0.000000,-9269.755526,-888.247130
4554.764758,-370.102971,-8580.269578,-814.226536
4554.765083,-222.061783,-9039.926876,-888.247130
4554.765407,0.000000,-8197.221829,-740.205942
4554.765731,444.123565,-8503.660028,-518.144159
4554.766056,740.205942,-8120.612279,-592.164754
4554.766380,1110.308913,-8580.269578,-296.082377
4554.766705,1332.370696,-8350.440928,-370.102971
4554.767029,1110.308913,-8580.269578,0.000000
4554.767353,592.164754,-8656.879127,-518.144159
4554.767678,296.082377,-8733.488677,-296.082377
4554.768002,0.000000,-8810.098227,-370.102971
4554.768326,-296.082377,-9116.536426,-518.144159
4554.768651,-444.123565,-8427.050478,-814.226536
4554.768975,-148.041188,-8733.488677,-814.226536
4554.769299,370.102971,-8120.612279,-740.205942
4554.769624,666.185348,-8503.660028,-518.144159
4554.769948,1184.329507,-8273.831378,-296.082377
4554.770273,1406.391290,-8120.612279,-222.061783
4554.770597,1554.432478,-8044.002729,-222.061783
4554.770921,1110.308913,-8733.488677,148.041188
4554.771246,592.164754,-8810.098227,0.000000
4554.771570,74.020594,-8733.488677,-296.082377
4554.771894,-148.041188,-8656.879127,-370.102971
4554.772219,-592.164754,-9116.536426,-444.123565
4554.772543,-148.041188,-8886.707777,-666.185348
4554.772868,0.000000,-8197.221829,-370.102971
4554.773192,518.144159,-8273.831378,-518.144159
4554.773516,740.205942,-8350.440928,-518.144159
4554.773841,1036.288319,-8044.002729,74.020594
4554.774165,1184.329507,-8273.831378,0.000000
4554.774489,1036.288319,-8197.221829,-148.041188
4554.774814,888.247130,-8580.269578,74.020594
4554.775138,296.082377,-8886.707777,0.000000
4554.775462,0.000000,-8580.269578,-148.041188
4554.775787,0.000000,-9269.755526,-814.226536
4554.776111,-148.041188,-8886.707777,-518.144159
4554.776436,-296.082377,-8503.660028,-592.164754
4554.776760,222.061783,-8733.488677,-592.164754
4554.777084,740.205942,-8197.221829,-370.102971
4554.777409,1406.391290,-8044.002729,0.000000
4554.777733,1184.329507,-8503.660028,-370.102971
4554.778057,962.267725,-8733.488677,74.020594
4554.778382,740.205942,-8427.050478,0.000000
4554.778706,740.205942,-8810.098227,74.020594
4554.779030,-148.041188,-8733.488677,74.020594
4554.779355,-592.164754,-8963.317327,-296.082377
4554.779679,-518.144159,-8733.488677,-296.082377
4554.780004,-296.082377,-8273.831378,-370.102971
4554.780328,0.000000,-8427.050478,-592.164754
4554.780652,296.082377,-8273.831378,-444.123565
4554.780977,740.205942,-8273.831378,-296.082377
4554.781301,814.226536,-8273.831378,74.020594
4554.781625,1110.308913,-8044.002729,-222.061783
4554.781950,1036.288319,-8503.660028,0.000000
4554.782274,592.164754,-8733.488677,0.000000
4554.782599,296.082377,-8810.098227,74.020594
4554.782923,370.102971,-9193.145976,-444.123565
4554.783247,-296.082377,-8810.098227,-592.164754
4554.783572,-592.164754,-8503.660028,-814.226536
4554.783896,-148.041188,-8810.098227,-814.226536
4554.784220,222.061783,-8656.879127,-962.267725
4554.784545,518.144159,-8120.612279,-592.164754
4554.784869,814.226536,-8350.440928,-518.144159
4554.785193,1184.329507,-8197.221829,-370.102971
4554.785518,1258.350101,-8733.488677,-148.041188
4554.785842,888.247130,-8810.098227,-222.061783
4554.786167,296.082377,-8886.707777,-296.082377
4554.786491,-222.061783,-9269.755526,-148.041188
4554.786815,-370.102971,-8810.098227,-592.164754
4554.787140,-370.102971,-9346.365076,-370.102971
4554.787464,-370.102971,-8886.707777,-888.247130
4554.787788,148.041188,-8503.660028,-814.226536
4554.788113,740.205942,-8044.002729,-592.164754
4554.788437,888.247130,-8810.098227,0.000000
4554.788761,1332.370696,-8197.221829,-518.144159
4554.789086,1332.370696,-8427.050478,0.000000
4554.789410,1258.350101,-8427.050478,-148.041188
4554.789735,666.185348,-8810.098227,-74.020594
4554.790059,518.144159,-8733.488677,-296.082377
4554.790383,0.000000,-8503.660028,-592.164754
4554.790708,-296.082377,-8963.317327,-592.164754
4554.791032,-296.082377,-8580.269578,-740.205942
4554.791356,74.020594,-8580.269578,-666.185348
4554.791681,444.123565,-8656.879127,-666.185348
4554.792005,814.226536,-8273.831378,-444.123565
4554.792330,1184.329507,-8503.660028,-296.082377
4554.792654,1184.329507,-8810.098227,148.041188
4554.792978,1110.308913,-8580.269578,74.020594
4554.793303,666.185348,-8656.879127,148.041188
4554.793627,222.061783,-9039.926876,222.061783
4554.793951,-296.082377,-8810.098227,-222.061783
4554.794276,-370.102971,-9193.145976,-148.041188
4554.794600,-444.123565,-8503.660028,-592.164754
4554.794924,-518.144159,-8580.269578,-518.144159
4554.795249,0.000000,-8503.660028,-444.123565
4554.795573,74.020594,-8810.098227,296.082377
4554.795898,1184.329507,-8427.050478,-370.102971
4554.796222,1036.288319,-8197.221829,0.000000
4554.796546,1184.329507,-8350.440928,0.000000
4554.796871,888.247130,-8580.269578,0.000000
4554.797195,518.144159,-8580.269578,0.000000
4554.797519,296.082377,-8963.317327,-148.041188
4554.797844,0.000000,-8733.488677,-592.164754
4554.798168,-370.102971,-8810.098227,-370.102971
4554.798493,-444.123565,-8733.488677,-370.102971
4554.798817,-148.041188,-8580.269578,-518.144159
4554.799141,148.041188,-8044.002729,-592.164754
4554.799466,962.267725,-8503.660028,0.000000
4554.799790,1554.432478,-8044.002729,0.000000
4554.800114,1258.350101,-8273.831378,0.000000
4554.800439,1110.308913,-8427.050478,0.000000
4554.800763,666.185348,-8656.879127,296.082377
4554.801087,74.020594,-8810.098227,0.000000
4554.801412,0.000000,-8886.707777,0.000000
4554.801736,-222.061783,-8580.269578,-518.144159
4554.802061,-444.123565,-9039.926876,-296.082377
4554.802385,-222.061783,-8580.269578,-666.185348
4554.802709,444.123565,-8656.879127,-444.123565
4554.803034,962.267725,-8427.050478,-666.185348
4554.803358,888.247130,-8503.660028,-148.041188
4554.803682,1406.391290,-8580.269578,-296.082377
4554.804007,1332.370696,-8427.050478,296.082377
4554.804331,962.267725,-8810.098227,-222.061783
4554.804655,370.102971,-9039.926876,0.000000
4554.804980,148.041188,-8886.707777,0.000000
4554.805304,0.000000,-8580.269578,-296.082377
4554.805629,-444.123565,-8810.098227,-518.144159
4554.805953,0.000000,-8733.488677,-518.144159
4554.806277,0.000000,-8656.879127,-666.185348
4554.806602,148.041188,-8503.660028,-518.144159
4554.806926,1184.329507,-8044.002729,0.000000
4554.807250,1184.329507,-8273.831378,-148.041188
4554.807575,1406.391290,-8580.269578,-222.061783
4554.807899,1184.329507,-8350.440928,-370.102971
4554.808224,962.267725,-8733.488677,370.102971
4554.808548,222.061783,-8273.831378,-74.020594
4554.808872,-222.061783,-8580.269578,-296.082377
4554.809197,-518.144159,-8886.707777,-666.185348
4554.809521,-296.082377,-8810.098227,-962.267725
4554.809845,-296.082377,-8350.440928,-888.247130
4554.810170,0.000000,-8503.660028,-370.102971
4554.810494,740.205942,-8427.050478,-296.082377
4554.810818,814.226536,-8197.221829,-148.041188
4554.811143,1258.350101,-8120.612279,0.000000
4554.811467,1406.391290,-8656.879127,0.000000
4554.811792,1184.329507,-8810.098227,0.000000
4554.812116,814.226536,-8656.879127,0.000000
4554.812440,0.000000,-8963.317327,222.061783
4554.812765,-740.205942,-8580.269578,-222.061783
4554.813089,-444.123565,-8580.269578,-444.123565
4554.813413,-370.102971,-8580.269578,-740.205942
4554.813738,0.000000,-8503.660028,-592.164754
4554.814062,222.061783,-8120.612279,-296.082377
4554.814387,740.205942,-8197.221829,-444.123565
4554.814711,1036.288319,-7890.783629,0.000000
4554.815035,1184.329507,-8503.660028,0.000000
4554.815360,1776.494261,-8427.050478,0.000000
4554.815684,740.205942,-8503.660028,148.041188
4554.816008,222.061783,-9039.926876,0.000000
4554.816333,0.000000,-8656.879127,-296.082377
4554.816657,-370.102971,-8656.879127,-592.164754
4554.816981,-370.102971,-8886.707777,-518.144159
4554.817306,-296.082377,-8733.488677,-370.102971
4554.817630,370.102971,-8580.269578,-296.082377
4554.817955,592.164754,-8197.221829,-296.082377
4554.818279,1480.411884,-8197.221829,-888.247130
4554.818603,1406.391290,-8503.660028,0.000000
4554.818928,1480.411884,-8197.221829,296.082377
4554.819252,1258.350101,-8733.488677,0.000000
4554.819576,518.144159,-8580.269578,0.000000
4554.819901,296.082377,-9039.926876,0.000000
4554.820225,-370.102971,-8580.269578,-518.144159
4554.820549,-444.123565,-8963.317327,-592.164754
4554.820874,-296.082377,-8810.098227,-518.144159
4554.821198,0.000000,-8427.050478,-444.123565
4554.821523,444.123565,-8427.050478,-814.226536
4554.821847,888.247130,-8427.050478,-444.123565
4554.822171,1332.370696,-8733.488677,0.000000
4554.822496,1332.370696,-8197.221829,-148.041188
4554.822820,962.267725,-8656.879127,0.000000
4554.823144,888.247130,-9116.536426,0.000000
4554.823469,370.102971,-8580.269578,-444.123565
4554.823793,0.000000,-9039.926876,0.000000
4554.824118,-518.144159,-8580.269578,-444.123565
4554.824442,-444.123565,-8963.317327,-370.102971
4554.824766,0.000000,-8580.269578,-814.226536
4554.825091,370.102971,-8350.440928,-666.185348
4554.825415,1258.350101,-8427.050478,-962.267725
4554.825739,1332.370696,-8273.831378,-370.102971
4554.826064,1480.411884,-8044.002729,-222.061783
4554.826388,962.267725,-8963.317327,0.000000
4554.826712,888.247130,-9039.926876,-518.144159
4554.827037,296.082377,-8810.098227,-222.061783
4554.827361,148.041188,-8656.879127,-444.123565
4554.827686,-222.061783,-9269.755526,-444.123565
4554.828010,-666.185348,-9269.755526,-666.185348
4554.828334,0.000000,-8656.879127,-518.144159
4554.828659,148.041188,-8503.660028,-814.226536
4554.828983,518.144159,-8503.660028,-518.144159
4554.829307,1110.308913,-8120.612279,-370.102971
4554.829632,1110.308913,-8503.660028,-296.082377
4554.829956,1554.432478,-8580.269578,-222.061783
4554.830280,962.267725,-8503.660028,0.000000
4554.830605,888.247130,-8656.879127,-222.061783
4554.830929,444.123565,-9806.022374,0.000000
4554.831254,-222.061783,-8886.707777,-370.102971
4554.831578,-370.102971,-9039.926876,-518.144159
