#time,accel_x,accel_y,accel_z
5688.724866,370.102971,-8656.879127,0.000000
5688.725191,592.164754,-8580.269578,222.061783
5688.725515,518.144159,-8503.660028,0.000000
5688.725840,444.123565,-8963.317327,296.082377
5688.726164,666.185348,-8656.879127,74.020594
5688.726489,666.185348,-8733.488677,518.144159
5688.726813,444.123565,-8427.050478,74.020594
5688.727138,222.061783,-8656.879127,0.000000
5688.727462,592.164754,-8886.707777,74.020594
5688.727786,444.123565,-8273.831378,222.061783
5688.728111,148.041188,-8733.488677,0.000000
5688.728435,370.102971,-8580.269578,74.020594
5688.728760,1110.308913,-7967.393179,74.020594
5688.729084,518.144159,-8886.707777,0.000000
5688.729409,296.082377,-8273.831378,148.041188
5688.729733,74.020594,-8656.879127,74.020594
5688.730057,518.144159,-8656.879127,0.000000
5688.730382,370.102971,-8273.831378,0.000000
5688.730706,518.144159,-8810.098227,-296.082377
5688.731031,222.061783,-8733.488677,-222.061783
5688.731355,296.082377,-8503.660028,-74.020594
5688.731680,148.041188,-8656.879127,-518.144159
5688.732004,592.164754,-8580.269578,-370.102971
5688.732329,444.123565,-8580.269578,-444.123565
5688.732653,296.082377,-8656.879127,-296.082377
5688.732977,370.102971,-8120.612279,74.020594
5688.733302,74.020594,-8733.488677,-296.082377
5688.733626,296.082377,-8810.098227,0.000000
5688.733951,296.082377,-8503.660028,-370.102971
5688.734275,592.164754,-8963.317327,-296.082377
5688.734600,444.123565,-8350.440928,-370.102971
5688.734924,370.102971,-8580.269578,-370.102971
5688.735249,222.061783,-8886.707777,-222.061783
5688.735573,666.185348,-8580.269578,-296.082377
5688.735897,444.123565,-8273.831378,-74.020594
5688.736222,444.123565,-8886.707777,-444.123565
5688.736546,296.082377,-8733.488677,-370.102971
5688.736871,444.123565,-8810.098227,-148.041188
5688.737195,814.226536,-8656.879127,-592.164754
5688.737520,370.102971,-8350.440928,-296.082377
5688.737844,444.123565,-8886.707777,-74.020594
5688.738169,296.082377,-8350.440928,-296.082377
5688.738493,222.061783,-8656.879127,-296.082377
5688.738817,444.123565,-8273.831378,-592.164754
5688.739142,370.102971,-8427.050478,-518.144159
5688.739466,296.082377,-8656.879127,-666.185348
5688.739791,296.082377,-8656.879127,-518.144159
5688.740115,740.205942,-8503.660028,-814.226536
5688.740440,444.123565,-8656.879127,-370.102971
5688.740764,518.144159,-8427.050478,-666.185348
5688.741088,296.082377,-8963.317327,-444.123565
5688.741413,592.164754,-8503.660028,-518.144159
5688.741737,296.082377,-8580.269578,-444.123565
5688.742062,444.123565,-8810.098227,-518.144159
5688.742386,296.082377,-8580.269578,-148.041188
5688.742711,518.144159,-8733.488677,-592.164754
5688.743035,666.185348,-8656.879127,-518.144159
5688.743360,740.205942,-8580.269578,-740.205942
5688.743684,444.123565,-8733.488677,-296.082377
5688.744008,296.082377,-8503.660028,-296.082377
5688.744333,518.144159,-8273.831378,0.000000
5688.744657,296.082377,-8656.879127,-370.102971
5688.744982,740.205942,-8427.050478,74.020594
5688.745306,444.123565,-8197.221829,0.000000
5688.745631,518.144159,-8810.098227,0.000000
5688.745955,740.205942,-8273.831378,0.000000
5688.746280,740.205942,-8503.660028,0.000000
5688.746604,222.061783,-8580.269578,0.000000
5688.746928,370.102971,-8580.269578,444.123565
5688.747253,444.123565,-8273.831378,-222.061783
5688.747577,592.164754,-8427.050478,0.000000
5688.747902,592.164754,-8503.660028,-222.061783
5688.748226,370.102971,-8503.660028,0.000000
5688.748551,814.226536,-7967.393179,148.041188
5688.748875,592.164754,-8503.660028,0.000000
5688.749200,518.144159,-8503.660028,222.061783
5688.749524,518.144159,-8580.269578,74.020594
5688.749848,592.164754,-8733.488677,0.000000
5688.750173,814.226536,-8273.831378,0.000000
5688.750497,370.102971,-8580.269578,444.123565
5688.750822,444.123565,-8427.050478,74.020594
5688.751146,444.123565,-8044.002729,296.082377
5688.751471,296.082377,-8886.707777,0.000000
5688.751795,222.061783,-8197.221829,296.082377
5688.752119,296.082377,-8273.831378,518.144159
5688.752444,222.061783,-8197.221829,0.000000
5688.752768,296.082377,-8580.269578,444.123565
5688.753093,296.082377,-8580.269578,148.041188
5688.753417,518.144159,-8886.707777,370.102971
5688.753742,222.061783,-8350.440928,222.061783
5688.754066,666.185348,-8580.269578,222.061783
5688.754391,444.123565,-8503.660028,74.020594
5688.754715,444.123565,-8886.707777,148.041188
5688.755039,222.061783,-8810.098227,0.000000
5688.755364,222.061783,-8503.660028,296.082377
5688.755688,296.082377,-8886.707777,222.061783
5688.756013,0.000000,-8810.098227,444.123565
5688.756337,148.041188,-8656.879127,74.020594
5688.756662,148.041188,-8656.879127,0.000000
5688.756986,592.164754,-8733.488677,74.020594
5688.757311,74.020594,-8503.660028,222.061783
5688.757635,296.082377,-8733.488677,370.102971
5688.757959,74.020594,-8580.269578,0.000000
5688.758284,222.061783,-8580.269578,0.000000
5688.758608,370.102971,-8810.098227,74.020594
5688.758933,74.020594,-8273.831378,0.000000
5688.759257,74.020594,-8427.050478,148.041188
5688.759582,370.102971,-8580.269578,0.000000
5688.759906,444.123565,-8580.269578,0.000000
5688.760230,222.061783,-8580.269578,0.000000
5688.760555,444.123565,-8656.879127,148.041188
5688.760879,222.061783,-8503.660028,0.000000
5688.761204,592.164754,-8503.660028,370.102971
5688.761528,148.041188,-8120.612279,0.000000
5688.761853,444.123565,-8503.660028,222.061783
5688.762177,296.082377,-8350.440928,222.061783
5688.762502,370.102971,-8427.050478,74.020594
5688.762826,666.185348,-8656.879127,0.000000
5688.763150,222.061783,-8580.269578,296.082377
5688.763475,222.061783,-8197.221829,0.000000
5688.763799,370.102971,-8656.879127,0.000000
5688.764124,296.082377,-9193.145976,0.000000
5688.764448,222.061783,-8350.440928,0.000000
5688.764773,444.123565,-8503.660028,148.041188
5688.765097,518.144159,-8197.221829,0.000000
5688.765422,592.164754,-8427.050478,0.000000
5688.765746,518.144159,-8273.831378,0.000000
5688.766070,296.082377,-8427.050478,74.020594
5688.766395,222.061783,-8197.221829,0.000000
5688.766719,444.123565,-8503.660028,0.000000
5688.767044,74.020594,-8733.488677,444.123565
5688.767368,222.061783,-8733.488677,74.020594
5688.767693,0.000000,-8503.660028,0.000000
5688.768017,74.020594,-8427.050478,296.082377
5688.768342,518.144159,-8886.707777,296.082377
5688.768666,592.164754,-8427.050478,222.061783
5688.768990,518.144159,-8503.660028,148.041188
5688.769315,518.144159,-8197.221829,296.082377
5688.769639,666.185348,-8273.831378,296.082377
5688.769964,592.164754,-8580.269578,370.102971
5688.770288,888.247130,-8427.050478,74.020594
5688.770613,444.123565,-8580.269578,296.082377
5688.770937,74.020594,-8503.660028,148.041188
5688.771261,74.020594,-7967.393179,666.185348
5688.771586,148.041188,-8656.879127,444.123565
5688.771910,0.000000,-8656.879127,370.102971
5688.772235,592.164754,-8810.098227,74.020594
5688.772559,222.061783,-8810.098227,222.061783
5688.772884,222.061783,-8350.440928,370.102971
5688.773208,518.144159,-8427.050478,0.000000
5688.773533,222.061783,-8350.440928,74.020594
5688.773857,518.144159,-8733.488677,0.000000
5688.774181,222.061783,-8580.269578,0.000000
5688.774506,296.082377,-8503.660028,0.000000
5688.774830,222.061783,-8503.660028,-148.041188
5688.775155,296.082377,-8580.269578,0.000000
5688.775479,0.000000,-8580.269578,0.000000
5688.775804,518.144159,-9039.926876,0.000000
5688.776128,148.041188,-8656.879127,-148.041188
5688.776453,740.205942,-8503.660028,0.000000
5688.776777,222.061783,-8810.098227,-370.102971
5688.777101,370.102971,-8810.098227,0.000000
5688.777426,148.041188,-8733.488677,-518.144159
5688.777750,370.102971,-8580.269578,-592.164754
5688.778075,0.000000,-8963.317327,0.000000
5688.778399,518.144159,-8580.269578,-444.123565
5688.778724,148.041188,-8886.707777,-296.082377
5688.779048,592.164754,-8656.879127,-518.144159
5688.779373,444.123565,-9039.926876,-740.205942
5688.779697,888.247130,-8580.269578,-370.102971
5688.780021,444.123565,-8580.269578,-592.164754
5688.780346,370.102971,-8733.488677,-592.164754
5688.780670,666.185348,-8886.707777,-592.164754
5688.780995,296.082377,-8963.317327,-814.226536
5688.781319,518.144159,-8963.317327,-666.185348
5688.781644,222.061783,-9039.926876,-1036.288319
5688.781968,592.164754,-9039.926876,-962.267725
5688.782292,370.102971,-8656.879127,-1110.308913
5688.782617,0.000000,-8810.098227,-740.205942
5688.782941,518.144159,-8810.098227,-1258.350101
5688.783266,444.123565,-8350.440928,-1258.350101
5688.783590,148.041188,-8733.488677,-1406.391290
5688.783915,370.102971,-7584.345430,-962.267725
5688.784239,518.144159,-8427.050478,-1036.288319
5688.784564,296.082377,-8580.269578,-1480.411884
5688.784888,518.144159,-8810.098227,-1258.350101
5688.785212,296.082377,-8580.269578,-1184.329507
5688.785537,518.144159,-8273.831378,-1184.329507
5688.785861,296.082377,-8656.879127,-1184.329507
5688.786186,592.164754,-8580.269578,-1554.432478
5688.786510,444.123565,-8656.879127,-1332.370696
5688.786835,370.102971,-8120.612279,-740.205942
5688.787159,296.082377,-8733.488677,-1184.329507
5688.787484,518.144159,-8503.660028,-1406.391290
5688.787808,518.144159,-8427.050478,-1332.370696
5688.788132,444.123565,-8810.098227,-814.226536
5688.788457,666.185348,-8503.660028,-888.247130
5688.788781,666.185348,-8810.098227,-962.267725
5688.789106,592.164754,-8656.879127,-888.247130
5688.789430,518.144159,-8580.269578,-1184.329507
5688.789755,296.082377,-8503.660028,-888.247130
5688.790079,518.144159,-8044.002729,-962.267725
5688.790404,296.082377,-8427.050478,-888.247130
5688.790728,222.061783,-8656.879127,-814.226536
5688.791052,518.144159,-8503.660028,-888.247130
5688.791377,518.144159,-8733.488677,-962.267725
5688.791701,518.144159,-8886.707777,-740.205942
5688.792026,518.144159,-8810.098227,-666.185348
5688.792350,518.144159,-8733.488677,-888.247130
5688.792675,518.144159,-8656.879127,-740.205942
5688.792999,888.247130,-8810.098227,-518.144159
5688.793323,518.144159,-8810.098227,-740.205942
5688.793648,518.144159,-8427.050478,-370.102971
5688.793972,592.164754,-8810.098227,-962.267725
5688.794297,740.205942,-8580.269578,-740.205942
5688.794621,444.123565,-8427.050478,-666.185348
5688.794946,518.144159,-8886.707777,-814.226536
5688.795270,888.247130,-8733.488677,-518.144159
5688.795595,444.123565,-8733.488677,-444.123565
5688.795919,444.123565,-8810.098227,-370.102971
5688.796243,666.185348,-8580.269578,-444.123565
5688.796568,814.226536,-9039.926876,-518.144159
5688.796892,814.226536,-8810.098227,-814.226536
5688.797217,444.123565,-8580.269578,-592.164754
5688.797541,296.082377,-8580.269578,-666.185348
5688.797866,666.185348,-8810.098227,-666.185348
5688.798190,962.267725,-8580.269578,-1332.370696
5688.798515,592.164754,-8580.269578,-666.185348
5688.798839,518.144159,-8580.269578,-518.144159
5688.799163,296.082377,-8886.707777,-518.144159
5688.799488,592.164754,-8120.612279,-222.061783
5688.799812,814.226536,-8656.879127,-370.102971
5688.800137,666.185348,-8656.879127,-592.164754
5688.800461,962.267725,-8733.488677,-666.185348
5688.800786,518.144159,-8580.269578,-740.205942
5688.801110,740.205942,-8886.707777,-666.185348
5688.801434,222.061783,-8656.879127,-740.205942
5688.801759,222.061783,-8886.707777,-740.205942
5688.802083,296.082377,-8656.879127,-592.164754
5688.802408,444.123565,-8580.269578,0.000000
5688.802732,518.144159,-8580.269578,-444.123565
5688.803057,592.164754,-8580.269578,-740.205942
5688.803381,740.205942,-8810.098227,-740.205942
5688.803706,518.144159,-8427.050478,-222.061783
5688.804030,888.247130,-8350.440928,-518.144159
5688.804354,370.102971,-8733.488677,-518.144159
5688.804679,222.061783,-8810.098227,-518.144159
5688.805003,370.102971,-8810.098227,-518.144159
5688.805328,222.061783,-8733.488677,-888.247130
5688.805652,296.082377,-8733.488677,-814.226536
5688.805977,222.061783,-8733.488677,-518.144159
5688.806301,148.041188,-8656.879127,-592.164754
5688.806626,518.144159,-8350.440928,-1110.308913
5688.806950,518.144159,-8656.879127,-740.205942
5688.807274,592.164754,-8656.879127,-666.185348
5688.807599,370.102971,-8197.221829,-740.205942
5688.807923,592.164754,-8044.002729,-518.144159
5688.808248,518.144159,-8580.269578,-740.205942
5688.808572,296.082377,-8350.440928,-666.185348
5688.808897,74.020594,-8503.660028,-740.205942
5688.809221,0.000000,-8503.660028,-370.102971
5688.809546,74.020594,-8273.831378,-666.185348
5688.809870,0.000000,-8273.831378,-592.164754
5688.810194,296.082377,-8350.440928,-740.205942
5688.810519,148.041188,-8427.050478,-666.185348
5688.810843,444.123565,-8120.612279,-296.082377
5688.811168,444.123565,-8197.221829,-592.164754
5688.811492,518.144159,-8503.660028,-444.123565
5688.811816,296.082377,-8273.831378,-592.164754
5688.812141,370.102971,-8120.612279,-444.123565
5688.812465,518.144159,-8350.440928,-740.205942
5688.812790,444.123565,-8656.879127,-518.144159
5688.813114,296.082377,-8273.831378,-592.164754
5688.813438,370.102971,-8503.660028,-592.164754
5688.813763,222.061783,-8044.002729,-740.205942
5688.814087,444.123565,-8580.269578,-444.123565
5688.814412,518.144159,-8197.221829,-370.102971
5688.814736,370.102971,-8503.660028,-666.185348
5688.815060,518.144159,-8733.488677,-518.144159
5688.815385,444.123565,-8273.831378,-296.082377
5688.815709,666.185348,-8656.879127,-740.205942
5688.816033,148.041188,-8656.879127,-518.144159
5688.816358,592.164754,-8733.488677,-518.144159
5688.816682,444.123565,-8656.879127,-740.205942
5688.817007,518.144159,-8503.660028,-518.144159
5688.817331,444.123565,-8350.440928,-666.185348
5688.817655,666.185348,-8580.269578,-814.226536
5688.817980,74.020594,-8120.612279,0.000000
5688.818304,148.041188,-8503.660028,-444.123565
5688.818629,296.082377,-8733.488677,-222.061783
5688.818953,296.082377,-8273.831378,-370.102971
5688.819277,814.226536,-9116.536426,-444.123565
5688.819602,444.123565,-8656.879127,-592.164754
5688.819926,370.102971,-8656.879127,-666.185348
5688.820251,296.082377,-8580.269578,-592.164754
5688.820575,444.123565,-8197.221829,-296.082377
5688.820899,370.102971,-8350.440928,-814.226536
5688.821224,222.061783,-8427.050478,-962.267725
5688.821548,222.061783,-8350.440928,-888.247130
5688.821873,222.061783,-8503.660028,-592.164754
5688.822197,296.082377,-8120.612279,-1110.308913
5688.822521,518.144159,-8886.707777,-962.267725
5688.822846,296.082377,-8733.488677,-888.247130
5688.823170,444.123565,-8503.660028,-814.226536
5688.823495,518.144159,-8733.488677,-740.205942
5688.823819,518.144159,-8427.050478,-666.185348
5688.824143,444.123565,-8427.050478,-814.226536
5688.824468,222.061783,-8733.488677,-962.267725
5688.824792,444.123565,-8656.879127,-814.226536
5688.825117,148.041188,-8580.269578,-592.164754
5688.825441,148.041188,-8810.098227,-518.144159
5688.825765,222.061783,-8656.879127,-666.185348
5688.826090,518.144159,-8810.098227,-814.226536
5688.826414,0.000000,-9039.926876,-370.102971
5688.826739,518.144159,-8656.879127,-296.082377
5688.827063,666.185348,-8503.660028,-148.041188
5688.827387,740.205942,-8580.269578,-592.164754
5688.827712,444.123565,-8427.050478,-740.205942
5688.828036,370.102971,-8503.660028,-592.164754
5688.828361,592.164754,-8120.612279,-518.144159
5688.828685,222.061783,-8427.050478,-592.164754
5688.829009,666.185348,-8350.440928,-518.144159
5688.829334,370.102971,-8427.050478,-518.144159
5688.829658,370.102971,-8733.488677,-296.082377
5688.829983,518.144159,-8350.440928,-518.144159
5688.830307,444.123565,-8580.269578,-518.144159
5688.830631,592.164754,-8350.440928,-814.226536
5688.830956,444.123565,-8273.831378,-592.164754
5688.831280,592.164754,-8273.831378,-666.185348
5688.831604,444.123565,-8733.488677,-518.144159
5688.831929,814.226536,-8427.050478,-740.205942
5688.832253,740.205942,-8580.269578,-962.267725
5688.832578,518.144159,-8656.879127,-518.144159
5688.832902,888.247130,-8427.050478,-518.144159
5688.833226,1036.288319,-8427.050478,-666.185348
5688.833551,962.267725,-8656.879127,-444.123565
5688.833875,814.226536,-8656.879127,-444.123565
5688.834200,444.123565,-8656.879127,-296.082377
5688.834524,296.082377,-8273.831378,-222.061783
5688.834848,740.205942,-9039.926876,74.020594
5688.835173,592.164754,-8120.612279,-148.041188
5688.835497,222.061783,-8656.879127,-148.041188
5688.835822,222.061783,-8580.269578,-370.102971
5688.836146,814.226536,-8580.269578,-148.041188
5688.836470,444.123565,-8350.440928,-444.123565
5688.836795,888.247130,-8350.440928,-370.102971
5688.837119,444.123565,-8810.098227,-296.082377
5688.837444,518.144159,-8810.098227,-222.061783
5688.837768,370.102971,-7967.393179,0.000000
5688.838092,518.144159,-8503.660028,-296.082377
5688.838417,222.061783,-8886.707777,-370.102971
5688.838741,222.061783,-8503.660028,0.000000
5688.839066,222.061783,-8656.879127,-148.041188
5688.839390,518.144159,-8656.879127,0.000000
5688.839714,518.144159,-8656.879127,-296.082377
5688.840039,296.082377,-8503.660028,0.000000
5688.840363,444.123565,-8503.660028,0.000000
5688.840688,592.164754,-8733.488677,-296.082377
5688.841012,814.226536,-9116.536426,-222.061783
5688.841336,444.123565,-8427.050478,-296.082377
5688.841661,518.144159,-8810.098227,-148.041188
5688.841985,814.226536,-8810.098227,-222.061783
5688.842310,592.164754,-8503.660028,222.061783
5688.842634,518.144159,-8503.660028,0.000000
5688.842958,592.164754,-8733.488677,222.061783
5688.843283,888.247130,-8733.488677,0.000000
5688.843607,814.226536,-8810.098227,0.000000
5688.843932,666.185348,-8656.879127,74.020594
5688.844256,888.247130,-8733.488677,148.041188
5688.844580,370.102971,-8503.660028,0.000000
5688.844905,1036.288319,-8733.488677,0.000000
5688.845229,592.164754,-8503.660028,-74.020594
5688.845554,444.123565,-8580.269578,74.020594
5688.845878,518.144159,-8427.050478,0.000000
5688.846202,666.185348,-7967.393179,370.102971
5688.846527,740.205942,-8733.488677,0.000000
5688.846851,592.164754,-8503.660028,0.000000
5688.847175,740.205942,-8503.660028,0.000000
5688.847500,592.164754,-8656.879127,0.000000
5688.847824,592.164754,-8580.269578,74.020594
5688.848149,370.102971,-8656.879127,0.000000
5688.848473,296.082377,-8656.879127,-148.041188
5688.848797,222.061783,-8733.488677,0.000000
5688.849122,0.000000,-8350.440928,222.061783
5688.849446,148.041188,-8503.660028,74.020594
5688.849771,148.041188,-8580.269578,0.000000
5688.850095,592.164754,-8733.488677,-148.041188
5688.850419,666.185348,-9116.536426,0.000000
5688.850744,666.185348,-8733.488677,0.000000
5688.851068,148.041188,-8656.879127,0.000000
5688.851393,518.144159,-8810.098227,74.020594
5688.851717,370.102971,-8656.879127,0.000000
5688.852041,370.102971,-8733.488677,0.000000
5688.852366,666.185348,-8810.098227,-222.061783
5688.852690,296.082377,-8427.050478,222.061783
5688.853015,370.102971,-8886.707777,74.020594
5688.853339,148.041188,-8886.707777,296.082377
5688.853663,518.144159,-8656.879127,0.000000
5688.853988,444.123565,-8963.317327,0.000000
5688.854312,518.144159,-8580.269578,-148.041188
5688.854637,296.082377,-9116.536426,296.082377
5688.854961,370.102971,-8733.488677,-148.041188
5688.855285,74.020594,-8656.879127,0.000000
5688.855610,666.185348,-9193.145976,-592.164754
5688.855934,222.061783,-8810.098227,-296.082377
5688.856259,444.123565,-8656.879127,0.000000
5688.856583,0.000000,-8886.707777,-148.041188
5688.856907,148.041188,-8733.488677,0.000000
5688.857232,222.061783,-8733.488677,-222.061783
5688.857556,444.123565,-8810.098227,74.020594
5688.857881,222.061783,-8580.269578,-222.061783
5688.858205,370.102971,-8733.488677,0.000000
5688.858529,222.061783,-8810.098227,-222.061783
5688.858854,222.061783,-7814.174080,-222.061783
5688.859178,370.102971,-9039.926876,-370.102971
5688.859503,370.102971,-8427.050478,0.000000
5688.859827,296.082377,-8427.050478,0.000000
5688.860151,370.102971,-8580.269578,-296.082377
5688.860476,0.000000,-8044.002729,74.020594
5688.860800,444.123565,-8656.879127,-222.061783
5688.861125,296.082377,-8503.660028,-148.041188
5688.861449,148.041188,-8503.660028,0.000000
5688.861773,74.020594,-8120.612279,296.082377
5688.862098,74.020594,-8273.831378,74.020594
5688.862422,518.144159,-8733.488677,74.020594
5688.862746,222.061783,-8580.269578,74.020594
5688.863071,518.144159,-8656.879127,74.020594
5688.863395,222.061783,-8273.831378,0.000000
5688.863720,0.000000,-8810.098227,148.041188
5688.864044,444.123565,-8503.660028,0.000000
5688.864368,296.082377,-8350.440928,0.000000
5688.864693,222.061783,-8503.660028,0.000000
5688.865017,74.020594,-8503.660028,0.000000
5688.865342,444.123565,-8656.879127,0.000000
5688.865666,222.061783,-8273.831378,0.000000
5688.865990,518.144159,-8197.221829,444.123565
5688.866315,518.144159,-8273.831378,0.000000
5688.866639,370.102971,-8197.221829,74.020594
5688.866964,296.082377,-8503.660028,0.000000
5688.867288,222.061783,-8656.879127,-74.020594
5688.867612,370.102971,-8733.488677,0.000000
5688.867937,370.102971,-8886.707777,222.061783
5688.868261,148.041188,-8580.269578,0.000000
5688.868586,0.000000,-8580.269578,148.041188
5688.868910,518.144159,-8810.098227,296.082377
5688.869234,370.102971,-8503.660028,0.000000
5688.869559,222.061783,-8810.098227,148.041188
5688.869883,296.082377,-8350.440928,222.061783
5688.870208,518.144159,-8810.098227,518.144159
5688.870532,148.041188,-8580.269578,74.020594
5688.870856,148.041188,-8427.050478,148.041188
5688.871181,148.041188,-8350.440928,74.020594
5688.871505,148.041188,-8503.660028,0.000000
5688.871830,74.020594,-8886.707777,296.082377
5688.872154,444.123565,-8580.269578,74.020594
5688.872478,296.082377,-8886.707777,74.020594
5688.872803,296.082377,-8733.488677,0.000000
5688.873127,444.123565,-9193.145976,0.000000
5688.873452,518.144159,-8733.488677,0.000000
5688.873776,370.102971,-8580.269578,0.000000
5688.874100,222.061783,-8733.488677,0.000000
5688.874425,370.102971,-8886.707777,-222.061783
5688.874749,592.164754,-8350.440928,-370.102971
5688.875074,518.144159,-8580.269578,-518.144159
5688.875398,370.102971,-8580.269578,-296.082377
5688.875722,296.082377,-8886.707777,0.000000
5688.876047,0.000000,-8350.440928,0.000000
5688.876371,370.102971,-8886.707777,0.000000
5688.876696,444.123565,-8656.879127,-296.082377
5688.877020,444.123565,-8273.831378,-74.020594
5688.877344,444.123565,-8273.831378,-148.041188
5688.877669,370.102971,-8427.050478,-296.082377
5688.877993,444.123565,-8733.488677,-222.061783
5688.878317,296.082377,-8427.050478,0.000000
5688.878642,518.144159,-8350.440928,0.000000
5688.878966,444.123565,-8810.098227,-444.123565
5688.879291,444.123565,-8656.879127,-370.102971
5688.879615,370.102971,-8503.660028,-666.185348
5688.879939,518.144159,-8580.269578,-148.041188
5688.880264,370.102971,-8656.879127,-148.041188
5688.880588,296.082377,-8427.050478,-222.061783
5688.880913,222.061783,-8197.221829,-222.061783
5688.881237,370.102971,-8427.050478,0.000000
5688.881561,666.185348,-8656.879127,0.000000
5688.881886,518.144159,-8580.269578,-222.061783
5688.882210,148.041188,-8350.440928,0.000000
5688.882535,74.020594,-8580.269578,-74.020594
5688.882859,148.041188,-8503.660028,-296.082377
5688.883183,74.020594,-8120.612279,0.000000
5688.883508,74.020594,-8580.269578,-148.041188
5688.883832,370.102971,-8273.831378,0.000000
5688.884157,296.082377,-8350.440928,-370.102971
5688.884481,148.041188,-8197.221829,-370.102971
5688.884805,518.144159,-8044.002729,-222.061783
5688.885130,222.061783,-8273.831378,-296.082377
5688.885454,666.185348,-8427.050478,-518.144159
5688.885779,222.061783,-8656.879127,0.000000
5688.886103,296.082377,-8733.488677,0.000000
5688.886427,148.041188,-8273.831378,-296.082377
5688.886752,518.144159,-8656.879127,0.000000
5688.887076,518.144159,-8350.440928,-222.061783
5688.887401,444.123565,-8427.050478,0.000000
5688.887725,518.144159,-8197.221829,-518.144159
5688.888049,518.144159,-8580.269578,-148.041188
5688.888374,518.144159,-8503.660028,-148.041188
5688.888698,148.041188,-8350.440928,-370.102971
5688.889023,444.123565,-8580.269578,-296.082377
5688.889347,296.082377,-8427.050478,0.000000
5688.889671,370.102971,-8656.879127,0.000000
5688.889996,518.144159,-8120.612279,-148.041188
5688.890320,592.164754,-8656.879127,-222.061783
5688.890645,962.267725,-8580.269578,-222.061783
5688.890969,592.164754,-8427.050478,-296.082377
5688.891293,518.144159,-8656.879127,-370.102971
5688.891618,370.102971,-8810.098227,-148.041188
5688.891942,740.205942,-9193.145976,-666.185348
5688.892267,592.164754,-8963.317327,-740.205942
5688.892591,370.102971,-8580.269578,-296.082377
5688.892915,962.267725,-9422.974625,-444.123565
5688.893240,592.164754,-8656.879127,-814.226536
5688.893564,888.247130,-8810.098227,-888.247130
5688.893888,518.144159,-8656.879127,-888.247130
5688.894213,740.205942,-8580.269578,-666.185348
5688.894537,592.164754,-8503.660028,-740.205942
5688.894862,666.185348,-8810.098227,-592.164754
5688.895186,888.247130,-8580.269578,-962.267725
5688.895510,666.185348,-8733.488677,-888.247130
5688.895835,518.144159,-8963.317327,-962.267725
5688.896159,740.205942,-9039.926876,-592.164754
5688.896484,518.144159,-8810.098227,-740.205942
5688.896808,592.164754,-9039.926876,-740.205942
5688.897132,740.205942,-9193.145976,-592.164754
5688.897457,444.123565,-8810.098227,-592.164754
5688.897781,296.082377,-8350.440928,-370.102971
5688.898106,444.123565,-8733.488677,-592.164754
5688.898430,444.123565,-8427.050478,-740.205942
5688.898754,370.102971,-8427.050478,-666.185348
5688.899079,444.123565,-8580.269578,-666.185348
5688.899403,222.061783,-8580.269578,-740.205942
5688.899728,666.185348,-8503.660028,-592.164754
5688.900052,444.123565,-8886.707777,0.000000
5688.900376,740.205942,-8733.488677,-518.144159
5688.900701,592.164754,-8580.269578,-592.164754
5688.901025,740.205942,-8810.098227,-592.164754
5688.901350,222.061783,-8886.707777,0.000000
5688.901674,296.082377,-8810.098227,-518.144159
5688.901998,222.061783,-8580.269578,-444.123565
5688.902323,518.144159,-8273.831378,-444.123565
5688.902647,592.164754,-8580.269578,-592.164754
5688.902972,592.164754,-8197.221829,-444.123565
5688.903296,296.082377,-8580.269578,-370.102971
5688.903620,518.144159,-8427.050478,0.000000
5688.903945,518.144159,-8350.440928,0.000000
5688.904269,1110.308913,-8580.269578,0.000000
5688.904594,888.247130,-8197.221829,148.041188
5688.904918,444.123565,-8427.050478,-222.061783
5688.905242,370.102971,-8733.488677,-296.082377
5688.905567,370.102971,-8810.098227,-222.061783
5688.905891,592.164754,-8733.488677,-518.144159
5688.906216,222.061783,-8580.269578,-444.123565
5688.906540,370.102971,-8580.269578,0.000000
5688.906864,296.082377,-8503.660028,-222.061783
5688.907189,592.164754,-8810.098227,0.000000
5688.907513,592.164754,-8427.050478,-222.061783
5688.907838,666.185348,-8580.269578,-370.102971
5688.908162,592.164754,-8273.831378,-296.082377
5688.908486,666.185348,-8886.707777,0.000000
5688.908811,370.102971,-8580.269578,-518.144159
5688.909135,444.123565,-8427.050478,-518.144159
5688.909459,518.144159,-8810.098227,-666.185348
5688.909784,518.144159,-8427.050478,-518.144159
5688.910108,444.123565,-8733.488677,-518.144159
5688.910433,518.144159,-8503.660028,-370.102971
5688.910757,222.061783,-8580.269578,-370.102971
5688.911081,370.102971,-8886.707777,-666.185348
5688.911405,222.061783,-8810.098227,-518.144159
5688.911730,444.123565,-8656.879127,-518.144159
5688.912054,148.041188,-8580.269578,-666.185348
5688.912378,518.144159,-9116.536426,-814.226536
5688.912703,222.061783,-8044.002729,-666.185348
5688.913027,296.082377,-9039.926876,-518.144159
5688.913351,74.020594,-8886.707777,-814.226536
5688.913675,296.082377,-8963.317327,-518.144159
5688.914000,222.061783,-8963.317327,-666.185348
5688.914324,444.123565,-8656.879127,-666.185348
5688.914648,518.144159,-9116.536426,-1110.308913
5688.914972,296.082377,-8503.660028,-814.226536
5688.915297,814.226536,-8963.317327,-1184.329507
5688.915621,592.164754,-8503.660028,-1110.308913
5688.915945,370.102971,-8963.317327,-666.185348
5688.916270,370.102971,-8810.098227,-962.267725
5688.916594,592.164754,-8580.269578,-814.226536
5688.916918,888.247130,-8656.879127,-962.267725
5688.917242,592.164754,-8886.707777,-888.247130
5688.917567,296.082377,-8733.488677,-814.226536
5688.917891,370.102971,-8656.879127,-592.164754
5688.918215,444.123565,-8810.098227,-740.205942
5688.918539,666.185348,-8580.269578,-814.226536
5688.918864,370.102971,-8580.269578,-814.226536
5688.919188,370.102971,-8733.488677,-370.102971
5688.919512,222.061783,-8580.269578,-592.164754
5688.919837,814.226536,-8963.317327,-592.164754
5688.920161,518.144159,-8427.050478,-296.082377
5688.920485,370.102971,-8427.050478,-296.082377
5688.920809,296.082377,-8580.269578,-444.123565
5688.921134,518.144159,-8120.612279,-370.102971
5688.921458,370.102971,-8503.660028,-296.082377
5688.921782,518.144159,-8427.050478,-666.185348
5688.922106,518.144159,-8503.660028,-592.164754
5688.922431,296.082377,-8350.440928,-666.185348
5688.922755,518.144159,-8503.660028,-296.082377
5688.923079,666.185348,-8197.221829,-592.164754
5688.923404,592.164754,-8656.879127,-518.144159
5688.923728,370.102971,-8350.440928,-444.123565
5688.924052,592.164754,-8197.221829,0.000000
5688.924376,518.144159,-8580.269578,-740.205942
5688.924701,370.102971,-8503.660028,-518.144159
5688.925025,592.164754,-8580.269578,-666.185348
5688.925349,370.102971,-8580.269578,-148.041188
5688.925673,444.123565,-8580.269578,-370.102971
5688.925998,148.041188,-8886.707777,-518.144159
5688.926322,444.123565,-8580.269578,-592.164754
5688.926646,444.123565,-9039.926876,-444.123565
5688.926971,296.082377,-8273.831378,-518.144159
5688.927295,444.123565,-8580.269578,-370.102971
5688.927619,222.061783,-8580.269578,-814.226536
5688.927943,222.061783,-8656.879127,-740.205942
5688.928268,222.061783,-8580.269578,-592.164754
5688.928592,444.123565,-8580.269578,-740.205942
5688.928916,370.102971,-8427.050478,-666.185348
5688.929240,296.082377,-8656.879127,-740.205942
5688.929565,148.041188,-8886.707777,-814.226536
5688.929889,296.082377,-8580.269578,-666.185348
5688.930213,444.123565,-8886.707777,-592.164754
5688.930538,222.061783,-8810.098227,-666.185348
5688.930862,444.123565,-8580.269578,-518.144159
5688.931186,592.164754,-8810.098227,-814.226536
5688.931510,370.102971,-8733.488677,-666.185348
5688.931835,296.082377,-8733.488677,-740.205942
5688.932159,518.144159,-8656.879127,-666.185348
5688.932483,0.000000,-7890.783629,-148.041188
5688.932807,592.164754,-8733.488677,-444.123565
5688.933132,370.102971,-8427.050478,-814.226536
5688.933456,814.226536,-8350.440928,-518.144159
5688.933780,444.123565,-8580.269578,-592.164754
5688.934104,592.164754,-8580.269578,-666.185348
5688.934429,444.123565,-8427.050478,-666.185348
5688.934753,666.185348,-8580.269578,-370.102971
5688.935077,518.144159,-8656.879127,-666.185348
5688.935402,888.247130,-8810.098227,-518.144159
5688.935726,592.164754,-8503.660028,-444.123565
5688.936050,444.123565,-8273.831378,-148.041188
5688.936374,592.164754,-8580.269578,-370.102971
5688.936699,962.267725,-8656.879127,-666.185348
5688.937023,740.205942,-8273.831378,-370.102971
5688.937347,518.144159,-8580.269578,-370.102971
5688.937671,592.164754,-8503.660028,-222.061783
5688.937996,222.061783,-8427.050478,0.000000
5688.938320,592.164754,-8503.660028,148.041188
5688.938644,148.041188,-8503.660028,0.000000
5688.938969,592.164754,-8580.269578,0.000000
5688.939293,370.102971,-8580.269578,0.000000
5688.939617,666.185348,-8350.440928,0.000000
5688.939941,74.020594,-8503.660028,-444.123565
5688.940266,296.082377,-8580.269578,-296.082377
5688.940590,370.102971,-8350.440928,0.000000
5688.940914,888.247130,-7967.393179,-370.102971
5688.941238,666.185348,-8503.660028,0.000000
5688.941563,444.123565,-8733.488677,-296.082377
5688.941887,518.144159,-8886.707777,-296.082377
5688.942211,444.123565,-8197.221829,-592.164754
5688.942536,740.205942,-8656.879127,-296.082377
5688.942860,592.164754,-7890.783629,0.000000
5688.943184,444.123565,-8503.660028,-148.041188
5688.943508,444.123565,-8580.269578,-370.102971
5688.943833,296.082377,-8273.831378,-444.123565
5688.944157,666.185348,-8733.488677,-444.123565
5688.944481,444.123565,-8656.879127,-370.102971
5688.944805,444.123565,-8656.879127,-370.102971
5688.945130,444.123565,-8580.269578,-222.061783
5688.945454,666.185348,-8503.660028,-296.082377
5688.945778,518.144159,-8656.879127,0.000000
5688.946103,666.185348,-8427.050478,-296.082377
5688.946427,444.123565,-8656.879127,0.000000
5688.946751,74.020594,-8580.269578,-148.041188
5688.947075,592.164754,-8580.269578,-518.144159
5688.947400,740.205942,-8350.440928,-370.102971
5688.947724,740.205942,-8733.488677,-592.164754
5688.948048,1110.308913,-9039.926876,-888.247130
5688.948372,518.144159,-8810.098227,-370.102971
5688.948697,592.164754,-8656.879127,-518.144159
5688.949021,370.102971,-8580.269578,-666.185348
5688.949345,740.205942,-8963.317327,-592.164754
5688.949670,888.247130,-8810.098227,-592.164754
5688.949994,592.164754,-8656.879127,-518.144159
5688.950318,370.102971,-8810.098227,-740.205942
5688.950642,444.123565,-8580.269578,-814.226536
5688.950967,740.205942,-8886.707777,-740.205942
5688.951291,592.164754,-8656.879127,-888.247130
5688.951615,666.185348,-8427.050478,-592.164754
5688.951939,518.144159,-8886.707777,-296.082377
5688.952264,444.123565,-9729.412825,-370.102971
5688.952588,444.123565,-8427.050478,-592.164754
5688.952912,444.123565,-8733.488677,-592.164754
5688.953237,592.164754,-8273.831378,0.000000
5688.953561,518.144159,-8580.269578,-518.144159
5688.953885,222.061783,-8503.660028,-222.061783
5688.954209,740.205942,-8580.269578,-518.144159
5688.954534,444.123565,-8733.488677,-370.102971
5688.954858,518.144159,-8656.879127,-370.102971
5688.955182,370.102971,-8886.707777,-222.061783
5688.955506,518.144159,-8656.879127,-296.082377
5688.955831,370.102971,-8273.831378,-222.061783
5688.956155,444.123565,-8427.050478,-370.102971
5688.956479,518.144159,-9193.145976,-148.041188
5688.956804,296.082377,-8273.831378,0.000000
5688.957128,74.020594,-8197.221829,-296.082377
5688.957452,222.061783,-8503.660028,74.020594
5688.957776,444.123565,-8273.831378,-148.041188
5688.958101,814.226536,-8503.660028,-296.082377
5688.958425,296.082377,-8427.050478,0.000000
5688.958749,444.123565,-8810.098227,0.000000
5688.959073,0.000000,-8656.879127,370.102971
5688.959398,0.000000,-8503.660028,0.000000
5688.959722,148.041188,-8427.050478,74.020594
5688.960046,222.061783,-8580.269578,0.000000
5688.960370,370.102971,-8656.879127,0.000000
5688.960695,0.000000,-9652.803275,222.061783
5688.961019,296.082377,-8350.440928,0.000000
5688.961343,222.061783,-8580.269578,0.000000
5688.961668,296.082377,-8580.269578,222.061783
5688.961992,518.144159,-8503.660028,222.061783
5688.962316,296.082377,-9116.536426,0.000000
5688.962640,222.061783,-8733.488677,148.041188
5688.962965,444.123565,-8580.269578,-148.041188
5688.963289,296.082377,-8810.098227,148.041188
5688.963613,0.000000,-9039.926876,296.082377
5688.963937,370.102971,-8733.488677,-222.061783
5688.964262,0.000000,-8963.317327,0.000000
5688.964586,0.000000,-8503.660028,-370.102971
5688.964910,148.041188,-8886.707777,0.000000
5688.965235,148.041188,-8656.879127,0.000000
5688.965559,222.061783,-8733.488677,0.000000
5688.965883,370.102971,-8886.707777,0.000000
5688.966207,222.061783,-8427.050478,0.000000
5688.966532,222.061783,-8886.707777,0.000000
5688.966856,222.061783,-8656.879127,-296.082377
5688.967180,370.102971,-8350.440928,0.000000
5688.967504,74.020594,-8273.831378,-148.041188
5688.967829,-296.082377,-8733.488677,148.041188
5688.968153,148.041188,-8580.269578,-148.041188
5688.968477,74.020594,-8503.660028,-222.061783
5688.968802,148.041188,-8886.707777,-296.082377
5688.969126,370.102971,-8427.050478,-444.123565
5688.969450,222.061783,-8963.317327,-444.123565
5688.969774,518.144159,-8427.050478,-296.082377
5688.970099,444.123565,-8656.879127,-370.102971
5688.970423,370.102971,-8733.488677,-444.123565
5688.970747,888.247130,-8580.269578,-444.123565
5688.971071,296.082377,-8656.879127,-444.123565
5688.971396,444.123565,-8503.660028,-222.061783
5688.971720,370.102971,-8197.221829,-222.061783
5688.972044,592.164754,-8733.488677,-444.123565
5688.972369,74.020594,-8656.879127,-296.082377
5688.972693,518.144159,-8733.488677,0.000000
5688.973017,222.061783,-8503.660028,0.000000
5688.973341,444.123565,-8656.879127,148.041188
5688.973666,444.123565,-8810.098227,0.000000
5688.973990,592.164754,-8810.098227,74.020594
5688.974314,74.020594,-8350.440928,74.020594
5688.974638,222.061783,-8886.707777,-148.041188
5688.974963,740.205942,-7814.174080,74.020594
5688.975287,444.123565,-8733.488677,74.020594
5688.975611,148.041188,-8503.660028,74.020594
5688.975936,222.061783,-8733.488677,74.020594
5688.976260,296.082377,-8963.317327,74.020594
5688.976584,444.123565,-8580.269578,0.000000
5688.976908,444.123565,-8197.221829,-148.041188
5688.977233,444.123565,-8580.269578,0.000000
5688.977557,444.123565,-8350.440928,0.000000
5688.977881,0.000000,-8963.317327,444.123565
5688.978205,0.000000,-8656.879127,74.020594
5688.978530,148.041188,-8427.050478,74.020594
5688.978854,370.102971,-8656.879127,0.000000
5688.979178,222.061783,-8580.269578,444.123565
5688.979503,518.144159,-8810.098227,0.000000
5688.979827,740.205942,-8580.269578,-148.041188
5688.980151,296.082377,-8810.098227,0.000000
5688.980475,592.164754,-8503.660028,-148.041188
5688.980800,370.102971,-8580.269578,-296.082377
5688.981124,222.061783,-8197.221829,-296.082377
5688.981448,222.061783,-8656.879127,-148.041188
5688.981772,0.000000,-8733.488677,-296.082377
5688.982097,666.185348,-8580.269578,-222.061783
5688.982421,444.123565,-8963.317327,-370.102971
5688.982745,444.123565,-9039.926876,-148.041188
5688.983069,222.061783,-8733.488677,-296.082377
5688.983394,1110.308913,-9116.536426,0.000000
5688.983718,222.061783,-8503.660028,-444.123565
5688.984042,814.226536,-8886.707777,-370.102971
5688.984367,518.144159,-8580.269578,-296.082377
5688.984691,740.205942,-8580.269578,-296.082377
5688.985015,518.144159,-8656.879127,-518.144159
5688.985339,296.082377,-8580.269578,0.000000
5688.985664,370.102971,-8886.707777,-148.041188
5688.985988,518.144159,-8273.831378,-444.123565
5688.986312,962.267725,-8427.050478,-222.061783
5688.986636,740.205942,-8656.879127,-296.082377
5688.986961,814.226536,-8580.269578,-370.102971
5688.987285,740.205942,-8427.050478,-518.144159
5688.987609,666.185348,-8810.098227,-370.102971
5688.987934,370.102971,-8427.050478,-296.082377
5688.988258,296.082377,-8580.269578,-148.041188
5688.988582,222.061783,-8656.879127,-444.123565
5688.988906,518.144159,-8733.488677,0.000000
5688.989231,444.123565,-8733.488677,-444.123565
5688.989555,444.123565,-8810.098227,-222.061783
5688.989879,444.123565,-8503.660028,-296.082377
5688.990203,444.123565,-8810.098227,-370.102971
5688.990528,370.102971,-8044.002729,222.061783
5688.990852,370.102971,-8580.269578,-222.061783
5688.991176,444.123565,-8733.488677,-296.082377
5688.991501,296.082377,-8120.612279,0.000000
5688.991825,148.041188,-8810.098227,0.000000
5688.992149,370.102971,-8733.488677,0.000000
5688.992473,370.102971,-8427.050478,-296.082377
5688.992798,370.102971,-8580.269578,-222.061783
5688.993122,370.102971,-8656.879127,74.020594
5688.993446,148.041188,-7967.393179,0.000000
5688.993770,296.082377,-8503.660028,-296.082377
5688.994095,296.082377,-8350.440928,-222.061783
5688.994419,666.185348,-8733.488677,-296.082377
5688.994743,740.205942,-8120.612279,0.000000
5688.995068,518.144159,-8197.221829,-148.041188
5688.995392,444.123565,-8503.660028,-296.082377
5688.995716,518.144159,-8350.440928,-222.061783
5688.996040,444.123565,-8733.488677,-74.020594
5688.996365,962.267725,-8503.660028,-444.123565
5688.996689,740.205942,-8733.488677,0.000000
5688.997013,444.123565,-8733.488677,-222.061783
5688.997337,296.082377,-8503.660028,-370.102971
5688.997662,370.102971,-8656.879127,-370.102971
5688.997986,666.185348,-8580.269578,-370.102971
5688.998310,740.205942,-8427.050478,-370.102971
5688.998635,444.123565,-8350.440928,-370.102971
5688.998959,888.247130,-8656.879127,-666.185348
5688.999283,444.123565,-8427.050478,-370.102971
5688.999607,518.144159,-8503.660028,-444.123565
5688.999932,518.144159,-8580.269578,-518.144159
5689.000256,518.144159,-8350.440928,-518.144159
5689.000580,296.082377,-8273.831378,-296.082377
5689.000904,518.144159,-8197.221829,-666.185348
5689.001229,518.144159,-8427.050478,-592.164754
5689.001553,740.205942,-8656.879127,-888.247130
5689.001877,518.144159,-8273.831378,-814.226536
5689.002202,518.144159,-8503.660028,-592.164754
5689.002526,592.164754,-8656.879127,-666.185348
5689.002850,518.144159,-8503.660028,-740.205942
5689.003174,814.226536,-8810.098227,-518.144159
5689.003499,740.205942,-8580.269578,-666.185348
5689.003823,666.185348,-8656.879127,-666.185348
5689.004147,592.164754,-8810.098227,-814.226536
5689.004471,740.205942,-8197.221829,-740.205942
5689.004796,296.082377,-8503.660028,-666.185348
5689.005120,592.164754,-8963.317327,-370.102971
5689.005444,518.144159,-8580.269578,-518.144159
5689.005769,592.164754,-8810.098227,-444.123565
5689.006093,518.144159,-8886.707777,-444.123565
5689.006417,444.123565,-8886.707777,-518.144159
5689.006741,444.123565,-8886.707777,-444.123565
5689.007066,148.041188,-8963.317327,-370.102971
5689.007390,666.185348,-8656.879127,-296.082377
5689.007714,296.082377,-8886.707777,-222.061783
5689.008038,296.082377,-8580.269578,-592.164754
5689.008363,444.123565,-9039.926876,-518.144159
5689.008687,222.061783,-8810.098227,-592.164754
5689.009011,296.082377,-8273.831378,-222.061783
5689.009335,148.041188,-9039.926876,-518.144159
5689.009660,592.164754,-8656.879127,-296.082377
5689.009984,148.041188,-8733.488677,-444.123565
5689.010308,296.082377,-8580.269578,-592.164754
5689.010633,296.082377,-8580.269578,-296.082377
5689.010957,148.041188,-8810.098227,-222.061783
5689.011281,222.061783,-8656.879127,-222.061783
5689.011605,148.041188,-7890.783629,-444.123565
5689.011930,222.061783,-8580.269578,-518.144159
5689.012254,518.144159,-8273.831378,-222.061783
5689.012578,296.082377,-8503.660028,-296.082377
5689.012902,296.082377,-8886.707777,-444.123565
5689.013227,148.041188,-8197.221829,0.000000
5689.013551,370.102971,-8427.050478,-74.020594
5689.013875,518.144159,-8427.050478,-296.082377
5689.014199,296.082377,-8350.440928,-296.082377
5689.014524,888.247130,-9039.926876,-222.061783
5689.014848,592.164754,-8197.221829,-148.041188
5689.015172,888.247130,-8427.050478,-518.144159
5689.015496,444.123565,-8350.440928,-370.102971
5689.015821,444.123565,-8197.221829,-222.061783
5689.016145,296.082377,-8580.269578,-518.144159
5689.016469,296.082377,-8503.660028,-370.102971
5689.016793,592.164754,-8197.221829,-370.102971
5689.017118,444.123565,-8427.050478,-296.082377
5689.017442,296.082377,-8350.440928,-296.082377
5689.017766,740.205942,-8503.660028,-370.102971
5689.018090,518.144159,-8656.879127,-222.061783
5689.018415,592.164754,-8044.002729,-370.102971
5689.018739,888.247130,-8273.831378,-444.123565
5689.019063,518.144159,-8273.831378,-592.164754
5689.019387,592.164754,-8503.660028,-444.123565
5689.019712,222.061783,-8733.488677,-518.144159
5689.020036,518.144159,-8503.660028,-666.185348
5689.020360,518.144159,-8656.879127,-592.164754
5689.020684,296.082377,-8886.707777,-666.185348
5689.021009,370.102971,-8810.098227,-666.185348
5689.021333,444.123565,-8810.098227,-444.123565
5689.021657,296.082377,-8580.269578,-666.185348
5689.021981,296.082377,-8580.269578,-740.205942
5689.022306,296.082377,-8886.707777,-888.247130
5689.022630,370.102971,-8733.488677,-888.247130
5689.022954,222.061783,-8810.098227,-1258.350101
5689.023279,296.082377,-8580.269578,-1036.288319
5689.023603,370.102971,-8503.660028,-814.226536
5689.023927,222.061783,-8733.488677,-888.247130
5689.024251,74.020594,-8656.879127,-740.205942
5689.024576,0.000000,-8503.660028,-518.144159
5689.024900,444.123565,-8733.488677,-1110.308913
5689.025224,592.164754,-8503.660028,-962.267725
5689.025548,370.102971,-8656.879127,-740.205942
5689.025873,518.144159,-9039.926876,-1036.288319
5689.026197,222.061783,-8580.269578,-666.185348
5689.026521,222.061783,-9039.926876,-740.205942
5689.026845,74.020594,-8656.879127,-740.205942
5689.027170,518.144159,-9422.974625,-666.185348
5689.027494,666.185348,-8963.317327,-740.205942
5689.027818,518.144159,-8427.050478,-740.205942
5689.028142,370.102971,-8503.660028,-666.185348
5689.028467,444.123565,-8810.098227,-666.185348
5689.028791,296.082377,-8427.050478,-222.061783
5689.029115,370.102971,-8733.488677,-666.185348
5689.029439,370.102971,-8503.660028,-740.205942
5689.029764,444.123565,-8580.269578,-592.164754
5689.030088,0.000000,-9499.584175,-222.061783
5689.030412,518.144159,-8656.879127,-666.185348
5689.030736,814.226536,-8656.879127,-444.123565
5689.031061,666.185348,-8580.269578,-740.205942
5689.031385,666.185348,-8810.098227,-74.020594
5689.031709,74.020594,-8350.440928,-296.082377
5689.032033,518.144159,-8580.269578,-296.082377
5689.032358,370.102971,-8120.612279,-518.144159
5689.032682,518.144159,-8810.098227,-370.102971
5689.033006,296.082377,-7814.174080,-518.144159
5689.033330,148.041188,-8733.488677,-222.061783
5689.033655,296.082377,-8350.440928,-222.061783
5689.033979,444.123565,-8580.269578,0.000000
5689.034303,592.164754,-8656.879127,-518.144159
5689.034627,370.102971,-8580.269578,-296.082377
5689.034952,592.164754,-8810.098227,0.000000
5689.035276,296.082377,-8503.660028,-222.061783
5689.035600,74.020594,-8810.098227,0.000000
5689.035924,148.041188,-8427.050478,-370.102971
5689.036249,518.144159,-8963.317327,-370.102971
5689.036573,222.061783,-8273.831378,-222.061783
5689.036897,518.144159,-8580.269578,0.000000
5689.037221,444.123565,-8810.098227,0.000000
5689.037546,444.123565,-8733.488677,-148.041188
5689.037870,518.144159,-8733.488677,-296.082377
5689.038194,666.185348,-8580.269578,0.000000
5689.038518,0.000000,-8733.488677,-74.020594
5689.038843,518.144159,-8733.488677,-296.082377
5689.039167,370.102971,-8810.098227,-518.144159
5689.039491,222.061783,-8656.879127,-370.102971
5689.039815,592.164754,-9116.536426,-888.247130
5689.040140,148.041188,-8427.050478,-370.102971
5689.040464,740.205942,-8733.488677,-592.164754
5689.040788,518.144159,-9039.926876,-444.123565
5689.041112,740.205942,-8733.488677,-592.164754
5689.041437,444.123565,-8044.002729,-740.205942
5689.041761,592.164754,-9039.926876,-592.164754
5689.042085,592.164754,-8427.050478,-592.164754
5689.042410,814.226536,-8810.098227,-592.164754
5689.042734,370.102971,-9116.536426,-666.185348
5689.043058,666.185348,-8886.707777,-962.267725
5689.043382,666.185348,-8656.879127,-740.205942
5689.043707,296.082377,-8273.831378,-370.102971
5689.044031,296.082377,-9039.926876,-592.164754
5689.044355,962.267725,-8656.879127,-518.144159
5689.044679,370.102971,-8656.879127,-814.226536
5689.045004,444.123565,-8733.488677,-592.164754
5689.045328,222.061783,-8810.098227,-592.164754
5689.045652,888.247130,-8350.440928,-592.164754
5689.045976,370.102971,-8580.269578,-518.144159
5689.046301,444.123565,-8427.050478,-814.226536
5689.046625,444.123565,-8963.317327,-518.144159
5689.046949,518.144159,-8580.269578,-296.082377
5689.047273,444.123565,-8580.269578,-592.164754
5689.047598,148.041188,-8580.269578,-518.144159
5689.047922,444.123565,-8656.879127,-592.164754
5689.048246,518.144159,-8350.440928,-518.144159
5689.048570,370.102971,-8197.221829,-592.164754
5689.048895,518.144159,-8350.440928,-444.123565
5689.049219,296.082377,-8427.050478,-518.144159
5689.049543,592.164754,-8656.879127,-740.205942
5689.049867,592.164754,-7967.393179,74.020594
5689.050192,592.164754,-8273.831378,-370.102971
5689.050516,370.102971,-8503.660028,0.000000
5689.050840,444.123565,-8427.050478,-370.102971
5689.051164,444.123565,-8656.879127,-370.102971
5689.051489,444.123565,-8044.002729,-370.102971
5689.051813,592.164754,-8273.831378,-444.123565
5689.052137,222.061783,-8503.660028,0.000000
5689.052461,370.102971,-8350.440928,-296.082377
5689.052786,370.102971,-8197.221829,518.144159
5689.053110,222.061783,-8350.440928,0.000000
5689.053434,444.123565,-8656.879127,0.000000
5689.053758,592.164754,-8656.879127,0.000000
5689.054083,518.144159,-8580.269578,0.000000
5689.054407,444.123565,-8580.269578,-296.082377
5689.054731,296.082377,-8656.879127,0.000000
5689.055055,444.123565,-8810.098227,-296.082377
5689.055380,370.102971,-8886.707777,-370.102971
5689.055704,592.164754,-8580.269578,-370.102971
5689.056028,222.061783,-8427.050478,0.000000
5689.056352,592.164754,-8503.660028,-222.061783
5689.056677,296.082377,-8503.660028,-222.061783
5689.057001,740.205942,-9039.926876,-370.102971
5689.057325,222.061783,-8427.050478,-148.041188
5689.057649,296.082377,-8197.221829,-148.041188
5689.057974,296.082377,-8733.488677,-222.061783
5689.058298,518.144159,-9039.926876,-296.082377
5689.058622,592.164754,-8886.707777,-592.164754
5689.058946,222.061783,-8733.488677,-370.102971
5689.059271,370.102971,-8963.317327,0.000000
5689.059595,222.061783,-8580.269578,-296.082377
5689.059919,814.226536,-8886.707777,-148.041188
5689.060243,518.144159,-8656.879127,-370.102971
5689.060568,370.102971,-8886.707777,-518.144159
5689.060892,518.144159,-8197.221829,-148.041188
5689.061216,370.102971,-9269.755526,148.041188
5689.061541,296.082377,-8656.879127,-444.123565
5689.061865,444.123565,-8656.879127,-444.123565
5689.062189,296.082377,-8656.879127,-592.164754
5689.062513,444.123565,-8733.488677,-370.102971
5689.062838,444.123565,-8810.098227,-444.123565
5689.063162,740.205942,-8963.317327,-370.102971
5689.063486,444.123565,-8656.879127,-518.144159
5689.063810,592.164754,-8963.317327,-518.144159
5689.064135,370.102971,-8810.098227,-222.061783
5689.064459,370.102971,-8427.050478,-148.041188
5689.064783,148.041188,-8656.879127,-518.144159
5689.065107,296.082377,-8580.269578,-666.185348
5689.065432,1110.308913,-8427.050478,-148.041188
5689.065756,518.144159,-8273.831378,-444.123565
5689.066080,740.205942,-8580.269578,-148.041188
5689.066404,370.102971,-8350.440928,-222.061783
5689.066729,444.123565,-8963.317327,0.000000
5689.067053,296.082377,-8044.002729,0.000000
5689.067377,444.123565,-8580.269578,-222.061783
5689.067701,518.144159,-8503.660028,0.000000
5689.068026,592.164754,-8197.221829,0.000000
5689.068350,0.000000,-8810.098227,296.082377
5689.068674,148.041188,-8044.002729,0.000000
5689.068998,370.102971,-8733.488677,0.000000
5689.069323,148.041188,-8350.440928,-296.082377
5689.069647,962.267725,-9039.926876,222.061783
5689.069971,148.041188,-8503.660028,-296.082377
5689.070295,518.144159,-8656.879127,0.000000
5689.070620,296.082377,-8044.002729,-370.102971
5689.070944,518.144159,-8733.488677,0.000000
5689.071268,296.082377,-7890.783629,0.000000
5689.071592,444.123565,-8427.050478,0.000000
5689.071917,222.061783,-8580.269578,-148.041188
5689.072241,518.144159,-8503.660028,0.000000
5689.072565,518.144159,-8120.612279,-740.205942
5689.072889,296.082377,-8503.660028,0.000000
5689.073214,518.144159,-8580.269578,-222.061783
5689.073538,0.000000,-8580.269578,0.000000
5689.073862,518.144159,-8273.831378,74.020594
5689.074186,222.061783,-8273.831378,-222.061783
5689.074511,444.123565,-8733.488677,-296.082377
5689.074835,148.041188,-8044.002729,0.000000
5689.075159,444.123565,-8580.269578,0.000000
5689.075483,296.082377,-8273.831378,-222.061783
5689.075808,370.102971,-8580.269578,-74.020594
5689.076132,444.123565,-8963.317327,-222.061783
5689.076456,74.020594,-8580.269578,0.000000
5689.076780,148.041188,-8963.317327,0.000000
5689.077105,370.102971,-8580.269578,0.000000
5689.077429,518.144159,-8656.879127,-148.041188
5689.077753,444.123565,-8656.879127,-296.082377
5689.078077,370.102971,-9499.584175,0.000000
5689.078402,0.000000,-8656.879127,-296.082377
5689.078726,444.123565,-9039.926876,-370.102971
5689.079050,518.144159,-8656.879127,-444.123565
5689.079374,518.144159,-8656.879127,-296.082377
5689.079699,518.144159,-8733.488677,-740.205942
5689.080023,444.123565,-8886.707777,-370.102971
5689.080347,592.164754,-8886.707777,-370.102971
5689.080672,296.082377,-8886.707777,-370.102971
5689.080996,148.041188,-8503.660028,-370.102971
5689.081320,222.061783,-8656.879127,-370.102971
5689.081644,666.185348,-8810.098227,-296.082377
5689.081969,74.020594,-8580.269578,-296.082377
5689.082293,370.102971,-9116.536426,0.000000
5689.082617,370.102971,-8427.050478,-148.041188
5689.082941,370.102971,-8963.317327,0.000000
5689.083266,0.000000,-8580.269578,-222.061783
5689.083590,592.164754,-8427.050478,0.000000
5689.083914,296.082377,-8656.879127,0.000000
5689.084238,518.144159,-8733.488677,0.000000
5689.084563,592.164754,-8580.269578,0.000000
5689.084887,814.226536,-8656.879127,0.000000
5689.085211,592.164754,-8350.440928,-592.164754
5689.085535,370.102971,-8503.660028,0.000000
5689.085860,518.144159,-8350.440928,0.000000
5689.086184,222.061783,-8427.050478,0.000000
5689.086508,444.123565,-8350.440928,0.000000
5689.086832,518.144159,-8503.660028,74.020594
5689.087157,518.144159,-8350.440928,148.041188
5689.087481,370.102971,-8580.269578,296.082377
5689.087805,296.082377,-8427.050478,222.061783
5689.088129,518.144159,-8733.488677,0.000000
5689.088454,592.164754,-8580.269578,222.061783
5689.088778,370.102971,-8350.440928,148.041188
5689.089102,444.123565,-8580.269578,0.000000
5689.089426,444.123565,-8810.098227,-148.041188
5689.089751,370.102971,-8350.440928,0.000000
5689.090075,370.102971,-8656.879127,0.000000
5689.090399,518.144159,-8427.050478,0.000000
5689.090723,592.164754,-8350.440928,0.000000
5689.091048,222.061783,-8427.050478,0.000000
5689.091372,148.041188,-8273.831378,0.000000
5689.091696,296.082377,-8733.488677,-296.082377
5689.092020,518.144159,-8273.831378,0.000000
5689.092345,444.123565,-8350.440928,-518.144159
5689.092669,0.000000,-8656.879127,-222.061783
5689.092993,74.020594,-8733.488677,-444.123565
5689.093317,296.082377,-9116.536426,-222.061783
5689.093642,148.041188,-8733.488677,-370.102971
5689.093966,370.102971,-8580.269578,-148.041188
5689.094290,444.123565,-8580.269578,-592.164754
5689.094614,444.123565,-8580.269578,-370.102971
5689.094939,518.144159,-8733.488677,-296.082377
5689.095263,666.185348,-8580.269578,-518.144159
5689.095587,740.205942,-8350.440928,-518.144159
5689.095911,370.102971,-8733.488677,-592.164754
5689.096236,296.082377,-8427.050478,-444.123565
5689.096560,666.185348,-8810.098227,-592.164754
5689.096884,666.185348,-8810.098227,-666.185348
5689.097208,222.061783,-8427.050478,-518.144159
5689.097533,518.144159,-8580.269578,-592.164754
5689.097857,148.041188,-8886.707777,-296.082377
5689.098181,222.061783,-8963.317327,-518.144159
5689.098505,444.123565,-8810.098227,-666.185348
5689.098830,666.185348,-8810.098227,-518.144159
5689.099154,592.164754,-8503.660028,-592.164754
5689.099478,222.061783,-8963.317327,0.000000
5689.099803,518.144159,-8197.221829,-740.205942
5689.100127,592.164754,-8810.098227,-444.123565
5689.100451,518.144159,-8503.660028,-666.185348
5689.100775,740.205942,-8120.612279,0.000000
5689.101100,518.144159,-8580.269578,-592.164754
5689.101424,444.123565,-8427.050478,-444.123565
5689.101748,740.205942,-8580.269578,-444.123565
5689.102072,370.102971,-8733.488677,-518.144159
5689.102397,962.267725,-8733.488677,-222.061783
5689.102721,518.144159,-8580.269578,-592.164754
5689.103045,518.144159,-8810.098227,-222.061783
5689.103369,444.123565,-8273.831378,-370.102971
5689.103694,888.247130,-8273.831378,-518.144159
5689.104018,296.082377,-8580.269578,-370.102971
5689.104342,740.205942,-8580.269578,0.000000
5689.104666,222.061783,-8350.440928,-148.041188
5689.104991,1184.329507,-8656.879127,-222.061783
5689.105315,296.082377,-8733.488677,0.000000
5689.105639,296.082377,-8733.488677,74.020594
5689.105963,444.123565,-8273.831378,74.020594
5689.106288,148.041188,-8120.612279,74.020594
5689.106612,518.144159,-8580.269578,0.000000
5689.106936,296.082377,-8580.269578,-222.061783
5689.107260,444.123565,-8656.879127,0.000000
5689.107585,222.061783,-8656.879127,0.000000
5689.107909,888.247130,-8733.488677,148.041188
5689.108233,0.000000,-8427.050478,0.000000
5689.108557,666.185348,-8503.660028,-296.082377
5689.108882,444.123565,-8656.879127,0.000000
5689.109206,666.185348,-8733.488677,0.000000
5689.109530,148.041188,-8197.221829,0.000000
5689.109854,296.082377,-8503.660028,-296.082377
5689.110179,518.144159,-8580.269578,-148.041188
5689.110503,592.164754,-8197.221829,-370.102971
5689.110827,962.267725,-8350.440928,0.000000
5689.111151,370.102971,-8733.488677,-148.041188
5689.111476,518.144159,-8733.488677,-296.082377
5689.111800,296.082377,-8656.879127,-148.041188
5689.112124,222.061783,-8120.612279,74.020594
5689.112448,296.082377,-8580.269578,-592.164754
5689.112773,740.205942,-8580.269578,-444.123565
5689.113097,296.082377,-8120.612279,-370.102971
5689.113421,740.205942,-8810.098227,74.020594
5689.113745,444.123565,-8503.660028,-296.082377
5689.114069,814.226536,-8580.269578,-444.123565
5689.114394,444.123565,-8580.269578,-592.164754
5689.114718,444.123565,-8503.660028,-296.082377
5689.115042,296.082377,-8503.660028,-296.082377
5689.115366,518.144159,-8733.488677,-666.185348
5689.115691,518.144159,-8580.269578,-814.226536
5689.116015,370.102971,-8810.098227,-592.164754
5689.116339,666.185348,-8580.269578,-518.144159
5689.116663,296.082377,-8733.488677,-814.226536
5689.116987,666.185348,-8733.488677,-666.185348
5689.117312,370.102971,-8810.098227,-740.205942
5689.117636,592.164754,-8886.707777,-666.185348
5689.117960,222.061783,-8503.660028,-666.185348
5689.118284,444.123565,-8733.488677,-592.164754
5689.118609,296.082377,-8886.707777,-888.247130
5689.118933,666.185348,-8810.098227,-814.226536
5689.119257,518.144159,-8427.050478,-1258.350101
5689.119581,592.164754,-8580.269578,-740.205942
5689.119906,444.123565,-8503.660028,-592.164754
5689.120230,296.082377,-8733.488677,-888.247130
5689.120554,592.164754,-8427.050478,-296.082377
5689.120878,296.082377,-8503.660028,-740.205942
5689.121202,444.123565,-8886.707777,-740.205942
5689.121527,74.020594,-8350.440928,-592.164754
5689.121851,296.082377,-8810.098227,-592.164754
5689.122175,518.144159,-8656.879127,-444.123565
5689.122499,666.185348,-8580.269578,-444.123565
5689.122824,370.102971,-8656.879127,-444.123565
5689.123148,666.185348,-8656.879127,-444.123565
5689.123472,814.226536,-8044.002729,-370.102971
5689.123796,444.123565,-8350.440928,-296.082377
5689.124120,444.123565,-8273.831378,-296.082377
5689.124445,370.102971,-8350.440928,-222.061783
5689.124769,370.102971,-8044.002729,-296.082377
5689.125093,74.020594,-8503.660028,-296.082377
5689.125417,370.102971,-8656.879127,-296.082377
5689.125742,370.102971,-8503.660028,-370.102971
5689.126066,370.102971,-8503.660028,-592.164754
5689.126390,0.000000,-8580.269578,-444.123565
5689.126714,296.082377,-8580.269578,-296.082377
5689.127038,296.082377,-8427.050478,-444.123565
5689.127363,370.102971,-8503.660028,-592.164754
5689.127687,518.144159,-8120.612279,-740.205942
5689.128011,444.123565,-8656.879127,-666.185348
5689.128335,518.144159,-8733.488677,-814.226536
5689.128660,0.000000,-8656.879127,-444.123565
5689.128984,370.102971,-8503.660028,-296.082377
5689.129308,222.061783,-8580.269578,-296.082377
5689.129632,296.082377,-8350.440928,-296.082377
5689.129956,370.102971,-8886.707777,-444.123565
5689.130281,518.144159,-8503.660028,-296.082377
5689.130605,222.061783,-8656.879127,-666.185348
5689.130929,0.000000,-8810.098227,-148.041188
5689.131253,444.123565,-8580.269578,-296.082377
5689.131578,518.144159,-8656.879127,-592.164754
5689.131902,592.164754,-9116.536426,-518.144159
5689.132226,296.082377,-8427.050478,-296.082377
5689.132550,592.164754,-8886.707777,-444.123565
5689.132874,370.102971,-8427.050478,-740.205942
5689.133199,814.226536,-9039.926876,-444.123565
5689.133523,592.164754,-8503.660028,-592.164754
5689.133847,444.123565,-8580.269578,-518.144159
5689.134171,222.061783,-8427.050478,-740.205942
5689.134496,666.185348,-8810.098227,-666.185348
5689.134820,518.144159,-8427.050478,-592.164754
5689.135144,666.185348,-8733.488677,-518.144159
5689.135468,592.164754,-8656.879127,-666.185348
5689.135793,296.082377,-8656.879127,-370.102971
5689.136117,518.144159,-8810.098227,-518.144159
5689.136441,740.205942,-8733.488677,-518.144159
5689.136765,666.185348,-8580.269578,-888.247130
5689.137089,740.205942,-8427.050478,-740.205942
5689.137414,518.144159,-8580.269578,-740.205942
5689.137738,370.102971,-8733.488677,-740.205942
5689.138062,296.082377,-8580.269578,-444.123565
5689.138386,518.144159,-8580.269578,-370.102971
5689.138711,444.123565,-8503.660028,-592.164754
5689.139035,74.020594,-8427.050478,74.020594
5689.139359,370.102971,-8580.269578,-296.082377
5689.139683,370.102971,-8427.050478,0.000000
5689.140007,296.082377,-8580.269578,-444.123565
5689.140332,370.102971,-9346.365076,-296.082377
5689.140656,0.000000,-8350.440928,-148.041188
5689.140980,296.082377,-8503.660028,-444.123565
5689.141304,444.123565,-8810.098227,-444.123565
5689.141629,518.144159,-8503.660028,-148.041188
5689.141953,296.082377,-8273.831378,-518.144159
5689.142277,296.082377,-8273.831378,-518.144159
5689.142601,444.123565,-8580.269578,0.000000
5689.142925,370.102971,-8503.660028,-296.082377
5689.143250,0.000000,-7967.393179,-444.123565
5689.143574,296.082377,-8120.612279,-666.185348
5689.143898,296.082377,-8503.660028,-740.205942
5689.144222,148.041188,-8350.440928,-222.061783
5689.144547,370.102971,-8350.440928,-1036.288319
5689.144871,370.102971,-8733.488677,-518.144159
5689.145195,444.123565,-8427.050478,-592.164754
5689.145519,444.123565,-8427.050478,-444.123565
5689.145843,518.144159,-8580.269578,-740.205942
5689.146168,370.102971,-8503.660028,-222.061783
5689.146492,444.123565,-8886.707777,-222.061783
5689.146816,222.061783,-8273.831378,-518.144159
5689.147140,518.144159,-8810.098227,-518.144159
5689.147465,222.061783,-8733.488677,74.020594
5689.147789,444.123565,-8503.660028,0.000000
5689.148113,296.082377,-8580.269578,-518.144159
5689.148437,592.164754,-8503.660028,-518.144159
5689.148762,814.226536,-8580.269578,-518.144159
5689.149086,592.164754,-8580.269578,-370.102971
5689.149410,592.164754,-8503.660028,-148.041188
5689.149734,444.123565,-8503.660028,-444.123565
5689.150058,518.144159,-8503.660028,-370.102971
5689.150383,296.082377,-8503.660028,-444.123565
5689.150707,296.082377,-8733.488677,-296.082377
5689.151031,592.164754,-8580.269578,-666.185348
5689.151355,370.102971,-8350.440928,-444.123565
5689.151680,148.041188,-8580.269578,-370.102971
5689.152004,296.082377,-8503.660028,-518.144159
5689.152328,740.205942,-8963.317327,-592.164754
5689.152652,518.144159,-8656.879127,-814.226536
5689.152976,518.144159,-8733.488677,-444.123565
5689.153301,222.061783,-8503.660028,-444.123565
5689.153625,296.082377,-8427.050478,-444.123565
5689.153949,370.102971,-8963.317327,-592.164754
5689.154273,296.082377,-9116.536426,-814.226536
5689.154598,444.123565,-8580.269578,-370.102971
5689.154922,518.144159,-8886.707777,-370.102971
5689.155246,444.123565,-8656.879127,-370.102971
5689.155570,518.144159,-8810.098227,-518.144159
5689.155894,962.267725,-9116.536426,-444.123565
5689.156219,444.123565,-8733.488677,-444.123565
5689.156543,592.164754,-8886.707777,-444.123565
5689.156867,296.082377,-8656.879127,-370.102971
5689.157191,518.144159,-8350.440928,-740.205942
5689.157516,296.082377,-8886.707777,-370.102971
5689.157840,666.185348,-8810.098227,-370.102971
5689.158164,444.123565,-8197.221829,-370.102971
5689.158488,444.123565,-8656.879127,0.000000
5689.158812,222.061783,-8810.098227,222.061783
5689.159137,592.164754,-8810.098227,-222.061783
5689.159461,370.102971,-8733.488677,-444.123565
5689.159785,222.061783,-8733.488677,0.000000
5689.160109,222.061783,-9116.536426,296.082377
5689.160434,296.082377,-8427.050478,-74.020594
5689.160758,444.123565,-8427.050478,-222.061783
5689.161082,518.144159,-8580.269578,-518.144159
5689.161406,518.144159,-8580.269578,-370.102971
5689.161731,370.102971,-8273.831378,0.000000
5689.162055,370.102971,-8810.098227,0.000000
5689.162379,444.123565,-8427.050478,-444.123565
5689.162703,592.164754,-8656.879127,-222.061783
5689.163027,74.020594,-8197.221829,222.061783
5689.163352,148.041188,-8503.660028,0.000000
5689.163676,0.000000,-8503.660028,-370.102971
5689.164000,296.082377,-8580.269578,-370.102971
5689.164324,370.102971,-8273.831378,-444.123565
5689.164649,592.164754,-8656.879127,-444.123565
5689.164973,592.164754,-8197.221829,-222.061783
5689.165297,370.102971,-8350.440928,-148.041188
5689.165621,222.061783,-8350.440928,0.000000
5689.165945,888.247130,-8503.660028,-518.144159
5689.166270,740.205942,-8580.269578,-148.041188
5689.166594,370.102971,-8427.050478,-222.061783
5689.166918,148.041188,-8427.050478,0.000000
5689.167242,1036.288319,-8427.050478,-222.061783
5689.167567,518.144159,-8273.831378,0.000000
5689.167891,814.226536,-8427.050478,74.020594
5689.168215,370.102971,-8427.050478,-222.061783
5689.168539,444.123565,-8503.660028,0.000000
5689.168863,444.123565,-8350.440928,-222.061783
5689.169188,592.164754,-8733.488677,0.000000
5689.169512,518.144159,-8350.440928,-222.061783
5689.169836,592.164754,-8427.050478,-444.123565
5689.170160,814.226536,-8963.317327,-296.082377
5689.170485,518.144159,-8656.879127,-444.123565
5689.170809,296.082377,-8580.269578,0.000000
5689.171133,666.185348,-8350.440928,-444.123565
5689.171457,814.226536,-9499.584175,-592.164754
5689.171781,518.144159,-8350.440928,-370.102971
5689.172106,444.123565,-8350.440928,-148.041188
5689.172430,296.082377,-8427.050478,-148.041188
5689.172754,592.164754,-8503.660028,-592.164754
5689.173078,740.205942,-8580.269578,-666.185348
5689.173403,666.185348,-8733.488677,-592.164754
5689.173727,666.185348,-8886.707777,-370.102971
5689.174051,518.144159,-8963.317327,-518.144159
5689.174375,592.164754,-9346.365076,0.000000
5689.174699,222.061783,-8656.879127,-148.041188
5689.175024,518.144159,-8656.879127,-444.123565
5689.175348,444.123565,-8656.879127,-222.061783
5689.175672,296.082377,-8197.221829,-222.061783
5689.175996,296.082377,-8886.707777,-296.082377
5689.176321,296.082377,-8580.269578,-370.102971
5689.176645,444.123565,-8580.269578,-222.061783
5689.176969,444.123565,-8580.269578,0.000000
5689.177293,222.061783,-8656.879127,0.000000
5689.177618,370.102971,-8733.488677,0.000000
5689.177942,370.102971,-8656.879127,0.000000
5689.178266,370.102971,-8886.707777,-148.041188
5689.178590,518.144159,-8810.098227,148.041188
5689.178914,296.082377,-8273.831378,0.000000
5689.179239,296.082377,-8810.098227,0.000000
5689.179563,74.020594,-8350.440928,-148.041188
5689.179887,444.123565,-8656.879127,148.041188
5689.180211,370.102971,-8580.269578,-444.123565
5689.180536,444.123565,-8350.440928,-222.061783
5689.180860,148.041188,-8350.440928,-222.061783
5689.181184,518.144159,-8350.440928,0.000000
5689.181508,444.123565,-8350.440928,-444.123565
5689.181832,592.164754,-8427.050478,-370.102971
5689.182157,444.123565,-8350.440928,-296.082377
5689.182481,740.205942,-8427.050478,74.020594
5689.182805,666.185348,-9116.536426,-444.123565
5689.183129,444.123565,-8733.488677,0.000000
5689.183454,370.102971,-8580.269578,-148.041188
5689.183778,444.123565,-8580.269578,-148.041188
5689.184102,370.102971,-8656.879127,0.000000
5689.184426,222.061783,-8580.269578,0.000000
5689.184750,370.102971,-8580.269578,74.020594
5689.185075,296.082377,-8427.050478,-222.061783
5689.185399,740.205942,-9039.926876,-370.102971
5689.185723,592.164754,-8580.269578,0.000000
5689.186047,592.164754,-8503.660028,0.000000
5689.186372,74.020594,-8810.098227,0.000000
5689.186696,444.123565,-8427.050478,0.000000
5689.187020,666.185348,-8273.831378,296.082377
5689.187344,370.102971,-8580.269578,0.000000
5689.187668,222.061783,-8810.098227,0.000000
5689.187993,148.041188,-8733.488677,-148.041188
5689.188317,296.082377,-8886.707777,-370.102971
5689.188641,370.102971,-8656.879127,-444.123565
5689.188965,518.144159,-8733.488677,-370.102971
5689.189290,444.123565,-8733.488677,-518.144159
5689.189614,370.102971,-8580.269578,-666.185348
5689.189938,222.061783,-8886.707777,-296.082377
5689.190262,518.144159,-8733.488677,-518.144159
5689.190587,518.144159,-8963.317327,-666.185348
5689.190911,296.082377,-8656.879127,-296.082377
5689.191235,666.185348,-9039.926876,-518.144159
5689.191559,370.102971,-8580.269578,-592.164754
5689.191883,222.061783,-8350.440928,-444.123565
5689.192208,518.144159,-8656.879127,-814.226536
5689.192532,518.144159,-8580.269578,-592.164754
5689.192856,592.164754,-8733.488677,-592.164754
5689.193180,518.144159,-8580.269578,-592.164754
5689.193505,370.102971,-8427.050478,-444.123565
5689.193829,592.164754,-8503.660028,-370.102971
5689.194153,666.185348,-9116.536426,-740.205942
5689.194477,666.185348,-8733.488677,-296.082377
5689.194801,518.144159,-8503.660028,-222.061783
5689.195126,444.123565,-8656.879127,0.000000
5689.195450,592.164754,-8120.612279,-296.082377
5689.195774,740.205942,-8427.050478,-444.123565
5689.196098,592.164754,-8350.440928,-222.061783
5689.196423,222.061783,-8273.831378,0.000000
5689.196747,370.102971,-8810.098227,0.000000
5689.197071,444.123565,-8503.660028,-296.082377
5689.197395,444.123565,-8810.098227,0.000000
5689.197719,74.020594,-8810.098227,0.000000
5689.198044,370.102971,-8733.488677,74.020594
5689.198368,666.185348,-9193.145976,-296.082377
5689.198692,592.164754,-8273.831378,0.000000
5689.199016,518.144159,-8580.269578,-148.041188
5689.199341,740.205942,-8580.269578,-148.041188
5689.199665,444.123565,-8733.488677,-148.041188
5689.199989,518.144159,-8427.050478,0.000000
5689.200313,222.061783,-8733.488677,0.000000
5689.200637,148.041188,-8350.440928,-222.061783
5689.200962,370.102971,-8656.879127,0.000000
5689.201286,0.000000,-8503.660028,0.000000
5689.201610,148.041188,-8350.440928,0.000000
5689.201934,444.123565,-8427.050478,0.000000
5689.202259,518.144159,-8580.269578,74.020594
5689.202583,296.082377,-8273.831378,-296.082377
5689.202907,666.185348,-8580.269578,0.000000
5689.203231,444.123565,-8273.831378,370.102971
5689.203556,296.082377,-8656.879127,0.000000
5689.203880,222.061783,-8197.221829,0.000000
5689.204204,518.144159,-8197.221829,0.000000
5689.204528,518.144159,-8656.879127,-296.082377
5689.204852,0.000000,-8427.050478,74.020594
5689.205177,296.082377,-8427.050478,-222.061783
5689.205501,592.164754,-8427.050478,0.000000
5689.205825,518.144159,-8580.269578,0.000000
5689.206149,740.205942,-8733.488677,-444.123565
5689.206474,814.226536,-8580.269578,-296.082377
5689.206798,518.144159,-9116.536426,-592.164754
5689.207122,444.123565,-8886.707777,-296.082377
5689.207446,222.061783,-8733.488677,-222.061783
5689.207770,518.144159,-8656.879127,-222.061783
5689.208095,296.082377,-8656.879127,-592.164754
5689.208419,370.102971,-8656.879127,-444.123565
5689.208743,666.185348,-8503.660028,-666.185348
5689.209067,444.123565,-8580.269578,-666.185348
5689.209392,444.123565,-8886.707777,-444.123565
5689.209716,296.082377,-9346.365076,-962.267725
5689.210040,518.144159,-8580.269578,-444.123565
5689.210364,370.102971,-8350.440928,-370.102971
5689.210688,592.164754,-8580.269578,-518.144159
5689.211013,370.102971,-9346.365076,-296.082377
5689.211337,444.123565,-8733.488677,-592.164754
5689.211661,444.123565,-8733.488677,-444.123565
5689.211985,222.061783,-8886.707777,-370.102971
5689.212310,296.082377,-8963.317327,-518.144159
5689.212634,0.000000,-8656.879127,-666.185348
5689.212958,370.102971,-8580.269578,-666.185348
5689.213283,666.185348,-8810.098227,-444.123565
5689.213607,592.164754,-8273.831378,-444.123565
5689.213931,0.000000,-8810.098227,0.000000
5689.214255,444.123565,-8733.488677,-518.144159
5689.214580,518.144159,-8273.831378,-666.185348
5689.214904,518.144159,-8656.879127,-518.144159
5689.215228,592.164754,-8963.317327,-666.185348
5689.215553,296.082377,-8580.269578,-370.102971
5689.215877,296.082377,-8733.488677,-592.164754
5689.216201,444.123565,-8580.269578,-444.123565
5689.216525,296.082377,-8656.879127,-666.185348
5689.216850,370.102971,-8503.660028,-444.123565
5689.217174,148.041188,-8120.612279,-222.061783
5689.217498,444.123565,-8656.879127,-592.164754
5689.217823,592.164754,-8427.050478,-444.123565
5689.218147,148.041188,-8886.707777,0.000000
5689.218471,592.164754,-8580.269578,-592.164754
5689.218796,74.020594,-8503.660028,-444.123565
5689.219120,592.164754,-8350.440928,-444.123565
5689.219444,296.082377,-8120.612279,-370.102971
5689.219768,370.102971,-8503.660028,0.000000
5689.220093,518.144159,-8656.879127,-444.123565
5689.220417,370.102971,-8580.269578,-222.061783
5689.220741,222.061783,-8427.050478,0.000000
5689.221066,222.061783,-8427.050478,0.000000
5689.221390,296.082377,-8580.269578,0.000000
5689.221714,444.123565,-8580.269578,0.000000
5689.222038,296.082377,-8733.488677,0.000000
5689.222363,370.102971,-8656.879127,-444.123565
5689.222687,518.144159,-8656.879127,-370.102971
5689.223011,74.020594,-8503.660028,-296.082377
5689.223336,518.144159,-8580.269578,-370.102971
5689.223660,666.185348,-8656.879127,-296.082377
5689.223984,444.123565,-8273.831378,0.000000
5689.224309,296.082377,-8503.660028,-444.123565
5689.224633,518.144159,-8503.660028,-518.144159
5689.224957,518.144159,-8427.050478,-592.164754
5689.225281,592.164754,-8963.317327,-296.082377
5689.225606,370.102971,-8503.660028,-518.144159
5689.225930,370.102971,-8733.488677,-296.082377
5689.226254,444.123565,-8733.488677,-666.185348
5689.226579,-148.041188,-9422.974625,0.000000
5689.226903,296.082377,-8810.098227,-518.144159
5689.227227,592.164754,-8656.879127,-222.061783
5689.227551,592.164754,-8580.269578,-444.123565
5689.227876,444.123565,-8810.098227,-518.144159
5689.228200,444.123565,-8656.879127,-370.102971
5689.228524,592.164754,-8503.660028,-592.164754
5689.228849,518.144159,-8656.879127,-666.185348
5689.229173,592.164754,-8503.660028,-444.123565
5689.229497,222.061783,-8044.002729,0.000000
5689.229822,444.123565,-8580.269578,-370.102971
5689.230146,444.123565,-8580.269578,-148.041188
5689.230470,518.144159,-8886.707777,-518.144159
5689.230794,518.144159,-9116.536426,-296.082377
5689.231119,518.144159,-8350.440928,-592.164754
5689.231443,370.102971,-8886.707777,-740.205942
5689.231767,444.123565,-8656.879127,-518.144159
5689.232092,814.226536,-8580.269578,-592.164754
5689.232416,518.144159,-8273.831378,-666.185348
5689.232740,444.123565,-8580.269578,-592.164754
5689.233064,592.164754,-8733.488677,-370.102971
5689.233389,222.061783,-8733.488677,-444.123565
5689.233713,888.247130,-8733.488677,-444.123565
5689.234037,370.102971,-8656.879127,-444.123565
5689.234362,592.164754,-8427.050478,-666.185348
5689.234686,518.144159,-8580.269578,-518.144159
5689.235010,444.123565,-8886.707777,-148.041188
5689.235335,222.061783,-8580.269578,-296.082377
5689.235659,296.082377,-8503.660028,-444.123565
5689.235983,444.123565,-8810.098227,-444.123565
5689.236307,222.061783,-8580.269578,-592.164754
5689.236632,518.144159,-8197.221829,-370.102971
5689.236956,444.123565,-8503.660028,-518.144159
5689.237280,740.205942,-8580.269578,-370.102971
5689.237605,518.144159,-8503.660028,-592.164754
5689.237929,740.205942,-7967.393179,0.000000
5689.238253,370.102971,-8350.440928,-518.144159
5689.238577,518.144159,-8656.879127,-222.061783
5689.238902,666.185348,-8273.831378,-222.061783
5689.239226,222.061783,-8810.098227,-222.061783
5689.239550,296.082377,-8886.707777,-222.061783
5689.239875,296.082377,-8503.660028,0.000000
5689.240199,296.082377,-8503.660028,-222.061783
5689.240523,296.082377,-8044.002729,-74.020594
5689.240848,296.082377,-8427.050478,-222.061783
5689.241172,518.144159,-8350.440928,-148.041188
5689.241496,444.123565,-8350.440928,-148.041188
5689.241820,518.144159,-8350.440928,-370.102971
5689.242145,370.102971,-9039.926876,-148.041188
5689.242469,222.061783,-8503.660028,-370.102971
5689.242793,666.185348,-8656.879127,-444.123565
5689.243118,444.123565,-8503.660028,-592.164754
5689.243442,444.123565,-8656.879127,-296.082377
5689.243766,592.164754,-8273.831378,-592.164754
5689.244090,592.164754,-8427.050478,-444.123565
5689.244415,666.185348,-8580.269578,-814.226536
5689.244739,666.185348,-8503.660028,-148.041188
5689.245063,444.123565,-8656.879127,-518.144159
5689.245388,592.164754,-8886.707777,-444.123565
5689.245712,222.061783,-8580.269578,-740.205942
5689.246036,666.185348,-8810.098227,-592.164754
5689.246361,444.123565,-8580.269578,-592.164754
5689.246685,222.061783,-8503.660028,-296.082377
5689.247009,666.185348,-8580.269578,-518.144159
5689.247333,370.102971,-8350.440928,-518.144159
5689.247658,814.226536,-8503.660028,-518.144159
5689.247982,888.247130,-8503.660028,-592.164754
5689.248306,444.123565,-8427.050478,-666.185348
5689.248631,222.061783,-8580.269578,-518.144159
5689.248955,518.144159,-8503.660028,-444.123565
5689.249279,740.205942,-9346.365076,-296.082377
5689.249603,592.164754,-8733.488677,-666.185348
5689.249928,296.082377,-8963.317327,-740.205942
5689.250252,296.082377,-8810.098227,-370.102971
5689.250576,222.061783,-8656.879127,-518.144159
5689.250901,222.061783,-8810.098227,-148.041188
5689.251225,518.144159,-8886.707777,-592.164754
5689.251549,518.144159,-8886.707777,-888.247130
5689.251874,444.123565,-8656.879127,-592.164754
5689.252198,222.061783,-8886.707777,-518.144159
5689.252522,666.185348,-8810.098227,-814.226536
5689.252846,592.164754,-8503.660028,-592.164754
5689.253171,444.123565,-8733.488677,-518.144159
5689.253495,666.185348,-8580.269578,-518.144159
5689.253819,518.144159,-8810.098227,-592.164754
5689.254144,148.041188,-8810.098227,-518.144159
5689.254468,444.123565,-8427.050478,-592.164754
5689.254792,296.082377,-9116.536426,-518.144159
5689.255116,222.061783,-8427.050478,-222.061783
5689.255441,148.041188,-8580.269578,-370.102971
5689.255765,296.082377,-8656.879127,-222.061783
5689.256089,518.144159,-8427.050478,-222.061783
5689.256414,518.144159,-8503.660028,-518.144159
5689.256738,518.144159,-8580.269578,-370.102971
5689.257062,222.061783,-8503.660028,-222.061783
5689.257387,296.082377,-8656.879127,0.000000
5689.257711,370.102971,-8044.002729,0.000000
5689.258035,592.164754,-8273.831378,-296.082377
5689.258359,444.123565,-8273.831378,-444.123565
5689.258684,296.082377,-8350.440928,0.000000
5689.259008,222.061783,-8044.002729,-148.041188
5689.259332,444.123565,-8503.660028,0.000000
5689.259657,666.185348,-8656.879127,0.000000
5689.259981,444.123565,-8503.660028,-370.102971
5689.260305,370.102971,-8503.660028,-370.102971
5689.260630,370.102971,-7814.174080,-296.082377
5689.260954,740.205942,-8503.660028,-370.102971
5689.261278,592.164754,-8350.440928,-740.205942
5689.261602,518.144159,-8503.660028,-444.123565
5689.261927,814.226536,-8963.317327,-814.226536
5689.262251,666.185348,-8656.879127,-518.144159
5689.262575,370.102971,-8350.440928,-740.205942
5689.262900,592.164754,-8273.831378,-592.164754
5689.263224,814.226536,-8197.221829,-666.185348
5689.263548,592.164754,-8733.488677,-518.144159
5689.263872,296.082377,-8427.050478,-444.123565
5689.264197,444.123565,-8580.269578,-370.102971
5689.264521,666.185348,-8733.488677,-592.164754
5689.264845,740.205942,-8810.098227,-592.164754
5689.265170,444.123565,-8886.707777,-740.205942
5689.265494,370.102971,-8503.660028,-296.082377
5689.265818,370.102971,-8503.660028,-444.123565
5689.266143,296.082377,-8963.317327,-148.041188
5689.266467,296.082377,-8503.660028,-444.123565
5689.266791,518.144159,-8886.707777,-518.144159
5689.267115,740.205942,-8810.098227,-666.185348
5689.267440,296.082377,-8810.098227,-296.082377
5689.267764,370.102971,-8350.440928,-296.082377
5689.268088,148.041188,-8656.879127,-518.144159
5689.268413,222.061783,-8810.098227,-296.082377
5689.268737,74.020594,-8810.098227,0.000000
5689.269061,592.164754,-8350.440928,-666.185348
5689.269385,296.082377,-8810.098227,-296.082377
5689.269710,592.164754,-8656.879127,-296.082377
5689.270034,296.082377,-8733.488677,-444.123565
5689.270358,444.123565,-8810.098227,-592.164754
5689.270683,370.102971,-8656.879127,-370.102971
5689.271007,444.123565,-8656.879127,-666.185348
5689.271331,444.123565,-8656.879127,-370.102971
5689.271656,148.041188,-8503.660028,-518.144159
5689.271980,518.144159,-8656.879127,-666.185348
5689.272304,444.123565,-8427.050478,-444.123565
5689.272628,740.205942,-8197.221829,-148.041188
5689.272953,222.061783,-8503.660028,-370.102971
5689.273277,222.061783,-8580.269578,-518.144159
5689.273601,666.185348,-8656.879127,-296.082377
5689.273926,296.082377,-8580.269578,-296.082377
5689.274250,0.000000,-8810.098227,0.000000
5689.274574,222.061783,-8580.269578,148.041188
5689.274898,518.144159,-8503.660028,-222.061783
5689.275223,444.123565,-8197.221829,74.020594
5689.275547,518.144159,-8427.050478,0.000000
5689.275871,666.185348,-8503.660028,-148.041188
5689.276196,518.144159,-8350.440928,0.000000
5689.276520,296.082377,-8733.488677,222.061783
5689.276844,518.144159,-8350.440928,148.041188
5689.277169,222.061783,-8273.831378,0.000000
5689.277493,592.164754,-9039.926876,0.000000
5689.277817,370.102971,-8503.660028,-148.041188
5689.278141,444.123565,-8580.269578,0.000000
5689.278466,518.144159,-8656.879127,0.000000
5689.278790,444.123565,-8503.660028,-222.061783
5689.279114,222.061783,-8810.098227,-148.041188
5689.279439,296.082377,-8656.879127,-222.061783
5689.279763,222.061783,-8427.050478,-296.082377
5689.280087,296.082377,-8733.488677,-518.144159
5689.280411,148.041188,-8273.831378,-666.185348
5689.280736,148.041188,-8503.660028,-666.185348
5689.281060,370.102971,-8733.488677,-592.164754
5689.281384,370.102971,-8427.050478,-370.102971
5689.281709,370.102971,-8580.269578,-962.267725
5689.282033,370.102971,-8427.050478,-444.123565
5689.282357,518.144159,-8656.879127,-296.082377
5689.282682,444.123565,-8733.488677,-444.123565
5689.283006,444.123565,-8503.660028,0.000000
5689.283330,0.000000,-8580.269578,-296.082377
5689.283654,222.061783,-8963.317327,-296.082377
5689.283979,370.102971,-8503.660028,-370.102971
5689.284303,222.061783,-8886.707777,-666.185348
5689.284627,296.082377,-8656.879127,-740.205942
5689.284952,296.082377,-8580.269578,0.000000
5689.285276,740.205942,-8656.879127,-444.123565
5689.285600,370.102971,-8503.660028,-592.164754
5689.285924,814.226536,-9039.926876,-666.185348
5689.286249,444.123565,-8503.660028,-296.082377
5689.286573,296.082377,-8427.050478,-222.061783
5689.286897,370.102971,-8427.050478,-296.082377
5689.287222,222.061783,-8733.488677,-444.123565
5689.287546,740.205942,-9116.536426,-444.123565
5689.287870,518.144159,-8580.269578,-296.082377
5689.288195,518.144159,-8810.098227,0.000000
5689.288519,740.205942,-8427.050478,-444.123565
5689.288843,370.102971,-9039.926876,370.102971
5689.289167,370.102971,-8273.831378,-592.164754
5689.289492,592.164754,-8733.488677,-148.041188
5689.289816,518.144159,-8580.269578,-370.102971
5689.290140,444.123565,-8503.660028,-370.102971
5689.290465,222.061783,-8503.660028,-296.082377
5689.290789,296.082377,-8503.660028,0.000000
5689.291113,296.082377,-8580.269578,-444.123565
5689.291437,444.123565,-8503.660028,0.000000
5689.291762,592.164754,-8273.831378,222.061783
5689.292086,370.102971,-8503.660028,0.000000
5689.292410,518.144159,-9039.926876,0.000000
5689.292735,444.123565,-8810.098227,-148.041188
5689.293059,74.020594,-8656.879127,74.020594
5689.293383,222.061783,-8350.440928,0.000000
5689.293708,222.061783,-8810.098227,0.000000
5689.294032,148.041188,-8427.050478,0.000000
5689.294356,666.185348,-8503.660028,-148.041188
5689.294680,592.164754,-8273.831378,-222.061783
5689.295005,592.164754,-8656.879127,-370.102971
5689.295329,296.082377,-8273.831378,-296.082377
5689.295653,518.144159,-8580.269578,0.000000
5689.295978,592.164754,-8120.612279,-592.164754
5689.296302,444.123565,-8350.440928,-148.041188
5689.296626,296.082377,-8503.660028,-444.123565
5689.296950,0.000000,-8656.879127,0.000000
5689.297275,148.041188,-8197.221829,-370.102971
5689.297599,444.123565,-8733.488677,0.000000
5689.297923,592.164754,-8427.050478,-370.102971
5689.298248,518.144159,-8733.488677,-592.164754
5689.298572,296.082377,-8733.488677,-222.061783
5689.298896,444.123565,-8427.050478,0.000000
5689.299221,518.144159,-8963.317327,-370.102971
5689.299545,370.102971,-8580.269578,0.000000
5689.299869,592.164754,-8503.660028,-296.082377
5689.300193,666.185348,-8733.488677,-222.061783
5689.300518,370.102971,-8427.050478,-296.082377
5689.300842,148.041188,-8580.269578,0.000000
5689.301166,666.185348,-8580.269578,-296.082377
5689.301491,444.123565,-9039.926876,-370.102971
5689.301815,888.247130,-8810.098227,-666.185348
5689.302139,296.082377,-8580.269578,0.000000
5689.302463,444.123565,-8656.879127,-222.061783
5689.302788,296.082377,-8503.660028,-222.061783
5689.303112,370.102971,-8886.707777,-148.041188
5689.303436,444.123565,-9269.755526,-518.144159
5689.303761,592.164754,-8273.831378,-222.061783
5689.304085,518.144159,-8427.050478,-370.102971
5689.304409,222.061783,-9039.926876,0.000000
5689.304734,296.082377,-8580.269578,-444.123565
5689.305058,296.082377,-8427.050478,-444.123565
5689.305382,444.123565,-8197.221829,-296.082377
5689.305706,444.123565,-8580.269578,-148.041188
5689.306031,296.082377,-8580.269578,-148.041188
5689.306355,74.020594,-8427.050478,-148.041188
5689.306679,518.144159,-8733.488677,-222.061783
5689.307004,370.102971,-8963.317327,-370.102971
5689.307328,888.247130,-8120.612279,-296.082377
5689.307652,296.082377,-8503.660028,-592.164754
5689.307976,518.144159,-8656.879127,-370.102971
5689.308301,592.164754,-8350.440928,-518.144159
5689.308625,518.144159,-8886.707777,0.000000
5689.308949,370.102971,-8580.269578,-518.144159
5689.309274,222.061783,-8656.879127,-222.061783
5689.309598,444.123565,-8580.269578,-296.082377
5689.309922,444.123565,-8350.440928,-296.082377
5689.310247,296.082377,-8810.098227,-592.164754
5689.310571,444.123565,-8273.831378,-296.082377
5689.310895,518.144159,-8273.831378,-222.061783
5689.311219,666.185348,-8733.488677,-296.082377
5689.311544,814.226536,-8503.660028,-222.061783
5689.311868,814.226536,-8810.098227,0.000000
5689.312192,148.041188,-8503.660028,-518.144159
5689.312517,296.082377,-8733.488677,0.000000
5689.312841,148.041188,-8503.660028,-370.102971
5689.313165,518.144159,-8733.488677,-296.082377
5689.313489,296.082377,-8273.831378,-296.082377
5689.313814,592.164754,-9039.926876,-444.123565
5689.314138,444.123565,-8350.440928,-444.123565
5689.314462,740.205942,-8503.660028,74.020594
5689.314787,296.082377,-8503.660028,-370.102971
5689.315111,444.123565,-8503.660028,0.000000
5689.315435,592.164754,-8350.440928,-592.164754
5689.315760,814.226536,-8044.002729,74.020594
5689.316082,148.041188,-8503.660028,-444.123565
5689.316407,370.102971,-8580.269578,-296.082377
5689.316731,370.102971,-8733.488677,-222.061783
5689.317055,444.123565,-8810.098227,148.041188
5689.317380,370.102971,-8886.707777,-518.144159
5689.317704,370.102971,-8197.221829,-222.061783
5689.318028,518.144159,-8350.440928,-222.061783
5689.318353,370.102971,-8733.488677,-148.041188
5689.318677,740.205942,-8580.269578,-444.123565
5689.319001,296.082377,-8580.269578,-148.041188
5689.319326,370.102971,-8656.879127,0.000000
5689.319650,296.082377,-8350.440928,-296.082377
5689.319974,666.185348,-8427.050478,-370.102971
5689.320298,518.144159,-8427.050478,0.000000
5689.320623,740.205942,-8427.050478,-296.082377
5689.320947,518.144159,-8656.879127,-296.082377
5689.321271,518.144159,-8427.050478,-296.082377
5689.321596,370.102971,-8963.317327,0.000000
5689.321920,296.082377,-9116.536426,-296.082377
5689.322244,370.102971,-8427.050478,0.000000
5689.322569,444.123565,-8580.269578,-370.102971
5689.322893,296.082377,-8120.612279,0.000000
5689.323217,222.061783,-8503.660028,-148.041188
5689.323542,518.144159,-8580.269578,-296.082377
5689.323866,296.082377,-8273.831378,-370.102971
5689.324190,666.185348,-7967.393179,-222.061783
5689.324515,444.123565,-8350.440928,-222.061783
5689.324839,370.102971,-8427.050478,0.000000
5689.325163,370.102971,-8656.879127,-296.082377
5689.325488,0.000000,-9039.926876,-296.082377
5689.325812,740.205942,-8656.879127,-444.123565
5689.326136,222.061783,-8656.879127,-518.144159
5689.326461,444.123565,-8580.269578,0.000000
5689.326785,444.123565,-8810.098227,-148.041188
5689.327109,222.061783,-8197.221829,0.000000
5689.327434,370.102971,-8427.050478,-296.082377
5689.327758,222.061783,-8733.488677,-666.185348
5689.328082,296.082377,-8580.269578,-222.061783
5689.328407,222.061783,-8427.050478,0.000000
5689.328731,222.061783,-8656.879127,-518.144159
5689.329055,296.082377,-8427.050478,-592.164754
5689.329380,592.164754,-8427.050478,-666.185348
5689.329704,370.102971,-8580.269578,-592.164754
5689.330028,740.205942,-8503.660028,-666.185348
5689.330353,518.144159,-8503.660028,-518.144159
5689.330677,518.144159,-8427.050478,-518.144159
5689.331001,518.144159,-8963.317327,-814.226536
5689.331326,740.205942,-8963.317327,-666.185348
5689.331650,296.082377,-8580.269578,-444.123565
5689.331974,148.041188,-8580.269578,-740.205942
5689.332299,370.102971,-8656.879127,-444.123565
5689.332623,518.144159,-8197.221829,-814.226536
5689.332947,592.164754,-8427.050478,-444.123565
5689.333272,666.185348,-8427.050478,-814.226536
5689.333596,444.123565,-8350.440928,-666.185348
5689.333920,518.144159,-8427.050478,-518.144159
5689.334244,296.082377,-8197.221829,-814.226536
5689.334569,592.164754,-8733.488677,-518.144159
5689.334893,666.185348,-8503.660028,-296.082377
5689.335217,666.185348,-8503.660028,-592.164754
5689.335542,370.102971,-8197.221829,-444.123565
5689.335866,296.082377,-8733.488677,-592.164754
5689.336190,518.144159,-8580.269578,-592.164754
5689.336515,518.144159,-8503.660028,-592.164754
5689.336839,296.082377,-8886.707777,-444.123565
5689.337163,592.164754,-8427.050478,-592.164754
5689.337488,518.144159,-8580.269578,-592.164754
5689.337812,444.123565,-8350.440928,-518.144159
5689.338136,592.164754,-8810.098227,-666.185348
5689.338461,666.185348,-8350.440928,-888.247130
5689.338785,370.102971,-8580.269578,-592.164754
5689.339109,74.020594,-8427.050478,-370.102971
5689.339434,592.164754,-8350.440928,-370.102971
5689.339758,740.205942,-8963.317327,-666.185348
5689.340082,814.226536,-8733.488677,-222.061783
5689.340407,74.020594,-8580.269578,-518.144159
5689.340731,296.082377,-8733.488677,0.000000
5689.341055,370.102971,-8427.050478,-370.102971
5689.341380,518.144159,-8963.317327,-296.082377
5689.341704,370.102971,-8810.098227,-518.144159
5689.342028,296.082377,-8580.269578,74.020594
5689.342353,222.061783,-8427.050478,0.000000
5689.342677,814.226536,-8656.879127,148.041188
5689.343001,518.144159,-8503.660028,-222.061783
5689.343326,740.205942,-8656.879127,-370.102971
5689.343650,518.144159,-8503.660028,-296.082377
5689.343974,148.041188,-8963.317327,-222.061783
5689.344299,296.082377,-8503.660028,-148.041188
5689.344623,296.082377,-8427.050478,0.000000
5689.344947,296.082377,-8886.707777,-370.102971
5689.345272,370.102971,-8656.879127,-222.061783
5689.345596,444.123565,-8427.050478,-296.082377
5689.345920,444.123565,-8810.098227,-296.082377
5689.346245,444.123565,-8656.879127,-296.082377
5689.346569,592.164754,-8503.660028,-222.061783
5689.346893,592.164754,-8656.879127,-666.185348
5689.347218,296.082377,-8503.660028,-444.123565
5689.347542,518.144159,-8580.269578,-296.082377
5689.347866,444.123565,-8503.660028,0.000000
5689.348190,370.102971,-8273.831378,-296.082377
5689.348515,518.144159,-9039.926876,-444.123565
5689.348839,666.185348,-8427.050478,-296.082377
5689.349163,740.205942,-8503.660028,-222.061783
5689.349488,296.082377,-8580.269578,-518.144159
5689.349812,814.226536,-8886.707777,-370.102971
5689.350136,518.144159,-8733.488677,-592.164754
5689.350461,592.164754,-8580.269578,-444.123565
5689.350785,222.061783,-8427.050478,-222.061783
5689.351109,666.185348,-9346.365076,-296.082377
5689.351434,444.123565,-8273.831378,-148.041188
5689.351758,666.185348,-8580.269578,-370.102971
5689.352082,740.205942,-8580.269578,-444.123565
5689.352407,444.123565,-8427.050478,-148.041188
5689.352731,222.061783,-8273.831378,-148.041188
5689.353055,296.082377,-8733.488677,-444.123565
5689.353380,518.144159,-8580.269578,-518.144159
5689.353704,666.185348,-8733.488677,-370.102971
5689.354028,296.082377,-8656.879127,0.000000
5689.354353,444.123565,-8580.269578,-296.082377
5689.354677,222.061783,-8427.050478,-222.061783
5689.355001,296.082377,-8503.660028,-222.061783
5689.355326,592.164754,-9193.145976,-444.123565
5689.355650,444.123565,-8273.831378,-296.082377
5689.355974,444.123565,-8197.221829,-370.102971
5689.356299,370.102971,-8503.660028,-370.102971
5689.356623,222.061783,-8580.269578,-518.144159
5689.356947,666.185348,-8733.488677,-740.205942
5689.357272,370.102971,-8503.660028,-740.205942
5689.357596,222.061783,-8503.660028,-518.144159
5689.357920,370.102971,-8427.050478,-592.164754
5689.358245,592.164754,-8963.317327,0.000000
5689.358569,444.123565,-8580.269578,-518.144159
5689.358893,370.102971,-8580.269578,-740.205942
5689.359218,592.164754,-8580.269578,-518.144159
5689.359542,0.000000,-8733.488677,0.000000
5689.359866,296.082377,-8733.488677,-370.102971
5689.360191,148.041188,-8427.050478,-370.102971
5689.360515,592.164754,-8044.002729,-592.164754
5689.360839,444.123565,-8580.269578,-666.185348
5689.361164,370.102971,-8810.098227,-296.082377
5689.361488,592.164754,-8656.879127,-518.144159
5689.361812,518.144159,-8503.660028,-592.164754
5689.362137,518.144159,-8503.660028,-592.164754
5689.362461,370.102971,-8963.317327,-370.102971
5689.362785,518.144159,-8273.831378,-222.061783
5689.363109,148.041188,-8197.221829,-740.205942
5689.363434,444.123565,-8733.488677,-370.102971
5689.363758,444.123565,-9039.926876,-370.102971
5689.364082,444.123565,-8427.050478,-444.123565
5689.364407,370.102971,-8580.269578,-518.144159
5689.364731,370.102971,-8580.269578,-222.061783
5689.365055,592.164754,-8656.879127,-444.123565
5689.365380,444.123565,-8886.707777,-444.123565
5689.365704,444.123565,-8656.879127,-518.144159
5689.366028,518.144159,-8580.269578,-666.185348
5689.366353,518.144159,-8427.050478,-592.164754
5689.366677,888.247130,-8580.269578,-444.123565
5689.367001,370.102971,-8580.269578,-370.102971
5689.367326,740.205942,-8427.050478,-592.164754
5689.367650,296.082377,-8580.269578,-296.082377
5689.367974,222.061783,-8733.488677,-296.082377
5689.368299,592.164754,-8810.098227,-296.082377
5689.368623,814.226536,-8810.098227,-666.185348
5689.368947,296.082377,-8503.660028,-370.102971
5689.369272,592.164754,-9116.536426,-444.123565
5689.369596,666.185348,-8580.269578,-296.082377
5689.369920,296.082377,-8427.050478,0.000000
5689.370245,0.000000,-8273.831378,-148.041188
5689.370569,518.144159,-8810.098227,-296.082377
5689.370893,666.185348,-8656.879127,-370.102971
5689.371218,518.144159,-8886.707777,-518.144159
5689.371542,148.041188,-8656.879127,-74.020594
5689.371866,444.123565,-8656.879127,-370.102971
5689.372191,148.041188,-8580.269578,0.000000
5689.372515,370.102971,-8427.050478,0.000000
5689.372839,222.061783,-8656.879127,-666.185348
5689.373164,370.102971,-8733.488677,0.000000
5689.373488,0.000000,-8733.488677,0.000000
5689.373812,814.226536,-8656.879127,-148.041188
5689.374137,148.041188,-8350.440928,-296.082377
5689.374461,370.102971,-8810.098227,-222.061783
5689.374785,592.164754,-8963.317327,-370.102971
5689.375110,518.144159,-8886.707777,222.061783
5689.375434,518.144159,-8656.879127,0.000000
5689.375758,518.144159,-8427.050478,-222.061783
5689.376083,666.185348,-8580.269578,-444.123565
5689.376407,296.082377,-8503.660028,-296.082377
5689.376731,370.102971,-8503.660028,74.020594
5689.377055,74.020594,-8427.050478,-296.082377
5689.377380,296.082377,-8120.612279,0.000000
5689.377704,592.164754,-8427.050478,-222.061783
5689.378028,518.144159,-8197.221829,0.000000
5689.378353,444.123565,-8427.050478,-370.102971
5689.378677,148.041188,-8580.269578,0.000000
5689.379001,370.102971,-8503.660028,0.000000
5689.379326,444.123565,-8503.660028,-222.061783
5689.379650,518.144159,-8580.269578,-370.102971
5689.379974,296.082377,-8427.050478,-518.144159
5689.380299,592.164754,-8580.269578,0.000000
5689.380623,444.123565,-8580.269578,-666.185348
5689.380947,740.205942,-8503.660028,-518.144159
5689.381272,518.144159,-8580.269578,-222.061783
5689.381596,370.102971,-8273.831378,-296.082377
5689.381920,444.123565,-8503.660028,-222.061783
5689.382245,222.061783,-7890.783629,-222.061783
5689.382569,444.123565,-8580.269578,-148.041188
5689.382893,296.082377,-8580.269578,-148.041188
5689.383218,518.144159,-8733.488677,-296.082377
5689.383542,222.061783,-8503.660028,222.061783
5689.383866,444.123565,-8427.050478,-370.102971
5689.384191,296.082377,-8810.098227,-148.041188
5689.384515,444.123565,-8580.269578,-148.041188
5689.384839,148.041188,-8350.440928,-444.123565
5689.385164,518.144159,-8503.660028,-370.102971
5689.385488,222.061783,-8273.831378,-444.123565
5689.385812,222.061783,-8503.660028,-296.082377
5689.386137,222.061783,-8350.440928,0.000000
5689.386461,814.226536,-8273.831378,-370.102971
5689.386785,370.102971,-8810.098227,-370.102971
5689.387110,444.123565,-8350.440928,-148.041188
5689.387434,296.082377,-8580.269578,-370.102971
5689.387758,296.082377,-8733.488677,-518.144159
5689.388083,592.164754,-8656.879127,-370.102971
5689.388407,518.144159,-8733.488677,-296.082377
5689.388731,296.082377,-8656.879127,-592.164754
5689.389056,444.123565,-8580.269578,-222.061783
5689.389380,74.020594,-8350.440928,-222.061783
5689.389704,444.123565,-8733.488677,-148.041188
5689.390029,666.185348,-8580.269578,-592.164754
5689.390353,518.144159,-8656.879127,-222.061783
5689.390677,222.061783,-8044.002729,148.041188
5689.391001,592.164754,-8656.879127,-222.061783
5689.391326,592.164754,-8656.879127,0.000000
5689.391650,592.164754,-8427.050478,0.000000
5689.391974,518.144159,-8656.879127,-296.082377
5689.392299,222.061783,-8656.879127,74.020594
5689.392623,148.041188,-8580.269578,0.000000
5689.392947,370.102971,-8656.879127,0.000000
5689.393272,370.102971,-8503.660028,-370.102971
5689.393596,370.102971,-8886.707777,-444.123565
5689.393920,666.185348,-8350.440928,-296.082377
5689.394245,592.164754,-8580.269578,-148.041188
5689.394569,666.185348,-8810.098227,0.000000
5689.394893,296.082377,-7814.174080,-222.061783
5689.395218,666.185348,-8580.269578,-518.144159
5689.395542,518.144159,-8503.660028,-740.205942
5689.395866,518.144159,-8733.488677,-148.041188
5689.396191,444.123565,-8580.269578,-666.185348
5689.396515,592.164754,-8427.050478,-296.082377
5689.396839,666.185348,-8503.660028,-740.205942
5689.397164,444.123565,-8733.488677,-296.082377
5689.397488,666.185348,-8197.221829,0.000000
5689.397812,222.061783,-7814.174080,222.061783
5689.398137,148.041188,-8733.488677,-222.061783
5689.398461,296.082377,-8503.660028,-296.082377
5689.398785,370.102971,-8656.879127,-296.082377
5689.399110,222.061783,-8810.098227,-296.082377
5689.399434,296.082377,-8273.831378,0.000000
5689.399758,296.082377,-8810.098227,-296.082377
5689.400083,518.144159,-8503.660028,-296.082377
5689.400407,370.102971,-8733.488677,-222.061783
5689.400731,370.102971,-8733.488677,-518.144159
5689.401056,222.061783,-8350.440928,-222.061783
5689.401380,296.082377,-8733.488677,-296.082377
5689.401704,296.082377,-8427.050478,-296.082377
5689.402029,370.102971,-9193.145976,0.000000
5689.402353,296.082377,-9116.536426,-740.205942
5689.402677,370.102971,-8656.879127,-518.144159
5689.403002,74.020594,-8733.488677,0.000000
5689.403326,370.102971,-8503.660028,-370.102971
5689.403650,444.123565,-8656.879127,-222.061783
5689.403975,444.123565,-8733.488677,-370.102971
5689.404299,444.123565,-8733.488677,-370.102971
5689.404623,370.102971,-8503.660028,-592.164754
5689.404948,0.000000,-8886.707777,-148.041188
5689.405272,444.123565,-8350.440928,-518.144159
5689.405596,592.164754,-8656.879127,-518.144159
5689.405920,444.123565,-8350.440928,-518.144159
5689.406245,592.164754,-9039.926876,0.000000
5689.406569,296.082377,-8503.660028,-370.102971
5689.406893,444.123565,-8963.317327,-222.061783
5689.407218,592.164754,-8503.660028,-370.102971
5689.407542,592.164754,-8810.098227,0.000000
5689.407866,518.144159,-8427.050478,-444.123565
5689.408191,148.041188,-8733.488677,0.000000
5689.408515,444.123565,-8503.660028,-296.082377
5689.408839,444.123565,-8427.050478,-444.123565
5689.409164,444.123565,-8350.440928,-518.144159
5689.409488,518.144159,-8503.660028,-222.061783
5689.409812,370.102971,-8580.269578,-444.123565
5689.410137,296.082377,-8503.660028,-296.082377
5689.410461,444.123565,-8044.002729,-148.041188
5689.410785,592.164754,-8503.660028,-444.123565
5689.411110,370.102971,-8580.269578,-518.144159
5689.411434,370.102971,-8503.660028,-222.061783
5689.411758,296.082377,-8350.440928,-370.102971
5689.412083,370.102971,-8810.098227,-370.102971
5689.412407,518.144159,-8427.050478,-518.144159
5689.412731,296.082377,-8733.488677,-222.061783
5689.413056,444.123565,-8273.831378,-518.144159
5689.413380,0.000000,-9116.536426,0.000000
5689.413704,222.061783,-8810.098227,-518.144159
5689.414029,444.123565,-8656.879127,-666.185348
5689.414353,518.144159,-8427.050478,-814.226536
5689.414678,296.082377,-8810.098227,-592.164754
5689.415002,740.205942,-8350.440928,-518.144159
5689.415327,296.082377,-8656.879127,-296.082377
5689.415651,296.082377,-8503.660028,-370.102971
5689.415975,518.144159,-8580.269578,-296.082377
5689.416300,222.061783,-8733.488677,74.020594
5689.416624,370.102971,-8580.269578,-222.061783
5689.416949,518.144159,-8503.660028,-148.041188
5689.417273,592.164754,-8810.098227,0.000000
5689.417598,370.102971,-8120.612279,0.000000
5689.417922,296.082377,-8656.879127,0.000000
5689.418246,148.041188,-8427.050478,-148.041188
5689.418571,666.185348,-8580.269578,0.000000
5689.418895,74.020594,-8580.269578,-222.061783
5689.419220,518.144159,-8886.707777,-222.061783
5689.419544,370.102971,-8427.050478,0.000000
5689.419868,518.144159,-8656.879127,0.000000
5689.420193,222.061783,-8656.879127,-222.061783
5689.420517,518.144159,-8810.098227,-148.041188
5689.420842,370.102971,-8580.269578,0.000000
5689.421166,444.123565,-8503.660028,-222.061783
5689.421491,148.041188,-8810.098227,-444.123565
5689.421815,518.144159,-8810.098227,0.000000
5689.422139,370.102971,-8503.660028,0.000000
5689.422464,370.102971,-8656.879127,-148.041188
5689.422788,518.144159,-8656.879127,-592.164754
5689.423113,518.144159,-8656.879127,-444.123565
5689.423437,370.102971,-8656.879127,-444.123565
5689.423761,222.061783,-8273.831378,-296.082377
5689.424086,444.123565,-8427.050478,-370.102971
5689.424410,296.082377,-8503.660028,-518.144159
5689.424735,222.061783,-8427.050478,148.041188
5689.425059,518.144159,-8503.660028,-370.102971
5689.425384,370.102971,-8120.612279,-148.041188
5689.425708,444.123565,-8273.831378,-444.123565
5689.426032,148.041188,-9039.926876,-222.061783
5689.426357,592.164754,-8503.660028,-296.082377
5689.426681,370.102971,-8733.488677,-296.082377
5689.427006,518.144159,-8886.707777,-296.082377
5689.427330,0.000000,-8580.269578,0.000000
5689.427655,444.123565,-8273.831378,0.000000
5689.427979,518.144159,-8580.269578,-222.061783
5689.428303,740.205942,-9039.926876,-222.061783
5689.428628,518.144159,-8503.660028,-296.082377
5689.428952,74.020594,-8273.831378,0.000000
5689.429277,370.102971,-8273.831378,-592.164754
5689.429601,222.061783,-8273.831378,-518.144159
5689.429925,444.123565,-8273.831378,-518.144159
5689.430250,370.102971,-8273.831378,-444.123565
5689.430574,148.041188,-8427.050478,-370.102971
5689.430899,296.082377,-8580.269578,-370.102971
5689.431223,518.144159,-9039.926876,-444.123565
5689.431548,222.061783,-8656.879127,-592.164754
5689.431872,74.020594,-8886.707777,-740.205942
5689.432196,296.082377,-8580.269578,-370.102971
5689.432521,296.082377,-8656.879127,-592.164754
5689.432845,0.000000,-8810.098227,-444.123565
5689.433170,518.144159,-8273.831378,-740.205942
5689.433494,222.061783,-8656.879127,-592.164754
5689.433819,148.041188,-8810.098227,-296.082377
5689.434143,296.082377,-8810.098227,-370.102971
5689.434467,148.041188,-8733.488677,-370.102971
5689.434792,444.123565,-8427.050478,-518.144159
5689.435116,296.082377,-8810.098227,-444.123565
5689.435441,592.164754,-8656.879127,-518.144159
5689.435765,370.102971,-8503.660028,0.000000
5689.436089,444.123565,-8503.660028,-444.123565
5689.436414,148.041188,-8656.879127,-148.041188
5689.436738,296.082377,-8350.440928,-370.102971
5689.437063,222.061783,-8656.879127,-222.061783
5689.437387,444.123565,-8963.317327,0.000000
5689.437712,370.102971,-8580.269578,-222.061783
5689.438036,518.144159,-8427.050478,-518.144159
5689.438360,222.061783,-8580.269578,-444.123565
5689.438685,666.185348,-8273.831378,-740.205942
5689.439009,592.164754,-8886.707777,0.000000
5689.439334,296.082377,-8197.221829,-370.102971
5689.439658,444.123565,-8427.050478,-370.102971
5689.439982,444.123565,-8350.440928,-666.185348
5689.440307,1332.370696,-8810.098227,-962.267725
5689.440631,370.102971,-8503.660028,-518.144159
5689.440956,444.123565,-8503.660028,-148.041188
5689.441280,592.164754,-8503.660028,-740.205942
5689.441605,962.267725,-8580.269578,0.000000
5689.441929,518.144159,-8427.050478,-518.144159
5689.442253,666.185348,-8733.488677,-296.082377
5689.442578,444.123565,-8350.440928,-592.164754
5689.442902,296.082377,-8273.831378,-444.123565
5689.443227,222.061783,-8733.488677,-296.082377
5689.443551,444.123565,-8427.050478,-370.102971
5689.443876,740.205942,-8350.440928,-592.164754
5689.444200,370.102971,-8580.269578,-444.123565
5689.444524,370.102971,-7967.393179,222.061783
5689.444849,370.102971,-8503.660028,-444.123565
5689.445173,888.247130,-8886.707777,0.000000
5689.445498,444.123565,-8427.050478,-370.102971
5689.445822,592.164754,-8656.879127,-74.020594
5689.446146,222.061783,-8273.831378,-296.082377
5689.446471,0.000000,-8656.879127,-222.061783
5689.446795,370.102971,-8580.269578,-296.082377
5689.447120,444.123565,-8427.050478,-444.123565
5689.447444,1110.308913,-8580.269578,-1036.288319
5689.447769,296.082377,-8580.269578,-518.144159
5689.448093,518.144159,-8656.879127,-592.164754
5689.448417,74.020594,-8963.317327,-370.102971
5689.448742,592.164754,-8886.707777,-296.082377
5689.449066,74.020594,-8503.660028,-666.185348
5689.449391,222.061783,-8810.098227,-740.205942
5689.449715,370.102971,-8427.050478,-592.164754
5689.450039,222.061783,-8656.879127,-444.123565
5689.450364,518.144159,-8810.098227,-370.102971
5689.450688,592.164754,-8656.879127,-444.123565
5689.451013,370.102971,-8810.098227,-518.144159
5689.451337,296.082377,-8656.879127,-148.041188
5689.451662,518.144159,-8733.488677,-296.082377
5689.451986,592.164754,-8580.269578,-296.082377
5689.452310,518.144159,-8273.831378,-296.082377
5689.452635,592.164754,-8656.879127,-444.123565
5689.452959,1036.288319,-8963.317327,-222.061783
5689.453284,518.144159,-8273.831378,0.000000
5689.453608,296.082377,-8503.660028,-296.082377
5689.453933,518.144159,-8733.488677,-444.123565
5689.454257,592.164754,-8733.488677,-370.102971
5689.454581,444.123565,-8733.488677,-74.020594
5689.454906,148.041188,-8656.879127,-148.041188
5689.455230,444.123565,-8580.269578,-370.102971
5689.455555,148.041188,-8810.098227,0.000000
5689.455879,592.164754,-8197.221829,-222.061783
5689.456203,222.061783,-8580.269578,-296.082377
5689.456528,740.205942,-7967.393179,-444.123565
5689.456852,666.185348,-8197.221829,-296.082377
5689.457177,518.144159,-7967.393179,-592.164754
5689.457501,666.185348,-8273.831378,-444.123565
5689.457826,444.123565,-8197.221829,-592.164754
5689.458150,518.144159,-8427.050478,-518.144159
5689.458474,370.102971,-8273.831378,-370.102971
5689.458799,370.102971,-8733.488677,-444.123565
5689.459123,222.061783,-8503.660028,-592.164754
5689.459448,518.144159,-8810.098227,-296.082377
5689.459772,592.164754,-8580.269578,-592.164754
5689.460096,962.267725,-8273.831378,-814.226536
5689.460421,592.164754,-8733.488677,-814.226536
5689.460745,518.144159,-8810.098227,-370.102971
5689.461070,370.102971,-8350.440928,-518.144159
5689.461394,666.185348,-8350.440928,0.000000
5689.461719,296.082377,-8427.050478,-370.102971
5689.462043,444.123565,-8580.269578,0.000000
5689.462367,296.082377,-8580.269578,-370.102971
5689.462692,444.123565,-8656.879127,-296.082377
5689.463016,518.144159,-8733.488677,-518.144159
5689.463341,814.226536,-8733.488677,-444.123565
5689.463665,444.123565,-8350.440928,-222.061783
5689.463990,370.102971,-8580.269578,-222.061783
5689.464314,740.205942,-8733.488677,-222.061783
5689.464638,444.123565,-8656.879127,-370.102971
5689.464963,444.123565,-9116.536426,-370.102971
5689.465287,74.020594,-8810.098227,-148.041188
5689.465612,740.205942,-8810.098227,-296.082377
5689.465936,296.082377,-8733.488677,-592.164754
5689.466260,592.164754,-8350.440928,-444.123565
5689.466585,296.082377,-8963.317327,-814.226536
5689.466909,518.144159,-8733.488677,-444.123565
5689.467234,222.061783,-8197.221829,-740.205942
5689.467558,222.061783,-8580.269578,-222.061783
5689.467883,518.144159,-8273.831378,-592.164754
5689.468207,592.164754,-8350.440928,-296.082377
5689.468531,518.144159,-8886.707777,-814.226536
5689.468856,370.102971,-8656.879127,-296.082377
5689.469180,518.144159,-8733.488677,-444.123565
5689.469505,296.082377,-8810.098227,-370.102971
5689.469829,444.123565,-8044.002729,-296.082377
5689.470153,592.164754,-8733.488677,-518.144159
5689.470478,740.205942,-8273.831378,-370.102971
5689.470802,296.082377,-8580.269578,-592.164754
5689.471127,444.123565,-8733.488677,-370.102971
5689.471451,296.082377,-8197.221829,-740.205942
5689.471776,444.123565,-8427.050478,-444.123565
5689.472100,370.102971,-8427.050478,-518.144159
5689.472424,518.144159,-8810.098227,-370.102971
5689.472749,814.226536,-8733.488677,-296.082377
5689.473073,444.123565,-8350.440928,-296.082377
5689.473398,888.247130,-8503.660028,-296.082377
5689.473722,592.164754,-8810.098227,-518.144159
5689.474047,666.185348,-8427.050478,-370.102971
5689.474371,444.123565,-8580.269578,-370.102971
5689.474695,370.102971,-8580.269578,-222.061783
5689.475020,222.061783,-8580.269578,-148.041188
5689.475344,518.144159,-8656.879127,-296.082377
5689.475669,0.000000,-8580.269578,0.000000
5689.475993,444.123565,-8580.269578,-370.102971
5689.476317,296.082377,-8503.660028,-370.102971
5689.476642,518.144159,-8273.831378,-296.082377
5689.476966,666.185348,-9652.803275,0.000000
5689.477291,296.082377,-8427.050478,-296.082377
5689.477615,370.102971,-8350.440928,-296.082377
5689.477940,148.041188,-8580.269578,-370.102971
5689.478264,296.082377,-8580.269578,-370.102971
5689.478588,518.144159,-8656.879127,-592.164754
5689.478913,592.164754,-8886.707777,-444.123565
5689.479237,148.041188,-8963.317327,-370.102971
5689.479562,518.144159,-8503.660028,-222.061783
5689.479886,-74.020594,-9039.926876,148.041188
5689.480210,296.082377,-8886.707777,0.000000
5689.480535,370.102971,-8503.660028,-518.144159
5689.480859,444.123565,-8350.440928,-296.082377
5689.481184,444.123565,-8350.440928,0.000000
5689.481508,444.123565,-8656.879127,-370.102971
5689.481833,518.144159,-8427.050478,-518.144159
5689.482157,296.082377,-8427.050478,-222.061783
5689.482481,370.102971,-8273.831378,-370.102971
5689.482806,0.000000,-8580.269578,-296.082377
5689.483130,444.123565,-8733.488677,-148.041188
5689.483455,296.082377,-8580.269578,-148.041188
5689.483779,592.164754,-8810.098227,-444.123565
5689.484104,592.164754,-8503.660028,-444.123565
5689.484428,370.102971,-8580.269578,0.000000
5689.484752,148.041188,-8886.707777,-444.123565
5689.485077,518.144159,-8503.660028,-444.123565
5689.485401,814.226536,-8427.050478,-370.102971
5689.485726,962.267725,-8580.269578,-740.205942
5689.486050,518.144159,-8580.269578,-518.144159
5689.486374,518.144159,-8503.660028,-370.102971
5689.486699,592.164754,-8580.269578,-444.123565
5689.487023,518.144159,-8427.050478,-592.164754
5689.487348,518.144159,-8656.879127,-518.144159
5689.487672,296.082377,-8197.221829,-444.123565
5689.487997,518.144159,-8503.660028,-148.041188
5689.488321,296.082377,-9269.755526,-814.226536
5689.488645,814.226536,-8733.488677,-296.082377
5689.488970,518.144159,-8580.269578,-444.123565
5689.489294,740.205942,-8810.098227,-444.123565
5689.489619,222.061783,-8656.879127,-444.123565
5689.489943,296.082377,-9116.536426,-370.102971
5689.490268,444.123565,-8810.098227,-370.102971
5689.490592,296.082377,-8427.050478,-296.082377
5689.490916,370.102971,-8810.098227,-370.102971
5689.491241,444.123565,-8733.488677,0.000000
5689.491565,518.144159,-8273.831378,-222.061783
5689.491890,222.061783,-8427.050478,-148.041188
5689.492214,444.123565,-8273.831378,-296.082377
5689.492538,444.123565,-8810.098227,0.000000
5689.492863,518.144159,-8580.269578,-370.102971
5689.493187,222.061783,-8733.488677,-296.082377
5689.493512,518.144159,-8656.879127,0.000000
5689.493836,148.041188,-8656.879127,-296.082377
5689.494161,74.020594,-8886.707777,-370.102971
5689.494485,518.144159,-8656.879127,-666.185348
5689.494809,370.102971,-8350.440928,-444.123565
5689.495134,518.144159,-8810.098227,-592.164754
5689.495458,370.102971,-8350.440928,-222.061783
5689.495783,518.144159,-8350.440928,-222.061783
5689.496107,370.102971,-8656.879127,-370.102971
5689.496431,148.041188,-8963.317327,-370.102971
5689.496756,222.061783,-8886.707777,148.041188
5689.497080,148.041188,-8656.879127,0.000000
5689.497405,296.082377,-8580.269578,-296.082377
5689.497729,518.144159,-8810.098227,-296.082377
5689.498054,592.164754,-8580.269578,0.000000
5689.498378,592.164754,-8350.440928,0.000000
5689.498702,296.082377,-8733.488677,0.000000
5689.499027,444.123565,-8733.488677,0.000000
5689.499351,518.144159,-8503.660028,-222.061783
5689.499676,592.164754,-8963.317327,-370.102971
5689.500000,296.082377,-8580.269578,0.000000
5689.500325,222.061783,-8503.660028,0.000000
5689.500649,296.082377,-8656.879127,-370.102971
5689.500973,518.144159,-8656.879127,-222.061783
5689.501298,444.123565,-8810.098227,-296.082377
5689.501622,444.123565,-8273.831378,0.000000
5689.501947,518.144159,-8427.050478,-296.082377
5689.502271,518.144159,-8886.707777,-148.041188
5689.502595,518.144159,-8656.879127,0.000000
5689.502920,666.185348,-8810.098227,-296.082377
5689.503244,444.123565,-8503.660028,-296.082377
5689.503569,370.102971,-8733.488677,-370.102971
5689.503893,222.061783,-8886.707777,-296.082377
5689.504218,444.123565,-8503.660028,-296.082377
5689.504542,444.123565,-8580.269578,-444.123565
5689.504866,444.123565,-8963.317327,-444.123565
5689.505191,592.164754,-9039.926876,-592.164754
5689.505515,444.123565,-8503.660028,-370.102971
5689.505840,370.102971,-8427.050478,-444.123565
5689.506164,518.144159,-8427.050478,-370.102971
5689.506488,296.082377,-8656.879127,-592.164754
5689.506813,222.061783,-8810.098227,0.000000
5689.507137,222.061783,-8733.488677,-296.082377
5689.507462,370.102971,-8733.488677,-296.082377
5689.507786,518.144159,-8656.879127,-296.082377
5689.508111,222.061783,-9116.536426,296.082377
5689.508435,444.123565,-8503.660028,-222.061783
5689.508759,370.102971,-8350.440928,-148.041188
5689.509084,444.123565,-8580.269578,-222.061783
5689.509408,518.144159,-8656.879127,-444.123565
5689.509733,370.102971,-8503.660028,-296.082377
5689.510057,444.123565,-8580.269578,-518.144159
5689.510382,296.082377,-8580.269578,-296.082377
5689.510706,518.144159,-8580.269578,-222.061783
5689.511030,444.123565,-8503.660028,-148.041188
5689.511355,592.164754,-8427.050478,-444.123565
5689.511679,370.102971,-9039.926876,-444.123565
5689.512004,592.164754,-8733.488677,-296.082377
5689.512328,148.041188,-8656.879127,0.000000
5689.512652,296.082377,-9039.926876,-296.082377
5689.512977,0.000000,-8427.050478,-518.144159
5689.513301,296.082377,-8733.488677,-148.041188
5689.513626,222.061783,-8580.269578,-444.123565
5689.513950,518.144159,-8273.831378,-370.102971
5689.514275,444.123565,-8580.269578,-444.123565
5689.514599,148.041188,-8580.269578,-296.082377
5689.514923,444.123565,-8350.440928,-518.144159
5689.515248,0.000000,-7507.735880,0.000000
5689.515572,296.082377,-8044.002729,-296.082377
5689.515897,370.102971,-8273.831378,0.000000
5689.516221,370.102971,-8656.879127,-444.123565
5689.516545,222.061783,-8733.488677,-148.041188
5689.516870,444.123565,-8580.269578,-222.061783
5689.517194,518.144159,-8503.660028,-222.061783
5689.517519,444.123565,-8427.050478,0.000000
5689.517843,296.082377,-8733.488677,-296.082377
5689.518167,370.102971,-8733.488677,-444.123565
5689.518492,296.082377,-8580.269578,0.000000
5689.518816,518.144159,-8963.317327,-296.082377
5689.519140,444.123565,-8273.831378,-592.164754
5689.519465,444.123565,-8733.488677,0.000000
5689.519789,444.123565,-8273.831378,-444.123565
5689.520113,740.205942,-8427.050478,-222.061783
5689.520438,296.082377,-8580.269578,-296.082377
5689.520762,666.185348,-8427.050478,-148.041188
5689.521086,518.144159,-8580.269578,-370.102971
5689.521411,592.164754,-8886.707777,0.000000
5689.521735,296.082377,-8503.660028,-148.041188
5689.522059,444.123565,-9039.926876,-222.061783
5689.522384,0.000000,-8273.831378,-148.041188
5689.522708,296.082377,-8580.269578,0.000000
5689.523032,296.082377,-8886.707777,-592.164754
5689.523357,592.164754,-8733.488677,-222.061783
5689.523681,888.247130,-8120.612279,-148.041188
5689.524005,444.123565,-8733.488677,-518.144159
5689.524330,444.123565,-8656.879127,-444.123565
5689.524654,222.061783,-8580.269578,-444.123565
5689.524978,518.144159,-8810.098227,-444.123565
5689.525302,296.082377,-8197.221829,-518.144159
5689.525627,444.123565,-8810.098227,-518.144159
5689.525951,370.102971,-8656.879127,-148.041188
5689.526275,740.205942,-8503.660028,-370.102971
5689.526600,74.020594,-8733.488677,-74.020594
5689.526924,296.082377,-8810.098227,-148.041188
5689.527248,370.102971,-8886.707777,-518.144159
5689.527573,74.020594,-8810.098227,-370.102971
5689.527897,518.144159,-8886.707777,-148.041188
5689.528221,296.082377,-8656.879127,-74.020594
5689.528546,222.061783,-8503.660028,-222.061783
5689.528870,222.061783,-8810.098227,-370.102971
5689.529194,148.041188,-8580.269578,-370.102971
5689.529519,222.061783,-8350.440928,0.000000
5689.529843,74.020594,-8350.440928,-444.123565
5689.530167,222.061783,-8503.660028,-370.102971
5689.530492,296.082377,-8197.221829,-518.144159
5689.530816,444.123565,-8350.440928,-222.061783
5689.531140,370.102971,-8656.879127,-296.082377
5689.531465,518.144159,-8580.269578,-148.041188
5689.531789,370.102971,-8503.660028,-444.123565
5689.532113,814.226536,-8503.660028,-222.061783
5689.532438,444.123565,-8733.488677,-222.061783
5689.532762,518.144159,-8656.879127,-518.144159
5689.533086,444.123565,-8350.440928,-296.082377
5689.533411,148.041188,-8503.660028,-148.041188
5689.533735,296.082377,-8427.050478,0.000000
5689.534059,518.144159,-8350.440928,-518.144159
5689.534384,814.226536,-8733.488677,-518.144159
5689.534708,518.144159,-8580.269578,-296.082377
5689.535032,518.144159,-8350.440928,-148.041188
5689.535357,592.164754,-8580.269578,0.000000
5689.535681,296.082377,-8273.831378,0.000000
5689.536005,444.123565,-8963.317327,-444.123565
5689.536330,518.144159,-8580.269578,0.000000
5689.536654,370.102971,-8503.660028,-222.061783
5689.536978,518.144159,-8886.707777,-518.144159
5689.537303,370.102971,-8427.050478,-444.123565
5689.537627,444.123565,-8427.050478,-444.123565
5689.537951,74.020594,-8197.221829,-444.123565
5689.538276,222.061783,-8580.269578,-444.123565
5689.538600,74.020594,-8427.050478,-592.164754
5689.538924,370.102971,-8427.050478,-444.123565
5689.539249,592.164754,-8197.221829,-148.041188
5689.539573,518.144159,-8580.269578,-518.144159
5689.539897,740.205942,-8503.660028,-592.164754
5689.540222,518.144159,-8656.879127,-666.185348
5689.540546,444.123565,-9269.755526,-740.205942
5689.540870,518.144159,-8350.440928,-518.144159
5689.541195,222.061783,-8886.707777,-444.123565
5689.541519,444.123565,-8963.317327,-592.164754
5689.541843,370.102971,-8810.098227,-222.061783
5689.542168,74.020594,-8503.660028,-592.164754
5689.542492,222.061783,-8580.269578,-444.123565
5689.542816,444.123565,-8350.440928,-666.185348
5689.543141,740.205942,-9039.926876,-592.164754
5689.543465,370.102971,-8044.002729,-296.082377
5689.543789,518.144159,-8886.707777,-296.082377
5689.544114,666.185348,-8886.707777,-444.123565
5689.544438,296.082377,-8580.269578,-666.185348
5689.544762,296.082377,-8733.488677,-666.185348
5689.545087,148.041188,-8580.269578,-296.082377
5689.545411,296.082377,-9116.536426,-444.123565
5689.545735,370.102971,-8733.488677,-592.164754
5689.546060,518.144159,-8733.488677,-518.144159
5689.546384,444.123565,-8810.098227,-370.102971
5689.546708,1036.288319,-8580.269578,-444.123565
