#time,accel_x,accel_y,accel_z
5550.909089,370.102971,-8580.269578,-444.123565
5550.909414,888.247130,-9116.536426,-1184.329507
5550.909738,74.020594,-8580.269578,148.041188
5550.910062,296.082377,-8427.050478,-222.061783
5550.910387,148.041188,-8886.707777,-666.185348
5550.910711,518.144159,-8810.098227,0.000000
5550.911035,148.041188,-8503.660028,-148.041188
5550.911360,444.123565,-8656.879127,-518.144159
5550.911684,296.082377,-8656.879127,-222.061783
5550.912008,444.123565,-8503.660028,-222.061783
5550.912333,518.144159,-8810.098227,-370.102971
5550.912657,296.082377,-8656.879127,-296.082377
5550.912981,222.061783,-8503.660028,-148.041188
5550.913305,222.061783,-8733.488677,-148.041188
5550.913630,148.041188,-8963.317327,-444.123565
5550.913954,370.102971,-9116.536426,-296.082377
5550.914278,592.164754,-8427.050478,-148.041188
5550.914603,444.123565,-8733.488677,-222.061783
5550.914927,296.082377,-8580.269578,-370.102971
5550.915251,296.082377,-8656.879127,0.000000
5550.915576,296.082377,-8656.879127,-148.041188
5550.915900,148.041188,-8503.660028,-296.082377
5550.916224,444.123565,-8886.707777,-222.061783
5550.916549,0.000000,-9193.145976,74.020594
5550.916873,222.061783,-8580.269578,-222.061783
5550.917197,518.144159,-8580.269578,-296.082377
5550.917522,592.164754,-8656.879127,-222.061783
5550.917846,370.102971,-8197.221829,-296.082377
5550.918170,518.144159,-8733.488677,-222.061783
5550.918494,370.102971,-8503.660028,-444.123565
5550.918819,740.205942,-8503.660028,-592.164754
5550.919143,370.102971,-8656.879127,-296.082377
5550.919467,444.123565,-8810.098227,0.000000
5550.919792,370.102971,-8503.660028,-666.185348
5550.920116,222.061783,-9039.926876,-296.082377
5550.920440,296.082377,-8197.221829,-296.082377
5550.920765,1036.288319,-8733.488677,-592.164754
5550.921089,518.144159,-8733.488677,-518.144159
5550.921413,444.123565,-8273.831378,0.000000
5550.921738,296.082377,-8810.098227,-444.123565
5550.922062,444.123565,-8580.269578,-444.123565
5550.922386,518.144159,-8580.269578,0.000000
5550.922710,444.123565,-8503.660028,-666.185348
5550.923035,518.144159,-8580.269578,-518.144159
5550.923359,222.061783,-8656.879127,-370.102971
5550.923683,296.082377,-8580.269578,0.000000
5550.924008,222.061783,-8580.269578,-592.164754
5550.924332,444.123565,-8810.098227,-518.144159
5550.924656,296.082377,-8503.660028,-518.144159
5550.924981,-222.061783,-9116.536426,-592.164754
5550.925305,-1258.350101,-8886.707777,-370.102971
5550.925629,-1480.411884,-8656.879127,-518.144159
5550.925954,-1998.556043,-8503.660028,-888.247130
5550.926278,-1850.514855,-9039.926876,-222.061783
5550.926602,-2146.597232,-8197.221829,0.000000
5550.926926,-1628.453072,-8810.098227,-592.164754
5550.927251,-1258.350101,-8197.221829,-518.144159
5550.927575,-740.205942,-8580.269578,-148.041188
5550.927899,-1258.350101,-8427.050478,-296.082377
5550.928224,-1110.308913,-8733.488677,-518.144159
5550.928548,-2294.638420,-8810.098227,-444.123565
5550.928872,-2812.782580,-8733.488677,-444.123565
5550.929197,-3330.926739,-9039.926876,74.020594
5550.929521,-3330.926739,-9039.926876,-370.102971
5550.929845,-3404.947333,-8350.440928,0.000000
5550.930170,-2886.803174,-8810.098227,-444.123565
5550.930494,-2220.617826,-8656.879127,-518.144159
5550.930818,-1554.432478,-8273.831378,-370.102971
5550.931142,-1480.411884,-9269.755526,-592.164754
5550.931467,-1850.514855,-8503.660028,-518.144159
5550.931791,-2294.638420,-9193.145976,-222.061783
5550.932115,-2960.823768,-9116.536426,-592.164754
5550.932440,-3552.988522,-9269.755526,-222.061783
5550.932764,-3701.029710,-8886.707777,-222.061783
5550.933088,-3849.070898,-8886.707777,0.000000
5550.933413,-3627.009116,-9116.536426,148.041188
5550.933737,-2590.720797,-8580.269578,0.000000
5550.934061,-2294.638420,-8810.098227,-296.082377
5550.934386,-1480.411884,-8197.221829,-666.185348
5550.934710,-1554.432478,-8733.488677,-296.082377
5550.935034,-1332.370696,-8503.660028,-370.102971
5550.935359,-1776.494261,-8656.879127,-370.102971
5550.935683,-2590.720797,-8656.879127,-148.041188
5550.936007,-2442.679609,-8656.879127,0.000000
5550.936331,-2294.638420,-9193.145976,0.000000
5550.936656,-2146.597232,-9039.926876,-296.082377
5550.936980,-2516.700203,-8503.660028,-148.041188
5550.937304,-1850.514855,-9039.926876,-592.164754
5550.937629,-1628.453072,-8427.050478,-592.164754
5550.937953,-1258.350101,-8350.440928,-814.226536
5550.938277,-1036.288319,-8503.660028,-444.123565
5550.938602,-1776.494261,-7814.174080,-518.144159
5550.938926,-2146.597232,-8580.269578,-296.082377
5550.939250,-2442.679609,-7890.783629,-444.123565
5550.939575,-2368.659014,-8503.660028,0.000000
5550.939899,-2072.576638,-8120.612279,-370.102971
5550.940223,-1998.556043,-8503.660028,-296.082377
5550.940547,-1258.350101,-8810.098227,-296.082377
5550.940872,-740.205942,-8427.050478,-592.164754
5550.941196,-222.061783,-8044.002729,-518.144159
5550.941520,0.000000,-8044.002729,-444.123565
5550.941845,74.020594,-8197.221829,-370.102971
5550.942169,74.020594,-8656.879127,-444.123565
5550.942493,0.000000,-8580.269578,-592.164754
5550.942818,0.000000,-8503.660028,-592.164754
5550.943142,0.000000,-8810.098227,-148.041188
5550.943466,518.144159,-8886.707777,-666.185348
5550.943791,814.226536,-8963.317327,-296.082377
5550.944115,592.164754,-8886.707777,-296.082377
5550.944439,888.247130,-8886.707777,-814.226536
5550.944763,1406.391290,-9499.584175,-814.226536
5550.945088,518.144159,-9346.365076,-814.226536
5550.945412,-222.061783,-8963.317327,-370.102971
5550.945736,-1184.329507,-8580.269578,-444.123565
5550.946061,-2220.617826,-9269.755526,-444.123565
5550.946385,-2812.782580,-8733.488677,-518.144159
5550.946709,-2812.782580,-8810.098227,-518.144159
5550.947034,-3330.926739,-8503.660028,-222.061783
5550.947358,-3182.885551,-8427.050478,-370.102971
5550.947682,-2072.576638,-8350.440928,-592.164754
5550.948007,-1850.514855,-8197.221829,-370.102971
5550.948331,-1258.350101,-8503.660028,-666.185348
5550.948655,-962.267725,-8810.098227,-814.226536
5550.948979,-1258.350101,-9039.926876,-740.205942
5550.949304,-1998.556043,-8886.707777,-666.185348
5550.949628,-2368.659014,-9039.926876,-444.123565
5550.949952,-2590.720797,-8810.098227,0.000000
5550.950277,-2442.679609,-9193.145976,-148.041188
5550.950601,-1850.514855,-8656.879127,-148.041188
5550.950925,-1184.329507,-8886.707777,-444.123565
5550.951250,-518.144159,-8350.440928,-370.102971
5550.951574,370.102971,-8197.221829,-518.144159
5550.951898,222.061783,-8580.269578,-222.061783
5550.952223,74.020594,-8886.707777,-592.164754
5550.952547,-1480.411884,-8733.488677,-370.102971
5550.952871,-3182.885551,-8963.317327,-666.185348
5550.953196,-3923.091493,-8886.707777,148.041188
5550.953520,-4885.359217,-8963.317327,74.020594
5550.953844,-5773.606348,-9116.536426,74.020594
5550.954168,-4737.318029,-7890.783629,296.082377
5550.954493,-3552.988522,-8580.269578,444.123565
5550.954817,-1628.453072,-8197.221829,-296.082377
5550.955141,-444.123565,-8197.221829,-222.061783
5550.955466,814.226536,-8044.002729,222.061783
5550.955790,0.000000,-8120.612279,0.000000
5550.956114,518.144159,-9499.584175,518.144159
5550.956439,-222.061783,-9422.974625,148.041188
5550.956763,-2664.741391,-9346.365076,222.061783
5550.957087,-3775.050304,-9806.022374,0.000000
5550.957412,-4811.338623,-9576.193725,-370.102971
5550.957736,-5847.626942,-9346.365076,0.000000
5550.958060,-5551.544565,-8273.831378,-740.205942
5550.958384,-4663.297435,-8580.269578,148.041188
5550.958709,-2738.761985,-7277.907231,-666.185348
5550.959033,0.000000,-7354.516781,-814.226536
5550.959357,1406.391290,-7048.078582,-222.061783
5550.959682,2886.803174,-7201.297681,0.000000
5550.960006,3330.926739,-8120.612279,-370.102971
5550.960330,4071.132681,-8733.488677,0.000000
5550.960655,2368.659014,-8810.098227,148.041188
5550.960979,518.144159,-9193.145976,-222.061783
5550.961303,-1628.453072,-9193.145976,-740.205942
5550.961628,-2590.720797,-9882.631924,-888.247130
5550.961952,-4737.318029,-8503.660028,-1702.473667
5550.962276,-6291.750507,-8580.269578,-1776.494261
5550.962600,-5329.482782,-8350.440928,-1776.494261
5550.962925,-4885.359217,-7431.126331,-1332.370696
5550.963249,-2738.761985,-7124.688131,-1258.350101
5550.963573,222.061783,-7431.126331,-1184.329507
5550.963898,2664.741391,-8120.612279,0.000000
5550.964222,4663.297435,-7660.954980,-740.205942
5550.964546,5403.503377,-9422.974625,740.205942
5550.964871,4515.256246,-9499.584175,-888.247130
5550.965195,1776.494261,-10725.336972,-814.226536
5550.965519,-1110.308913,-10112.460574,-740.205942
5550.965844,-4885.359217,-10572.117872,-296.082377
5550.966168,-7179.997637,-9346.365076,-1184.329507
5550.966492,-7994.224174,-8963.317327,-1110.308913
5550.966816,-7624.121203,-8197.221829,-1110.308913
5550.967141,-4885.359217,-7048.078582,-1258.350101
5550.967465,-222.061783,-7048.078582,-518.144159
5550.967789,3701.029710,-6435.202183,-962.267725
5550.968114,7105.977043,-7201.297681,0.000000
5550.968438,7476.080014,-7660.954980,-1036.288319
5550.968762,6217.729913,-9039.926876,0.000000
5550.969087,2664.741391,-10035.851024,-962.267725
5550.969411,-2442.679609,-11797.870669,-1332.370696
5550.969735,-5921.647536,-11951.089769,-814.226536
5550.970060,-11325.150913,-11108.384721,-1480.411884
5550.970384,-14211.954086,-10189.070123,-592.164754
5550.970708,-11843.295072,-7507.735880,-1480.411884
5550.971033,-9178.553681,-7277.907231,518.144159
5550.971357,-1554.432478,-6205.373534,-1110.308913
5550.971681,4441.235652,-5822.325785,-148.041188
5550.972006,6957.935855,-5669.106685,-148.041188
5550.972330,8808.450710,-6665.030833,-222.061783
5550.972654,7179.997637,-8656.879127,888.247130
5550.972979,3404.947333,-9729.412825,296.082377
5550.973303,-1850.514855,-11491.432470,592.164754
5550.973627,-7846.182985,-11721.261119,148.041188
5550.973952,-11399.171507,-12487.356617,148.041188
5550.974276,-12139.377449,-10648.727422,-296.082377
5550.974600,-9252.574275,-9959.241474,-296.082377
5550.974925,-4811.338623,-7354.516781,-148.041188
5550.975249,-370.102971,-5745.716235,-370.102971
5550.975573,1628.453072,-6128.763984,-592.164754
5550.975898,4737.318029,-5515.887586,-444.123565
5550.976222,3923.091493,-5898.935335,-222.061783
5550.976546,2220.617826,-7354.516781,592.164754
5550.976870,-1036.288319,-8733.488677,1110.308913
5550.977195,-4145.153275,-10955.165621,444.123565
5550.977519,-5625.565159,-10878.556072,962.267725
5550.977843,-4959.379811,-10495.508323,740.205942
5550.978168,-3256.906145,-11108.384721,444.123565
5550.978492,-2664.741391,-9039.926876,-1184.329507
5550.978816,814.226536,-8580.269578,-814.226536
5550.979141,1776.494261,-7890.783629,-1036.288319
5550.979465,1776.494261,-6281.983084,-814.226536
5550.979789,3108.864956,-7584.345430,0.000000
5550.980114,2516.700203,-6511.811733,74.020594
5550.980438,2368.659014,-7967.393179,1406.391290
5550.980762,2590.720797,-7967.393179,666.185348
5550.981087,1924.535449,-10112.460574,-222.061783
5550.981411,2072.576638,-11108.384721,-666.185348
5550.981735,222.061783,-10418.898773,-1406.391290
5550.982060,-222.061783,-10495.508323,-1998.556043
5550.982384,-888.247130,-9806.022374,-2146.597232
5550.982708,-1036.288319,-8273.831378,-1184.329507
5550.983033,-1332.370696,-8273.831378,0.000000
5550.983357,1184.329507,-7507.735880,-296.082377
5550.983681,3627.009116,-6128.763984,888.247130
5550.984006,4959.379811,-6435.202183,0.000000
5550.984330,5403.503377,-7890.783629,0.000000
5550.984654,5995.668130,-7584.345430,-1036.288319
5550.984979,4145.153275,-8580.269578,-1480.411884
5550.985303,1850.514855,-9576.193725,-2442.679609
5550.985627,-1036.288319,-10495.508323,-1998.556043
5550.985952,-2368.659014,-10495.508323,-2812.782580
5550.986276,-888.247130,-10801.946522,-1184.329507
5550.986600,-444.123565,-8810.098227,-888.247130
5550.986925,1702.473667,-9116.536426,444.123565
5550.987249,4663.297435,-8273.831378,0.000000
5550.987573,4589.276840,-7737.564530,518.144159
5550.987897,7476.080014,-7507.735880,518.144159
5550.988222,4737.318029,-6741.640382,-1480.411884
5550.988546,962.267725,-8733.488677,-1258.350101
5550.988870,518.144159,-8350.440928,370.102971
5550.989195,-1184.329507,-8503.660028,-1184.329507
5550.989519,-2146.597232,-9806.022374,-222.061783
5550.989843,-222.061783,-9346.365076,-740.205942
5550.990168,-296.082377,-10342.289223,-962.267725
5550.990492,518.144159,-9959.241474,-1184.329507
5550.990816,1850.514855,-9652.803275,0.000000
5550.991141,1332.370696,-7814.174080,74.020594
5550.991465,222.061783,-8656.879127,148.041188
5550.991789,814.226536,-7584.345430,222.061783
5550.992114,-814.226536,-8044.002729,370.102971
5550.992438,-370.102971,-7354.516781,-370.102971
5550.992762,-592.164754,-8810.098227,0.000000
5550.993087,-1702.473667,-7967.393179,-814.226536
5550.993411,-1332.370696,-10035.851024,-222.061783
5550.993735,-3330.926739,-9422.974625,-592.164754
5550.994060,-3404.947333,-10265.679673,148.041188
5550.994384,-4515.256246,-9729.412825,518.144159
5550.994708,-4515.256246,-9499.584175,888.247130
5550.995033,-3701.029710,-8120.612279,518.144159
5550.995357,-1628.453072,-8350.440928,1258.350101
5550.995681,148.041188,-7584.345430,740.205942
5550.996006,2294.638420,-7584.345430,888.247130
5550.996330,2960.823768,-7354.516781,-222.061783
5550.996654,2886.803174,-8120.612279,-888.247130
5550.996979,444.123565,-8886.707777,-1036.288319
5550.997303,-148.041188,-9499.584175,-370.102971
5550.997627,-2294.638420,-8963.317327,0.000000
5550.997952,-3775.050304,-10112.460574,592.164754
5550.998276,-2960.823768,-9193.145976,0.000000
5550.998600,-2516.700203,-9422.974625,592.164754
5550.998925,-666.185348,-8810.098227,740.205942
5550.999249,2368.659014,-8044.002729,-222.061783
5550.999573,1924.535449,-8886.707777,0.000000
5550.999897,2516.700203,-6281.983084,-1184.329507
5551.000222,3997.112087,-8273.831378,0.000000
5551.000546,222.061783,-6665.030833,-1850.514855
5551.000870,-888.247130,-8503.660028,222.061783
5551.001195,-1258.350101,-7201.297681,-296.082377
5551.001519,-1628.453072,-9729.412825,222.061783
5551.001843,0.000000,-8503.660028,222.061783
5551.002168,740.205942,-10035.851024,296.082377
5551.002492,1628.453072,-9882.631924,74.020594
5551.002816,3034.844362,-8656.879127,-296.082377
5551.003141,518.144159,-8733.488677,-1110.308913
5551.003465,2072.576638,-8120.612279,-1258.350101
5551.003789,1850.514855,-8273.831378,-370.102971
5551.004114,444.123565,-7660.954980,-740.205942
5551.004438,2886.803174,-8810.098227,-1850.514855
5551.004762,1998.556043,-8656.879127,-1110.308913
5551.005087,2664.741391,-8886.707777,-666.185348
5551.005411,3627.009116,-8810.098227,-666.185348
5551.005735,2812.782580,-9116.536426,-222.061783
5551.006060,370.102971,-8963.317327,-1702.473667
5551.006384,1702.473667,-8427.050478,-444.123565
5551.006708,962.267725,-8503.660028,-1332.370696
5551.007033,1406.391290,-8810.098227,222.061783
5551.007357,1628.453072,-7048.078582,-2220.617826
5551.007681,2590.720797,-8656.879127,0.000000
5551.008006,2812.782580,-7201.297681,-1628.453072
5551.008330,4145.153275,-9193.145976,-888.247130
5551.008654,2886.803174,-7967.393179,-888.247130
5551.008979,592.164754,-8197.221829,-888.247130
5551.009303,666.185348,-9193.145976,-1036.288319
5551.009627,-1776.494261,-8733.488677,-1776.494261
5551.009952,-2738.761985,-10801.946522,0.000000
5551.010276,-2072.576638,-8733.488677,-888.247130
5551.010600,-222.061783,-9499.584175,0.000000
5551.010924,740.205942,-8963.317327,-1110.308913
5551.011249,1998.556043,-9576.193725,-222.061783
5551.011573,2960.823768,-9193.145976,-888.247130
5551.011897,592.164754,-8580.269578,-666.185348
5551.012222,222.061783,-8733.488677,-296.082377
5551.012546,-1628.453072,-7890.783629,-370.102971
5551.012870,-222.061783,-10112.460574,1406.391290
5551.013195,-5107.421000,-7660.954980,-888.247130
5551.013519,-666.185348,-10342.289223,1554.432478
5551.013843,-1998.556043,-7277.907231,-518.144159
5551.014168,296.082377,-11338.213370,962.267725
5551.014492,592.164754,-7890.783629,-1258.350101
5551.014816,444.123565,-10035.851024,444.123565
5551.015141,740.205942,-8273.831378,-962.267725
5551.015465,222.061783,-9422.974625,-666.185348
5551.015789,-1332.370696,-9116.536426,370.102971
5551.016114,-2368.659014,-7967.393179,0.000000
5551.016438,-1702.473667,-8427.050478,-222.061783
5551.016762,-1406.391290,-8656.879127,1036.288319
5551.017087,-296.082377,-8044.002729,370.102971
5551.017411,-592.164754,-8120.612279,0.000000
5551.017735,-1184.329507,-8503.660028,296.082377
5551.018060,-296.082377,-7584.345430,-1036.288319
5551.018384,-1628.453072,-8503.660028,-444.123565
5551.018708,-1258.350101,-8580.269578,-592.164754
5551.019033,-1554.432478,-8273.831378,592.164754
5551.019357,-2368.659014,-8273.831378,814.226536
5551.019681,222.061783,-7584.345430,1258.350101
5551.020006,1998.556043,-8044.002729,592.164754
5551.020330,2146.597232,-7584.345430,74.020594
5551.020654,3404.947333,-8503.660028,370.102971
5551.020979,1924.535449,-7814.174080,222.061783
5551.021303,2294.638420,-8963.317327,0.000000
5551.021627,444.123565,-7890.783629,-370.102971
5551.021951,-148.041188,-9269.755526,0.000000
5551.022276,444.123565,-8886.707777,-444.123565
5551.022600,1480.411884,-8580.269578,-740.205942
5551.022924,1480.411884,-9499.584175,-296.082377
5551.023249,3330.926739,-8656.879127,0.000000
5551.023573,2368.659014,-9193.145976,-1184.329507
5551.023897,2072.576638,-8273.831378,-148.041188
5551.024222,888.247130,-8427.050478,-740.205942
5551.024546,888.247130,-8197.221829,-1184.329507
5551.024870,962.267725,-9039.926876,-740.205942
5551.025195,666.185348,-6971.469032,-518.144159
5551.025519,444.123565,-8350.440928,-1184.329507
5551.025843,1036.288319,-7890.783629,0.000000
5551.026168,3256.906145,-8810.098227,-1110.308913
5551.026492,4663.297435,-8810.098227,-1332.370696
5551.026816,5033.400406,-9346.365076,-444.123565
5551.027141,2220.617826,-8733.488677,-1850.514855
5551.027465,444.123565,-9729.412825,-740.205942
5551.027789,-592.164754,-9039.926876,-1036.288319
5551.028114,-518.144159,-9346.365076,-1184.329507
5551.028438,-592.164754,-7814.174080,-740.205942
5551.028762,1554.432478,-7890.783629,-592.164754
5551.029087,1332.370696,-8733.488677,-1998.556043
5551.029411,888.247130,-9576.193725,-1702.473667
5551.029735,1184.329507,-8810.098227,-1036.288319
5551.030060,-444.123565,-8810.098227,-1776.494261
5551.030384,-740.205942,-8503.660028,-962.267725
5551.030708,-444.123565,-8810.098227,-518.144159
5551.031033,-2516.700203,-8427.050478,296.082377
5551.031357,-1924.535449,-7967.393179,-296.082377
5551.031681,74.020594,-8886.707777,370.102971
5551.032006,1036.288319,-8044.002729,-518.144159
5551.032330,1924.535449,-8580.269578,-296.082377
5551.032654,1628.453072,-8656.879127,-148.041188
5551.032979,148.041188,-7660.954980,-962.267725
5551.033303,-148.041188,-8810.098227,0.000000
5551.033627,-1258.350101,-8044.002729,-444.123565
5551.033951,-1702.473667,-8656.879127,1184.329507
5551.034276,-2220.617826,-7967.393179,296.082377
5551.034600,-740.205942,-9806.022374,888.247130
5551.034924,-592.164754,-8963.317327,-592.164754
5551.035249,444.123565,-9959.241474,814.226536
5551.035573,-1924.535449,-7890.783629,-740.205942
5551.035897,-814.226536,-9116.536426,592.164754
5551.036222,-2368.659014,-7584.345430,-296.082377
5551.036546,-3404.947333,-8503.660028,1110.308913
5551.036870,-3849.070898,-7507.735880,592.164754
5551.037195,-2368.659014,-7277.907231,296.082377
5551.037519,148.041188,-7354.516781,962.267725
5551.037843,2590.720797,-7737.564530,962.267725
5551.038168,2812.782580,-8044.002729,814.226536
5551.038492,2516.700203,-8733.488677,0.000000
5551.038816,1480.411884,-8503.660028,296.082377
5551.039141,-370.102971,-8120.612279,-222.061783
5551.039465,-444.123565,-8963.317327,444.123565
5551.039789,-1628.453072,-8427.050478,74.020594
5551.040114,-814.226536,-8350.440928,-370.102971
5551.040438,296.082377,-8427.050478,-370.102971
5551.040762,1480.411884,-8044.002729,0.000000
5551.041087,2516.700203,-8810.098227,-666.185348
5551.041411,3404.947333,-8350.440928,-1036.288319
5551.041735,1998.556043,-9346.365076,-1332.370696
5551.042060,518.144159,-7507.735880,-1110.308913
5551.042384,592.164754,-9346.365076,-296.082377
5551.042708,-370.102971,-8656.879127,-666.185348
5551.043033,-888.247130,-8810.098227,0.000000
5551.043357,962.267725,-8656.879127,-1110.308913
5551.043681,-370.102971,-8963.317327,-592.164754
5551.044006,4367.215058,-8810.098227,222.061783
5551.044330,3478.967927,-7660.954980,-888.247130
5551.044654,3552.988522,-9652.803275,592.164754
5551.044978,3627.009116,-7584.345430,-2590.720797
5551.045303,3182.885551,-10035.851024,-1036.288319
5551.045627,1702.473667,-7967.393179,-1924.535449
5551.045951,962.267725,-10265.679673,-814.226536
5551.046276,-962.267725,-8273.831378,-592.164754
5551.046600,444.123565,-9269.755526,-222.061783
5551.046924,592.164754,-9039.926876,-592.164754
5551.047249,1628.453072,-10572.117872,-1554.432478
5551.047573,1702.473667,-9576.193725,-1480.411884
5551.047897,-370.102971,-8963.317327,-1628.453072
5551.048222,0.000000,-8810.098227,-444.123565
5551.048546,-296.082377,-7660.954980,-1184.329507
5551.048870,-296.082377,-8656.879127,-222.061783
5551.049195,296.082377,-7354.516781,-222.061783
5551.049519,740.205942,-7431.126331,-666.185348
5551.049843,1480.411884,-8044.002729,0.000000
5551.050168,2220.617826,-8963.317327,-592.164754
5551.050492,2368.659014,-9652.803275,-370.102971
5551.050816,666.185348,-9652.803275,-1554.432478
5551.051141,-1332.370696,-9806.022374,0.000000
5551.051465,-1406.391290,-9193.145976,-888.247130
5551.051789,-1776.494261,-9193.145976,-518.144159
5551.052114,-2368.659014,-8963.317327,-148.041188
5551.052438,-666.185348,-7507.735880,370.102971
5551.052762,1036.288319,-8350.440928,814.226536
5551.053087,1998.556043,-7814.174080,-222.061783
5551.053411,1332.370696,-9116.536426,-592.164754
5551.053735,1480.411884,-9576.193725,222.061783
5551.054060,-1110.308913,-7354.516781,-1332.370696
5551.054384,-2516.700203,-9499.584175,518.144159
5551.054708,-3775.050304,-8120.612279,0.000000
5551.055033,-5033.400406,-9806.022374,592.164754
5551.055357,-4367.215058,-7507.735880,962.267725
5551.055681,-1554.432478,-8810.098227,1036.288319
5551.056005,0.000000,-7814.174080,222.061783
5551.056330,2368.659014,-8886.707777,518.144159
5551.056654,2516.700203,-7814.174080,370.102971
5551.056978,2442.679609,-8197.221829,-148.041188
5551.057303,3108.864956,-6971.469032,296.082377
5551.057627,370.102971,-7507.735880,0.000000
5551.057951,296.082377,-9269.755526,1184.329507
5551.058276,-1554.432478,-7431.126331,-222.061783
5551.058600,0.000000,-9422.974625,0.000000
5551.058924,-444.123565,-8503.660028,-222.061783
5551.059249,0.000000,-9499.584175,-296.082377
5551.059573,-592.164754,-9422.974625,-1184.329507
5551.059897,-296.082377,-9193.145976,-592.164754
5551.060222,-296.082377,-8427.050478,-518.144159
5551.060546,-1036.288319,-8273.831378,-740.205942
5551.060870,-814.226536,-7814.174080,0.000000
5551.061195,1110.308913,-7737.564530,0.000000
5551.061519,2442.679609,-8273.831378,-666.185348
5551.061843,3034.844362,-8656.879127,-296.082377
5551.062168,4589.276840,-8810.098227,-1628.453072
5551.062492,3034.844362,-9116.536426,-962.267725
5551.062816,2960.823768,-9116.536426,-1110.308913
5551.063141,1258.350101,-9882.631924,-740.205942
5551.063465,74.020594,-9269.755526,-962.267725
5551.063789,-444.123565,-9269.755526,-518.144159
5551.064114,74.020594,-9039.926876,-962.267725
5551.064438,-592.164754,-7967.393179,-1258.350101
5551.064762,2738.761985,-8733.488677,-518.144159
5551.065087,1924.535449,-8886.707777,-1702.473667
5551.065411,3182.885551,-9576.193725,-962.267725
5551.065735,3256.906145,-8350.440928,-1924.535449
5551.066060,1628.453072,-9193.145976,-1554.432478
5551.066384,-148.041188,-8580.269578,-1332.370696
5551.066708,-1110.308913,-9269.755526,0.000000
5551.067033,-2368.659014,-8963.317327,-740.205942
5551.067357,0.000000,-8656.879127,-222.061783
5551.067681,1332.370696,-9116.536426,-370.102971
5551.068005,2886.803174,-8963.317327,-370.102971
5551.068330,2960.823768,-8886.707777,-814.226536
5551.068654,3256.906145,-8656.879127,-222.061783
5551.068978,2294.638420,-8733.488677,-444.123565
5551.069303,222.061783,-8120.612279,148.041188
5551.069627,-296.082377,-8810.098227,296.082377
5551.069951,-962.267725,-8733.488677,-592.164754
5551.070276,-148.041188,-9269.755526,-296.082377
5551.070600,-222.061783,-9193.145976,222.061783
5551.070924,0.000000,-9039.926876,0.000000
5551.071249,-370.102971,-9806.022374,-148.041188
5551.071572,222.061783,-9193.145976,-370.102971
5551.071896,-814.226536,-8963.317327,74.020594
5551.072220,-1258.350101,-8044.002729,-814.226536
5551.072545,-1480.411884,-8350.440928,148.041188
5551.072869,-1480.411884,-7431.126331,148.041188
5551.073193,-1480.411884,-7660.954980,0.000000
5551.073518,0.000000,-8120.612279,814.226536
5551.073842,1554.432478,-7431.126331,740.205942
5551.074166,2220.617826,-8197.221829,222.061783
5551.074491,1850.514855,-8886.707777,-222.061783
5551.074815,666.185348,-8733.488677,-370.102971
5551.075139,-1184.329507,-8963.317327,74.020594
5551.075464,-2220.617826,-8580.269578,-222.061783
5551.075788,-2072.576638,-9269.755526,518.144159
5551.076112,-2664.741391,-7660.954980,148.041188
5551.076436,-296.082377,-8503.660028,814.226536
5551.076761,666.185348,-7507.735880,74.020594
5551.077085,1480.411884,-8273.831378,296.082377
5551.077409,592.164754,-7507.735880,0.000000
5551.077734,370.102971,-8273.831378,-222.061783
5551.078058,148.041188,-7967.393179,-888.247130
5551.078382,-1332.370696,-8120.612279,222.061783
5551.078707,-1332.370696,-8733.488677,148.041188
5551.079031,-1850.514855,-8580.269578,518.144159
5551.079355,-888.247130,-8503.660028,370.102971
5551.079680,2368.659014,-8427.050478,148.041188
5551.080004,2072.576638,-8810.098227,-222.061783
5551.080328,2442.679609,-8120.612279,-518.144159
5551.080653,4071.132681,-8044.002729,74.020594
5551.080977,2368.659014,-7890.783629,-1332.370696
5551.081301,2146.597232,-8580.269578,-1110.308913
5551.081626,222.061783,-8503.660028,-222.061783
5551.081950,-296.082377,-9499.584175,-666.185348
5551.082274,370.102971,-8503.660028,-1258.350101
5551.082599,518.144159,-8810.098227,-1036.288319
5551.082923,962.267725,-9729.412825,0.000000
5551.083247,1702.473667,-9499.584175,-1258.350101
5551.083572,1184.329507,-10035.851024,-1702.473667
5551.083896,1480.411884,-9039.926876,-1554.432478
5551.084220,-740.205942,-8733.488677,-962.267725
5551.084545,-1110.308913,-8350.440928,-1036.288319
5551.084869,222.061783,-8503.660028,-444.123565
5551.085193,1480.411884,-7967.393179,222.061783
5551.085518,3182.885551,-8044.002729,-1110.308913
5551.085842,4145.153275,-8810.098227,-444.123565
5551.086166,3034.844362,-8656.879127,-740.205942
5551.086491,2368.659014,-8580.269578,-1258.350101
5551.086815,3108.864956,-9576.193725,-962.267725
5551.087139,-592.164754,-9039.926876,-518.144159
5551.087464,-2368.659014,-9806.022374,-370.102971
5551.087788,-666.185348,-8810.098227,-814.226536
5551.088112,-1554.432478,-8810.098227,-296.082377
5551.088437,814.226536,-8810.098227,-518.144159
5551.088761,2368.659014,-8656.879127,-962.267725
5551.089085,2072.576638,-9269.755526,0.000000
5551.089410,1776.494261,-8350.440928,-592.164754
5551.089734,1110.308913,-8273.831378,-518.144159
5551.090058,-222.061783,-8886.707777,-1036.288319
5551.090383,-1850.514855,-8427.050478,0.000000
5551.090707,-1184.329507,-8886.707777,74.020594
5551.091031,-2812.782580,-9039.926876,-296.082377
5551.091356,-1702.473667,-8503.660028,1184.329507
5551.091680,740.205942,-7890.783629,74.020594
5551.092004,1776.494261,-8427.050478,1110.308913
5551.092329,2664.741391,-8044.002729,0.000000
5551.092653,3108.864956,-7967.393179,74.020594
5551.092977,1184.329507,-8503.660028,148.041188
5551.093301,-222.061783,-8350.440928,-518.144159
5551.093626,-2146.597232,-8886.707777,962.267725
5551.093950,-2368.659014,-7967.393179,222.061783
5551.094274,-1702.473667,-9269.755526,592.164754
5551.094599,0.000000,-8044.002729,296.082377
5551.094923,-518.144159,-9422.974625,740.205942
5551.095247,-148.041188,-8580.269578,-518.144159
5551.095572,-888.247130,-9576.193725,0.000000
5551.095896,74.020594,-8197.221829,-222.061783
5551.096220,-1480.411884,-7584.345430,0.000000
5551.096545,-2146.597232,-7584.345430,444.123565
5551.096869,-1776.494261,-7507.735880,518.144159
5551.097193,296.082377,-7431.126331,592.164754
5551.097518,1332.370696,-8044.002729,444.123565
5551.097842,2738.761985,-8197.221829,518.144159
5551.098166,2664.741391,-8580.269578,74.020594
5551.098491,2812.782580,-8273.831378,0.000000
5551.098815,2294.638420,-7814.174080,-370.102971
5551.099139,1702.473667,-9269.755526,0.000000
5551.099464,740.205942,-9422.974625,-444.123565
5551.099788,-3108.864956,-8503.660028,-1110.308913
5551.100112,-1554.432478,-9193.145976,0.000000
5551.100437,-222.061783,-7814.174080,-962.267725
5551.100761,1184.329507,-9652.803275,0.000000
5551.101085,1702.473667,-7814.174080,-1628.453072
5551.101410,1406.391290,-9576.193725,-592.164754
5551.101734,592.164754,-8810.098227,-1258.350101
5551.102058,888.247130,-9422.974625,-1628.453072
5551.102383,-1184.329507,-8350.440928,-888.247130
5551.102707,-2072.576638,-8503.660028,-888.247130
5551.103031,-888.247130,-9269.755526,0.000000
5551.103356,1406.391290,-8350.440928,-296.082377
5551.103680,2812.782580,-9116.536426,-370.102971
5551.104004,3849.070898,-8656.879127,-1036.288319
5551.104329,3701.029710,-8810.098227,-1628.453072
5551.104653,3552.988522,-9193.145976,-222.061783
5551.104977,1554.432478,-7737.564530,-1480.411884
5551.105302,1110.308913,-9499.584175,-370.102971
5551.105626,1036.288319,-9193.145976,-1480.411884
5551.105950,518.144159,-9499.584175,-740.205942
5551.106275,518.144159,-8503.660028,-1998.556043
5551.106599,74.020594,-9422.974625,-962.267725
5551.106923,1406.391290,-10189.070123,-1110.308913
5551.107248,1036.288319,-9882.631924,-814.226536
5551.107572,296.082377,-9039.926876,-1332.370696
5551.107896,-666.185348,-8886.707777,-592.164754
5551.108221,-1332.370696,-8350.440928,-1184.329507
5551.108545,-1184.329507,-8503.660028,-296.082377
5551.108869,-666.185348,-7890.783629,74.020594
5551.109193,444.123565,-7890.783629,148.041188
5551.109518,2590.720797,-7584.345430,0.000000
5551.109842,2220.617826,-7967.393179,0.000000
5551.110166,3182.885551,-8197.221829,-222.061783
5551.110491,2072.576638,-8350.440928,148.041188
5551.110815,962.267725,-9193.145976,-370.102971
5551.111139,592.164754,-8273.831378,74.020594
5551.111464,-1110.308913,-8656.879127,962.267725
5551.111788,-2220.617826,-8350.440928,-148.041188
5551.112112,-962.267725,-8963.317327,1036.288319
5551.112437,-148.041188,-8273.831378,0.000000
5551.112761,962.267725,-9039.926876,518.144159
5551.113085,1628.453072,-6971.469032,-592.164754
5551.113410,888.247130,-9193.145976,0.000000
5551.113734,222.061783,-9116.536426,0.000000
5551.114058,-592.164754,-7967.393179,-1110.308913
5551.114383,-2368.659014,-9116.536426,1258.350101
5551.114707,-3478.967927,-7201.297681,-296.082377
5551.115031,-1850.514855,-9576.193725,1258.350101
5551.115356,370.102971,-7354.516781,444.123565
5551.115680,666.185348,-8886.707777,1110.308913
5551.116004,1924.535449,-7814.174080,-222.061783
5551.116329,2442.679609,-8580.269578,444.123565
5551.116653,2664.741391,-8120.612279,0.000000
5551.116977,2368.659014,-8503.660028,-222.061783
5551.117302,592.164754,-8044.002729,-592.164754
5551.117626,-888.247130,-9729.412825,0.000000
5551.117950,-592.164754,-9039.926876,-518.144159
5551.118275,-1184.329507,-8963.317327,-222.061783
5551.118599,-592.164754,-9116.536426,0.000000
5551.118923,0.000000,-8810.098227,-296.082377
5551.119248,1036.288319,-9959.241474,-370.102971
5551.119572,-1258.350101,-8656.879127,-1258.350101
5551.119896,-592.164754,-8963.317327,-1258.350101
5551.120221,-1036.288319,-8273.831378,-1332.370696
5551.120545,-666.185348,-8350.440928,222.061783
5551.120869,-740.205942,-7354.516781,-370.102971
5551.121194,1332.370696,-8427.050478,222.061783
5551.121518,2072.576638,-7507.735880,-370.102971
5551.121842,4071.132681,-8963.317327,0.000000
5551.122167,3701.029710,-9193.145976,-814.226536
5551.122491,2886.803174,-9806.022374,-666.185348
5551.122815,1036.288319,-9269.755526,-1184.329507
5551.123140,148.041188,-9499.584175,-740.205942
5551.123464,-296.082377,-8963.317327,-1110.308913
5551.123788,-1110.308913,-9116.536426,-1332.370696
5551.124113,-296.082377,-8350.440928,-740.205942
5551.124437,0.000000,-8733.488677,-296.082377
5551.124761,2146.597232,-8733.488677,-962.267725
5551.125086,1554.432478,-8656.879127,-1184.329507
5551.125410,2072.576638,-9116.536426,-1406.391290
5551.125734,2072.576638,-8273.831378,-1036.288319
5551.126058,444.123565,-8503.660028,-1036.288319
5551.126383,-444.123565,-9039.926876,0.000000
5551.126707,-1480.411884,-8580.269578,-296.082377
5551.127031,-814.226536,-8503.660028,296.082377
5551.127356,962.267725,-8197.221829,444.123565
5551.127680,2072.576638,-8197.221829,370.102971
5551.128004,3478.967927,-8810.098227,-444.123565
5551.128329,3256.906145,-8656.879127,-1332.370696
5551.128653,2368.659014,-7890.783629,-740.205942
5551.128977,888.247130,-8733.488677,-296.082377
5551.129302,-592.164754,-8656.879127,-444.123565
5551.129626,-1258.350101,-9039.926876,296.082377
5551.129950,-1258.350101,-9346.365076,-592.164754
5551.130275,-740.205942,-8963.317327,-222.061783
5551.130599,-518.144159,-8350.440928,-370.102971
5551.130923,444.123565,-9499.584175,-296.082377
5551.131248,-148.041188,-8810.098227,-888.247130
5551.131572,222.061783,-8580.269578,-222.061783
5551.131896,-666.185348,-7814.174080,-740.205942
5551.132221,-666.185348,-8273.831378,-888.247130
5551.132545,-1258.350101,-7277.907231,-370.102971
5551.132869,-1184.329507,-7048.078582,1258.350101
5551.133194,1480.411884,-6665.030833,0.000000
5551.133518,2516.700203,-7967.393179,222.061783
5551.133842,2072.576638,-8580.269578,0.000000
5551.134167,2960.823768,-8886.707777,-592.164754
5551.134491,1924.535449,-8656.879127,-962.267725
5551.134815,296.082377,-9499.584175,0.000000
5551.135140,0.000000,-9116.536426,-518.144159
5551.135464,-2368.659014,-9116.536426,0.000000
5551.135788,-1480.411884,-9652.803275,-962.267725
5551.136113,-1184.329507,-8580.269578,-222.061783
5551.136437,-296.082377,-8656.879127,222.061783
5551.136761,1406.391290,-8580.269578,-518.144159
5551.137086,1258.350101,-9116.536426,0.000000
5551.137410,1628.453072,-8810.098227,-296.082377
5551.137734,-222.061783,-8273.831378,-666.185348
5551.138059,-296.082377,-8810.098227,-740.205942
5551.138383,-1628.453072,-8580.269578,-222.061783
5551.138707,-2368.659014,-8197.221829,370.102971
5551.139032,-740.205942,-8350.440928,592.164754
5551.139356,-296.082377,-8580.269578,222.061783
5551.139680,1406.391290,-8120.612279,444.123565
5551.140005,2590.720797,-8503.660028,-370.102971
5551.140329,3404.947333,-9346.365076,-222.061783
5551.140653,3034.844362,-8273.831378,-1258.350101
5551.140978,2220.617826,-9346.365076,-592.164754
5551.141302,0.000000,-8503.660028,-1184.329507
5551.141626,-888.247130,-8733.488677,-222.061783
5551.141951,-370.102971,-8656.879127,-962.267725
5551.142275,296.082377,-9039.926876,444.123565
5551.142599,-592.164754,-8503.660028,-1184.329507
5551.142923,148.041188,-9806.022374,-296.082377
5551.143248,592.164754,-8580.269578,-1702.473667
5551.143572,0.000000,-9576.193725,-592.164754
5551.143896,0.000000,-7354.516781,-1332.370696
5551.144221,-444.123565,-8656.879127,-962.267725
5551.144545,-592.164754,-7814.174080,0.000000
5551.144869,1110.308913,-6665.030833,0.000000
5551.145194,1406.391290,-7737.564530,-518.144159
5551.145518,2886.803174,-8656.879127,370.102971
5551.145842,3701.029710,-7890.783629,0.000000
5551.146167,3849.070898,-9806.022374,-666.185348
5551.146491,3552.988522,-9039.926876,-1258.350101
5551.146815,296.082377,-8656.879127,0.000000
5551.147140,-888.247130,-8350.440928,-814.226536
5551.147464,0.000000,-10189.070123,0.000000
5551.147788,-4811.338623,-9116.536426,-1184.329507
5551.148113,1924.535449,-9346.365076,148.041188
5551.148437,-962.267725,-6665.030833,-1406.391290
5551.148761,2590.720797,-10418.898773,-370.102971
5551.149086,3108.864956,-8044.002729,-518.144159
5551.149410,814.226536,-9193.145976,-1258.350101
5551.149734,0.000000,-8503.660028,-1036.288319
5551.150059,-518.144159,-8503.660028,-962.267725
5551.150383,-2738.761985,-8886.707777,666.185348
5551.150707,-3108.864956,-8197.221829,-888.247130
5551.151032,-1924.535449,-8427.050478,740.205942
5551.151356,-296.082377,-8427.050478,666.185348
5551.151680,1258.350101,-8427.050478,0.000000
5551.152005,2886.803174,-8580.269578,-444.123565
5551.152329,3849.070898,-8580.269578,-148.041188
5551.152653,2664.741391,-9346.365076,-592.164754
5551.152978,3034.844362,-8656.879127,-1110.308913
5551.153302,592.164754,-8350.440928,296.082377
5551.153626,-370.102971,-8120.612279,0.000000
5551.153951,-962.267725,-8427.050478,-222.061783
5551.154275,-222.061783,-9576.193725,-444.123565
5551.154599,-592.164754,-8580.269578,0.000000
5551.154924,-1406.391290,-8886.707777,-222.061783
5551.155248,-2072.576638,-8886.707777,-592.164754
5551.155572,-1554.432478,-9729.412825,-296.082377
5551.155897,-592.164754,-8503.660028,-888.247130
5551.156221,-370.102971,-8503.660028,0.000000
5551.156545,-370.102971,-7660.954980,0.000000
5551.156870,0.000000,-8273.831378,814.226536
5551.157194,1406.391290,-7048.078582,-222.061783
5551.157518,2294.638420,-8427.050478,444.123565
5551.157843,3627.009116,-7967.393179,296.082377
5551.158167,2664.741391,-8580.269578,-296.082377
5551.158491,2368.659014,-9499.584175,-296.082377
5551.158816,-296.082377,-8810.098227,-1036.288319
5551.159140,-1258.350101,-9806.022374,0.000000
5551.159464,-2146.597232,-8733.488677,-1110.308913
5551.159788,-1480.411884,-9422.974625,148.041188
5551.160113,-1258.350101,-8120.612279,-444.123565
5551.160437,888.247130,-8503.660028,74.020594
5551.160761,1628.453072,-8427.050478,-148.041188
5551.161086,2590.720797,-8580.269578,-666.185348
5551.161410,1924.535449,-8963.317327,-888.247130
5551.161734,1258.350101,-7967.393179,-1628.453072
5551.162059,-962.267725,-9422.974625,-1036.288319
5551.162383,-1184.329507,-8503.660028,-666.185348
5551.162707,-1998.556043,-9193.145976,518.144159
5551.163032,-592.164754,-8503.660028,-370.102971
5551.163356,0.000000,-8656.879127,-222.061783
5551.163680,1628.453072,-8503.660028,-148.041188
5551.164005,2516.700203,-9576.193725,-296.082377
5551.164329,3108.864956,-8197.221829,-888.247130
5551.164653,2072.576638,-8197.221829,0.000000
5551.164978,1480.411884,-8503.660028,-1036.288319
5551.165302,222.061783,-9116.536426,-1480.411884
5551.165626,-592.164754,-10342.289223,-740.205942
5551.165951,-1702.473667,-7354.516781,-592.164754
5551.166275,1554.432478,-9806.022374,-666.185348
5551.166599,518.144159,-9422.974625,-296.082377
5551.166924,444.123565,-8886.707777,-666.185348
5551.167248,1332.370696,-9499.584175,-962.267725
5551.167572,-888.247130,-9039.926876,-1184.329507
5551.167897,-1406.391290,-8427.050478,-740.205942
5551.168221,-1406.391290,-8197.221829,0.000000
5551.168545,-1258.350101,-8350.440928,-296.082377
5551.168870,296.082377,-7967.393179,518.144159
5551.169194,1554.432478,-6588.421283,-518.144159
5551.169518,2368.659014,-8963.317327,222.061783
5551.169843,3478.967927,-8350.440928,-148.041188
5551.170167,1998.556043,-8427.050478,-888.247130
5551.170491,1258.350101,-9729.412825,-592.164754
5551.170816,-370.102971,-9116.536426,518.144159
5551.171140,-1776.494261,-9039.926876,-222.061783
5551.171464,-1480.411884,-8503.660028,-1036.288319
5551.171789,-1184.329507,-8503.660028,222.061783
5551.172113,-296.082377,-8120.612279,148.041188
5551.172437,1480.411884,-7660.954980,-222.061783
5551.172762,1702.473667,-8580.269578,222.061783
5551.173086,1998.556043,-8580.269578,-148.041188
5551.173410,2220.617826,-8733.488677,-962.267725
5551.173735,0.000000,-8120.612279,-1776.494261
5551.174059,-370.102971,-9346.365076,-222.061783
5551.174383,-2368.659014,-8044.002729,0.000000
5551.174708,-3034.844362,-8886.707777,444.123565
5551.175032,-2146.597232,-8044.002729,1332.370696
5551.175356,0.000000,-8503.660028,666.185348
5551.175681,1628.453072,-8197.221829,370.102971
5551.176005,3182.885551,-8350.440928,0.000000
5551.176329,4145.153275,-8350.440928,-518.144159
5551.176654,2368.659014,-8503.660028,0.000000
5551.176978,2812.782580,-8886.707777,-222.061783
5551.177302,-962.267725,-8120.612279,-592.164754
5551.177627,-592.164754,-10035.851024,370.102971
5551.177951,-814.226536,-7737.564530,-444.123565
5551.178275,-74.020594,-9806.022374,518.144159
5551.178600,666.185348,-9269.755526,0.000000
5551.178924,-1036.288319,-8886.707777,-962.267725
5551.179248,-296.082377,-9882.631924,0.000000
5551.179573,-592.164754,-8733.488677,-1184.329507
5551.179897,-1258.350101,-8733.488677,-1036.288319
5551.180221,-1184.329507,-8350.440928,296.082377
5551.180546,-740.205942,-7814.174080,-148.041188
5551.180870,444.123565,-7967.393179,370.102971
5551.181194,2294.638420,-8350.440928,0.000000
5551.181519,3256.906145,-8886.707777,74.020594
5551.181843,3256.906145,-8656.879127,-666.185348
5551.182167,1110.308913,-8350.440928,-1554.432478
5551.182492,2516.700203,-10112.460574,296.082377
5551.182816,-222.061783,-8580.269578,-592.164754
5551.183140,-1036.288319,-9882.631924,-370.102971
5551.183465,-1554.432478,-8427.050478,-888.247130
5551.183789,-1998.556043,-8350.440928,-74.020594
5551.184113,-740.205942,-8503.660028,-962.267725
5551.184438,2590.720797,-8273.831378,0.000000
5551.184762,2442.679609,-8733.488677,-592.164754
5551.185086,2368.659014,-9039.926876,-962.267725
5551.185411,814.226536,-8427.050478,-1480.411884
5551.185735,148.041188,-9116.536426,-1184.329507
5551.186059,-814.226536,-9116.536426,0.000000
5551.186384,-1628.453072,-8503.660028,0.000000
5551.186708,-1332.370696,-9346.365076,-222.061783
5551.187032,-888.247130,-8427.050478,296.082377
5551.187357,592.164754,-8350.440928,-222.061783
5551.187681,1850.514855,-8810.098227,370.102971
5551.188005,2516.700203,-8197.221829,74.020594
5551.188330,3923.091493,-8197.221829,-518.144159
5551.188654,2368.659014,-8427.050478,-518.144159
5551.188978,962.267725,-8350.440928,-444.123565
5551.189303,74.020594,-8810.098227,-444.123565
5551.189627,74.020594,-8886.707777,-592.164754
5551.189951,-148.041188,-8886.707777,74.020594
5551.190276,888.247130,-9193.145976,222.061783
5551.190600,0.000000,-9193.145976,-592.164754
5551.190924,-740.205942,-9116.536426,74.020594
5551.191249,-1184.329507,-8580.269578,-296.082377
5551.191573,-888.247130,-8580.269578,-1406.391290
5551.191897,-592.164754,-7967.393179,-740.205942
5551.192222,-1332.370696,-7890.783629,592.164754
5551.192546,-1184.329507,-6818.249932,0.000000
5551.192870,0.000000,-7890.783629,-370.102971
5551.193195,1924.535449,-7660.954980,1184.329507
5551.193519,3404.947333,-8580.269578,592.164754
5551.193843,4441.235652,-7814.174080,-740.205942
5551.194168,2442.679609,-9039.926876,0.000000
5551.194492,2220.617826,-8044.002729,-592.164754
5551.194816,1924.535449,-9116.536426,-222.061783
5551.195141,0.000000,-9193.145976,-370.102971
5551.195465,-1554.432478,-8886.707777,222.061783
5551.195789,-1628.453072,-8044.002729,-370.102971
5551.196114,0.000000,-8886.707777,-370.102971
5551.196438,888.247130,-7814.174080,-666.185348
5551.196762,1258.350101,-8656.879127,518.144159
5551.197087,1110.308913,-9193.145976,-1258.350101
5551.197411,-148.041188,-8580.269578,-1258.350101
5551.197735,-518.144159,-8350.440928,-888.247130
5551.198060,-2516.700203,-7814.174080,-296.082377
5551.198384,-1628.453072,-8350.440928,74.020594
5551.198708,-518.144159,-8580.269578,0.000000
5551.199033,222.061783,-8427.050478,0.000000
5551.199357,1850.514855,-7967.393179,0.000000
5551.199681,1480.411884,-8810.098227,-888.247130
5551.200006,1480.411884,-9422.974625,-370.102971
5551.200330,2220.617826,-8044.002729,0.000000
5551.200654,1184.329507,-8886.707777,0.000000
5551.200979,-370.102971,-8503.660028,-1110.308913
5551.201303,-444.123565,-8810.098227,-740.205942
5551.201627,-296.082377,-9116.536426,-962.267725
5551.201952,-1924.535449,-8197.221829,-1480.411884
5551.202276,888.247130,-9116.536426,0.000000
5551.202601,666.185348,-8886.707777,0.000000
5551.202925,296.082377,-9346.365076,-1406.391290
5551.203249,740.205942,-9729.412825,-740.205942
5551.203574,-296.082377,-8733.488677,-962.267725
5551.203898,-1702.473667,-8886.707777,-740.205942
5551.204222,-1628.453072,-8044.002729,-148.041188
5551.204547,-2368.659014,-8197.221829,0.000000
5551.204871,-592.164754,-7737.564530,370.102971
5551.205195,2294.638420,-7890.783629,-148.041188
5551.205520,2812.782580,-8656.879127,296.082377
5551.205844,4219.173869,-7584.345430,-370.102971
5551.206168,3627.009116,-8580.269578,-592.164754
5551.206493,3701.029710,-9499.584175,-1554.432478
5551.206817,1258.350101,-8044.002729,444.123565
5551.207141,0.000000,-9422.974625,-148.041188
5551.207466,-1110.308913,-8350.440928,-148.041188
5551.207790,148.041188,-9499.584175,296.082377
5551.208114,962.267725,-8810.098227,74.020594
5551.208439,1480.411884,-6894.859482,0.000000
5551.208763,1850.514855,-9729.412825,-1036.288319
5551.209087,-518.144159,-9422.974625,74.020594
5551.209412,-518.144159,-7124.688131,-962.267725
5551.209736,-518.144159,-8580.269578,-592.164754
5551.210060,-2072.576638,-7890.783629,-592.164754
5551.210385,-888.247130,-8656.879127,518.144159
5551.210709,74.020594,-7967.393179,444.123565
5551.211033,0.000000,-8197.221829,592.164754
5551.211358,1258.350101,-8656.879127,888.247130
5551.211682,2368.659014,-7354.516781,74.020594
5551.212006,4071.132681,-9116.536426,296.082377
5551.212331,3997.112087,-8580.269578,-740.205942
5551.212655,3108.864956,-8044.002729,-296.082377
5551.212979,888.247130,-8580.269578,-592.164754
5551.213304,-444.123565,-8963.317327,-1036.288319
5551.213628,-148.041188,-8733.488677,592.164754
5551.213952,-814.226536,-7737.564530,-592.164754
5551.214277,370.102971,-9116.536426,148.041188
5551.214601,-148.041188,-8044.002729,0.000000
5551.214925,-518.144159,-9269.755526,-740.205942
5551.215250,-296.082377,-9039.926876,-740.205942
5551.215574,-518.144159,-8963.317327,-1406.391290
5551.215898,-1480.411884,-9116.536426,-1258.350101
5551.216223,-1110.308913,-7737.564530,444.123565
5551.216547,-2368.659014,-7967.393179,-296.082377
5551.216871,-1332.370696,-8580.269578,-888.247130
5551.217196,888.247130,-9652.803275,370.102971
5551.217520,-296.082377,-6665.030833,-370.102971
5551.217844,4071.132681,-9039.926876,-296.082377
5551.218169,2294.638420,-8810.098227,-518.144159
5551.218493,2664.741391,-9039.926876,-666.185348
5551.218817,2442.679609,-8120.612279,0.000000
5551.219142,888.247130,-9269.755526,-1406.391290
5551.219466,-1184.329507,-9806.022374,-666.185348
5551.219790,-370.102971,-7814.174080,-740.205942
5551.220115,-1776.494261,-9499.584175,-222.061783
5551.220439,-1258.350101,-8197.221829,-444.123565
5551.220763,-148.041188,-8656.879127,-370.102971
5551.221088,-814.226536,-9269.755526,-518.144159
5551.221412,0.000000,-8503.660028,-1628.453072
5551.221736,222.061783,-9269.755526,-1850.514855
5551.222061,-1850.514855,-8427.050478,-444.123565
5551.222385,-1110.308913,-7890.783629,-444.123565
5551.222709,-888.247130,-8656.879127,-370.102971
5551.223034,0.000000,-7354.516781,222.061783
5551.223358,2146.597232,-8350.440928,222.061783
5551.223682,3256.906145,-8503.660028,-888.247130
5551.224007,3552.988522,-9193.145976,148.041188
5551.224331,2664.741391,-7584.345430,-814.226536
5551.224655,1998.556043,-9346.365076,74.020594
5551.224980,222.061783,-8197.221829,-1554.432478
5551.225304,-148.041188,-9116.536426,814.226536
5551.225628,-740.205942,-7890.783629,-518.144159
5551.225953,-296.082377,-9346.365076,-962.267725
5551.226277,962.267725,-8580.269578,-370.102971
5551.226601,1924.535449,-8733.488677,444.123565
5551.226926,740.205942,-9039.926876,-1036.288319
5551.227250,-296.082377,-8963.317327,-1184.329507
5551.227574,-222.061783,-8963.317327,-1184.329507
5551.227899,-1332.370696,-8503.660028,-1036.288319
5551.228223,-1036.288319,-9116.536426,0.000000
5551.228547,-1258.350101,-7584.345430,74.020594
5551.228872,518.144159,-7584.345430,370.102971
5551.229196,1480.411884,-8044.002729,0.000000
5551.229520,3775.050304,-8044.002729,-518.144159
5551.229845,3923.091493,-8427.050478,0.000000
5551.230169,4663.297435,-8120.612279,-148.041188
5551.230493,2960.823768,-8120.612279,-370.102971
5551.230818,2664.741391,-8886.707777,-518.144159
5551.231142,592.164754,-8580.269578,0.000000
5551.231466,-814.226536,-8580.269578,-666.185348
5551.231791,0.000000,-8733.488677,-222.061783
5551.232115,-518.144159,-8350.440928,148.041188
5551.232439,0.000000,-8580.269578,148.041188
5551.232764,-740.205942,-8963.317327,-962.267725
5551.233088,0.000000,-9576.193725,-888.247130
5551.233412,-518.144159,-8503.660028,-1184.329507
5551.233737,-1406.391290,-8427.050478,-1480.411884
5551.234061,-1036.288319,-9422.974625,0.000000
5551.234385,-1628.453072,-7431.126331,-888.247130
5551.234710,-740.205942,-8810.098227,888.247130
5551.235034,-222.061783,-6971.469032,-666.185348
5551.235358,296.082377,-9193.145976,0.000000
5551.235683,3034.844362,-8580.269578,1184.329507
5551.236007,2590.720797,-8427.050478,-1258.350101
5551.236331,2590.720797,-9652.803275,0.000000
5551.236656,1110.308913,-8733.488677,-592.164754
5551.236980,74.020594,-9499.584175,-1110.308913
5551.237304,-518.144159,-8810.098227,296.082377
5551.237629,-444.123565,-8427.050478,-1776.494261
5551.237953,-518.144159,-8886.707777,-148.041188
5551.238277,148.041188,-7584.345430,0.000000
5551.238602,666.185348,-9806.022374,-296.082377
5551.238926,0.000000,-9116.536426,-1406.391290
5551.239250,-2220.617826,-9499.584175,-814.226536
5551.239575,-1184.329507,-8886.707777,-1406.391290
5551.239899,-2886.803174,-8810.098227,-740.205942
5551.240223,-2294.638420,-9039.926876,-296.082377
5551.240548,-2072.576638,-8120.612279,518.144159
5551.240872,-1258.350101,-7890.783629,-444.123565
5551.241196,1702.473667,-7737.564530,518.144159
5551.241521,2368.659014,-7967.393179,0.000000
5551.241845,3330.926739,-9422.974625,-592.164754
5551.242170,3108.864956,-8503.660028,-444.123565
5551.242494,2664.741391,-8886.707777,0.000000
5551.242818,666.185348,-8656.879127,-148.041188
5551.243143,-148.041188,-8503.660028,-296.082377
5551.243467,-370.102971,-9193.145976,-592.164754
5551.243791,-370.102971,-7584.345430,0.000000
5551.244116,-592.164754,-8503.660028,444.123565
5551.244440,222.061783,-8656.879127,0.000000
5551.244764,0.000000,-8963.317327,-740.205942
5551.245089,-518.144159,-8886.707777,-1184.329507
5551.245413,0.000000,-8197.221829,-1480.411884
5551.245737,-1554.432478,-8120.612279,-592.164754
5551.246062,-1184.329507,-9269.755526,444.123565
5551.246386,-666.185348,-7890.783629,0.000000
5551.246710,1184.329507,-8350.440928,148.041188
5551.247035,2072.576638,-7737.564530,148.041188
5551.247359,2960.823768,-7967.393179,0.000000
5551.247683,3775.050304,-8503.660028,0.000000
5551.248008,3404.947333,-8580.269578,0.000000
5551.248332,2294.638420,-8427.050478,-296.082377
5551.248656,444.123565,-8810.098227,0.000000
5551.248981,666.185348,-8886.707777,0.000000
5551.249305,-592.164754,-8656.879127,148.041188
5551.249629,74.020594,-8656.879127,-814.226536
5551.249954,1184.329507,-8273.831378,74.020594
5551.250278,1406.391290,-7967.393179,-592.164754
5551.250602,1702.473667,-9729.412825,74.020594
5551.250927,888.247130,-8733.488677,-1480.411884
5551.251251,0.000000,-9652.803275,-1036.288319
5551.251575,-1036.288319,-8427.050478,-1776.494261
5551.251900,-2368.659014,-9116.536426,-518.144159
5551.252224,-1702.473667,-8580.269578,-666.185348
5551.252548,-2738.761985,-7967.393179,-296.082377
5551.252873,1110.308913,-8350.440928,0.000000
5551.253197,1480.411884,-8427.050478,0.000000
5551.253521,3256.906145,-8120.612279,-74.020594
5551.253846,3849.070898,-8350.440928,-1184.329507
5551.254170,2886.803174,-9346.365076,0.000000
5551.254494,2294.638420,-9039.926876,-1258.350101
5551.254819,1554.432478,-9729.412825,-444.123565
5551.255143,-444.123565,-8273.831378,-518.144159
5551.255467,222.061783,-9193.145976,-888.247130
5551.255792,-2146.597232,-8656.879127,-592.164754
5551.256116,-740.205942,-9346.365076,222.061783
5551.256440,-592.164754,-8963.317327,-740.205942
5551.256765,-888.247130,-9806.022374,-814.226536
5551.257089,222.061783,-9499.584175,-888.247130
5551.257413,-1332.370696,-9039.926876,-2368.659014
5551.257738,-1036.288319,-9346.365076,-1110.308913
5551.258062,-1406.391290,-9422.974625,-370.102971
5551.258386,-1998.556043,-8656.879127,0.000000
5551.258711,1554.432478,-7737.564530,74.020594
5551.259035,2812.782580,-8120.612279,148.041188
5551.259359,1036.288319,-8197.221829,0.000000
5551.259684,2886.803174,-8427.050478,0.000000
5551.260008,2442.679609,-8886.707777,148.041188
5551.260332,1850.514855,-8350.440928,74.020594
5551.260657,592.164754,-8963.317327,-148.041188
5551.260981,-1036.288319,-7967.393179,0.000000
5551.261305,-1110.308913,-8656.879127,296.082377
5551.261630,-370.102971,-8580.269578,-666.185348
5551.261954,74.020594,-8886.707777,222.061783
5551.262278,74.020594,-8810.098227,-370.102971
5551.262603,-1184.329507,-9346.365076,0.000000
5551.262927,-1554.432478,-9039.926876,-370.102971
5551.263251,-1998.556043,-7967.393179,-518.144159
5551.263576,-2664.741391,-8580.269578,148.041188
5551.263900,-2368.659014,-8273.831378,-962.267725
5551.264224,-1480.411884,-8733.488677,0.000000
5551.264549,-1480.411884,-7124.688131,666.185348
5551.264873,888.247130,-7584.345430,1036.288319
5551.265197,2590.720797,-7507.735880,1184.329507
5551.265522,4885.359217,-7507.735880,666.185348
5551.265846,5403.503377,-8503.660028,296.082377
5551.266170,4885.359217,-8273.831378,222.061783
5551.266495,3034.844362,-8427.050478,-370.102971
5551.266819,1036.288319,-8656.879127,-296.082377
5551.267143,-518.144159,-8963.317327,74.020594
5551.267468,-962.267725,-8044.002729,148.041188
5551.267792,-666.185348,-8656.879127,-370.102971
5551.268116,222.061783,-7431.126331,0.000000
5551.268441,962.267725,-9269.755526,-518.144159
5551.268765,296.082377,-8580.269578,-1184.329507
5551.269089,888.247130,-8963.317327,-666.185348
5551.269414,1332.370696,-8733.488677,-1628.453072
5551.269738,518.144159,-8733.488677,-740.205942
5551.270063,-1110.308913,-8503.660028,-296.082377
5551.270387,-814.226536,-8120.612279,-962.267725
5551.270712,148.041188,-8733.488677,-370.102971
5551.271036,1554.432478,-8273.831378,-148.041188
5551.271361,2146.597232,-8963.317327,148.041188
5551.271685,1628.453072,-8120.612279,148.041188
5551.272010,2590.720797,-8656.879127,-666.185348
5551.272334,2516.700203,-8810.098227,-592.164754
5551.272658,2368.659014,-9269.755526,-1628.453072
5551.272983,962.267725,-8963.317327,-1332.370696
5551.273307,962.267725,-8503.660028,0.000000
5551.273632,-444.123565,-7967.393179,-1258.350101
5551.273956,740.205942,-8886.707777,0.000000
5551.274281,1184.329507,-9039.926876,0.000000
5551.274605,444.123565,-9499.584175,-1406.391290
5551.274930,0.000000,-9652.803275,-1702.473667
5551.275254,-1480.411884,-9729.412825,-1554.432478
5551.275579,-3034.844362,-9806.022374,-1776.494261
5551.275903,-3182.885551,-8350.440928,-1554.432478
5551.276227,-962.267725,-9039.926876,0.000000
5551.276552,-1850.514855,-7967.393179,296.082377
5551.276876,592.164754,-7507.735880,0.000000
5551.277201,2220.617826,-9116.536426,-518.144159
5551.277525,3108.864956,-7814.174080,0.000000
5551.277850,3478.967927,-8427.050478,-148.041188
5551.278174,2664.741391,-8810.098227,-1258.350101
5551.278499,2368.659014,-8733.488677,370.102971
5551.278823,0.000000,-8733.488677,0.000000
5551.279148,-666.185348,-9422.974625,-1036.288319
5551.279472,-2220.617826,-8656.879127,-592.164754
5551.279796,-2146.597232,-8273.831378,0.000000
5551.280121,0.000000,-7890.783629,666.185348
5551.280445,-222.061783,-8886.707777,-296.082377
5551.280770,962.267725,-9193.145976,-74.020594
5551.281094,148.041188,-8886.707777,-444.123565
5551.281419,-148.041188,-8503.660028,-888.247130
5551.281743,-1036.288319,-8197.221829,0.000000
5551.282068,-1776.494261,-8427.050478,222.061783
5551.282392,-814.226536,-8580.269578,222.061783
5551.282717,74.020594,-7584.345430,666.185348
5551.283041,1258.350101,-7737.564530,1184.329507
5551.283366,1406.391290,-7584.345430,444.123565
5551.283690,2368.659014,-8580.269578,222.061783
5551.284014,4293.194464,-8273.831378,518.144159
5551.284339,3997.112087,-6971.469032,1406.391290
5551.284663,1036.288319,-7584.345430,-666.185348
5551.284988,814.226536,-9806.022374,148.041188
5551.285312,0.000000,-8273.831378,1184.329507
5551.285637,296.082377,-7584.345430,-1480.411884
5551.285961,666.185348,-9806.022374,1702.473667
5551.286286,-222.061783,-6971.469032,-370.102971
5551.286610,518.144159,-9806.022374,-666.185348
5551.286935,-1110.308913,-9346.365076,-1332.370696
5551.287259,-1184.329507,-9422.974625,-148.041188
5551.287583,-2516.700203,-7814.174080,-962.267725
5551.287908,-2368.659014,-9346.365076,0.000000
5551.288232,-592.164754,-8580.269578,222.061783
5551.288557,1184.329507,-7814.174080,666.185348
5551.288881,1776.494261,-7890.783629,-370.102971
5551.289206,3849.070898,-7890.783629,0.000000
5551.289530,3775.050304,-7737.564530,-296.082377
5551.289855,3701.029710,-9116.536426,-518.144159
5551.290179,3182.885551,-9039.926876,-962.267725
5551.290504,962.267725,-8886.707777,-1110.308913
5551.290828,-518.144159,-9499.584175,-222.061783
5551.291152,-1628.453072,-8733.488677,-1554.432478
5551.291477,-1850.514855,-9806.022374,0.000000
5551.291801,148.041188,-8120.612279,-1258.350101
5551.292126,1776.494261,-9422.974625,-888.247130
5551.292450,1036.288319,-8656.879127,-1554.432478
5551.292775,1406.391290,-9576.193725,666.185348
5551.293099,888.247130,-8733.488677,-1776.494261
5551.293424,0.000000,-9346.365076,-1258.350101
5551.293748,-1036.288319,-9193.145976,-888.247130
5551.294073,-2146.597232,-8503.660028,-888.247130
5551.294397,-1702.473667,-9039.926876,-518.144159
5551.294722,-1258.350101,-8656.879127,0.000000
5551.295046,0.000000,-8810.098227,0.000000
5551.295370,2590.720797,-8963.317327,-666.185348
5551.295695,1258.350101,-9269.755526,0.000000
5551.296019,2590.720797,-8273.831378,-1110.308913
5551.296344,3330.926739,-8963.317327,-444.123565
5551.296668,1480.411884,-8733.488677,-1406.391290
5551.296993,0.000000,-9116.536426,962.267725
5551.297317,-888.247130,-8273.831378,-666.185348
5551.297642,-2220.617826,-9346.365076,74.020594
5551.297966,-666.185348,-8120.612279,0.000000
5551.298291,-370.102971,-9346.365076,0.000000
5551.298615,-518.144159,-8810.098227,-518.144159
5551.298939,-1258.350101,-8733.488677,-962.267725
5551.299264,296.082377,-8197.221829,-888.247130
5551.299588,-1628.453072,-8197.221829,-222.061783
5551.299913,-1406.391290,-7354.516781,0.000000
5551.300237,-740.205942,-8350.440928,444.123565
5551.300562,740.205942,-7507.735880,-222.061783
5551.300886,1776.494261,-8427.050478,1110.308913
5551.301211,2738.761985,-8273.831378,518.144159
5551.301535,3108.864956,-8120.612279,1110.308913
5551.301860,2220.617826,-7890.783629,-370.102971
5551.302184,2146.597232,-8810.098227,74.020594
5551.302508,1036.288319,-7967.393179,-296.082377
5551.302833,-444.123565,-8197.221829,296.082377
5551.303157,-888.247130,-7890.783629,-592.164754
5551.303482,-1184.329507,-7967.393179,222.061783
5551.303806,-1258.350101,-7737.564530,-444.123565
5551.304131,962.267725,-9346.365076,888.247130
5551.304455,296.082377,-8810.098227,0.000000
5551.304780,1702.473667,-9652.803275,222.061783
5551.305104,370.102971,-8427.050478,-962.267725
5551.305429,-444.123565,-9116.536426,-444.123565
5551.305753,-814.226536,-8273.831378,-814.226536
5551.306078,-1850.514855,-8580.269578,370.102971
5551.306402,-888.247130,-8503.660028,0.000000
5551.306726,-666.185348,-7584.345430,444.123565
5551.307051,1406.391290,-8197.221829,0.000000
5551.307375,2812.782580,-8503.660028,148.041188
5551.307700,2368.659014,-8273.831378,444.123565
5551.308024,3034.844362,-8656.879127,0.000000
5551.308349,3627.009116,-7967.393179,0.000000
5551.308673,370.102971,-8810.098227,-1036.288319
5551.308998,814.226536,-9116.536426,-888.247130
5551.309322,-370.102971,-8963.317327,-592.164754
5551.309647,-592.164754,-8733.488677,-666.185348
5551.309971,-222.061783,-8580.269578,-666.185348
5551.310295,296.082377,-10035.851024,-222.061783
5551.310620,0.000000,-8886.707777,-1554.432478
5551.310944,-2220.617826,-8886.707777,-1184.329507
5551.311269,-1258.350101,-9652.803275,-74.020594
5551.311593,-1554.432478,-8120.612279,-2294.638420
5551.311918,-1184.329507,-9652.803275,0.000000
5551.312242,518.144159,-7507.735880,-666.185348
5551.312567,2368.659014,-9499.584175,1110.308913
5551.312891,1776.494261,-7814.174080,-888.247130
5551.313216,4441.235652,-9499.584175,-296.082377
5551.313540,2294.638420,-8120.612279,-370.102971
5551.313864,1332.370696,-8273.831378,-962.267725
5551.314189,1850.514855,-8963.317327,-740.205942
5551.314513,-518.144159,-9346.365076,-888.247130
5551.314838,-1258.350101,-9346.365076,-888.247130
5551.315162,-1998.556043,-8810.098227,-740.205942
5551.315487,-1850.514855,-8503.660028,-296.082377
5551.315811,-518.144159,-7890.783629,0.000000
5551.316136,1184.329507,-8810.098227,-592.164754
5551.316460,1850.514855,-8733.488677,-370.102971
5551.316785,2294.638420,-9193.145976,0.000000
5551.317109,1332.370696,-8656.879127,-1480.411884
5551.317434,-370.102971,-8733.488677,-888.247130
5551.317758,74.020594,-8886.707777,148.041188
5551.318082,-1850.514855,-8580.269578,-518.144159
5551.318407,-1702.473667,-8810.098227,370.102971
5551.318731,-592.164754,-7890.783629,1110.308913
5551.319056,888.247130,-7890.783629,296.082377
5551.319380,2664.741391,-7737.564530,370.102971
5551.319705,3256.906145,-8886.707777,296.082377
5551.320029,3034.844362,-8350.440928,-296.082377
5551.320354,2960.823768,-8044.002729,222.061783
5551.320678,1184.329507,-8503.660028,-444.123565
5551.321003,666.185348,-9116.536426,-222.061783
5551.321327,0.000000,-8044.002729,-444.123565
5551.321651,-1036.288319,-8656.879127,-222.061783
5551.321976,-222.061783,-8733.488677,814.226536
5551.322300,-370.102971,-8656.879127,0.000000
5551.322625,-666.185348,-9959.241474,-740.205942
5551.322949,-1850.514855,-7814.174080,-740.205942
5551.323274,-1110.308913,-8503.660028,0.000000
5551.323598,-1258.350101,-7431.126331,-888.247130
5551.323923,0.000000,-8427.050478,222.061783
5551.324247,-444.123565,-7814.174080,0.000000
5551.324572,1924.535449,-8044.002729,666.185348
5551.324896,2738.761985,-8273.831378,-296.082377
5551.325220,4145.153275,-9652.803275,148.041188
5551.325545,3182.885551,-7737.564530,-740.205942
5551.325869,2146.597232,-9346.365076,296.082377
5551.326194,740.205942,-8427.050478,-740.205942
5551.326518,-814.226536,-8810.098227,148.041188
5551.326843,-444.123565,-9116.536426,-740.205942
5551.327167,-1258.350101,-8273.831378,-1110.308913
5551.327492,-592.164754,-8427.050478,0.000000
5551.327816,592.164754,-7814.174080,-1258.350101
5551.328141,2294.638420,-8120.612279,148.041188
5551.328465,1258.350101,-8503.660028,-1184.329507
5551.328790,1480.411884,-10035.851024,0.000000
5551.329114,-296.082377,-8580.269578,-1850.514855
5551.329438,-296.082377,-10189.070123,-962.267725
5551.329763,-2220.617826,-9499.584175,-1110.308913
5551.330087,-2294.638420,-9346.365076,0.000000
5551.330412,-1924.535449,-8963.317327,0.000000
5551.330736,-740.205942,-7814.174080,592.164754
5551.331061,888.247130,-8503.660028,-222.061783
5551.331385,1776.494261,-8273.831378,-518.144159
5551.331710,3552.988522,-8733.488677,-444.123565
5551.332034,2442.679609,-7890.783629,-1184.329507
5551.332359,3404.947333,-9269.755526,-740.205942
5551.332683,1480.411884,-8963.317327,-888.247130
5551.333007,-74.020594,-9652.803275,0.000000
5551.333332,0.000000,-8886.707777,-666.185348
5551.333656,-222.061783,-9652.803275,-592.164754
5551.333981,-888.247130,-8503.660028,-444.123565
5551.334305,0.000000,-9269.755526,296.082377
5551.334630,-592.164754,-8886.707777,-1554.432478
5551.334954,-814.226536,-9039.926876,-518.144159
5551.335279,-296.082377,-8350.440928,-962.267725
5551.335603,-740.205942,-8503.660028,-962.267725
5551.335928,-814.226536,-8273.831378,-740.205942
5551.336252,-296.082377,-8656.879127,592.164754
5551.336576,1406.391290,-8503.660028,0.000000
5551.336901,3478.967927,-8427.050478,74.020594
5551.337225,3256.906145,-8503.660028,444.123565
5551.337550,3182.885551,-8656.879127,-444.123565
5551.337874,1776.494261,-9193.145976,-1036.288319
5551.338199,222.061783,-9499.584175,0.000000
5551.338523,-1702.473667,-6128.763984,74.020594
5551.338848,814.226536,-9116.536426,-518.144159
5551.339172,-2960.823768,-8963.317327,-592.164754
5551.339497,-444.123565,-7124.688131,-222.061783
5551.339821,1480.411884,-7660.954980,444.123565
5551.340146,296.082377,-8350.440928,-444.123565
5551.340470,1480.411884,-9346.365076,-592.164754
5551.340794,1702.473667,-8656.879127,-1036.288319
5551.341119,0.000000,-9422.974625,-1184.329507
5551.341443,-1036.288319,-8273.831378,-1036.288319
5551.341768,-592.164754,-9269.755526,962.267725
5551.342092,-1332.370696,-8120.612279,-444.123565
5551.342417,148.041188,-9652.803275,-148.041188
5551.342741,814.226536,-7890.783629,0.000000
5551.343066,2146.597232,-7890.783629,1036.288319
5551.343390,2294.638420,-7584.345430,148.041188
5551.343715,2886.803174,-9269.755526,-296.082377
5551.344039,2368.659014,-7967.393179,-814.226536
5551.344363,1776.494261,-8197.221829,222.061783
5551.344688,592.164754,-8656.879127,-888.247130
5551.345012,-370.102971,-9193.145976,-592.164754
5551.345337,-740.205942,-8503.660028,-518.144159
5551.345661,444.123565,-9346.365076,0.000000
5551.345986,-370.102971,-8810.098227,-148.041188
5551.346310,-518.144159,-9269.755526,370.102971
5551.346635,0.000000,-10035.851024,-1332.370696
5551.346959,-1258.350101,-9499.584175,-1702.473667
5551.347284,-962.267725,-8733.488677,-1258.350101
5551.347608,-2368.659014,-8197.221829,-1184.329507
5551.347932,-1036.288319,-9959.241474,0.000000
5551.348257,-1036.288319,-8044.002729,592.164754
5551.348581,1258.350101,-7967.393179,0.000000
5551.348906,2516.700203,-8810.098227,-740.205942
5551.349230,2442.679609,-9193.145976,74.020594
5551.349555,1628.453072,-7890.783629,-666.185348
5551.349879,2664.741391,-9269.755526,-1184.329507
5551.350204,592.164754,-8273.831378,-666.185348
5551.350528,-592.164754,-9499.584175,444.123565
5551.350853,-1406.391290,-8963.317327,-2072.576638
5551.351177,-1924.535449,-8810.098227,0.000000
5551.351502,-1850.514855,-8044.002729,-592.164754
5551.351826,148.041188,-8120.612279,-814.226536
5551.352150,518.144159,-9269.755526,370.102971
5551.352475,592.164754,-8503.660028,-518.144159
5551.352799,2738.761985,-9346.365076,-592.164754
5551.353124,296.082377,-8503.660028,-1998.556043
5551.353448,740.205942,-10112.460574,-666.185348
5551.353773,-1406.391290,-8963.317327,-814.226536
5551.354097,-2442.679609,-9039.926876,-222.061783
5551.354422,-1554.432478,-8197.221829,962.267725
5551.354746,518.144159,-7354.516781,740.205942
5551.355071,1184.329507,-8503.660028,592.164754
5551.355395,2738.761985,-8197.221829,0.000000
5551.355719,3552.988522,-8273.831378,-962.267725
5551.356044,2220.617826,-8044.002729,-592.164754
5551.356368,2960.823768,-9116.536426,-296.082377
5551.356693,1036.288319,-8427.050478,-1036.288319
5551.357017,74.020594,-8503.660028,296.082377
5551.357342,-592.164754,-7890.783629,-370.102971
5551.357666,0.000000,-9576.193725,-148.041188
5551.357991,-666.185348,-8733.488677,0.000000
5551.358315,-296.082377,-9116.536426,222.061783
5551.358640,-740.205942,-8273.831378,-1036.288319
5551.358964,0.000000,-8580.269578,296.082377
5551.359288,518.144159,-8273.831378,-740.205942
5551.359613,370.102971,-8273.831378,-444.123565
5551.359937,74.020594,-8273.831378,-148.041188
5551.360262,518.144159,-8273.831378,222.061783
5551.360586,2146.597232,-7967.393179,0.000000
5551.360911,2368.659014,-8197.221829,444.123565
5551.361235,3997.112087,-8963.317327,444.123565
5551.361560,3108.864956,-7660.954980,-444.123565
5551.361884,1998.556043,-9729.412825,0.000000
5551.362209,814.226536,-8044.002729,-740.205942
5551.362533,-1110.308913,-9193.145976,-296.082377
5551.362858,-1998.556043,-8580.269578,-222.061783
5551.363182,-1258.350101,-7814.174080,-592.164754
5551.363506,-296.082377,-8427.050478,-740.205942
5551.363831,1184.329507,-9116.536426,148.041188
5551.364155,1480.411884,-8503.660028,-1480.411884
5551.364480,1776.494261,-9806.022374,-592.164754
5551.364804,1702.473667,-9193.145976,-1184.329507
5551.365129,0.000000,-9039.926876,-740.205942
5551.365453,-1036.288319,-8810.098227,-666.185348
5551.365778,-1850.514855,-9039.926876,0.000000
5551.366102,-1998.556043,-9652.803275,-296.082377
5551.366427,-1480.411884,-8656.879127,-370.102971
5551.366751,444.123565,-8886.707777,296.082377
5551.367075,74.020594,-7890.783629,-296.082377
5551.367400,1628.453072,-8733.488677,0.000000
5551.367724,1924.535449,-8656.879127,-1036.288319
5551.368049,1406.391290,-8580.269578,-740.205942
5551.368373,1110.308913,-8580.269578,-592.164754
5551.368698,1406.391290,-9039.926876,-518.144159
5551.369022,74.020594,-8886.707777,-518.144159
5551.369347,-1702.473667,-8197.221829,-1406.391290
5551.369671,444.123565,-9806.022374,-222.061783
5551.369996,-888.247130,-8503.660028,-666.185348
5551.370320,-888.247130,-9806.022374,0.000000
5551.370644,-296.082377,-9346.365076,-814.226536
5551.370969,-1628.453072,-9116.536426,-518.144159
5551.371293,-2072.576638,-7584.345430,-962.267725
5551.371618,-1036.288319,-8273.831378,-592.164754
5551.371942,-518.144159,-8810.098227,222.061783
5551.372267,518.144159,-7967.393179,740.205942
5551.372591,2220.617826,-8120.612279,-296.082377
5551.372916,3108.864956,-8503.660028,0.000000
5551.373240,3034.844362,-8427.050478,74.020594
5551.373564,3404.947333,-8427.050478,-444.123565
5551.373889,1850.514855,-8810.098227,-222.061783
5551.374213,-814.226536,-8350.440928,-222.061783
5551.374538,-2146.597232,-8656.879127,0.000000
5551.374862,-2442.679609,-8580.269578,-518.144159
5551.375187,-1628.453072,-8120.612279,0.000000
5551.375511,-296.082377,-7277.907231,148.041188
5551.375836,592.164754,-8273.831378,0.000000
5551.376160,2442.679609,-8580.269578,-74.020594
5551.376484,2368.659014,-8503.660028,-740.205942
5551.376809,1998.556043,-9499.584175,-666.185348
5551.377133,666.185348,-8273.831378,-1036.288319
5551.377458,-370.102971,-9193.145976,0.000000
5551.377782,-1258.350101,-8886.707777,74.020594
5551.378107,-1776.494261,-9116.536426,-148.041188
5551.378431,-2368.659014,-8350.440928,74.020594
5551.378756,1036.288319,-8580.269578,592.164754
5551.379080,1480.411884,-8273.831378,0.000000
5551.379404,2738.761985,-8273.831378,0.000000
5551.379729,4293.194464,-7201.297681,-148.041188
5551.380053,3775.050304,-7814.174080,-148.041188
5551.380378,2294.638420,-8427.050478,-962.267725
5551.380702,1628.453072,-8733.488677,0.000000
5551.381027,888.247130,-8810.098227,-518.144159
5551.381351,222.061783,-8656.879127,-1628.453072
5551.381676,-148.041188,-9806.022374,-814.226536
5551.382000,-740.205942,-8273.831378,-222.061783
5551.382324,-296.082377,-9346.365076,-296.082377
5551.382649,-1332.370696,-8963.317327,-888.247130
5551.382973,-2072.576638,-9576.193725,-444.123565
5551.383298,-1036.288319,-7584.345430,-1480.411884
5551.383622,-666.185348,-8350.440928,-222.061783
5551.383947,74.020594,-8350.440928,-518.144159
5551.384271,1924.535449,-8503.660028,296.082377
5551.384596,1924.535449,-7967.393179,-518.144159
5551.384920,3256.906145,-9959.241474,222.061783
5551.385244,2960.823768,-8580.269578,-444.123565
5551.385569,2294.638420,-9346.365076,-888.247130
5551.385893,1184.329507,-8963.317327,-518.144159
5551.386218,-592.164754,-7890.783629,0.000000
5551.386542,-2368.659014,-9729.412825,222.061783
5551.386867,-2072.576638,-8197.221829,-1184.329507
5551.387191,-1554.432478,-9346.365076,74.020594
5551.387516,-1332.370696,-7737.564530,-1406.391290
5551.387840,444.123565,-9116.536426,370.102971
5551.388164,1776.494261,-7814.174080,-1036.288319
5551.388489,1850.514855,-9652.803275,-444.123565
5551.388813,1702.473667,-8886.707777,-962.267725
5551.389138,370.102971,-9193.145976,-888.247130
5551.389462,-1184.329507,-9269.755526,-222.061783
5551.389787,-2368.659014,-8656.879127,74.020594
5551.390111,-1998.556043,-9116.536426,518.144159
5551.390436,-2072.576638,-7967.393179,888.247130
5551.390760,518.144159,-8044.002729,740.205942
5551.391084,2516.700203,-7890.783629,370.102971
5551.391409,2590.720797,-8044.002729,0.000000
5551.391733,3108.864956,-8273.831378,-814.226536
5551.392058,2294.638420,-8273.831378,-296.082377
5551.392382,1036.288319,-9193.145976,-740.205942
5551.392707,148.041188,-8886.707777,-222.061783
5551.393031,-1036.288319,-8810.098227,0.000000
5551.393356,-1850.514855,-9193.145976,-814.226536
5551.393680,-1258.350101,-8886.707777,-370.102971
5551.394004,-962.267725,-9116.536426,0.000000
5551.394329,-2220.617826,-9116.536426,-74.020594
5551.394653,-888.247130,-8350.440928,0.000000
5551.394978,-962.267725,-8273.831378,-814.226536
5551.395302,444.123565,-8427.050478,-592.164754
5551.395627,-370.102971,-7660.954980,0.000000
5551.395951,1406.391290,-7890.783629,0.000000
5551.396276,1554.432478,-7507.735880,1258.350101
5551.396600,2886.803174,-8197.221829,1480.411884
5551.396924,4219.173869,-8503.660028,296.082377
5551.397249,4589.276840,-8886.707777,-296.082377
5551.397573,2368.659014,-8427.050478,-814.226536
5551.397898,2368.659014,-9346.365076,0.000000
5551.398222,-1702.473667,-8120.612279,-962.267725
5551.398547,-2368.659014,-9576.193725,1036.288319
5551.398871,-2072.576638,-6665.030833,296.082377
5551.399196,-1406.391290,-8580.269578,-296.082377
5551.399520,666.185348,-7814.174080,-518.144159
5551.399844,1480.411884,-7354.516781,-222.061783
5551.400169,1776.494261,-8810.098227,-1110.308913
5551.400493,2590.720797,-8886.707777,-740.205942
5551.400818,1554.432478,-9269.755526,-1554.432478
5551.401142,518.144159,-9422.974625,-1850.514855
5551.401467,-1036.288319,-10112.460574,74.020594
5551.401791,-3182.885551,-7354.516781,666.185348
5551.402116,-740.205942,-8656.879127,0.000000
5551.402440,-1258.350101,-8886.707777,-814.226536
5551.402764,1776.494261,-8733.488677,0.000000
5551.403089,3478.967927,-7967.393179,-222.061783
5551.403413,1480.411884,-8810.098227,-740.205942
5551.403738,2886.803174,-8503.660028,-962.267725
5551.404062,1480.411884,-7890.783629,-518.144159
5551.404387,1406.391290,-8733.488677,-962.267725
5551.404711,-518.144159,-8350.440928,-74.020594
5551.405036,0.000000,-8044.002729,-1036.288319
5551.405360,-1554.432478,-8810.098227,-222.061783
5551.405684,-296.082377,-9116.536426,-666.185348
5551.406009,444.123565,-8656.879127,0.000000
5551.406333,0.000000,-8427.050478,-814.226536
5551.406658,-518.144159,-9269.755526,0.000000
5551.406982,148.041188,-8580.269578,-1332.370696
5551.407307,-592.164754,-9193.145976,-1258.350101
5551.407631,-1110.308913,-7890.783629,0.000000
5551.407956,-666.185348,-8580.269578,-666.185348
5551.408280,740.205942,-8656.879127,296.082377
5551.408604,1924.535449,-7967.393179,148.041188
5551.408929,2220.617826,-9116.536426,-296.082377
5551.409253,2294.638420,-8656.879127,-296.082377
5551.409578,1406.391290,-8810.098227,-814.226536
5551.409902,666.185348,-8810.098227,-666.185348
5551.410227,74.020594,-8350.440928,0.000000
5551.410551,-1036.288319,-8810.098227,-370.102971
5551.410876,-2294.638420,-8503.660028,222.061783
5551.411200,-444.123565,-8580.269578,0.000000
5551.411524,-518.144159,-8350.440928,-296.082377
5551.411849,1480.411884,-8580.269578,148.041188
5551.412173,1184.329507,-8350.440928,-518.144159
5551.412498,1702.473667,-9193.145976,-444.123565
5551.412822,666.185348,-8580.269578,-444.123565
5551.413147,888.247130,-8733.488677,-740.205942
5551.413471,-1628.453072,-8427.050478,0.000000
5551.413796,-1776.494261,-8503.660028,296.082377
5551.414120,-666.185348,-8503.660028,0.000000
5551.414444,888.247130,-7814.174080,1406.391290
5551.414769,1850.514855,-7967.393179,370.102971
5551.415093,2072.576638,-7814.174080,74.020594
5551.415418,2960.823768,-8197.221829,0.000000
5551.415742,1258.350101,-8197.221829,-518.144159
5551.416067,1850.514855,-8656.879127,-148.041188
5551.416391,0.000000,-8197.221829,-592.164754
5551.416716,0.000000,-9346.365076,296.082377
5551.417040,0.000000,-8197.221829,-444.123565
5551.417364,0.000000,-8810.098227,-814.226536
5551.417689,814.226536,-8120.612279,-592.164754
5551.418013,1036.288319,-8580.269578,444.123565
5551.418338,1258.350101,-8503.660028,-1258.350101
5551.418662,740.205942,-8963.317327,0.000000
5551.418987,222.061783,-8044.002729,-888.247130
5551.419311,-518.144159,-8656.879127,-444.123565
5551.419636,-740.205942,-8044.002729,0.000000
5551.419960,888.247130,-8733.488677,296.082377
5551.420284,888.247130,-8580.269578,74.020594
5551.420609,1702.473667,-8733.488677,0.000000
5551.420933,1628.453072,-8350.440928,222.061783
5551.421258,2294.638420,-8427.050478,-666.185348
5551.421582,2072.576638,-8810.098227,-1406.391290
5551.421907,666.185348,-8810.098227,-370.102971
5551.422231,296.082377,-9039.926876,-666.185348
5551.422556,-1628.453072,-9116.536426,-1406.391290
5551.422880,-1184.329507,-8886.707777,-518.144159
5551.423204,-814.226536,-8350.440928,-888.247130
5551.423529,0.000000,-8656.879127,-592.164754
5551.423853,1480.411884,-8580.269578,-592.164754
5551.424178,2072.576638,-9116.536426,-222.061783
5551.424502,592.164754,-8733.488677,-962.267725
5551.424827,296.082377,-8810.098227,-1184.329507
5551.425151,-444.123565,-8733.488677,-1628.453072
5551.425476,-814.226536,-8580.269578,-370.102971
5551.425800,-1184.329507,-9882.631924,-296.082377
5551.426124,-666.185348,-8580.269578,518.144159
5551.426449,-740.205942,-7737.564530,962.267725
5551.426773,962.267725,-8120.612279,74.020594
5551.427098,3034.844362,-8656.879127,-814.226536
5551.427422,3256.906145,-8580.269578,222.061783
5551.427747,2368.659014,-7967.393179,-518.144159
5551.428071,444.123565,-8427.050478,-1036.288319
5551.428396,-1332.370696,-9422.974625,-592.164754
5551.428720,-1628.453072,-8810.098227,-592.164754
5551.429044,-666.185348,-8580.269578,0.000000
5551.429369,-1332.370696,-8350.440928,-370.102971
5551.429693,0.000000,-8656.879127,-370.102971
5551.430018,740.205942,-9422.974625,-222.061783
5551.430342,-74.020594,-8580.269578,-962.267725
5551.430667,148.041188,-9116.536426,518.144159
5551.430991,370.102971,-7814.174080,-518.144159
5551.431316,-1702.473667,-8656.879127,0.000000
5551.431640,0.000000,-7890.783629,-666.185348
5551.431964,0.000000,-8044.002729,592.164754
5551.432289,1776.494261,-8273.831378,370.102971
5551.432613,2516.700203,-7737.564530,444.123565
5551.432938,1924.535449,-9193.145976,814.226536
5551.433262,2072.576638,-7814.174080,-148.041188
5551.433587,1628.453072,-9269.755526,296.082377
5551.433911,518.144159,-7890.783629,-962.267725
5551.434236,-222.061783,-9346.365076,666.185348
5551.434560,-1702.473667,-8197.221829,-962.267725
5551.434884,-2738.761985,-8810.098227,0.000000
5551.435209,-1110.308913,-7967.393179,-444.123565
5551.435533,888.247130,-8044.002729,74.020594
5551.435858,2294.638420,-8503.660028,0.000000
5551.436182,2516.700203,-8427.050478,-222.061783
5551.436507,3034.844362,-8810.098227,-962.267725
5551.436831,1110.308913,-8733.488677,-888.247130
5551.437156,0.000000,-8810.098227,-1184.329507
5551.437480,-592.164754,-8733.488677,0.000000
5551.437804,-1554.432478,-8810.098227,74.020594
5551.438129,-1036.288319,-8503.660028,148.041188
5551.438453,-518.144159,-8120.612279,0.000000
5551.438778,1702.473667,-8886.707777,0.000000
5551.439102,1924.535449,-7354.516781,-1110.308913
5551.439427,1702.473667,-8733.488677,0.000000
5551.439751,1998.556043,-8044.002729,-1110.308913
5551.440076,1110.308913,-9269.755526,-814.226536
5551.440400,888.247130,-9499.584175,-592.164754
5551.440724,-370.102971,-8963.317327,-370.102971
5551.441049,-814.226536,-9346.365076,-888.247130
5551.441373,-1258.350101,-9806.022374,-296.082377
5551.441698,-1480.411884,-9193.145976,-666.185348
5551.442022,-444.123565,-9652.803275,-370.102971
5551.442347,-888.247130,-9039.926876,-1406.391290
5551.442671,-1258.350101,-8580.269578,-814.226536
5551.442996,-814.226536,-8350.440928,0.000000
5551.443320,-370.102971,-7660.954980,0.000000
5551.443644,888.247130,-8197.221829,0.000000
5551.443969,1998.556043,-7737.564530,0.000000
5551.444293,2590.720797,-8044.002729,0.000000
5551.444618,4293.194464,-8427.050478,-296.082377
5551.444942,2960.823768,-7890.783629,148.041188
5551.445267,2294.638420,-8580.269578,296.082377
5551.445591,1998.556043,-8580.269578,-1332.370696
5551.445916,222.061783,-9269.755526,-814.226536
5551.446240,-1258.350101,-8350.440928,-370.102971
5551.446564,-3923.091493,-9269.755526,-370.102971
5551.446889,-4293.194464,-8580.269578,74.020594
5551.447213,-2368.659014,-7814.174080,-296.082377
5551.447538,-592.164754,-8427.050478,148.041188
5551.447862,296.082377,-8197.221829,-1184.329507
5551.448187,1850.514855,-8656.879127,-666.185348
5551.448511,2294.638420,-8427.050478,-1258.350101
5551.448836,1702.473667,-9039.926876,-740.205942
5551.449160,148.041188,-8044.002729,-1110.308913
5551.449484,-888.247130,-8733.488677,1036.288319
5551.449809,-1036.288319,-8350.440928,148.041188
5551.450133,-1628.453072,-8503.660028,222.061783
5551.450458,222.061783,-8350.440928,1184.329507
5551.450782,1332.370696,-7507.735880,-222.061783
5551.451107,2146.597232,-8273.831378,-740.205942
5551.451431,2146.597232,-7967.393179,0.000000
5551.451756,2812.782580,-8350.440928,-740.205942
5551.452080,888.247130,-8733.488677,0.000000
5551.452404,-518.144159,-8120.612279,-296.082377
5551.452729,2146.597232,-8503.660028,-592.164754
5551.453053,148.041188,-10265.679673,-740.205942
5551.453378,962.267725,-8733.488677,-1258.350101
5551.453702,1332.370696,-8656.879127,666.185348
5551.454027,296.082377,-9039.926876,0.000000
5551.454351,444.123565,-10035.851024,-814.226536
5551.454676,-148.041188,-8273.831378,-888.247130
5551.455000,-962.267725,-9269.755526,-148.041188
5551.455324,-962.267725,-7354.516781,-370.102971
5551.455649,666.185348,-8580.269578,592.164754
5551.455973,814.226536,-7584.345430,74.020594
5551.456298,2072.576638,-8733.488677,666.185348
5551.456622,5625.565159,-8580.269578,-592.164754
5551.456947,5403.503377,-10725.336972,1036.288319
5551.457271,74.020594,-6894.859482,-1924.535449
5551.457596,2220.617826,-10801.946522,2368.659014
5551.457920,-444.123565,-6435.202183,-3256.906145
5551.458244,-444.123565,-11338.213370,1110.308913
5551.458569,-1406.391290,-8350.440928,-2294.638420
5551.458893,-3404.947333,-8963.317327,1184.329507
5551.459218,-1776.494261,-7507.735880,-1332.370696
5551.459542,0.000000,-9116.536426,518.144159
5551.459867,1184.329507,-8120.612279,-814.226536
5551.460191,2516.700203,-8580.269578,-962.267725
5551.460516,2294.638420,-9806.022374,-962.267725
5551.460840,592.164754,-7814.174080,-2590.720797
5551.461164,-1110.308913,-9729.412825,-962.267725
5551.461489,-1184.329507,-9116.536426,592.164754
5551.461813,-1480.411884,-8810.098227,-518.144159
5551.462138,-1110.308913,-8733.488677,0.000000
5551.462462,74.020594,-8044.002729,814.226536
5551.462787,1628.453072,-8580.269578,-740.205942
5551.463111,1776.494261,-8120.612279,-962.267725
5551.463436,2368.659014,-8427.050478,0.000000
5551.463760,1332.370696,-7507.735880,-1184.329507
5551.464084,666.185348,-8733.488677,-962.267725
5551.464409,222.061783,-8427.050478,-370.102971
5551.464733,-444.123565,-9039.926876,-370.102971
5551.465058,-1480.411884,-9116.536426,-1554.432478
5551.465382,0.000000,-8963.317327,-740.205942
5551.465707,0.000000,-8886.707777,296.082377
5551.466031,-962.267725,-9193.145976,-296.082377
5551.466356,0.000000,-9422.974625,-444.123565
5551.466680,-1628.453072,-7584.345430,-222.061783
5551.467004,-666.185348,-8810.098227,-592.164754
5551.467329,-1110.308913,-8120.612279,-740.205942
5551.467653,-148.041188,-9116.536426,1184.329507
5551.467978,74.020594,-7354.516781,222.061783
5551.468302,1258.350101,-8656.879127,1110.308913
5551.468627,2664.741391,-7814.174080,0.000000
5551.468951,2590.720797,-9269.755526,370.102971
5551.469276,2886.803174,-7737.564530,-592.164754
5551.469600,1702.473667,-9422.974625,370.102971
5551.469924,0.000000,-8656.879127,-888.247130
5551.470249,-666.185348,-8886.707777,222.061783
5551.470573,-1628.453072,-8044.002729,0.000000
5551.470898,-2072.576638,-8350.440928,0.000000
5551.471222,592.164754,-8044.002729,0.000000
5551.471547,1332.370696,-8044.002729,148.041188
5551.471871,2220.617826,-8656.879127,-592.164754
5551.472196,2146.597232,-8427.050478,-1184.329507
5551.472520,1998.556043,-8656.879127,-592.164754
5551.472844,740.205942,-8656.879127,-1184.329507
5551.473169,-666.185348,-8273.831378,-370.102971
5551.473493,-1850.514855,-8656.879127,370.102971
5551.473818,-1036.288319,-8427.050478,74.020594
5551.474142,-888.247130,-8427.050478,222.061783
5551.474466,2072.576638,-8197.221829,0.000000
5551.474791,2812.782580,-8197.221829,-296.082377
5551.475115,2146.597232,-8197.221829,0.000000
5551.475439,3182.885551,-8580.269578,-1184.329507
5551.475764,888.247130,-7890.783629,-814.226536
5551.476088,1258.350101,-9499.584175,-740.205942
5551.476412,296.082377,-8044.002729,-1258.350101
5551.476737,0.000000,-9193.145976,74.020594
5551.477061,-1628.453072,-8044.002729,-1480.411884
5551.477385,148.041188,-9806.022374,-592.164754
5551.477710,-370.102971,-8656.879127,-1036.288319
5551.478034,814.226536,-9652.803275,-296.082377
5551.478358,74.020594,-8503.660028,-1776.494261
5551.478683,-370.102971,-9652.803275,-592.164754
5551.479007,-148.041188,-8350.440928,-1184.329507
5551.479331,-370.102971,-8656.879127,-592.164754
5551.479655,-518.144159,-8503.660028,-444.123565
5551.479980,666.185348,-9039.926876,74.020594
5551.480304,1554.432478,-8427.050478,-296.082377
5551.480628,3108.864956,-8886.707777,148.041188
5551.480953,3182.885551,-8350.440928,-444.123565
5551.481277,2664.741391,-9269.755526,-666.185348
5551.481601,1036.288319,-8963.317327,-666.185348
5551.481926,-296.082377,-9422.974625,-814.226536
5551.482250,-1776.494261,-9422.974625,-740.205942
5551.482574,-2664.741391,-8810.098227,-740.205942
5551.482899,-2368.659014,-8580.269578,-148.041188
5551.483223,0.000000,-8273.831378,-666.185348
5551.483547,222.061783,-8733.488677,-740.205942
5551.483872,1702.473667,-8656.879127,-740.205942
5551.484196,2368.659014,-8580.269578,-740.205942
5551.484520,1036.288319,-9116.536426,-1110.308913
5551.484845,518.144159,-9729.412825,-370.102971
5551.485169,-2516.700203,-7890.783629,148.041188
5551.485493,-1184.329507,-8656.879127,296.082377
5551.485818,-1480.411884,-9269.755526,148.041188
5551.486142,-1924.535449,-8197.221829,592.164754
5551.486466,1332.370696,-7124.688131,-222.061783
5551.486791,1332.370696,-9039.926876,592.164754
5551.487115,1998.556043,-8197.221829,148.041188
5551.487439,3404.947333,-7660.954980,888.247130
5551.487764,2368.659014,-7737.564530,74.020594
5551.488088,1702.473667,-9269.755526,-148.041188
5551.488412,1036.288319,-8580.269578,-592.164754
5551.488737,-222.061783,-9269.755526,-592.164754
5551.489061,-296.082377,-8810.098227,-222.061783
5551.489385,0.000000,-8963.317327,444.123565
5551.489710,-1406.391290,-8886.707777,370.102971
5551.490034,1184.329507,-8350.440928,518.144159
5551.490358,0.000000,-7507.735880,-888.247130
5551.490683,740.205942,-8886.707777,222.061783
5551.491007,148.041188,-7354.516781,-1110.308913
5551.491331,-888.247130,-9269.755526,666.185348
5551.491656,666.185348,-8120.612279,222.061783
5551.491980,2294.638420,-7967.393179,1036.288319
5551.492304,2220.617826,-8656.879127,222.061783
5551.492628,2442.679609,-8044.002729,-592.164754
5551.492953,2294.638420,-8656.879127,0.000000
5551.493277,814.226536,-8350.440928,-1184.329507
5551.493601,962.267725,-9269.755526,-370.102971
5551.493926,-518.144159,-8580.269578,-518.144159
5551.494250,-2368.659014,-9346.365076,-370.102971
5551.494574,-1776.494261,-8503.660028,-666.185348
5551.494899,0.000000,-8810.098227,-592.164754
5551.495223,888.247130,-8580.269578,-518.144159
5551.495547,4145.153275,-8580.269578,-592.164754
5551.495872,0.000000,-8503.660028,-1110.308913
5551.496196,3997.112087,-9422.974625,-518.144159
5551.496520,518.144159,-8580.269578,-2812.782580
5551.496845,592.164754,-11184.994271,222.061783
5551.497169,-1184.329507,-7737.564530,-1184.329507
5551.497493,-3256.906145,-10342.289223,-444.123565
5551.497818,-1850.514855,-8580.269578,-592.164754
5551.498142,-1110.308913,-8810.098227,0.000000
5551.498466,-1406.391290,-8350.440928,222.061783
5551.498791,2146.597232,-7967.393179,-148.041188
5551.499115,3034.844362,-8656.879127,-666.185348
5551.499439,2516.700203,-8273.831378,-1850.514855
5551.499764,3034.844362,-8350.440928,-666.185348
5551.500088,1110.308913,-9193.145976,-1628.453072
5551.500412,518.144159,-9576.193725,0.000000
5551.500737,-296.082377,-9116.536426,-1036.288319
5551.501061,-888.247130,-9652.803275,-814.226536
5551.501385,-1036.288319,-8656.879127,-814.226536
5551.501710,-370.102971,-9269.755526,-370.102971
5551.502034,-740.205942,-9193.145976,-666.185348
5551.502358,-2146.597232,-8886.707777,-222.061783
5551.502683,-1702.473667,-8656.879127,-1406.391290
5551.503007,-1332.370696,-8810.098227,-592.164754
5551.503331,-1480.411884,-7814.174080,-148.041188
5551.503656,1036.288319,-7814.174080,666.185348
5551.503980,1480.411884,-7814.174080,0.000000
5551.504304,2368.659014,-8963.317327,666.185348
5551.504629,2738.761985,-7660.954980,-296.082377
5551.504953,3478.967927,-9422.974625,592.164754
5551.505277,1554.432478,-8427.050478,-888.247130
5551.505601,1184.329507,-8963.317327,296.082377
5551.505926,-1406.391290,-8273.831378,222.061783
5551.506250,-1924.535449,-9193.145976,74.020594
5551.506574,-2960.823768,-7737.564530,148.041188
5551.506899,-1480.411884,-8350.440928,592.164754
5551.507223,740.205942,-7890.783629,222.061783
5551.507547,1110.308913,-8273.831378,-148.041188
5551.507872,3108.864956,-8810.098227,-370.102971
5551.508196,2516.700203,-7584.345430,-740.205942
5551.508520,1850.514855,-8963.317327,-444.123565
5551.508845,888.247130,-8273.831378,-592.164754
5551.509169,-1628.453072,-9116.536426,962.267725
5551.509493,-3256.906145,-8656.879127,148.041188
5551.509818,-1554.432478,-9499.584175,222.061783
5551.510142,-518.144159,-6358.592633,1850.514855
5551.510466,592.164754,-8427.050478,-1184.329507
5551.510791,2886.803174,-8044.002729,-148.041188
5551.511115,444.123565,-7660.954980,666.185348
5551.511439,1998.556043,-7124.688131,-370.102971
5551.511764,3478.967927,-8273.831378,0.000000
5551.512088,1480.411884,-9806.022374,-1776.494261
5551.512412,1628.453072,-8656.879127,0.000000
5551.512737,74.020594,-8886.707777,-2072.576638
5551.513061,-592.164754,-10418.898773,370.102971
5551.513385,148.041188,-7890.783629,-222.061783
5551.513710,1184.329507,-9422.974625,-962.267725
5551.514034,-1776.494261,-9499.584175,-296.082377
5551.514358,-1110.308913,-7814.174080,-1258.350101
5551.514683,-1110.308913,-9116.536426,-888.247130
5551.515007,-1554.432478,-8427.050478,-1036.288319
5551.515331,-222.061783,-8197.221829,-222.061783
5551.515656,-592.164754,-8044.002729,0.000000
5551.515980,1184.329507,-8656.879127,370.102971
5551.516304,2220.617826,-9806.022374,-1036.288319
5551.516629,3478.967927,-9422.974625,-222.061783
5551.516953,2960.823768,-8656.879127,-444.123565
5551.517277,1628.453072,-8963.317327,-1406.391290
5551.517601,962.267725,-9499.584175,-518.144159
5551.517926,-666.185348,-8886.707777,-592.164754
5551.518250,-2368.659014,-9422.974625,-888.247130
5551.518574,-3404.947333,-8503.660028,-444.123565
5551.518899,-1554.432478,-8963.317327,-888.247130
5551.519223,74.020594,-8120.612279,-1332.370696
5551.519547,814.226536,-8656.879127,0.000000
5551.519872,1480.411884,-8273.831378,-1258.350101
5551.520196,2072.576638,-8963.317327,-888.247130
5551.520520,1628.453072,-8656.879127,-1850.514855
5551.520845,518.144159,-9346.365076,-1258.350101
5551.521169,-1628.453072,-7737.564530,-222.061783
5551.521493,-1036.288319,-9422.974625,370.102971
5551.521818,-962.267725,-7737.564530,-1184.329507
5551.522142,0.000000,-8810.098227,370.102971
5551.522466,222.061783,-7201.297681,0.000000
5551.522791,1924.535449,-9193.145976,222.061783
5551.523115,1776.494261,-7354.516781,-740.205942
5551.523439,2368.659014,-9039.926876,740.205942
5551.523764,1110.308913,-7048.078582,-1036.288319
5551.524088,1110.308913,-10112.460574,296.082377
5551.524412,0.000000,-7890.783629,-370.102971
5551.524737,296.082377,-9959.241474,222.061783
5551.525061,-222.061783,-7660.954980,-1036.288319
5551.525385,518.144159,-9729.412825,1036.288319
5551.525710,814.226536,-7660.954980,-740.205942
5551.526034,518.144159,-8886.707777,296.082377
5551.526358,0.000000,-8580.269578,-888.247130
5551.526683,-888.247130,-8810.098227,0.000000
5551.527007,-148.041188,-7354.516781,148.041188
5551.527331,-1332.370696,-8886.707777,1110.308913
5551.527656,0.000000,-7967.393179,0.000000
5551.527980,666.185348,-8197.221829,1110.308913
5551.528304,2072.576638,-8503.660028,0.000000
5551.528629,2442.679609,-8886.707777,0.000000
5551.528953,2664.741391,-8044.002729,0.000000
5551.529277,1924.535449,-8810.098227,148.041188
5551.529602,1776.494261,-8580.269578,-296.082377
5551.529926,0.000000,-8427.050478,296.082377
5551.530250,-444.123565,-8273.831378,-370.102971
5551.530574,-666.185348,-8656.879127,-222.061783
5551.530899,-962.267725,-8427.050478,-740.205942
5551.531223,1554.432478,-8656.879127,0.000000
5551.531547,1110.308913,-8044.002729,-888.247130
5551.531872,1406.391290,-9652.803275,0.000000
5551.532196,1110.308913,-8427.050478,-1850.514855
5551.532520,-1406.391290,-8886.707777,-370.102971
5551.532845,-1184.329507,-8350.440928,-1110.308913
5551.533169,-1480.411884,-8580.269578,0.000000
5551.533493,-962.267725,-8810.098227,0.000000
5551.533818,-296.082377,-9193.145976,74.020594
5551.534142,-814.226536,-8810.098227,0.000000
5551.534466,74.020594,-7737.564530,-444.123565
5551.534791,2294.638420,-9576.193725,0.000000
5551.535115,2294.638420,-8120.612279,-592.164754
5551.535439,1850.514855,-9039.926876,370.102971
5551.535764,666.185348,-8273.831378,-1184.329507
5551.536088,-666.185348,-10418.898773,-740.205942
5551.536412,-1184.329507,-8963.317327,-1628.453072
5551.536737,-1110.308913,-9959.241474,-740.205942
5551.537061,-518.144159,-8044.002729,-1554.432478
5551.537385,0.000000,-9193.145976,666.185348
5551.537710,74.020594,-7584.345430,-1332.370696
5551.538034,370.102971,-9652.803275,-222.061783
5551.538358,666.185348,-8350.440928,-1998.556043
5551.538683,-444.123565,-8733.488677,-592.164754
5551.539007,-1036.288319,-8427.050478,-296.082377
5551.539331,-1406.391290,-8427.050478,370.102971
5551.539656,-1184.329507,-7967.393179,-888.247130
5551.539980,222.061783,-8810.098227,222.061783
5551.540304,2368.659014,-8427.050478,-222.061783
5551.540629,1480.411884,-8427.050478,-518.144159
5551.540953,1998.556043,-8350.440928,-370.102971
5551.541277,2960.823768,-8197.221829,-222.061783
5551.541602,1850.514855,-8733.488677,0.000000
5551.541926,148.041188,-8350.440928,370.102971
5551.542250,-1258.350101,-8044.002729,-222.061783
5551.542575,-1110.308913,-8656.879127,370.102971
5551.542899,-888.247130,-8580.269578,-518.144159
5551.543223,1628.453072,-8580.269578,-666.185348
5551.543547,-296.082377,-9116.536426,148.041188
5551.543872,2294.638420,-8273.831378,-666.185348
5551.544196,148.041188,-7967.393179,-370.102971
5551.544520,148.041188,-9193.145976,0.000000
5551.544845,-740.205942,-7660.954980,-592.164754
5551.545169,-962.267725,-8886.707777,296.082377
5551.545493,0.000000,-8733.488677,740.205942
5551.545818,666.185348,-8044.002729,74.020594
5551.546142,962.267725,-8733.488677,888.247130
5551.546466,1998.556043,-7354.516781,-222.061783
5551.546791,2516.700203,-8810.098227,-296.082377
5551.547115,2072.576638,-8503.660028,-814.226536
5551.547439,2294.638420,-9652.803275,740.205942
5551.547764,814.226536,-7201.297681,-592.164754
5551.548088,518.144159,-8886.707777,0.000000
5551.548412,-740.205942,-7814.174080,-1036.288319
5551.548737,592.164754,-9422.974625,296.082377
5551.549061,0.000000,-7660.954980,-888.247130
5551.549385,1184.329507,-9039.926876,0.000000
5551.549710,888.247130,-8197.221829,-1480.411884
5551.550034,222.061783,-9806.022374,-518.144159
5551.550358,814.226536,-8427.050478,-1184.329507
5551.550683,-1036.288319,-8810.098227,-370.102971
5551.551007,-1184.329507,-8656.879127,0.000000
5551.551331,-1184.329507,-8350.440928,-222.061783
5551.551656,74.020594,-9116.536426,444.123565
5551.551980,222.061783,-7737.564530,-222.061783
5551.552304,2442.679609,-8886.707777,0.000000
5551.552629,2812.782580,-7967.393179,-518.144159
5551.552953,3404.947333,-8886.707777,222.061783
5551.553277,1850.514855,-8197.221829,-888.247130
5551.553602,1036.288319,-9499.584175,-518.144159
5551.553926,-592.164754,-9193.145976,-1036.288319
5551.554250,-1036.288319,-8656.879127,0.000000
5551.554575,-1554.432478,-8580.269578,-444.123565
5551.554899,-3330.926739,-8580.269578,-1480.411884
5551.555223,-962.267725,-9422.974625,0.000000
5551.555547,-1036.288319,-7431.126331,-1110.308913
5551.555872,814.226536,-10418.898773,0.000000
5551.556196,888.247130,-7354.516781,-1184.329507
5551.556520,444.123565,-9346.365076,-962.267725
5551.556845,0.000000,-7967.393179,-1332.370696
5551.557169,0.000000,-8963.317327,-222.061783
5551.557493,-296.082377,-9039.926876,-222.061783
5551.557818,518.144159,-8810.098227,518.144159
5551.558142,592.164754,-9346.365076,-370.102971
5551.558466,1110.308913,-8503.660028,0.000000
5551.558791,1406.391290,-7277.907231,962.267725
5551.559115,1480.411884,-7354.516781,518.144159
5551.559439,3627.009116,-8656.879127,-1480.411884
5551.559764,814.226536,-9193.145976,296.082377
5551.560088,-518.144159,-7890.783629,-1110.308913
5551.560412,0.000000,-8810.098227,296.082377
5551.560737,-518.144159,-7737.564530,-740.205942
5551.561061,666.185348,-9346.365076,444.123565
5551.561385,740.205942,-7890.783629,-1332.370696
5551.561710,444.123565,-9652.803275,0.000000
5551.562034,444.123565,-8580.269578,0.000000
5551.562358,962.267725,-8427.050478,0.000000
5551.562683,592.164754,-8886.707777,-814.226536
5551.563007,-666.185348,-8580.269578,666.185348
5551.563331,-666.185348,-8580.269578,740.205942
5551.563656,-1850.514855,-7431.126331,0.000000
5551.563980,1258.350101,-8350.440928,814.226536
5551.564304,1702.473667,-7507.735880,592.164754
5551.564629,3182.885551,-9193.145976,0.000000
5551.564953,3034.844362,-7660.954980,444.123565
5551.565277,2442.679609,-8733.488677,74.020594
5551.565602,1776.494261,-7737.564530,-962.267725
5551.565926,444.123565,-8656.879127,296.082377
5551.566250,0.000000,-8273.831378,-222.061783
5551.566575,-666.185348,-8580.269578,370.102971
5551.566899,-814.226536,-7660.954980,-1258.350101
5551.567223,148.041188,-7967.393179,444.123565
5551.567548,1036.288319,-7814.174080,-1036.288319
5551.567872,1332.370696,-9806.022374,0.000000
5551.568196,962.267725,-7584.345430,-1258.350101
5551.568520,1184.329507,-9116.536426,148.041188
5551.568845,0.000000,-7507.735880,-1036.288319
5551.569169,370.102971,-9193.145976,296.082377
5551.569493,370.102971,-8197.221829,-444.123565
5551.569818,518.144159,-9193.145976,148.041188
5551.570142,1332.370696,-8886.707777,0.000000
5551.570466,1924.535449,-8656.879127,-444.123565
5551.570791,1184.329507,-8503.660028,-740.205942
5551.571115,370.102971,-8120.612279,-814.226536
5551.571439,370.102971,-9193.145976,-592.164754
5551.571764,-962.267725,-8503.660028,-1110.308913
5551.572088,-1184.329507,-9652.803275,-518.144159
5551.572412,-2368.659014,-8427.050478,-518.144159
5551.572737,74.020594,-9576.193725,-370.102971
5551.573061,518.144159,-8733.488677,-1332.370696
5551.573385,1776.494261,-9039.926876,0.000000
5551.573710,2294.638420,-8350.440928,-1702.473667
5551.574034,1110.308913,-9729.412825,-592.164754
5551.574358,0.000000,-8656.879127,-740.205942
5551.574683,-148.041188,-9729.412825,-888.247130
5551.575007,-1702.473667,-9039.926876,-296.082377
5551.575331,-2812.782580,-8886.707777,-296.082377
5551.575655,-518.144159,-8427.050478,370.102971
5551.575980,-518.144159,-7584.345430,-148.041188
5551.576304,1036.288319,-9269.755526,-222.061783
5551.576628,1036.288319,-8733.488677,-222.061783
5551.576953,2220.617826,-8656.879127,0.000000
5551.577277,1998.556043,-7967.393179,-1332.370696
5551.577601,6217.729913,-8273.831378,666.185348
5551.577925,-888.247130,-8656.879127,-2294.638420
5551.578250,-2368.659014,-8120.612279,-740.205942
5551.578574,-3701.029710,-7890.783629,888.247130
5551.578898,-2220.617826,-7967.393179,-444.123565
5551.579222,1036.288319,-9499.584175,1036.288319
5551.579547,1480.411884,-8044.002729,-1480.411884
5551.579871,-444.123565,-9576.193725,222.061783
5551.580195,518.144159,-6818.249932,-1258.350101
5551.580520,518.144159,-9806.022374,1110.308913
5551.580844,-592.164754,-7124.688131,-962.267725
5551.581168,74.020594,-9499.584175,444.123565
5551.581492,-1924.535449,-7277.907231,0.000000
5551.581817,1036.288319,-8810.098227,1036.288319
5551.582141,2516.700203,-7967.393179,74.020594
5551.582465,2664.741391,-8886.707777,1036.288319
5551.582790,3034.844362,-9116.536426,74.020594
5551.583114,2812.782580,-8810.098227,-740.205942
5551.583438,74.020594,-8810.098227,-444.123565
5551.583762,370.102971,-8197.221829,0.000000
5551.584087,-666.185348,-8427.050478,444.123565
5551.584411,-1924.535449,-8350.440928,-1036.288319
5551.584735,962.267725,-8197.221829,74.020594
5551.585059,74.020594,-7584.345430,-962.267725
5551.585384,1110.308913,-9116.536426,74.020594
5551.585708,2886.803174,-8963.317327,296.082377
5551.586032,2812.782580,-9652.803275,-222.061783
5551.586357,2516.700203,-8197.221829,-1110.308913
5551.586681,1776.494261,-9652.803275,-518.144159
5551.587005,-518.144159,-9193.145976,222.061783
5551.587329,-518.144159,-8120.612279,0.000000
5551.587654,-1554.432478,-8350.440928,-592.164754
5551.587978,-962.267725,-8503.660028,518.144159
5551.588302,888.247130,-7890.783629,-222.061783
5551.588626,666.185348,-8580.269578,-962.267725
5551.588951,1184.329507,-8580.269578,-666.185348
5551.589275,2886.803174,-7967.393179,-1036.288319
5551.589599,1924.535449,-8427.050478,-814.226536
5551.589924,666.185348,-8503.660028,-370.102971
5551.590248,-148.041188,-8886.707777,-1184.329507
5551.590572,-814.226536,-9346.365076,-740.205942
5551.590896,-1258.350101,-8427.050478,-1554.432478
5551.591221,444.123565,-9806.022374,0.000000
5551.591545,-222.061783,-7584.345430,-2072.576638
5551.591869,444.123565,-9806.022374,-296.082377
5551.592194,222.061783,-8044.002729,-1554.432478
5551.592518,-222.061783,-9576.193725,0.000000
5551.592842,-444.123565,-8580.269578,-1036.288319
5551.593166,-666.185348,-9576.193725,518.144159
5551.593491,-370.102971,-8197.221829,-814.226536
5551.593815,518.144159,-9193.145976,-148.041188
5551.594139,1406.391290,-9193.145976,-814.226536
5551.594463,2146.597232,-8886.707777,0.000000
5551.594788,1480.411884,-9346.365076,-1332.370696
5551.595112,2368.659014,-8886.707777,-518.144159
5551.595436,74.020594,-8503.660028,-666.185348
5551.595761,-962.267725,-8733.488677,-518.144159
5551.596085,-1554.432478,-8427.050478,-148.041188
5551.596409,-1702.473667,-8350.440928,0.000000
5551.596733,-444.123565,-8503.660028,-814.226536
5551.597058,1480.411884,-8427.050478,-222.061783
5551.597382,1850.514855,-8810.098227,-814.226536
5551.597706,2294.638420,-8886.707777,-296.082377
5551.598031,1554.432478,-9269.755526,-370.102971
5551.598355,-222.061783,-8963.317327,-888.247130
5551.598679,0.000000,-8503.660028,-370.102971
5551.599003,-1332.370696,-9193.145976,296.082377
5551.599328,-2516.700203,-8427.050478,0.000000
5551.599652,-1036.288319,-8273.831378,888.247130
5551.599976,-444.123565,-8044.002729,296.082377
5551.600300,1628.453072,-8197.221829,962.267725
5551.600625,2442.679609,-7354.516781,0.000000
5551.600949,3552.988522,-8044.002729,222.061783
5551.601273,1924.535449,-7431.126331,370.102971
5551.601598,2072.576638,-8427.050478,74.020594
5551.601922,592.164754,-8810.098227,-296.082377
5551.602246,0.000000,-8273.831378,296.082377
5551.602570,-962.267725,-9269.755526,-370.102971
5551.602895,-666.185348,-7967.393179,74.020594
5551.603219,370.102971,-8273.831378,962.267725
5551.603543,148.041188,-8044.002729,0.000000
5551.603868,1480.411884,-9193.145976,74.020594
5551.604192,592.164754,-7277.907231,-666.185348
5551.604516,888.247130,-9346.365076,-222.061783
5551.604840,-222.061783,-7584.345430,-1110.308913
5551.605165,-444.123565,-9882.631924,888.247130
5551.605489,-1332.370696,-6511.811733,-222.061783
5551.605813,814.226536,-8886.707777,444.123565
5551.606137,1332.370696,-8886.707777,-666.185348
5551.606462,2146.597232,-8580.269578,-518.144159
5551.606786,2590.720797,-8273.831378,-814.226536
5551.607110,1628.453072,-9039.926876,74.020594
5551.607435,1184.329507,-8120.612279,-814.226536
5551.607759,296.082377,-8427.050478,-222.061783
5551.608083,-296.082377,-8963.317327,-444.123565
5551.608407,-1332.370696,-8580.269578,-1184.329507
5551.608732,0.000000,-8733.488677,-1258.350101
5551.609056,1110.308913,-8427.050478,-666.185348
5551.609380,1406.391290,-9729.412825,-1406.391290
5551.609705,592.164754,-8733.488677,-740.205942
5551.610029,0.000000,-9499.584175,0.000000
5551.610353,-1258.350101,-8886.707777,-1480.411884
5551.610677,-74.020594,-9882.631924,-666.185348
5551.611002,-1776.494261,-8656.879127,-666.185348
5551.611326,-1258.350101,-8427.050478,-592.164754
5551.611650,-370.102971,-8656.879127,-518.144159
5551.611974,74.020594,-8733.488677,0.000000
5551.612299,1702.473667,-8273.831378,0.000000
5551.612623,1998.556043,-8580.269578,-666.185348
5551.612947,2368.659014,-8886.707777,-296.082377
5551.613272,2294.638420,-8580.269578,-814.226536
5551.613596,814.226536,-8580.269578,-888.247130
5551.613920,-666.185348,-9576.193725,-148.041188
5551.614244,-1628.453072,-8580.269578,-296.082377
5551.614569,-1480.411884,-9269.755526,0.000000
5551.614893,0.000000,-8810.098227,-740.205942
5551.615217,74.020594,-8273.831378,-740.205942
5551.615542,1036.288319,-8656.879127,-518.144159
5551.615866,1184.329507,-8197.221829,-814.226536
5551.616190,1110.308913,-8963.317327,-148.041188
5551.616514,1184.329507,-8733.488677,-370.102971
5551.616839,-888.247130,-8733.488677,-222.061783
5551.617163,-1110.308913,-8733.488677,370.102971
5551.617487,-518.144159,-7967.393179,518.144159
5551.617811,518.144159,-8120.612279,-222.061783
5551.618136,740.205942,-8963.317327,222.061783
5551.618460,1702.473667,-8120.612279,518.144159
5551.618784,740.205942,-8503.660028,-148.041188
5551.619109,148.041188,-8197.221829,0.000000
5551.619433,1702.473667,-8656.879127,592.164754
5551.619757,0.000000,-7354.516781,0.000000
5551.620081,0.000000,-8963.317327,592.164754
5551.620406,444.123565,-7354.516781,222.061783
5551.620730,1702.473667,-8427.050478,296.082377
5551.621054,2442.679609,-7354.516781,-222.061783
5551.621379,3108.864956,-9116.536426,222.061783
5551.621703,2368.659014,-8350.440928,-666.185348
5551.622027,1036.288319,-8810.098227,-370.102971
5551.622351,-666.185348,-8580.269578,-1184.329507
5551.622676,-2072.576638,-9039.926876,592.164754
5551.623000,-3182.885551,-7584.345430,296.082377
5551.623324,-2368.659014,-9193.145976,148.041188
5551.623648,-592.164754,-8427.050478,0.000000
5551.623973,1332.370696,-8656.879127,0.000000
5551.624297,2812.782580,-8810.098227,-518.144159
5551.624621,3627.009116,-7660.954980,-888.247130
5551.624946,2886.803174,-8656.879127,-370.102971
5551.625270,2294.638420,-7967.393179,-518.144159
5551.625594,148.041188,-8886.707777,-592.164754
5551.625918,74.020594,-8810.098227,-666.185348
5551.626243,-518.144159,-8733.488677,-296.082377
5551.626567,-888.247130,-8503.660028,-518.144159
5551.626891,148.041188,-9499.584175,-740.205942
5551.627216,-148.041188,-8656.879127,-296.082377
5551.627540,888.247130,-9346.365076,-592.164754
5551.627864,1850.514855,-9576.193725,-1258.350101
5551.628188,148.041188,-7277.907231,-1332.370696
5551.628513,222.061783,-8580.269578,0.000000
5551.628837,592.164754,-8886.707777,-1258.350101
5551.629161,-666.185348,-9959.241474,444.123565
5551.629485,-740.205942,-6741.640382,74.020594
5551.629810,666.185348,-9422.974625,-666.185348
5551.630134,1554.432478,-8886.707777,-1110.308913
5551.630458,1998.556043,-9806.022374,-592.164754
5551.630783,1110.308913,-8580.269578,-1184.329507
5551.631107,1036.288319,-9116.536426,-592.164754
5551.631431,-518.144159,-8197.221829,-296.082377
5551.631755,-666.185348,-8197.221829,-444.123565
5551.632080,-296.082377,-8427.050478,-1406.391290
5551.632404,2220.617826,-10189.070123,74.020594
5551.632728,518.144159,-6818.249932,-2590.720797
5551.633053,0.000000,-10112.460574,1702.473667
5551.633377,666.185348,-6511.811733,-2368.659014
5551.633701,1776.494261,-9499.584175,222.061783
5551.634025,2368.659014,-9116.536426,-814.226536
5551.634350,-1258.350101,-8810.098227,-740.205942
5551.634674,-1332.370696,-8197.221829,370.102971
5551.634998,-1850.514855,-8886.707777,0.000000
5551.635322,-1036.288319,-9039.926876,-296.082377
5551.635647,-592.164754,-8580.269578,-444.123565
5551.635971,592.164754,-7890.783629,1036.288319
5551.636295,1480.411884,-8120.612279,-518.144159
5551.636620,2368.659014,-8044.002729,-296.082377
5551.636944,4071.132681,-8733.488677,518.144159
5551.637268,2442.679609,-7737.564530,-1184.329507
5551.637592,1406.391290,-9422.974625,0.000000
5551.637917,-370.102971,-8120.612279,740.205942
5551.638241,-370.102971,-8503.660028,740.205942
5551.638565,-222.061783,-7967.393179,-518.144159
5551.638890,0.000000,-9729.412825,-222.061783
5551.639214,1036.288319,-7890.783629,-222.061783
5551.639538,444.123565,-7737.564530,-740.205942
5551.639862,0.000000,-8350.440928,-148.041188
5551.640187,0.000000,-8044.002729,-296.082377
5551.640511,148.041188,-8886.707777,0.000000
5551.640835,-962.267725,-7967.393179,222.061783
5551.641159,0.000000,-8350.440928,296.082377
5551.641484,1258.350101,-8656.879127,-148.041188
5551.641808,1776.494261,-9039.926876,-444.123565
5551.642132,2590.720797,-7507.735880,-370.102971
5551.642457,2294.638420,-8733.488677,296.082377
5551.642781,814.226536,-8197.221829,-148.041188
5551.643105,1480.411884,-9116.536426,148.041188
5551.643429,518.144159,-8273.831378,-666.185348
5551.643754,222.061783,-8580.269578,-518.144159
5551.644078,-1554.432478,-8580.269578,-1110.308913
5551.644402,-740.205942,-8656.879127,-222.061783
5551.644726,-888.247130,-8120.612279,-444.123565
5551.645051,444.123565,-8427.050478,148.041188
5551.645375,1480.411884,-8580.269578,-666.185348
5551.645699,1480.411884,-9269.755526,-1332.370696
5551.646024,1776.494261,-9499.584175,-1406.391290
5551.646348,1258.350101,-8656.879127,-1480.411884
5551.646672,-666.185348,-9346.365076,-222.061783
5551.646996,-2738.761985,-8503.660028,-148.041188
5551.647321,-2072.576638,-8733.488677,-222.061783
5551.647645,-814.226536,-8580.269578,-296.082377
5551.647969,1406.391290,-8580.269578,-222.061783
5551.648294,1850.514855,-8656.879127,-666.185348
5551.648618,1924.535449,-8503.660028,-592.164754
5551.648942,2664.741391,-8580.269578,-1332.370696
5551.649266,1924.535449,-8810.098227,-296.082377
5551.649591,444.123565,-8886.707777,-740.205942
5551.649915,-1332.370696,-8580.269578,-444.123565
5551.650239,-1850.514855,-9499.584175,-148.041188
5551.650563,-296.082377,-8810.098227,-592.164754
5551.650888,0.000000,-9499.584175,-740.205942
5551.651212,148.041188,-8503.660028,-1036.288319
5551.651536,0.000000,-8656.879127,-370.102971
5551.651861,666.185348,-8580.269578,-444.123565
5551.652185,296.082377,-8273.831378,-148.041188
5551.652509,0.000000,-8503.660028,-518.144159
5551.652833,-740.205942,-8503.660028,74.020594
5551.653158,0.000000,-8197.221829,444.123565
5551.653482,1480.411884,-8197.221829,0.000000
5551.653806,1480.411884,-8503.660028,-296.082377
5551.654131,1480.411884,-8427.050478,296.082377
5551.654455,2146.597232,-8350.440928,-148.041188
5551.654779,740.205942,-8427.050478,-518.144159
5551.655103,814.226536,-8503.660028,-518.144159
5551.655428,296.082377,-7890.783629,74.020594
5551.655752,-1110.308913,-8120.612279,0.000000
5551.656076,-1554.432478,-7737.564530,-666.185348
5551.656400,0.000000,-8503.660028,0.000000
5551.656725,74.020594,-8120.612279,-592.164754
5551.657049,1998.556043,-8810.098227,0.000000
5551.657373,2738.761985,-8197.221829,-222.061783
5551.657698,2812.782580,-8580.269578,-666.185348
5551.658022,1480.411884,-8963.317327,-666.185348
5551.658346,0.000000,-8503.660028,-296.082377
5551.658670,-962.267725,-8656.879127,592.164754
5551.658995,-1998.556043,-8580.269578,296.082377
5551.659319,-666.185348,-8580.269578,0.000000
5551.659643,-444.123565,-7660.954980,222.061783
5551.659968,814.226536,-7890.783629,-518.144159
5551.660292,1998.556043,-8733.488677,-1036.288319
5551.660616,1332.370696,-9959.241474,74.020594
5551.660940,1776.494261,-7584.345430,592.164754
5551.661265,1924.535449,-7660.954980,-2368.659014
5551.661589,222.061783,-11874.480219,444.123565
5551.661913,962.267725,-7584.345430,-888.247130
5551.662237,370.102971,-9576.193725,-296.082377
5551.662562,-1406.391290,-7814.174080,-1554.432478
5551.662886,296.082377,-9499.584175,296.082377
5551.663210,0.000000,-7890.783629,-1110.308913
5551.663535,0.000000,-9806.022374,0.000000
5551.663859,962.267725,-8197.221829,-962.267725
5551.664183,370.102971,-8810.098227,-888.247130
5551.664507,-592.164754,-8580.269578,-1110.308913
5551.664832,-962.267725,-9422.974625,-74.020594
5551.665156,518.144159,-8580.269578,0.000000
5551.665480,222.061783,-8656.879127,148.041188
5551.665805,592.164754,-9116.536426,0.000000
5551.666129,1480.411884,-8810.098227,-296.082377
5551.666453,1406.391290,-8503.660028,-962.267725
5551.666777,1998.556043,-9576.193725,-666.185348
5551.667102,1184.329507,-8273.831378,-888.247130
5551.667426,-148.041188,-8733.488677,-222.061783
5551.667750,-1480.411884,-7584.345430,-1184.329507
5551.668074,-1332.370696,-9193.145976,0.000000
5551.668399,-1702.473667,-7967.393179,-592.164754
5551.668723,666.185348,-9039.926876,-666.185348
5551.669047,1036.288319,-9116.536426,-814.226536
5551.669372,1850.514855,-8656.879127,-444.123565
5551.669696,2072.576638,-8503.660028,-740.205942
5551.670020,666.185348,-9269.755526,-1332.370696
5551.670344,0.000000,-9422.974625,-666.185348
5551.670669,-1554.432478,-8503.660028,296.082377
5551.670993,-2886.803174,-8580.269578,74.020594
5551.671317,-2516.700203,-8963.317327,444.123565
5551.671642,-2664.741391,-7507.735880,592.164754
5551.671966,-296.082377,-8273.831378,666.185348
5551.672290,1480.411884,-8273.831378,-370.102971
5551.672614,1406.391290,-8197.221829,-296.082377
5551.672939,2664.741391,-8427.050478,-518.144159
5551.673263,2294.638420,-7431.126331,-1332.370696
5551.673587,1554.432478,-9193.145976,-296.082377
5551.673911,1036.288319,-7584.345430,-148.041188
5551.674236,444.123565,-8810.098227,814.226536
5551.674560,-148.041188,-8273.831378,518.144159
5551.674884,-592.164754,-8350.440928,148.041188
5551.675209,1406.391290,-8427.050478,148.041188
5551.675533,740.205942,-8427.050478,0.000000
5551.675858,0.000000,-8580.269578,74.020594
5551.676182,1036.288319,-7201.297681,-740.205942
5551.676506,-1702.473667,-8427.050478,-370.102971
5551.676831,-148.041188,-8044.002729,-296.082377
5551.677155,-444.123565,-8197.221829,1036.288319
5551.677479,370.102971,-8044.002729,296.082377
5551.677804,888.247130,-8580.269578,370.102971
5551.678128,3775.050304,-8197.221829,-370.102971
5551.678453,3256.906145,-8963.317327,-296.082377
5551.678777,3108.864956,-8427.050478,-1258.350101
5551.679101,1110.308913,-8197.221829,-296.082377
5551.679426,814.226536,-8273.831378,-740.205942
5551.679750,-148.041188,-8273.831378,-888.247130
5551.680074,-1036.288319,-9346.365076,592.164754
5551.680399,148.041188,-7584.345430,-518.144159
5551.680723,1776.494261,-9499.584175,-518.144159
5551.681048,1332.370696,-8427.050478,-1776.494261
5551.681372,2516.700203,-9346.365076,-592.164754
5551.681696,1480.411884,-8350.440928,-1480.411884
5551.682021,962.267725,-9729.412825,-1184.329507
5551.682345,592.164754,-9193.145976,-1036.288319
5551.682669,-370.102971,-9806.022374,-148.041188
5551.682994,-1110.308913,-9193.145976,-1036.288319
5551.683318,-1110.308913,-8580.269578,296.082377
5551.683643,518.144159,-8810.098227,0.000000
5551.683967,-518.144159,-8273.831378,-444.123565
5551.684291,1258.350101,-9116.536426,-592.164754
5551.684616,148.041188,-8580.269578,0.000000
5551.684940,1702.473667,-9116.536426,-1702.473667
5551.685264,1554.432478,-8580.269578,-1850.514855
5551.685589,1036.288319,-9422.974625,-1406.391290
5551.685913,-222.061783,-9193.145976,0.000000
5551.686238,-222.061783,-8733.488677,-518.144159
5551.686562,-296.082377,-9652.803275,74.020594
5551.686886,740.205942,-8350.440928,-518.144159
5551.687211,1110.308913,-9269.755526,-592.164754
5551.687535,962.267725,-9116.536426,-666.185348
5551.687859,74.020594,-8810.098227,-740.205942
5551.688184,-740.205942,-8580.269578,-962.267725
5551.688508,-2220.617826,-8963.317327,-148.041188
5551.688833,-2072.576638,-7890.783629,444.123565
5551.689157,-1776.494261,-7967.393179,666.185348
5551.689481,666.185348,-7890.783629,592.164754
5551.689806,1850.514855,-8580.269578,296.082377
5551.690130,3108.864956,-8503.660028,148.041188
5551.690454,1628.453072,-7201.297681,0.000000
5551.690779,1702.473667,-8656.879127,0.000000
5551.691103,0.000000,-8273.831378,-74.020594
5551.691428,0.000000,-8503.660028,74.020594
5551.691752,-1924.535449,-8656.879127,148.041188
5551.692076,-1406.391290,-7890.783629,0.000000
5551.692401,-222.061783,-8120.612279,370.102971
5551.692725,-74.020594,-8120.612279,370.102971
5551.693049,1332.370696,-8273.831378,370.102971
5551.693374,1628.453072,-8197.221829,-222.061783
5551.693698,2368.659014,-8350.440928,-296.082377
5551.694023,1554.432478,-7814.174080,-962.267725
5551.694347,0.000000,-8273.831378,-888.247130
5551.694671,-1332.370696,-8503.660028,888.247130
5551.694996,-814.226536,-7584.345430,222.061783
5551.695320,0.000000,-9116.536426,1184.329507
5551.695644,-148.041188,-7967.393179,148.041188
5551.695969,1184.329507,-9039.926876,1036.288319
5551.696293,1924.535449,-8120.612279,-370.102971
5551.696618,1776.494261,-8120.612279,0.000000
5551.696942,2442.679609,-8580.269578,-1036.288319
5551.697266,1110.308913,-7584.345430,-666.185348
5551.697591,1110.308913,-9116.536426,-370.102971
5551.697915,-962.267725,-8197.221829,-814.226536
5551.698239,0.000000,-9269.755526,148.041188
5551.698564,-148.041188,-8427.050478,-370.102971
5551.698888,2368.659014,-9499.584175,-222.061783
5551.699213,1332.370696,-8427.050478,-888.247130
5551.699537,1110.308913,-9499.584175,-370.102971
5551.699861,740.205942,-8656.879127,-1998.556043
5551.700186,-962.267725,-9806.022374,0.000000
5551.700510,148.041188,-8503.660028,-1702.473667
5551.700834,-888.247130,-9116.536426,370.102971
5551.701159,-888.247130,-7814.174080,-666.185348
5551.701483,1258.350101,-9269.755526,-296.082377
5551.701808,1110.308913,-7660.954980,-1110.308913
5551.702132,2960.823768,-9652.803275,370.102971
5551.702456,2960.823768,-7890.783629,-1480.411884
5551.702781,2516.700203,-9652.803275,-518.144159
5551.703105,1850.514855,-8120.612279,-1702.473667
5551.703429,814.226536,-9346.365076,-444.123565
5551.703754,-1480.411884,-8044.002729,-1480.411884
5551.704078,-1036.288319,-9193.145976,-370.102971
5551.704403,-740.205942,-8656.879127,-888.247130
5551.704727,-592.164754,-8580.269578,-518.144159
5551.705051,1406.391290,-8733.488677,-740.205942
5551.705376,1628.453072,-8503.660028,-518.144159
5551.705700,1258.350101,-8810.098227,-518.144159
5551.706024,1406.391290,-8656.879127,-1184.329507
5551.706349,-74.020594,-9729.412825,-740.205942
5551.706673,-592.164754,-8886.707777,74.020594
5551.706998,-1554.432478,-8580.269578,148.041188
5551.707322,-74.020594,-9039.926876,370.102971
5551.707646,-814.226536,-8886.707777,740.205942
5551.707971,740.205942,-7890.783629,296.082377
5551.708295,1110.308913,-7967.393179,0.000000
5551.708619,1332.370696,-8197.221829,74.020594
5551.708944,888.247130,-8503.660028,-296.082377
5551.709268,518.144159,-8044.002729,-592.164754
5551.709593,0.000000,-8503.660028,592.164754
5551.709917,-296.082377,-7507.735880,-222.061783
5551.710241,0.000000,-8886.707777,0.000000
5551.710566,0.000000,-8350.440928,444.123565
5551.710890,1110.308913,-8733.488677,296.082377
5551.711214,444.123565,-7737.564530,-148.041188
5551.711539,1776.494261,-9422.974625,962.267725
5551.711863,-296.082377,-7354.516781,-518.144159
5551.712188,-296.082377,-8963.317327,296.082377
5551.712512,74.020594,-8350.440928,0.000000
5551.712836,-1480.411884,-8580.269578,74.020594
5551.713161,-370.102971,-7507.735880,-296.082377
